gyrox1,gyroy1,gyroz1,accelx1,accely1,accelz1,Time
0.8244274809160306,0.7938931297709924,-1.1908396946564885,-0.07421875,-0.033935546875,-0.609130859375,0.0
1.0076335877862594,0.7175572519083969,-1.5877862595419847,-0.071533203125,-0.02587890625,-0.60009765625,0.0017
0.9923664122137404,0.6106870229007634,-1.3893129770992367,-0.066162109375,-0.026123046875,-0.60009765625,0.0034
1.083969465648855,0.5648854961832062,-1.282442748091603,-0.064697265625,-0.025146484375,-0.60009765625,0.0050999999999999995
0.9923664122137404,0.48854961832061067,-1.3435114503816794,-0.06640625,-0.032958984375,-0.60009765625,0.0068
1.0381679389312977,0.3511450381679389,-1.3740458015267176,-0.06689453125,-0.030517578125,-0.603515625,0.008499999999999999
0.9007633587786259,0.5190839694656488,-1.3587786259541985,-0.06982421875,-0.029052734375,-0.60302734375,0.010199999999999999
1.2061068702290076,0.5954198473282443,-1.3587786259541985,-0.06640625,-0.033447265625,-0.597412109375,0.011899999999999999
1.251908396946565,0.4732824427480916,-1.4198473282442747,-0.07080078125,-0.028076171875,-0.60595703125,0.0136
1.2671755725190839,0.5038167938931297,-1.450381679389313,-0.07421875,-0.030029296875,-0.60498046875,0.0153
1.1145038167938932,0.5190839694656488,-1.1755725190839694,-0.0732421875,-0.024169921875,-0.595947265625,0.016999999999999998
1.099236641221374,0.5190839694656488,-1.1908396946564885,-0.06982421875,-0.03076171875,-0.592529296875,0.018699999999999998
1.251908396946565,0.549618320610687,-1.0534351145038168,-0.06982421875,-0.031005859375,-0.59033203125,0.020399999999999998
1.3282442748091603,0.5648854961832062,-1.1450381679389312,-0.068115234375,-0.02685546875,-0.59716796875,0.022099999999999998
1.0534351145038168,0.5343511450381679,-1.1755725190839694,-0.06982421875,-0.0244140625,-0.59716796875,0.023799999999999998
1.2213740458015268,0.3969465648854962,-1.2213740458015268,-0.068359375,-0.033447265625,-0.59619140625,0.0255
1.1908396946564885,0.42748091603053434,-0.9770992366412213,-0.068115234375,-0.0283203125,-0.591552734375,0.0272
1.2061068702290076,0.5801526717557252,-1.1603053435114503,-0.067138671875,-0.026611328125,-0.604248046875,0.0289
0.732824427480916,0.6106870229007634,-1.099236641221374,-0.070068359375,-0.027099609375,-0.59521484375,0.0306
0.8091603053435115,0.5038167938931297,-1.1297709923664123,-0.075439453125,-0.03173828125,-0.607666015625,0.032299999999999995
1.0076335877862594,0.6412213740458015,-0.9312977099236641,-0.0751953125,-0.03125,-0.600341796875,0.033999999999999996
1.0229007633587786,0.7938931297709924,-0.9770992366412213,-0.07958984375,-0.02783203125,-0.595458984375,0.035699999999999996
0.9312977099236641,0.7938931297709924,-0.9618320610687023,-0.079345703125,-0.0302734375,-0.598876953125,0.037399999999999996
0.9007633587786259,0.9007633587786259,-1.0534351145038168,-0.070556640625,-0.02783203125,-0.600341796875,0.039099999999999996
0.9312977099236641,0.9312977099236641,-0.8244274809160306,-0.076904296875,-0.033447265625,-0.607666015625,0.040799999999999996
1.0229007633587786,0.7938931297709924,-1.083969465648855,-0.069580078125,-0.029541015625,-0.59619140625,0.042499999999999996
0.9770992366412213,1.1145038167938932,-1.0076335877862594,-0.0712890625,-0.02734375,-0.5986328125,0.044199999999999996
1.1908396946564885,0.9618320610687023,-1.083969465648855,-0.07568359375,-0.0322265625,-0.59375,0.045899999999999996
1.0534351145038168,1.2671755725190839,-1.0381679389312977,-0.074462890625,-0.0302734375,-0.606689453125,0.047599999999999996
1.1908396946564885,1.2213740458015268,-0.8854961832061069,-0.078125,-0.026611328125,-0.61328125,0.0493
1.0381679389312977,1.251908396946565,-0.7633587786259542,-0.080078125,-0.0283203125,-0.60986328125,0.051
0.9770992366412213,1.618320610687023,-1.1755725190839694,-0.077880859375,-0.03173828125,-0.59521484375,0.0527
0.9923664122137404,1.7404580152671756,-1.099236641221374,-0.076171875,-0.0283203125,-0.60205078125,0.0544
0.7938931297709924,1.4809160305343512,-0.8702290076335878,-0.07373046875,-0.031494140625,-0.60693359375,0.0561
0.732824427480916,1.7557251908396947,-0.7938931297709924,-0.07958984375,-0.025146484375,-0.609130859375,0.0578
0.8396946564885496,1.816793893129771,-0.7786259541984732,-0.0771484375,-0.02734375,-0.6015625,0.0595
0.8244274809160306,1.8778625954198473,-0.8244274809160306,-0.0732421875,-0.02783203125,-0.6064453125,0.0612
0.7786259541984732,1.9541984732824427,-0.9618320610687023,-0.07861328125,-0.029541015625,-0.60498046875,0.0629
0.549618320610687,2.045801526717557,-0.7938931297709924,-0.07861328125,-0.030517578125,-0.5986328125,0.06459999999999999
0.732824427480916,2.030534351145038,-0.732824427480916,-0.07568359375,-0.035400390625,-0.60009765625,0.0663
0.8702290076335878,2.2900763358778624,-0.7786259541984732,-0.078125,-0.02734375,-0.60888671875,0.06799999999999999
0.9770992366412213,2.2595419847328246,-0.7938931297709924,-0.073486328125,-0.029052734375,-0.603271484375,0.0697
0.9923664122137404,2.3053435114503817,-0.732824427480916,-0.07177734375,-0.02392578125,-0.60546875,0.07139999999999999
0.916030534351145,2.33587786259542,-0.4732824427480916,-0.0712890625,-0.03076171875,-0.602783203125,0.0731
1.1297709923664123,2.3053435114503817,-0.5801526717557252,-0.068115234375,-0.03564453125,-0.605224609375,0.07479999999999999
1.0381679389312977,2.3206106870229006,-0.5038167938931297,-0.072509765625,-0.033203125,-0.59716796875,0.0765
1.1145038167938932,2.5343511450381677,-0.5801526717557252,-0.075439453125,-0.02978515625,-0.59716796875,0.07819999999999999
1.1603053435114503,2.4732824427480917,-0.44274809160305345,-0.076416015625,-0.025390625,-0.606201171875,0.0799
1.4809160305343512,2.4885496183206106,-0.5954198473282443,-0.075439453125,-0.0341796875,-0.60107421875,0.08159999999999999
1.3893129770992367,2.4885496183206106,-0.549618320610687,-0.074462890625,-0.03369140625,-0.6005859375,0.0833
1.2671755725190839,2.4580152671755724,-0.48854961832061067,-0.068115234375,-0.0322265625,-0.59716796875,0.08499999999999999
1.3740458015267176,2.564885496183206,-0.5343511450381679,-0.07275390625,-0.033203125,-0.599609375,0.0867
1.5267175572519085,2.5343511450381677,-0.4580152671755725,-0.0732421875,-0.031982421875,-0.60791015625,0.08839999999999999
1.4961832061068703,2.519083969465649,-0.33587786259541985,-0.0712890625,-0.029296875,-0.601806640625,0.0901
1.5877862595419847,2.6106870229007635,-0.4122137404580153,-0.0712890625,-0.024169921875,-0.602294921875,0.09179999999999999
1.7099236641221374,2.687022900763359,-0.5190839694656488,-0.07470703125,-0.029541015625,-0.599609375,0.0935
1.83206106870229,2.50381679389313,-0.3053435114503817,-0.077392578125,-0.03076171875,-0.59716796875,0.09519999999999999
1.83206106870229,2.4885496183206106,-0.3816793893129771,-0.0732421875,-0.0263671875,-0.5966796875,0.0969
1.5572519083969465,2.50381679389313,-0.549618320610687,-0.076171875,-0.024658203125,-0.591796875,0.0986
1.786259541984733,2.6106870229007635,-0.5038167938931297,-0.070068359375,-0.0283203125,-0.600830078125,0.1003
1.9083969465648856,2.595419847328244,-0.5801526717557252,-0.069091796875,-0.02880859375,-0.59521484375,0.102
1.6030534351145038,2.519083969465649,-0.5038167938931297,-0.07373046875,-0.02587890625,-0.59521484375,0.1037
1.6488549618320612,2.6564885496183206,-0.5038167938931297,-0.070556640625,-0.028076171875,-0.595947265625,0.1054
1.8473282442748091,2.5343511450381677,-0.42748091603053434,-0.0732421875,-0.026123046875,-0.608642578125,0.1071
1.7404580152671756,2.4732824427480917,-0.33587786259541985,-0.0693359375,-0.030517578125,-0.605712890625,0.1088
1.6030534351145038,2.4427480916030535,-0.4122137404580153,-0.07373046875,-0.02783203125,-0.6015625,0.11049999999999999
1.7557251908396947,2.427480916030534,-0.44274809160305345,-0.072265625,-0.0341796875,-0.599609375,0.1122
1.6946564885496183,2.5343511450381677,-0.6564885496183206,-0.06884765625,-0.031494140625,-0.598876953125,0.11389999999999999
1.7709923664122138,2.33587786259542,-0.6106870229007634,-0.07373046875,-0.02783203125,-0.608154296875,0.1156
1.8778625954198473,2.3053435114503817,-0.6106870229007634,-0.067626953125,-0.02783203125,-0.604248046875,0.11729999999999999
1.8778625954198473,2.2595419847328246,-0.7175572519083969,-0.070556640625,-0.03076171875,-0.608642578125,0.119
1.5725190839694656,2.3206106870229006,-0.42748091603053434,-0.06787109375,-0.03466796875,-0.603759765625,0.12069999999999999
1.8931297709923665,2.4122137404580153,-0.5801526717557252,-0.06982421875,-0.03076171875,-0.605224609375,0.1224
1.9236641221374047,2.1526717557251906,-0.5190839694656488,-0.072021484375,-0.029052734375,-0.59912109375,0.12409999999999999
1.83206106870229,1.9694656488549618,-0.5954198473282443,-0.07275390625,-0.026611328125,-0.606689453125,0.1258
1.8778625954198473,2.0,-0.366412213740458,-0.070556640625,-0.028564453125,-0.60107421875,0.1275
1.7709923664122138,2.3053435114503817,-0.6106870229007634,-0.065673828125,-0.027587890625,-0.59228515625,0.12919999999999998
1.7404580152671756,2.015267175572519,-0.549618320610687,-0.071533203125,-0.02587890625,-0.60107421875,0.1309
2.030534351145038,1.786259541984733,-0.6564885496183206,-0.07275390625,-0.026123046875,-0.5986328125,0.1326
1.8473282442748091,1.786259541984733,-0.7022900763358778,-0.073486328125,-0.029052734375,-0.600341796875,0.1343
1.4198473282442747,1.7404580152671756,-0.7480916030534351,-0.068115234375,-0.034912109375,-0.599609375,0.13599999999999998
1.6641221374045803,1.5419847328244274,-0.4580152671755725,-0.06884765625,-0.033935546875,-0.60205078125,0.1377
1.786259541984733,1.5114503816793894,-0.5954198473282443,-0.067626953125,-0.036865234375,-0.599365234375,0.1394
1.4809160305343512,1.4045801526717556,-0.7633587786259542,-0.06884765625,-0.032958984375,-0.6015625,0.1411
1.3740458015267176,1.5114503816793894,-0.6870229007633588,-0.0712890625,-0.03125,-0.607421875,0.14279999999999998
1.5267175572519085,1.1450381679389312,-0.48854961832061067,-0.071044921875,-0.024658203125,-0.616455078125,0.1445
1.5572519083969465,1.2213740458015268,-0.8091603053435115,-0.069580078125,-0.0302734375,-0.6064453125,0.1462
1.4809160305343512,1.1603053435114503,-0.7938931297709924,-0.068115234375,-0.033447265625,-0.59814453125,0.1479
1.297709923664122,1.083969465648855,-0.9007633587786259,-0.0673828125,-0.03271484375,-0.6005859375,0.14959999999999998
1.6641221374045803,1.0534351145038168,-0.8702290076335878,-0.068115234375,-0.031005859375,-0.603271484375,0.1513
1.465648854961832,0.9618320610687023,-0.8549618320610687,-0.0693359375,-0.033203125,-0.6015625,0.153
1.3893129770992367,0.7480916030534351,-0.7480916030534351,-0.070068359375,-0.0283203125,-0.5986328125,0.1547
1.6030534351145038,0.8549618320610687,-0.9312977099236641,-0.071533203125,-0.02734375,-0.59912109375,0.15639999999999998
1.2213740458015268,0.7480916030534351,-0.8396946564885496,-0.067138671875,-0.027587890625,-0.601318359375,0.1581
1.1603053435114503,0.6717557251908397,-1.083969465648855,-0.069091796875,-0.03662109375,-0.606689453125,0.1598
1.251908396946565,0.6412213740458015,-1.0381679389312977,-0.072021484375,-0.039306640625,-0.60107421875,0.1615
1.1145038167938932,0.6870229007633588,-1.2213740458015268,-0.067138671875,-0.0322265625,-0.599853515625,0.16319999999999998
1.0534351145038168,0.6717557251908397,-1.1145038167938932,-0.074462890625,-0.033935546875,-0.5966796875,0.1649
0.8244274809160306,0.4580152671755725,-1.2366412213740459,-0.068603515625,-0.029541015625,-0.597412109375,0.1666
0.7633587786259542,0.44274809160305345,-1.1450381679389312,-0.071044921875,-0.03564453125,-0.605712890625,0.16829999999999998
0.4732824427480916,0.549618320610687,-1.0534351145038168,-0.072509765625,-0.032958984375,-0.6064453125,0.16999999999999998
0.5038167938931297,0.42748091603053434,-0.8854961832061069,-0.07080078125,-0.03271484375,-0.60498046875,0.1717
0.4122137404580153,0.4732824427480916,-0.9312977099236641,-0.070068359375,-0.03076171875,-0.603759765625,0.1734
0.2900763358778626,0.5038167938931297,-0.916030534351145,-0.065673828125,-0.03466796875,-0.5986328125,0.17509999999999998
0.3816793893129771,0.24427480916030533,-1.0381679389312977,-0.0771484375,-0.03515625,-0.6015625,0.17679999999999998
0.48854961832061067,0.15267175572519084,-0.9770992366412213,-0.07080078125,-0.037353515625,-0.593994140625,0.1785
0.22900763358778625,0.2748091603053435,-1.0534351145038168,-0.070556640625,-0.033447265625,-0.59619140625,0.1802
0.183206106870229,0.3053435114503817,-0.9312977099236641,-0.065673828125,-0.034912109375,-0.595458984375,0.18189999999999998
0.2900763358778626,0.44274809160305345,-0.9923664122137404,-0.072998046875,-0.0302734375,-0.595703125,0.18359999999999999
0.16793893129770993,0.13740458015267176,-0.9770992366412213,-0.0693359375,-0.030517578125,-0.60107421875,0.1853
0.15267175572519084,0.2595419847328244,-1.1145038167938932,-0.0732421875,-0.029052734375,-0.59912109375,0.187
0.061068702290076333,0.1984732824427481,-1.099236641221374,-0.06982421875,-0.031982421875,-0.60009765625,0.18869999999999998
0.3053435114503817,0.15267175572519084,-1.2061068702290076,-0.06982421875,-0.03515625,-0.593505859375,0.19039999999999999
0.04580152671755725,-0.061068702290076333,-0.8549618320610687,-0.072998046875,-0.02880859375,-0.603515625,0.1921
0.15267175572519084,-0.22900763358778625,-1.0229007633587786,-0.07275390625,-0.03076171875,-0.607666015625,0.1938
0.3053435114503817,-0.2748091603053435,-1.0687022900763359,-0.072265625,-0.033447265625,-0.60009765625,0.19549999999999998
0.2595419847328244,-0.21374045801526717,-1.2061068702290076,-0.06640625,-0.032470703125,-0.60693359375,0.1972
0.3053435114503817,-0.42748091603053434,-1.1603053435114503,-0.0703125,-0.033447265625,-0.596923828125,0.1989
0.24427480916030533,-0.4580152671755725,-1.4198473282442747,-0.0673828125,-0.032958984375,-0.594482421875,0.2006
0.0,-0.366412213740458,-1.1297709923664123,-0.0751953125,-0.02587890625,-0.602294921875,0.20229999999999998
0.33587786259541985,-0.48854961832061067,-1.3435114503816794,-0.0732421875,-0.03271484375,-0.595458984375,0.204
0.32061068702290074,-0.6870229007633588,-1.2213740458015268,-0.07080078125,-0.03271484375,-0.596923828125,0.2057
0.0916030534351145,-0.6259541984732825,-1.3282442748091603,-0.07568359375,-0.034423828125,-0.609375,0.2074
0.366412213740458,-0.5801526717557252,-1.3129770992366412,-0.073486328125,-0.030029296875,-0.604248046875,0.20909999999999998
0.33587786259541985,-0.6412213740458015,-1.4351145038167938,-0.0712890625,-0.0341796875,-0.605224609375,0.2108
0.3511450381679389,-0.5648854961832062,-1.2366412213740459,-0.06982421875,-0.034912109375,-0.599365234375,0.2125
0.5190839694656488,-0.42748091603053434,-1.6793893129770991,-0.068359375,-0.027587890625,-0.59716796875,0.2142
0.5648854961832062,-0.48854961832061067,-1.5114503816793894,-0.075439453125,-0.031982421875,-0.60009765625,0.21589999999999998
0.48854961832061067,-0.366412213740458,-1.5572519083969465,-0.07177734375,-0.0302734375,-0.600341796875,0.2176
0.4580152671755725,-0.33587786259541985,-1.6030534351145038,-0.068359375,-0.0302734375,-0.58935546875,0.2193
0.48854961832061067,-0.44274809160305345,-1.7099236641221374,-0.07080078125,-0.02783203125,-0.601806640625,0.22099999999999997
0.5648854961832062,-0.4122137404580153,-1.633587786259542,-0.0703125,-0.030517578125,-0.59521484375,0.22269999999999998
0.7633587786259542,-0.24427480916030533,-1.7709923664122138,-0.071044921875,-0.02880859375,-0.587158203125,0.2244
0.7786259541984732,-0.22900763358778625,-1.5267175572519085,-0.07421875,-0.02978515625,-0.6015625,0.2261
0.7175572519083969,-0.2595419847328244,-1.6488549618320612,-0.06884765625,-0.031982421875,-0.605224609375,0.22779999999999997
0.9923664122137404,0.015267175572519083,-1.5725190839694656,-0.0751953125,-0.025634765625,-0.603515625,0.22949999999999998
1.1755725190839694,0.0916030534351145,-1.7251908396946565,-0.0703125,-0.033447265625,-0.59912109375,0.2312
1.099236641221374,-0.12213740458015267,-1.4809160305343512,-0.07177734375,-0.031494140625,-0.597900390625,0.2329
1.1450381679389312,0.04580152671755725,-1.618320610687023,-0.0703125,-0.032958984375,-0.59912109375,0.23459999999999998
1.2366412213740459,0.030534351145038167,-1.6030534351145038,-0.072265625,-0.034423828125,-0.59716796875,0.23629999999999998
1.4961832061068703,-0.061068702290076333,-1.4351145038167938,-0.072265625,-0.02783203125,-0.593017578125,0.238
1.5419847328244274,0.0916030534351145,-1.297709923664122,-0.0693359375,-0.031982421875,-0.59326171875,0.2397
1.9083969465648856,0.2595419847328244,-1.5572519083969465,-0.071044921875,-0.0302734375,-0.5966796875,0.24139999999999998
1.7557251908396947,0.13740458015267176,-1.3740458015267176,-0.072021484375,-0.033447265625,-0.59228515625,0.24309999999999998
1.8778625954198473,0.21374045801526717,-1.4045801526717556,-0.072265625,-0.03271484375,-0.600830078125,0.2448
1.8625954198473282,0.33587786259541985,-1.3587786259541985,-0.073974609375,-0.03369140625,-0.601806640625,0.2465
2.122137404580153,0.48854961832061067,-1.4045801526717556,-0.071533203125,-0.0322265625,-0.592529296875,0.24819999999999998
2.2748091603053435,0.44274809160305345,-1.5419847328244274,-0.06787109375,-0.029052734375,-0.5966796875,0.24989999999999998
2.33587786259542,0.5343511450381679,-1.4045801526717556,-0.071533203125,-0.03466796875,-0.5986328125,0.2516
2.2900763358778624,0.5190839694656488,-1.5267175572519085,-0.076171875,-0.040283203125,-0.5986328125,0.25329999999999997
2.4580152671755724,0.5954198473282443,-1.7709923664122138,-0.071533203125,-0.033935546875,-0.59716796875,0.255
2.5801526717557253,0.7786259541984732,-1.450381679389313,-0.06982421875,-0.033935546875,-0.6005859375,0.2567
2.549618320610687,0.7480916030534351,-1.6030534351145038,-0.07421875,-0.030517578125,-0.598388671875,0.25839999999999996
2.6106870229007635,0.732824427480916,-1.6793893129770991,-0.06982421875,-0.033935546875,-0.5908203125,0.2601
2.5801526717557253,0.6412213740458015,-1.7099236641221374,-0.07666015625,-0.038330078125,-0.59033203125,0.2618
2.6412213740458017,0.9007633587786259,-1.6030534351145038,-0.07373046875,-0.04052734375,-0.591552734375,0.2635
2.3206106870229006,1.0687022900763359,-1.4351145038167938,-0.07421875,-0.03466796875,-0.59619140625,0.2652
2.4732824427480917,0.9618320610687023,-1.4961832061068703,-0.06787109375,-0.035888671875,-0.592529296875,0.26689999999999997
2.4122137404580153,0.916030534351145,-1.4809160305343512,-0.074951171875,-0.030029296875,-0.596923828125,0.2686
2.366412213740458,0.9923664122137404,-1.6793893129770991,-0.0732421875,-0.037109375,-0.60302734375,0.2703
2.2900763358778624,1.083969465648855,-1.5114503816793894,-0.07275390625,-0.0390625,-0.598388671875,0.27199999999999996
2.2900763358778624,1.2213740458015268,-1.6030534351145038,-0.072509765625,-0.035400390625,-0.60009765625,0.2737
2.16793893129771,1.0381679389312977,-1.7404580152671756,-0.071533203125,-0.03662109375,-0.60400390625,0.2754
2.0763358778625953,1.0534351145038168,-1.4809160305343512,-0.07080078125,-0.033935546875,-0.593505859375,0.27709999999999996
2.3969465648854964,0.9618320610687023,-1.5725190839694656,-0.072265625,-0.037841796875,-0.599609375,0.2788
2.4885496183206106,1.0534351145038168,-1.6946564885496183,-0.068359375,-0.039794921875,-0.59521484375,0.28049999999999997
2.427480916030534,1.1908396946564885,-1.5572519083969465,-0.07080078125,-0.035888671875,-0.604248046875,0.2822
2.351145038167939,1.1297709923664123,-1.6946564885496183,-0.07373046875,-0.03759765625,-0.602783203125,0.2839
2.6259541984732824,1.2061068702290076,-1.5267175572519085,-0.076171875,-0.031494140625,-0.599853515625,0.28559999999999997
2.549618320610687,1.2213740458015268,-1.5419847328244274,-0.071044921875,-0.033935546875,-0.596923828125,0.2873
2.595419847328244,1.297709923664122,-1.4961832061068703,-0.0712890625,-0.033447265625,-0.60595703125,0.289
2.6717557251908395,1.6030534351145038,-1.450381679389313,-0.073486328125,-0.037353515625,-0.593017578125,0.29069999999999996
2.5801526717557253,1.282442748091603,-1.3893129770992367,-0.074951171875,-0.034912109375,-0.60595703125,0.2924
2.4122137404580153,1.2213740458015268,-1.4961832061068703,-0.07763671875,-0.03271484375,-0.594970703125,0.2941
2.5343511450381677,1.3282442748091603,-1.7099236641221374,-0.074462890625,-0.03466796875,-0.597412109375,0.2958
2.687022900763359,1.1755725190839694,-1.5419847328244274,-0.07177734375,-0.035888671875,-0.60107421875,0.2975
2.549618320610687,1.3740458015267176,-1.5114503816793894,-0.072021484375,-0.03125,-0.591064453125,0.29919999999999997
2.50381679389313,1.3893129770992367,-1.618320610687023,-0.0693359375,-0.030517578125,-0.5966796875,0.3009
2.50381679389313,1.3587786259541985,-1.5725190839694656,-0.072021484375,-0.03369140625,-0.593994140625,0.3026
2.595419847328244,1.083969465648855,-1.6030534351145038,-0.071533203125,-0.03125,-0.600830078125,0.30429999999999996
2.595419847328244,1.3893129770992367,-1.6030534351145038,-0.073974609375,-0.02978515625,-0.598388671875,0.306
2.7022900763358777,1.4045801526717556,-1.6641221374045803,-0.080322265625,-0.031494140625,-0.603759765625,0.3077
2.6259541984732824,1.297709923664122,-1.6641221374045803,-0.07373046875,-0.0361328125,-0.59619140625,0.3094
2.564885496183206,1.5267175572519085,-1.6488549618320612,-0.08056640625,-0.031005859375,-0.605224609375,0.3111
2.7786259541984735,1.5725190839694656,-1.6641221374045803,-0.071044921875,-0.033203125,-0.60302734375,0.31279999999999997
2.717557251908397,1.4809160305343512,-1.6488549618320612,-0.07568359375,-0.03076171875,-0.601806640625,0.3145
2.8244274809160306,1.6793893129770991,-1.6793893129770991,-0.07421875,-0.033447265625,-0.5947265625,0.3162
2.885496183206107,1.618320610687023,-1.8473282442748091,-0.068603515625,-0.03125,-0.60400390625,0.31789999999999996
2.6717557251908395,1.7099236641221374,-1.8015267175572518,-0.0712890625,-0.029052734375,-0.60302734375,0.3196
2.900763358778626,1.7251908396946565,-1.83206106870229,-0.0751953125,-0.033935546875,-0.610595703125,0.3213
3.1603053435114505,1.6793893129770991,-2.0916030534351147,-0.079833984375,-0.03466796875,-0.594482421875,0.323
3.068702290076336,1.7709923664122138,-2.0610687022900764,-0.07080078125,-0.03125,-0.596923828125,0.3247
3.099236641221374,1.633587786259542,-2.1068702290076335,-0.07373046875,-0.031005859375,-0.603759765625,0.32639999999999997
2.9618320610687023,1.5267175572519085,-2.1068702290076335,-0.072998046875,-0.030029296875,-0.607177734375,0.3281
3.145038167938931,1.8015267175572518,-2.16793893129771,-0.07373046875,-0.02783203125,-0.59326171875,0.3298
3.3435114503816794,1.618320610687023,-2.183206106870229,-0.07763671875,-0.03125,-0.591552734375,0.33149999999999996
3.1908396946564888,1.5419847328244274,-2.33587786259542,-0.07080078125,-0.03271484375,-0.600341796875,0.3332
3.0381679389312977,1.4045801526717556,-2.427480916030534,-0.0703125,-0.0322265625,-0.6064453125,0.3349
3.0839694656488548,1.297709923664122,-2.2748091603053435,-0.07666015625,-0.03369140625,-0.60595703125,0.33659999999999995
3.068702290076336,1.2671755725190839,-2.4122137404580153,-0.07568359375,-0.0341796875,-0.600830078125,0.3383
3.267175572519084,1.3282442748091603,-2.351145038167939,-0.074462890625,-0.03955078125,-0.608154296875,0.33999999999999997
3.2519083969465647,1.1755725190839694,-2.4732824427480917,-0.071533203125,-0.0302734375,-0.602783203125,0.3417
2.9923664122137406,1.2366412213740459,-2.366412213740458,-0.074462890625,-0.03271484375,-0.603759765625,0.3434
2.946564885496183,1.1297709923664123,-2.351145038167939,-0.071044921875,-0.03564453125,-0.59814453125,0.34509999999999996
2.9923664122137406,1.0229007633587786,-2.2748091603053435,-0.071044921875,-0.036865234375,-0.6015625,0.3468
3.1297709923664123,1.0534351145038168,-2.366412213740458,-0.06884765625,-0.0380859375,-0.605224609375,0.3485
2.8396946564885495,0.8702290076335878,-2.213740458015267,-0.074951171875,-0.034912109375,-0.60693359375,0.35019999999999996
2.732824427480916,0.9618320610687023,-2.427480916030534,-0.0712890625,-0.03173828125,-0.60400390625,0.3519
2.7022900763358777,0.8702290076335878,-2.2595419847328246,-0.06591796875,-0.037841796875,-0.602783203125,0.35359999999999997
2.564885496183206,0.6259541984732825,-2.366412213740458,-0.072021484375,-0.03369140625,-0.600341796875,0.3553
2.6259541984732824,0.6106870229007634,-2.122137404580153,-0.070556640625,-0.037109375,-0.5986328125,0.357
2.3206106870229006,0.5801526717557252,-2.198473282442748,-0.070068359375,-0.03271484375,-0.59765625,0.35869999999999996
2.33587786259542,0.5038167938931297,-2.2290076335877864,-0.072998046875,-0.03466796875,-0.605712890625,0.3604
2.16793893129771,0.3053435114503817,-2.2748091603053435,-0.070068359375,-0.031005859375,-0.596923828125,0.3621
2.2595419847328246,0.21374045801526717,-1.9694656488549618,-0.07275390625,-0.034423828125,-0.612060546875,0.36379999999999996
1.9694656488549618,0.183206106870229,-2.2290076335877864,-0.065185546875,-0.031982421875,-0.6025390625,0.3655
1.7709923664122138,0.015267175572519083,-2.2442748091603053,-0.066650390625,-0.029541015625,-0.60302734375,0.36719999999999997
1.786259541984733,-0.21374045801526717,-2.1068702290076335,-0.074462890625,-0.02978515625,-0.59375,0.3689
1.5725190839694656,-0.12213740458015267,-1.9541984732824427,-0.071044921875,-0.0302734375,-0.606201171875,0.3706
1.6488549618320612,-0.2595419847328244,-2.0610687022900764,-0.07568359375,-0.030029296875,-0.600830078125,0.37229999999999996
1.5114503816793894,-0.3816793893129771,-2.0,-0.073974609375,-0.033203125,-0.605224609375,0.374
1.465648854961832,-0.3816793893129771,-1.83206106870229,-0.068603515625,-0.029296875,-0.597412109375,0.3757
1.4198473282442747,-0.48854961832061067,-2.0,-0.077392578125,-0.040771484375,-0.598876953125,0.37739999999999996
1.450381679389313,-0.6412213740458015,-2.045801526717557,-0.07421875,-0.03564453125,-0.603271484375,0.3791
1.4961832061068703,-0.6717557251908397,-1.9541984732824427,-0.07763671875,-0.026611328125,-0.6044921875,0.38079999999999997
1.3129770992366412,-0.7175572519083969,-2.0763358778625953,-0.072509765625,-0.0361328125,-0.600341796875,0.38249999999999995
1.465648854961832,-0.7938931297709924,-1.8625954198473282,-0.072509765625,-0.031494140625,-0.60546875,0.3842
1.2671755725190839,-0.7175572519083969,-2.0610687022900764,-0.068603515625,-0.032958984375,-0.609375,0.38589999999999997
1.3740458015267176,-0.732824427480916,-1.9236641221374047,-0.072998046875,-0.03076171875,-0.605712890625,0.3876
1.3282442748091603,-0.9007633587786259,-1.9694656488549618,-0.07080078125,-0.0302734375,-0.607666015625,0.3893
1.0381679389312977,-0.9465648854961832,-1.8625954198473282,-0.0703125,-0.02978515625,-0.606201171875,0.39099999999999996
1.1755725190839694,-0.8549618320610687,-1.9236641221374047,-0.069580078125,-0.023681640625,-0.603515625,0.3927
0.916030534351145,-1.0381679389312977,-1.7251908396946565,-0.0703125,-0.030029296875,-0.60205078125,0.3944
0.9312977099236641,-0.9312977099236641,-1.9083969465648856,-0.0712890625,-0.030517578125,-0.608642578125,0.39609999999999995
0.8549618320610687,-0.916030534351145,-1.6793893129770991,-0.074951171875,-0.025634765625,-0.611083984375,0.3978
0.9007633587786259,-0.916030534351145,-1.786259541984733,-0.07080078125,-0.026611328125,-0.611328125,0.39949999999999997
0.8244274809160306,-1.1755725190839694,-1.7709923664122138,-0.069580078125,-0.025146484375,-0.606689453125,0.4012
0.8244274809160306,-1.3129770992366412,-1.7557251908396947,-0.072509765625,-0.03271484375,-0.612060546875,0.4029
0.732824427480916,-1.3282442748091603,-1.5419847328244274,-0.0673828125,-0.029052734375,-0.606689453125,0.40459999999999996
0.7786259541984732,-1.1755725190839694,-1.618320610687023,-0.069580078125,-0.0322265625,-0.60498046875,0.4063
0.8396946564885496,-1.251908396946565,-1.4961832061068703,-0.072998046875,-0.033203125,-0.603271484375,0.408
1.083969465648855,-1.3740458015267176,-1.6946564885496183,-0.073486328125,-0.030029296875,-0.6025390625,0.40969999999999995
1.1755725190839694,-1.4198473282442747,-1.4351145038167938,-0.0673828125,-0.033447265625,-0.599853515625,0.4114
1.1297709923664123,-1.5572519083969465,-1.5114503816793894,-0.0703125,-0.0341796875,-0.60791015625,0.41309999999999997
1.3282442748091603,-1.3740458015267176,-1.5267175572519085,-0.071533203125,-0.025390625,-0.611572265625,0.4148
1.3435114503816794,-1.633587786259542,-1.5114503816793894,-0.07568359375,-0.02978515625,-0.607177734375,0.4165
1.6946564885496183,-1.4809160305343512,-1.3893129770992367,-0.0712890625,-0.033447265625,-0.599365234375,0.41819999999999996
1.7557251908396947,-1.5572519083969465,-1.5419847328244274,-0.070556640625,-0.0283203125,-0.6005859375,0.4199
1.618320610687023,-1.5725190839694656,-1.297709923664122,-0.0703125,-0.028564453125,-0.5986328125,0.4216
1.8473282442748091,-1.7557251908396947,-1.4809160305343512,-0.069580078125,-0.027099609375,-0.59814453125,0.42329999999999995
1.816793893129771,-1.8015267175572518,-1.2671755725190839,-0.070556640625,-0.02001953125,-0.61279296875,0.425
1.7557251908396947,-1.8015267175572518,-1.3435114503816794,-0.07275390625,-0.029296875,-0.610595703125,0.42669999999999997
1.7557251908396947,-1.786259541984733,-1.3740458015267176,-0.067138671875,-0.025634765625,-0.6005859375,0.4284
1.8015267175572518,-1.7099236641221374,-1.3587786259541985,-0.07275390625,-0.027099609375,-0.60595703125,0.4301
1.8931297709923665,-1.7251908396946565,-1.1908396946564885,-0.074462890625,-0.026611328125,-0.607666015625,0.43179999999999996
1.9694656488549618,-1.8015267175572518,-1.1755725190839694,-0.07275390625,-0.025390625,-0.600341796875,0.4335
2.0,-1.6946564885496183,-1.3129770992366412,-0.0771484375,-0.027099609375,-0.605712890625,0.4352
2.122137404580153,-1.786259541984733,-1.4045801526717556,-0.077392578125,-0.032958984375,-0.60546875,0.43689999999999996
1.9083969465648856,-1.7709923664122138,-1.2671755725190839,-0.076171875,-0.03076171875,-0.604248046875,0.4386
1.8015267175572518,-1.633587786259542,-1.3893129770992367,-0.0751953125,-0.02783203125,-0.606689453125,0.44029999999999997
1.984732824427481,-1.6793893129770991,-1.3893129770992367,-0.07421875,-0.0244140625,-0.61328125,0.44199999999999995
2.015267175572519,-1.3587786259541985,-1.3587786259541985,-0.077880859375,-0.0341796875,-0.60498046875,0.4437
2.33587786259542,-1.3129770992366412,-1.4198473282442747,-0.071533203125,-0.0322265625,-0.604248046875,0.44539999999999996
2.045801526717557,-1.5725190839694656,-1.3129770992366412,-0.074462890625,-0.029541015625,-0.60791015625,0.4471
1.8473282442748091,-1.282442748091603,-1.2671755725190839,-0.074462890625,-0.022705078125,-0.6103515625,0.4488
1.83206106870229,-1.0534351145038168,-1.6030534351145038,-0.077880859375,-0.029541015625,-0.6015625,0.45049999999999996
1.5267175572519085,-1.2671755725190839,-1.465648854961832,-0.078125,-0.026611328125,-0.597900390625,0.4522
1.4351145038167938,-1.1297709923664123,-1.3435114503816794,-0.07958984375,-0.030029296875,-0.60302734375,0.45389999999999997
1.618320610687023,-1.1297709923664123,-1.3129770992366412,-0.078857421875,-0.02587890625,-0.608154296875,0.45559999999999995
1.465648854961832,-0.9465648854961832,-1.4961832061068703,-0.075439453125,-0.02783203125,-0.60205078125,0.4573
1.450381679389313,-0.9312977099236641,-1.297709923664122,-0.087158203125,-0.0322265625,-0.60595703125,0.45899999999999996
1.2213740458015268,-0.8549618320610687,-1.297709923664122,-0.076171875,-0.0322265625,-0.605224609375,0.4607
1.251908396946565,-0.6564885496183206,-1.3893129770992367,-0.083251953125,-0.032958984375,-0.603271484375,0.4624
1.1297709923664123,-0.6564885496183206,-1.465648854961832,-0.071044921875,-0.029296875,-0.60400390625,0.46409999999999996
0.9618320610687023,-0.366412213740458,-1.2213740458015268,-0.07666015625,-0.03271484375,-0.599609375,0.4658
1.0534351145038168,-0.4732824427480916,-1.1603053435114503,-0.0751953125,-0.02783203125,-0.610107421875,0.46749999999999997
1.083969465648855,-0.366412213740458,-1.251908396946565,-0.0771484375,-0.029052734375,-0.605224609375,0.46919999999999995
0.9007633587786259,-0.3816793893129771,-1.282442748091603,-0.076904296875,-0.03125,-0.598876953125,0.4709
0.732824427480916,-0.1984732824427481,-1.2671755725190839,-0.078369140625,-0.03076171875,-0.598876953125,0.47259999999999996
1.0687022900763359,-0.32061068702290074,-1.3129770992366412,-0.0771484375,-0.03515625,-0.601318359375,0.4743
0.916030534351145,-0.12213740458015267,-1.2213740458015268,-0.07470703125,-0.03125,-0.607421875,0.476
0.9770992366412213,-0.1984732824427481,-1.2213740458015268,-0.07763671875,-0.03466796875,-0.60009765625,0.47769999999999996
1.0534351145038168,0.22900763358778625,-1.1145038167938932,-0.080322265625,-0.03271484375,-0.6162109375,0.4794
1.0687022900763359,0.1984732824427481,-0.9770992366412213,-0.076171875,-0.030517578125,-0.60595703125,0.48109999999999997
1.1603053435114503,0.16793893129770993,-0.7633587786259542,-0.075439453125,-0.032958984375,-0.611083984375,0.48279999999999995
1.099236641221374,0.15267175572519084,-0.916030534351145,-0.079345703125,-0.031494140625,-0.60693359375,0.4845
1.4045801526717556,0.24427480916030533,-0.9312977099236641,-0.075927734375,-0.033447265625,-0.6025390625,0.48619999999999997
1.2213740458015268,0.24427480916030533,-0.7480916030534351,-0.079833984375,-0.03076171875,-0.605712890625,0.4879
1.3129770992366412,0.3511450381679389,-0.7633587786259542,-0.076416015625,-0.031005859375,-0.596435546875,0.4896
1.4045801526717556,0.5801526717557252,-0.8396946564885496,-0.078125,-0.03173828125,-0.605224609375,0.49129999999999996
1.3587786259541985,0.5648854961832062,-0.7633587786259542,-0.07275390625,-0.03271484375,-0.607177734375,0.493
1.3282442748091603,0.6870229007633588,-0.5648854961832062,-0.07568359375,-0.031982421875,-0.611572265625,0.4947
1.1603053435114503,0.7022900763358778,-0.48854961832061067,-0.07470703125,-0.029052734375,-0.606201171875,0.49639999999999995
1.2366412213740459,1.0534351145038168,-0.3969465648854962,-0.0771484375,-0.03076171875,-0.599609375,0.4981
1.0534351145038168,0.8549618320610687,-0.2748091603053435,-0.076416015625,-0.02978515625,-0.602783203125,0.49979999999999997
1.0229007633587786,1.0076335877862594,-0.5038167938931297,-0.0751953125,-0.031005859375,-0.5947265625,0.5015
0.8396946564885496,1.0381679389312977,-0.366412213740458,-0.0751953125,-0.03515625,-0.6015625,0.5032
0.5954198473282443,1.0687022900763359,-0.21374045801526717,-0.076416015625,-0.0322265625,-0.61572265625,0.5049
0.732824427480916,1.1603053435114503,-0.2595419847328244,-0.08056640625,-0.034912109375,-0.611328125,0.5065999999999999
0.5343511450381679,1.297709923664122,-0.12213740458015267,-0.07421875,-0.034912109375,-0.606201171875,0.5083
0.5190839694656488,1.5419847328244274,0.04580152671755725,-0.074951171875,-0.032958984375,-0.599609375,0.51
0.22900763358778625,1.5419847328244274,-0.015267175572519083,-0.078125,-0.0400390625,-0.609619140625,0.5116999999999999
0.42748091603053434,1.5419847328244274,0.07633587786259542,-0.077880859375,-0.039794921875,-0.608642578125,0.5134
0.030534351145038167,1.7099236641221374,-0.030534351145038167,-0.080810546875,-0.032958984375,-0.605224609375,0.5151
0.0,1.83206106870229,-0.030534351145038167,-0.0771484375,-0.034423828125,-0.601806640625,0.5167999999999999
-0.015267175572519083,1.8015267175572518,-0.061068702290076333,-0.081298828125,-0.03369140625,-0.60498046875,0.5185
-0.32061068702290074,1.8778625954198473,-0.16793893129770993,-0.080078125,-0.03759765625,-0.601318359375,0.5202
-0.2900763358778626,1.8778625954198473,-0.04580152671755725,-0.0791015625,-0.036865234375,-0.60498046875,0.5218999999999999
-0.33587786259541985,1.9694656488549618,-0.0916030534351145,-0.07568359375,-0.0322265625,-0.5966796875,0.5236
-0.42748091603053434,1.9236641221374047,-0.21374045801526717,-0.0810546875,-0.032958984375,-0.599365234375,0.5253
-0.12213740458015267,1.8931297709923665,-0.15267175572519084,-0.074462890625,-0.032958984375,-0.59814453125,0.527
0.015267175572519083,2.1068702290076335,-0.22900763358778625,-0.08056640625,-0.028076171875,-0.60791015625,0.5287
0.015267175572519083,2.198473282442748,-0.3053435114503817,-0.07861328125,-0.0390625,-0.6015625,0.5304
0.061068702290076333,2.16793893129771,-0.21374045801526717,-0.08154296875,-0.029052734375,-0.5966796875,0.5321
0.13740458015267176,2.030534351145038,-0.366412213740458,-0.0791015625,-0.0361328125,-0.599609375,0.5337999999999999
0.5801526717557252,2.183206106870229,-0.3969465648854962,-0.080810546875,-0.027587890625,-0.59912109375,0.5355
0.7633587786259542,2.1068702290076335,-0.42748091603053434,-0.078125,-0.0302734375,-0.607421875,0.5372
0.8854961832061069,2.213740458015267,-0.3969465648854962,-0.076171875,-0.028076171875,-0.60546875,0.5388999999999999
0.8091603053435115,2.3206106870229006,-0.4122137404580153,-0.079833984375,-0.031982421875,-0.59716796875,0.5406
1.0076335877862594,2.351145038167939,-0.44274809160305345,-0.076171875,-0.02978515625,-0.59521484375,0.5423
1.3587786259541985,2.6106870229007635,-0.5190839694656488,-0.08056640625,-0.031005859375,-0.603759765625,0.5439999999999999
1.3282442748091603,2.4122137404580153,-0.42748091603053434,-0.0751953125,-0.02783203125,-0.60595703125,0.5457
1.3893129770992367,2.50381679389313,-0.5190839694656488,-0.075439453125,-0.0283203125,-0.600830078125,0.5474
1.6641221374045803,2.6564885496183206,-0.5801526717557252,-0.069580078125,-0.025634765625,-0.614501953125,0.5490999999999999
1.8473282442748091,2.595419847328244,-0.5038167938931297,-0.07763671875,-0.0234375,-0.6142578125,0.5508
2.015267175572519,2.5801526717557253,-0.3816793893129771,-0.078369140625,-0.022705078125,-0.60693359375,0.5525
2.0916030534351147,2.6564885496183206,-0.6412213740458015,-0.072265625,-0.0224609375,-0.5966796875,0.5541999999999999
2.0,2.763358778625954,-0.6259541984732825,-0.074462890625,-0.021728515625,-0.60693359375,0.5559
2.213740458015267,2.6717557251908395,-0.5801526717557252,-0.073974609375,-0.026123046875,-0.603271484375,0.5576
2.4885496183206106,2.7786259541984735,-0.48854961832061067,-0.0732421875,-0.030517578125,-0.6015625,0.5593
2.381679389312977,2.7480916030534353,-0.5648854961832062,-0.07470703125,-0.03173828125,-0.60107421875,0.5609999999999999
2.3206106870229006,2.7938931297709924,-0.6259541984732825,-0.074951171875,-0.0322265625,-0.594482421875,0.5627
2.3969465648854964,2.6717557251908395,-0.5343511450381679,-0.069580078125,-0.03515625,-0.60400390625,0.5644
2.3053435114503817,2.7022900763358777,-0.6259541984732825,-0.072998046875,-0.030517578125,-0.603271484375,0.5660999999999999
2.427480916030534,2.6412213740458017,-0.732824427480916,-0.07470703125,-0.03125,-0.60009765625,0.5678
2.427480916030534,2.519083969465649,-0.549618320610687,-0.070556640625,-0.0322265625,-0.60791015625,0.5695
2.351145038167939,2.4122137404580153,-0.6717557251908397,-0.0751953125,-0.030517578125,-0.602294921875,0.5711999999999999
2.2442748091603053,2.4580152671755724,-0.6259541984732825,-0.0751953125,-0.032470703125,-0.5986328125,0.5729
2.0916030534351147,2.519083969465649,-0.7175572519083969,-0.07177734375,-0.03955078125,-0.59228515625,0.5746
2.213740458015267,2.4427480916030535,-0.48854961832061067,-0.072265625,-0.03076171875,-0.60498046875,0.5762999999999999
2.0763358778625953,2.33587786259542,-0.9007633587786259,-0.06640625,-0.034423828125,-0.599853515625,0.578
2.1374045801526718,2.3053435114503817,-0.7175572519083969,-0.0693359375,-0.034912109375,-0.60009765625,0.5797
1.8778625954198473,2.1374045801526718,-0.7938931297709924,-0.06787109375,-0.034912109375,-0.59716796875,0.5813999999999999
1.6946564885496183,2.1526717557251906,-0.9007633587786259,-0.070556640625,-0.03466796875,-0.595458984375,0.5831
1.6641221374045803,2.33587786259542,-0.8854961832061069,-0.075927734375,-0.034423828125,-0.6005859375,0.5848
1.7099236641221374,2.1374045801526718,-0.5954198473282443,-0.0703125,-0.0380859375,-0.601806640625,0.5865
1.5267175572519085,1.9541984732824427,-0.7175572519083969,-0.076904296875,-0.0341796875,-0.598876953125,0.5882
1.465648854961832,2.0610687022900764,-0.5954198473282443,-0.064453125,-0.0302734375,-0.603759765625,0.5899
1.3587786259541985,1.9236641221374047,-0.7022900763358778,-0.070068359375,-0.038330078125,-0.593994140625,0.5916
1.4198473282442747,1.9541984732824427,-0.7786259541984732,-0.07568359375,-0.0380859375,-0.60107421875,0.5932999999999999
1.1145038167938932,1.984732824427481,-0.6412213740458015,-0.07373046875,-0.0361328125,-0.604248046875,0.595
0.9465648854961832,2.0,-0.48854961832061067,-0.076904296875,-0.034423828125,-0.6015625,0.5967
1.1297709923664123,2.015267175572519,-0.6717557251908397,-0.072265625,-0.033935546875,-0.593994140625,0.5983999999999999
0.7480916030534351,1.8778625954198473,-0.6412213740458015,-0.07421875,-0.031982421875,-0.596923828125,0.6001
0.6564885496183206,1.8625954198473282,-0.48854961832061067,-0.071044921875,-0.032958984375,-0.593994140625,0.6018
0.44274809160305345,1.786259541984733,-0.3969465648854962,-0.07666015625,-0.034423828125,-0.600830078125,0.6034999999999999
0.549618320610687,1.7404580152671756,-0.549618320610687,-0.071533203125,-0.03466796875,-0.593017578125,0.6052
0.24427480916030533,1.8625954198473282,-0.24427480916030533,-0.071533203125,-0.03466796875,-0.599609375,0.6069
0.4580152671755725,1.83206106870229,-0.33587786259541985,-0.073974609375,-0.034912109375,-0.59765625,0.6085999999999999
0.12213740458015267,1.8778625954198473,-0.32061068702290074,-0.0712890625,-0.03173828125,-0.597412109375,0.6103
0.07633587786259542,1.8931297709923665,-0.48854961832061067,-0.070068359375,-0.032470703125,-0.592041015625,0.612
0.32061068702290074,1.8778625954198473,-0.4122137404580153,-0.06640625,-0.030517578125,-0.60302734375,0.6136999999999999
0.2900763358778626,1.83206106870229,-0.3816793893129771,-0.072998046875,-0.03271484375,-0.60791015625,0.6154
0.21374045801526717,1.816793893129771,-0.366412213740458,-0.071533203125,-0.032958984375,-0.598876953125,0.6171
0.3511450381679389,1.7557251908396947,-0.44274809160305345,-0.0693359375,-0.036865234375,-0.601806640625,0.6188
0.4122137404580153,1.8015267175572518,-0.4580152671755725,-0.06494140625,-0.034912109375,-0.5888671875,0.6204999999999999
0.3816793893129771,1.618320610687023,-0.6412213740458015,-0.0703125,-0.03564453125,-0.604248046875,0.6222
0.24427480916030533,1.6030534351145038,-0.5954198473282443,-0.069580078125,-0.0361328125,-0.60009765625,0.6239
0.33587786259541985,1.6641221374045803,-0.6717557251908397,-0.0693359375,-0.029296875,-0.60595703125,0.6255999999999999
0.5648854961832062,1.6946564885496183,-0.7175572519083969,-0.072265625,-0.025146484375,-0.608154296875,0.6273
0.6564885496183206,1.4961832061068703,-0.7786259541984732,-0.069580078125,-0.031005859375,-0.5966796875,0.629
0.6106870229007634,1.5267175572519085,-0.7175572519083969,-0.06787109375,-0.032958984375,-0.597412109375,0.6306999999999999
0.5343511450381679,1.5267175572519085,-0.8702290076335878,-0.068359375,-0.041259765625,-0.604736328125,0.6324
0.8244274809160306,1.5877862595419847,-0.7633587786259542,-0.069091796875,-0.0302734375,-0.604248046875,0.6341
0.9923664122137404,1.4961832061068703,-0.9618320610687023,-0.06884765625,-0.034423828125,-0.602294921875,0.6357999999999999
0.916030534351145,1.3282442748091603,-0.9770992366412213,-0.067626953125,-0.033447265625,-0.60107421875,0.6375
0.9770992366412213,1.1908396946564885,-0.9312977099236641,-0.0712890625,-0.0361328125,-0.599609375,0.6392
1.1145038167938932,1.083969465648855,-1.0229007633587786,-0.07080078125,-0.03515625,-0.605224609375,0.6408999999999999
1.099236641221374,1.1908396946564885,-1.1145038167938932,-0.06982421875,-0.03125,-0.6015625,0.6426
1.1145038167938932,1.0534351145038168,-0.9618320610687023,-0.073486328125,-0.02734375,-0.608642578125,0.6443
1.2671755725190839,1.1450381679389312,-1.297709923664122,-0.070556640625,-0.03466796875,-0.606689453125,0.646
1.251908396946565,1.083969465648855,-0.9923664122137404,-0.07275390625,-0.028076171875,-0.6044921875,0.6476999999999999
1.1297709923664123,1.1145038167938932,-1.2671755725190839,-0.072021484375,-0.0322265625,-0.595947265625,0.6494
1.2366412213740459,1.2213740458015268,-1.1450381679389312,-0.07080078125,-0.03076171875,-0.603515625,0.6511
1.3282442748091603,0.9770992366412213,-1.3282442748091603,-0.069580078125,-0.030029296875,-0.60595703125,0.6527999999999999
1.2213740458015268,0.8854961832061069,-1.1145038167938932,-0.074462890625,-0.031982421875,-0.597900390625,0.6545
1.1908396946564885,0.9007633587786259,-1.3587786259541985,-0.0751953125,-0.03271484375,-0.592529296875,0.6562
1.0381679389312977,0.7786259541984732,-1.2213740458015268,-0.074462890625,-0.034423828125,-0.596435546875,0.6578999999999999
1.2671755725190839,0.732824427480916,-1.297709923664122,-0.072998046875,-0.030029296875,-0.61083984375,0.6596
1.2213740458015268,0.7786259541984732,-1.282442748091603,-0.06884765625,-0.03271484375,-0.603515625,0.6613
1.0534351145038168,0.6259541984732825,-1.3587786259541985,-0.077392578125,-0.036865234375,-0.595703125,0.6629999999999999
1.0381679389312977,0.8091603053435115,-1.4809160305343512,-0.072998046875,-0.032958984375,-0.597900390625,0.6647
1.083969465648855,0.8549618320610687,-1.4198473282442747,-0.0751953125,-0.032470703125,-0.595947265625,0.6664
0.8854961832061069,0.6564885496183206,-1.5725190839694656,-0.080078125,-0.02978515625,-0.595458984375,0.6680999999999999
0.8396946564885496,0.6412213740458015,-1.5572519083969465,-0.07958984375,-0.031982421875,-0.60205078125,0.6698
1.1297709923664123,0.6412213740458015,-1.465648854961832,-0.078125,-0.036376953125,-0.601806640625,0.6715
1.0229007633587786,0.5954198473282443,-1.5877862595419847,-0.0732421875,-0.03369140625,-0.610107421875,0.6731999999999999
0.8549618320610687,0.6564885496183206,-1.4809160305343512,-0.072509765625,-0.034423828125,-0.60302734375,0.6748999999999999
0.9923664122137404,0.5190839694656488,-1.5267175572519085,-0.077880859375,-0.032958984375,-0.597412109375,0.6766
0.9312977099236641,0.5343511450381679,-1.816793893129771,-0.0732421875,-0.030517578125,-0.596435546875,0.6783
0.7938931297709924,0.48854961832061067,-1.7404580152671756,-0.07080078125,-0.03564453125,-0.596923828125,0.6799999999999999
0.9618320610687023,0.5954198473282443,-1.6488549618320612,-0.076904296875,-0.03466796875,-0.605224609375,0.6817
1.0534351145038168,0.7480916030534351,-1.8931297709923665,-0.07470703125,-0.03173828125,-0.59619140625,0.6834
0.8396946564885496,0.5954198473282443,-1.9236641221374047,-0.075439453125,-0.03369140625,-0.60791015625,0.6850999999999999
0.732824427480916,0.6259541984732825,-2.045801526717557,-0.074462890625,-0.0322265625,-0.59765625,0.6868
0.8854961832061069,0.6259541984732825,-1.9389312977099236,-0.074951171875,-0.03125,-0.591064453125,0.6885
0.8091603053435115,0.9465648854961832,-2.0763358778625953,-0.07666015625,-0.037841796875,-0.607421875,0.6901999999999999
0.7786259541984732,0.7022900763358778,-2.213740458015267,-0.072265625,-0.038330078125,-0.601806640625,0.6919
0.7786259541984732,0.7175572519083969,-2.351145038167939,-0.076171875,-0.033447265625,-0.592041015625,0.6936
0.9465648854961832,0.7480916030534351,-2.0763358778625953,-0.072509765625,-0.03173828125,-0.596923828125,0.6952999999999999
0.6717557251908397,0.8702290076335878,-2.213740458015267,-0.076904296875,-0.034912109375,-0.597412109375,0.697
0.8549618320610687,0.8549618320610687,-2.16793893129771,-0.075439453125,-0.0322265625,-0.602783203125,0.6987
0.916030534351145,0.7938931297709924,-2.3053435114503817,-0.0712890625,-0.03466796875,-0.59912109375,0.7003999999999999
0.6717557251908397,0.9465648854961832,-2.1068702290076335,-0.074462890625,-0.030029296875,-0.5966796875,0.7021
0.44274809160305345,0.9312977099236641,-2.122137404580153,-0.077392578125,-0.0361328125,-0.598876953125,0.7038
0.5190839694656488,1.0534351145038168,-2.030534351145038,-0.07275390625,-0.035400390625,-0.596923828125,0.7055
0.0916030534351145,1.0076335877862594,-2.0610687022900764,-0.07470703125,-0.037353515625,-0.60693359375,0.7071999999999999
0.16793893129770993,1.099236641221374,-2.2748091603053435,-0.0703125,-0.041015625,-0.600830078125,0.7089
0.07633587786259542,1.0687022900763359,-2.0610687022900764,-0.071533203125,-0.034423828125,-0.6005859375,0.7106
0.030534351145038167,1.0381679389312977,-2.0,-0.070556640625,-0.033447265625,-0.600830078125,0.7122999999999999
0.0,1.1297709923664123,-2.0763358778625953,-0.070068359375,-0.037109375,-0.6015625,0.714
-0.015267175572519083,1.0534351145038168,-2.0610687022900764,-0.06884765625,-0.0302734375,-0.5947265625,0.7157
-0.061068702290076333,1.2213740458015268,-1.8931297709923665,-0.074951171875,-0.035400390625,-0.600341796875,0.7173999999999999
-0.2595419847328244,1.3893129770992367,-1.9389312977099236,-0.06982421875,-0.03662109375,-0.60595703125,0.7191
-0.21374045801526717,1.282442748091603,-1.8625954198473282,-0.0771484375,-0.030517578125,-0.603271484375,0.7208
-0.2900763358778626,1.1450381679389312,-1.9541984732824427,-0.0732421875,-0.02880859375,-0.6015625,0.7224999999999999
-0.3511450381679389,1.1145038167938932,-1.786259541984733,-0.06787109375,-0.029541015625,-0.593505859375,0.7242
-0.33587786259541985,1.4351145038167938,-1.83206106870229,-0.069091796875,-0.0322265625,-0.593994140625,0.7259
-0.48854961832061067,1.0229007633587786,-1.8625954198473282,-0.06298828125,-0.0283203125,-0.595703125,0.7275999999999999
-0.3969465648854962,1.0229007633587786,-1.8625954198473282,-0.06982421875,-0.031005859375,-0.60009765625,0.7293
-0.5801526717557252,1.1450381679389312,-1.5267175572519085,-0.06982421875,-0.034912109375,-0.60498046875,0.731
-0.48854961832061067,1.1297709923664123,-1.633587786259542,-0.072021484375,-0.034912109375,-0.591064453125,0.7326999999999999
-0.4580152671755725,0.8854961832061069,-1.6641221374045803,-0.0703125,-0.034912109375,-0.595947265625,0.7343999999999999
-0.44274809160305345,0.7938931297709924,-1.633587786259542,-0.072998046875,-0.033935546875,-0.598876953125,0.7361
-0.42748091603053434,0.9312977099236641,-1.7251908396946565,-0.0703125,-0.032958984375,-0.601318359375,0.7378
-0.3816793893129771,0.8091603053435115,-1.7404580152671756,-0.072265625,-0.033935546875,-0.596923828125,0.7394999999999999
-0.16793893129770993,0.7633587786259542,-1.7404580152671756,-0.070556640625,-0.031982421875,-0.5966796875,0.7412
0.0916030534351145,0.8244274809160306,-1.7709923664122138,-0.06787109375,-0.029052734375,-0.59375,0.7429
-0.07633587786259542,0.8091603053435115,-1.7099236641221374,-0.0703125,-0.03466796875,-0.600830078125,0.7445999999999999
-0.07633587786259542,0.7480916030534351,-1.6946564885496183,-0.071533203125,-0.02685546875,-0.601806640625,0.7463
0.10687022900763359,0.7022900763358778,-1.7251908396946565,-0.069091796875,-0.03173828125,-0.60546875,0.748
0.21374045801526717,0.7633587786259542,-1.83206106870229,-0.074951171875,-0.02685546875,-0.597900390625,0.7496999999999999
0.2748091603053435,0.7938931297709924,-1.816793893129771,-0.07763671875,-0.031982421875,-0.5947265625,0.7514
0.48854961832061067,1.0381679389312977,-1.7709923664122138,-0.06884765625,-0.03173828125,-0.5927734375,0.7531
0.5954198473282443,0.9007633587786259,-1.8015267175572518,-0.07177734375,-0.026611328125,-0.589111328125,0.7547999999999999
0.48854961832061067,0.8244274809160306,-1.6946564885496183,-0.0751953125,-0.0283203125,-0.6044921875,0.7565
0.44274809160305345,0.9770992366412213,-1.786259541984733,-0.077880859375,-0.029296875,-0.60595703125,0.7582
0.8091603053435115,1.0076335877862594,-1.8625954198473282,-0.07470703125,-0.03662109375,-0.596923828125,0.7598999999999999
0.9770992366412213,0.9465648854961832,-1.6946564885496183,-0.072998046875,-0.030029296875,-0.595703125,0.7615999999999999
1.1450381679389312,0.8854961832061069,-1.984732824427481,-0.07080078125,-0.029052734375,-0.603271484375,0.7633
1.3893129770992367,0.8549618320610687,-1.6946564885496183,-0.069091796875,-0.027587890625,-0.602783203125,0.7649999999999999
1.3435114503816794,0.8091603053435115,-1.6488549618320612,-0.069580078125,-0.029052734375,-0.58837890625,0.7666999999999999
1.1603053435114503,0.8244274809160306,-1.6488549618320612,-0.0693359375,-0.0263671875,-0.598388671875,0.7684
1.4351145038167938,0.6717557251908397,-1.7709923664122138,-0.0712890625,-0.03271484375,-0.596435546875,0.7701
1.5114503816793894,0.5343511450381679,-1.7251908396946565,-0.0712890625,-0.031005859375,-0.595947265625,0.7717999999999999
1.4198473282442747,0.5343511450381679,-1.633587786259542,-0.067138671875,-0.035888671875,-0.600341796875,0.7735
1.4045801526717556,0.4732824427480916,-1.5572519083969465,-0.075439453125,-0.02587890625,-0.6044921875,0.7752
1.7404580152671756,0.5648854961832062,-1.7251908396946565,-0.070556640625,-0.033935546875,-0.6005859375,0.7768999999999999
1.8015267175572518,0.6717557251908397,-1.5572519083969465,-0.07177734375,-0.02978515625,-0.596923828125,0.7786
1.6793893129770991,0.366412213740458,-1.5572519083969465,-0.069580078125,-0.030517578125,-0.598876953125,0.7803
1.8625954198473282,0.4580152671755725,-1.4961832061068703,-0.07373046875,-0.0302734375,-0.602294921875,0.7819999999999999
1.9389312977099236,0.2748091603053435,-1.6030534351145038,-0.0712890625,-0.034912109375,-0.60791015625,0.7837
1.7709923664122138,0.3969465648854962,-1.4198473282442747,-0.070556640625,-0.03662109375,-0.601318359375,0.7854
1.8931297709923665,0.5343511450381679,-1.5572519083969465,-0.072021484375,-0.034912109375,-0.613037109375,0.7870999999999999
1.83206106870229,0.3053435114503817,-1.4351145038167938,-0.073974609375,-0.032958984375,-0.5986328125,0.7888
1.7099236641221374,0.13740458015267176,-1.3435114503816794,-0.069580078125,-0.03125,-0.60693359375,0.7905
1.6641221374045803,0.24427480916030533,-1.2061068702290076,-0.072509765625,-0.03515625,-0.60595703125,0.7921999999999999
1.5877862595419847,0.16793893129770993,-1.4198473282442747,-0.06787109375,-0.033935546875,-0.602783203125,0.7938999999999999
1.4351145038167938,0.3053435114503817,-1.251908396946565,-0.071533203125,-0.03076171875,-0.59521484375,0.7956
1.5725190839694656,0.32061068702290074,-1.251908396946565,-0.0732421875,-0.03173828125,-0.602783203125,0.7973
1.3129770992366412,0.21374045801526717,-1.2213740458015268,-0.077392578125,-0.0322265625,-0.60009765625,0.7989999999999999
1.3740458015267176,0.2748091603053435,-1.1297709923664123,-0.074951171875,-0.0322265625,-0.6005859375,0.8007
1.465648854961832,0.4122137404580153,-1.0534351145038168,-0.06982421875,-0.036865234375,-0.60107421875,0.8024
1.2061068702290076,0.2900763358778626,-1.3129770992366412,-0.0751953125,-0.038818359375,-0.605712890625,0.8040999999999999
1.450381679389313,0.3816793893129771,-1.3129770992366412,-0.071044921875,-0.036865234375,-0.603759765625,0.8058
1.465648854961832,0.5954198473282443,-1.3129770992366412,-0.07177734375,-0.03271484375,-0.604248046875,0.8075
1.3740458015267176,0.549618320610687,-1.3587786259541985,-0.06640625,-0.030517578125,-0.604736328125,0.8091999999999999
1.1755725190839694,0.5954198473282443,-1.3587786259541985,-0.074462890625,-0.03076171875,-0.5986328125,0.8109
1.297709923664122,0.7022900763358778,-1.297709923664122,-0.075927734375,-0.02880859375,-0.6025390625,0.8126
1.1297709923664123,0.7175572519083969,-1.6946564885496183,-0.071533203125,-0.02587890625,-0.606201171875,0.8142999999999999
1.3129770992366412,0.7022900763358778,-1.450381679389313,-0.072265625,-0.033447265625,-0.60107421875,0.816
1.1450381679389312,0.8396946564885496,-1.5725190839694656,-0.073486328125,-0.03173828125,-0.605224609375,0.8177
0.9618320610687023,0.9618320610687023,-1.5572519083969465,-0.07373046875,-0.03515625,-0.601806640625,0.8193999999999999
1.282442748091603,0.8702290076335878,-1.7557251908396947,-0.07763671875,-0.037109375,-0.602294921875,0.8210999999999999
1.2061068702290076,0.9312977099236641,-1.7251908396946565,-0.072998046875,-0.026123046875,-0.599853515625,0.8228
1.2366412213740459,1.1145038167938932,-1.8625954198473282,-0.076416015625,-0.033935546875,-0.60107421875,0.8244999999999999
1.282442748091603,1.0229007633587786,-1.5572519083969465,-0.077392578125,-0.03173828125,-0.600341796875,0.8261999999999999
1.5267175572519085,1.0687022900763359,-1.816793893129771,-0.079833984375,-0.03076171875,-0.60693359375,0.8279
1.5572519083969465,1.1603053435114503,-1.816793893129771,-0.07373046875,-0.026611328125,-0.60205078125,0.8296
1.4961832061068703,1.0534351145038168,-1.6641221374045803,-0.07861328125,-0.03076171875,-0.598876953125,0.8312999999999999
1.633587786259542,1.1908396946564885,-1.8473282442748091,-0.06787109375,-0.032958984375,-0.591064453125,0.833
1.9083969465648856,1.2671755725190839,-1.9694656488549618,-0.072021484375,-0.031494140625,-0.5947265625,0.8347
1.9236641221374047,1.1145038167938932,-2.0,-0.074951171875,-0.034423828125,-0.59814453125,0.8363999999999999
1.9389312977099236,1.282442748091603,-2.045801526717557,-0.07421875,-0.03125,-0.601318359375,0.8381
1.9236641221374047,1.2671755725190839,-1.6793893129770991,-0.075927734375,-0.033203125,-0.611572265625,0.8398
2.0916030534351147,1.2671755725190839,-1.9541984732824427,-0.07373046875,-0.029541015625,-0.603271484375,0.8414999999999999
2.0916030534351147,1.2213740458015268,-1.6793893129770991,-0.074462890625,-0.030517578125,-0.605712890625,0.8432
2.1068702290076335,1.3435114503816794,-1.9083969465648856,-0.078125,-0.033935546875,-0.607177734375,0.8449
1.9694656488549618,1.4045801526717556,-1.7709923664122138,-0.072021484375,-0.03271484375,-0.61328125,0.8465999999999999
2.1068702290076335,1.4351145038167938,-1.7557251908396947,-0.07421875,-0.031494140625,-0.607666015625,0.8482999999999999
2.122137404580153,1.3435114503816794,-1.7557251908396947,-0.077392578125,-0.03515625,-0.608642578125,0.85
2.015267175572519,1.4351145038167938,-2.0,-0.08203125,-0.03125,-0.595458984375,0.8516999999999999
1.9541984732824427,1.5267175572519085,-1.7557251908396947,-0.08056640625,-0.033935546875,-0.59033203125,0.8533999999999999
1.9389312977099236,1.5114503816793894,-1.8625954198473282,-0.076904296875,-0.03369140625,-0.607177734375,0.8551
1.9694656488549618,1.4961832061068703,-1.9236641221374047,-0.080810546875,-0.037109375,-0.597412109375,0.8568
1.8015267175572518,1.6488549618320612,-1.9236641221374047,-0.075927734375,-0.039306640625,-0.593017578125,0.8584999999999999
1.3282442748091603,1.6488549618320612,-1.8015267175572518,-0.0703125,-0.0380859375,-0.60107421875,0.8602
1.3282442748091603,1.6946564885496183,-1.9541984732824427,-0.077880859375,-0.03564453125,-0.608154296875,0.8619
1.282442748091603,1.6488549618320612,-1.8931297709923665,-0.07666015625,-0.038330078125,-0.6064453125,0.8635999999999999
0.8396946564885496,1.816793893129771,-1.8931297709923665,-0.078125,-0.0400390625,-0.598876953125,0.8653
1.0381679389312977,1.9389312977099236,-1.9541984732824427,-0.074951171875,-0.03759765625,-0.6044921875,0.867
1.083969465648855,1.8931297709923665,-2.0763358778625953,-0.082763671875,-0.040283203125,-0.598876953125,0.8686999999999999
0.9312977099236641,2.045801526717557,-2.015267175572519,-0.082275390625,-0.037109375,-0.598876953125,0.8704
0.732824427480916,1.984732824427481,-2.16793893129771,-0.078125,-0.03662109375,-0.60400390625,0.8721
0.7480916030534351,2.030534351145038,-1.984732824427481,-0.0810546875,-0.0390625,-0.6005859375,0.8737999999999999
0.6564885496183206,2.3206106870229006,-2.0916030534351147,-0.08251953125,-0.0361328125,-0.60009765625,0.8755
0.5648854961832062,2.4885496183206106,-2.045801526717557,-0.082763671875,-0.03955078125,-0.6015625,0.8772
0.6717557251908397,2.4732824427480917,-2.1374045801526718,-0.0771484375,-0.0361328125,-0.60107421875,0.8788999999999999
0.8244274809160306,2.50381679389313,-2.198473282442748,-0.078857421875,-0.035400390625,-0.60302734375,0.8805999999999999
0.7175572519083969,2.7480916030534353,-2.4885496183206106,-0.08154296875,-0.033203125,-0.5927734375,0.8823
0.8396946564885496,2.7786259541984735,-2.4580152671755724,-0.078125,-0.03125,-0.598876953125,0.8839999999999999
0.8396946564885496,2.9923664122137406,-2.213740458015267,-0.06884765625,-0.03173828125,-0.60009765625,0.8856999999999999
0.8854961832061069,2.7938931297709924,-2.213740458015267,-0.0712890625,-0.03515625,-0.60009765625,0.8874
1.0076335877862594,2.8091603053435112,-2.381679389312977,-0.0791015625,-0.03564453125,-0.599365234375,0.8891
1.297709923664122,2.946564885496183,-2.2595419847328246,-0.069091796875,-0.031494140625,-0.59521484375,0.8907999999999999
1.3282442748091603,2.8702290076335877,-2.381679389312977,-0.072021484375,-0.035400390625,-0.597412109375,0.8925
1.5267175572519085,2.885496183206107,-2.4122137404580153,-0.07421875,-0.03271484375,-0.593017578125,0.8942
1.5572519083969465,3.068702290076336,-2.3969465648854964,-0.07177734375,-0.03662109375,-0.591552734375,0.8958999999999999
1.816793893129771,2.9160305343511452,-2.3969465648854964,-0.0693359375,-0.037109375,-0.599853515625,0.8976
1.8931297709923665,2.7022900763358777,-2.2900763358778624,-0.0703125,-0.03271484375,-0.601318359375,0.8993
2.045801526717557,2.8244274809160306,-2.2748091603053435,-0.06689453125,-0.0322265625,-0.594970703125,0.9009999999999999
2.2900763358778624,2.854961832061069,-2.3206106870229006,-0.068115234375,-0.033447265625,-0.59521484375,0.9027
2.7022900763358777,2.717557251908397,-2.4122137404580153,-0.068359375,-0.030517578125,-0.597900390625,0.9044
2.7938931297709924,2.595419847328244,-2.427480916030534,-0.06787109375,-0.03662109375,-0.592041015625,0.9060999999999999
2.9160305343511452,2.8396946564885495,-2.2595419847328246,-0.06396484375,-0.029052734375,-0.590576171875,0.9077999999999999
3.3282442748091605,2.717557251908397,-2.351145038167939,-0.066162109375,-0.030029296875,-0.585205078125,0.9095
3.2519083969465647,2.6106870229007635,-2.351145038167939,-0.066162109375,-0.03515625,-0.5927734375,0.9111999999999999
3.053435114503817,2.4885496183206106,-2.33587786259542,-0.06689453125,-0.03955078125,-0.58984375,0.9128999999999999
3.480916030534351,2.33587786259542,-2.2290076335877864,-0.071533203125,-0.034912109375,-0.587890625,0.9146
3.7709923664122136,2.3053435114503817,-2.351145038167939,-0.07470703125,-0.03271484375,-0.581787109375,0.9163
3.83206106870229,2.16793893129771,-2.4122137404580153,-0.06298828125,-0.037109375,-0.59521484375,0.9179999999999999
3.8625954198473282,2.0763358778625953,-2.5343511450381677,-0.068603515625,-0.03369140625,-0.59619140625,0.9197
4.091603053435114,1.9083969465648856,-2.381679389312977,-0.068115234375,-0.0322265625,-0.587158203125,0.9214
4.0458015267175576,2.0763358778625953,-2.5343511450381677,-0.062744140625,-0.03662109375,-0.592041015625,0.9230999999999999
4.198473282442748,1.83206106870229,-2.4885496183206106,-0.06396484375,-0.02978515625,-0.6015625,0.9248
4.305343511450381,1.6030534351145038,-2.366412213740458,-0.06787109375,-0.038818359375,-0.5947265625,0.9265
4.091603053435114,1.5114503816793894,-2.519083969465649,-0.06689453125,-0.03759765625,-0.59912109375,0.9281999999999999
4.091603053435114,1.3740458015267176,-2.4580152671755724,-0.067138671875,-0.036376953125,-0.59716796875,0.9299
4.061068702290076,1.3282442748091603,-2.6412213740458017,-0.063720703125,-0.039306640625,-0.592529296875,0.9316
3.816793893129771,1.1603053435114503,-2.687022900763359,-0.06591796875,-0.03662109375,-0.59375,0.9332999999999999
3.8625954198473282,0.9465648854961832,-2.4732824427480917,-0.070068359375,-0.037841796875,-0.6044921875,0.9349999999999999
3.5419847328244276,0.9770992366412213,-2.3969465648854964,-0.0673828125,-0.03662109375,-0.603759765625,0.9367
3.969465648854962,0.8702290076335878,-2.3206106870229006,-0.06982421875,-0.037109375,-0.599609375,0.9383999999999999
3.633587786259542,0.6259541984732825,-2.3969465648854964,-0.0703125,-0.03662109375,-0.59423828125,0.9400999999999999
3.3282442748091605,0.5190839694656488,-2.6259541984732824,-0.06640625,-0.041015625,-0.60498046875,0.9418
3.282442748091603,0.549618320610687,-2.50381679389313,-0.072021484375,-0.041015625,-0.6064453125,0.9434999999999999
3.3435114503816794,0.44274809160305345,-2.4580152671755724,-0.076904296875,-0.03662109375,-0.601806640625,0.9451999999999999
2.8091603053435112,0.2748091603053435,-2.2748091603053435,-0.06982421875,-0.03857421875,-0.60595703125,0.9469
2.8396946564885495,0.07633587786259542,-2.3206106870229006,-0.071533203125,-0.03466796875,-0.597412109375,0.9486
2.564885496183206,0.12213740458015267,-2.4885496183206106,-0.072509765625,-0.04638671875,-0.59521484375,0.9502999999999999
2.366412213740458,-0.15267175572519084,-2.564885496183206,-0.078369140625,-0.03759765625,-0.600341796875,0.952
2.213740458015267,-0.13740458015267176,-2.6564885496183206,-0.078125,-0.03857421875,-0.6044921875,0.9537
2.030534351145038,0.061068702290076333,-2.5801526717557253,-0.07568359375,-0.041015625,-0.603515625,0.9553999999999999
1.8778625954198473,-0.183206106870229,-2.564885496183206,-0.06982421875,-0.039306640625,-0.608154296875,0.9571
1.8473282442748091,-0.21374045801526717,-2.4122137404580153,-0.071533203125,-0.03857421875,-0.605712890625,0.9588
1.7557251908396947,-0.3053435114503817,-2.564885496183206,-0.073486328125,-0.03857421875,-0.607666015625,0.9604999999999999
1.5572519083969465,-0.5801526717557252,-2.7786259541984735,-0.07666015625,-0.033447265625,-0.6064453125,0.9621999999999999
1.4198473282442747,-0.6564885496183206,-2.6259541984732824,-0.07470703125,-0.0400390625,-0.603271484375,0.9639
1.1755725190839694,-0.4732824427480916,-2.732824427480916,-0.078369140625,-0.03564453125,-0.603271484375,0.9655999999999999
0.7938931297709924,-0.5954198473282443,-2.4732824427480917,-0.075927734375,-0.0400390625,-0.601318359375,0.9672999999999999
0.8854961832061069,-0.5648854961832062,-2.732824427480916,-0.0810546875,-0.035888671875,-0.60888671875,0.969
0.916030534351145,-0.6870229007633588,-2.8396946564885495,-0.077392578125,-0.037109375,-0.604248046875,0.9706999999999999
0.5648854961832062,-0.5648854961832062,-2.8244274809160306,-0.0791015625,-0.034423828125,-0.59375,0.9723999999999999
0.5038167938931297,-0.5801526717557252,-2.8702290076335877,-0.08154296875,-0.037109375,-0.60302734375,0.9741
0.4122137404580153,-0.6870229007633588,-2.8396946564885495,-0.07958984375,-0.033935546875,-0.59521484375,0.9758
0.21374045801526717,-0.5038167938931297,-2.7938931297709924,-0.079345703125,-0.037353515625,-0.607666015625,0.9774999999999999
0.3053435114503817,-0.5954198473282443,-3.099236641221374,-0.079345703125,-0.032958984375,-0.60791015625,0.9792
0.4122137404580153,-0.366412213740458,-2.9618320610687023,-0.0771484375,-0.03271484375,-0.60400390625,0.9809
0.4122137404580153,-0.4122137404580153,-3.0076335877862594,-0.08203125,-0.029541015625,-0.60498046875,0.9825999999999999
0.13740458015267176,-0.366412213740458,-3.053435114503817,-0.076904296875,-0.032470703125,-0.5947265625,0.9843
0.183206106870229,-0.3816793893129771,-3.1755725190839694,-0.080810546875,-0.033447265625,-0.593505859375,0.986
0.2748091603053435,-0.5038167938931297,-3.2061068702290076,-0.080322265625,-0.03173828125,-0.596435546875,0.9876999999999999
0.1984732824427481,-0.42748091603053434,-3.49618320610687,-0.08154296875,-0.033203125,-0.599609375,0.9894
0.44274809160305345,-0.44274809160305345,-3.4198473282442747,-0.076904296875,-0.03369140625,-0.59912109375,0.9911
0.44274809160305345,-0.4122137404580153,-3.3435114503816794,-0.082763671875,-0.030517578125,-0.608642578125,0.9927999999999999
0.6717557251908397,-0.42748091603053434,-3.3893129770992365,-0.06982421875,-0.03125,-0.605224609375,0.9944999999999999
0.549618320610687,-0.3969465648854962,-3.5572519083969465,-0.072021484375,-0.031494140625,-0.606201171875,0.9962
0.8244274809160306,-0.2748091603053435,-3.5267175572519083,-0.072265625,-0.029296875,-0.603271484375,0.9978999999999999
0.916030534351145,-0.3511450381679389,-3.435114503816794,-0.07177734375,-0.0322265625,-0.603515625,0.9995999999999999
1.1450381679389312,-0.33587786259541985,-3.3740458015267176,-0.0732421875,-0.027587890625,-0.60498046875,1.0012999999999999
1.2671755725190839,-0.6564885496183206,-3.404580152671756,-0.0732421875,-0.032958984375,-0.592041015625,1.003
1.099236641221374,-0.6717557251908397,-3.435114503816794,-0.071533203125,-0.03125,-0.59765625,1.0047
1.1297709923664123,-0.5954198473282443,-3.3893129770992365,-0.076416015625,-0.029052734375,-0.604736328125,1.0064
1.099236641221374,-0.7480916030534351,-3.267175572519084,-0.078857421875,-0.0283203125,-0.6005859375,1.0081
1.0381679389312977,-0.8549618320610687,-3.267175572519084,-0.07373046875,-0.031005859375,-0.606689453125,1.0098
1.099236641221374,-0.9007633587786259,-3.114503816793893,-0.0732421875,-0.03125,-0.609130859375,1.0114999999999998
1.1603053435114503,-0.8702290076335878,-3.1755725190839694,-0.077880859375,-0.02880859375,-0.6005859375,1.0131999999999999
1.297709923664122,-1.083969465648855,-3.0381679389312977,-0.0791015625,-0.033935546875,-0.60302734375,1.0149
1.1450381679389312,-1.099236641221374,-3.1908396946564888,-0.07470703125,-0.032958984375,-0.60009765625,1.0166
0.8396946564885496,-1.099236641221374,-2.7786259541984735,-0.078857421875,-0.031005859375,-0.6064453125,1.0183
1.1908396946564885,-1.2671755725190839,-2.946564885496183,-0.072509765625,-0.02978515625,-0.603271484375,1.02
0.9618320610687023,-1.2213740458015268,-2.763358778625954,-0.0732421875,-0.035400390625,-0.603515625,1.0217
0.9770992366412213,-1.1603053435114503,-2.6106870229007635,-0.07421875,-0.03125,-0.602783203125,1.0233999999999999
1.0381679389312977,-1.2213740458015268,-2.6564885496183206,-0.073486328125,-0.035400390625,-0.60595703125,1.0251
1.0687022900763359,-1.1145038167938932,-2.519083969465649,-0.07275390625,-0.034912109375,-0.610107421875,1.0268
0.9312977099236641,-1.1450381679389312,-2.6106870229007635,-0.071044921875,-0.032958984375,-0.6064453125,1.0285
1.0229007633587786,-1.1908396946564885,-2.549618320610687,-0.070068359375,-0.029052734375,-0.600341796875,1.0302
1.0534351145038168,-1.251908396946565,-2.2290076335877864,-0.0732421875,-0.03173828125,-0.60009765625,1.0319
1.2671755725190839,-1.3740458015267176,-2.427480916030534,-0.076171875,-0.030029296875,-0.602294921875,1.0335999999999999
1.099236641221374,-1.1755725190839694,-2.0916030534351147,-0.077392578125,-0.031494140625,-0.599365234375,1.0352999999999999
0.9007633587786259,-1.0687022900763359,-2.122137404580153,-0.080078125,-0.026123046875,-0.604248046875,1.037
1.251908396946565,-0.9618320610687023,-2.0,-0.07861328125,-0.027587890625,-0.604736328125,1.0387
1.0076335877862594,-0.9923664122137404,-2.0610687022900764,-0.075439453125,-0.026123046875,-0.610595703125,1.0404
0.9312977099236641,-1.0687022900763359,-1.7404580152671756,-0.077392578125,-0.026123046875,-0.607177734375,1.0421
0.8549618320610687,-0.7938931297709924,-1.83206106870229,-0.0791015625,-0.030029296875,-0.6142578125,1.0437999999999998
0.6564885496183206,-0.7480916030534351,-1.6946564885496183,-0.078857421875,-0.034912109375,-0.60498046875,1.0454999999999999
0.7480916030534351,-0.7633587786259542,-1.6488549618320612,-0.072021484375,-0.021484375,-0.6123046875,1.0472
0.7786259541984732,-0.6412213740458015,-1.4809160305343512,-0.0751953125,-0.027099609375,-0.610595703125,1.0489
0.4732824427480916,-0.5801526717557252,-1.6946564885496183,-0.07666015625,-0.028564453125,-0.607666015625,1.0506
0.549618320610687,-0.5343511450381679,-1.5572519083969465,-0.07763671875,-0.021728515625,-0.598388671875,1.0523
0.7022900763358778,-0.3969465648854962,-1.5572519083969465,-0.07666015625,-0.03076171875,-0.59912109375,1.054
0.6564885496183206,-0.3053435114503817,-1.450381679389313,-0.07373046875,-0.0302734375,-0.607421875,1.0556999999999999
0.5190839694656488,-0.4122137404580153,-1.450381679389313,-0.07763671875,-0.02490234375,-0.609375,1.0574
0.6564885496183206,-0.15267175572519084,-1.3893129770992367,-0.075927734375,-0.03125,-0.603271484375,1.0591
0.732824427480916,-0.3969465648854962,-1.5725190839694656,-0.07373046875,-0.029541015625,-0.599853515625,1.0608
0.5038167938931297,-0.1984732824427481,-1.2061068702290076,-0.071533203125,-0.025390625,-0.60107421875,1.0625
0.6259541984732825,-0.2595419847328244,-1.4351145038167938,-0.0771484375,-0.0224609375,-0.60302734375,1.0642
0.7480916030534351,-0.21374045801526717,-1.2671755725190839,-0.07373046875,-0.02685546875,-0.597900390625,1.0658999999999998
0.8549618320610687,0.04580152671755725,-1.450381679389313,-0.074462890625,-0.0263671875,-0.604736328125,1.0675999999999999
0.7786259541984732,-0.16793893129770993,-1.3129770992366412,-0.07421875,-0.025634765625,-0.607421875,1.0693
0.9007633587786259,-0.24427480916030533,-1.3587786259541985,-0.076171875,-0.024658203125,-0.604248046875,1.071
0.8854961832061069,-0.15267175572519084,-1.4045801526717556,-0.072021484375,-0.0224609375,-0.615478515625,1.0727
0.7786259541984732,-0.21374045801526717,-1.251908396946565,-0.072265625,-0.0244140625,-0.606201171875,1.0744
0.9618320610687023,-0.13740458015267176,-1.1755725190839694,-0.075439453125,-0.029296875,-0.598876953125,1.0760999999999998
1.2366412213740459,-0.04580152671755725,-1.3740458015267176,-0.07958984375,-0.0263671875,-0.60693359375,1.0777999999999999
1.251908396946565,-0.030534351145038167,-1.251908396946565,-0.078857421875,-0.0263671875,-0.6064453125,1.0795
1.0076335877862594,0.04580152671755725,-1.1603053435114503,-0.076171875,-0.02001953125,-0.603759765625,1.0812
1.2213740458015268,0.04580152671755725,-1.4045801526717556,-0.07568359375,-0.021728515625,-0.60009765625,1.0829
1.4198473282442747,0.12213740458015267,-1.3740458015267176,-0.0751953125,-0.0244140625,-0.60302734375,1.0846
1.4198473282442747,0.13740458015267176,-1.083969465648855,-0.072265625,-0.0234375,-0.602783203125,1.0863
1.3893129770992367,0.0916030534351145,-1.1145038167938932,-0.072998046875,-0.02587890625,-0.608642578125,1.0879999999999999
1.4198473282442747,0.4122137404580153,-1.1755725190839694,-0.074951171875,-0.02783203125,-0.604248046875,1.0897
1.4198473282442747,0.4122137404580153,-1.083969465648855,-0.073974609375,-0.026611328125,-0.61279296875,1.0914
1.3282442748091603,0.5038167938931297,-0.8702290076335878,-0.073974609375,-0.02880859375,-0.61083984375,1.0931
1.5267175572519085,0.5954198473282443,-0.9770992366412213,-0.070068359375,-0.03076171875,-0.60986328125,1.0948
1.3129770992366412,0.5954198473282443,-0.8854961832061069,-0.07373046875,-0.024658203125,-0.60400390625,1.0965
1.0076335877862594,0.5038167938931297,-0.8091603053435115,-0.079833984375,-0.02978515625,-0.609375,1.0981999999999998
0.9618320610687023,0.6564885496183206,-0.5648854961832062,-0.078369140625,-0.033935546875,-0.611083984375,1.0998999999999999
0.9312977099236641,0.5801526717557252,-0.7480916030534351,-0.077880859375,-0.02783203125,-0.60107421875,1.1016
1.1297709923664123,0.5954198473282443,-0.8091603053435115,-0.078369140625,-0.028076171875,-0.603515625,1.1033
0.8396946564885496,0.7786259541984732,-0.7175572519083969,-0.07861328125,-0.03173828125,-0.60205078125,1.105
0.6259541984732825,0.7786259541984732,-0.4732824427480916,-0.076904296875,-0.03271484375,-0.60302734375,1.1067
0.916030534351145,0.8396946564885496,-0.7633587786259542,-0.072998046875,-0.0322265625,-0.61083984375,1.1083999999999998
0.8244274809160306,0.7633587786259542,-0.732824427480916,-0.077880859375,-0.033447265625,-0.60888671875,1.1100999999999999
0.6412213740458015,0.732824427480916,-0.5190839694656488,-0.080078125,-0.033935546875,-0.609375,1.1118
0.8091603053435115,0.8549618320610687,-0.366412213740458,-0.0673828125,-0.028564453125,-0.60546875,1.1135
0.9465648854961832,1.0534351145038168,-0.5801526717557252,-0.07763671875,-0.02880859375,-0.60400390625,1.1152
0.8091603053435115,0.8396946564885496,-0.5038167938931297,-0.0791015625,-0.030517578125,-0.604248046875,1.1169
0.7175572519083969,0.8091603053435115,-0.44274809160305345,-0.073974609375,-0.033935546875,-0.60986328125,1.1186
0.7786259541984732,0.916030534351145,-0.42748091603053434,-0.079345703125,-0.030517578125,-0.608154296875,1.1202999999999999
0.6717557251908397,1.0229007633587786,-0.4732824427480916,-0.07861328125,-0.03271484375,-0.609130859375,1.1219999999999999
0.8549618320610687,0.9923664122137404,-0.5343511450381679,-0.074951171875,-0.030029296875,-0.608642578125,1.1237
0.9770992366412213,1.1450381679389312,-0.5343511450381679,-0.080810546875,-0.0322265625,-0.612060546875,1.1254
0.9923664122137404,1.0381679389312977,-0.32061068702290074,-0.07958984375,-0.030517578125,-0.609375,1.1271
1.0534351145038168,1.2061068702290076,-0.8244274809160306,-0.0791015625,-0.034912109375,-0.605224609375,1.1288
1.3435114503816794,1.0687022900763359,-0.4580152671755725,-0.07666015625,-0.028076171875,-0.605712890625,1.1304999999999998
1.4809160305343512,1.099236641221374,-0.5343511450381679,-0.07275390625,-0.036376953125,-0.609130859375,1.1321999999999999
1.450381679389313,1.3129770992366412,-0.7022900763358778,-0.080322265625,-0.02978515625,-0.609130859375,1.1339
1.5267175572519085,1.2061068702290076,-0.5801526717557252,-0.0791015625,-0.027587890625,-0.60546875,1.1356
1.5267175572519085,1.2213740458015268,-0.6106870229007634,-0.083984375,-0.03515625,-0.59814453125,1.1373
1.6641221374045803,1.3587786259541985,-0.5954198473282443,-0.083984375,-0.0322265625,-0.592529296875,1.139
1.83206106870229,1.465648854961832,-0.4122137404580153,-0.078125,-0.031005859375,-0.602783203125,1.1407
1.984732824427481,1.5877862595419847,-0.7480916030534351,-0.077880859375,-0.030029296875,-0.60791015625,1.1423999999999999
1.9694656488549618,1.7557251908396947,-0.6870229007633588,-0.078369140625,-0.029296875,-0.60888671875,1.1441
1.9236641221374047,1.633587786259542,-0.5801526717557252,-0.076171875,-0.028564453125,-0.597900390625,1.1458
1.83206106870229,1.9236641221374047,-0.6106870229007634,-0.0791015625,-0.031005859375,-0.59765625,1.1475
1.984732824427481,1.9694656488549618,-0.7786259541984732,-0.078125,-0.033447265625,-0.6015625,1.1492
1.9236641221374047,1.9389312977099236,-0.549618320610687,-0.080322265625,-0.0380859375,-0.606689453125,1.1509
2.045801526717557,2.16793893129771,-0.5801526717557252,-0.081298828125,-0.03173828125,-0.604736328125,1.1525999999999998
2.2442748091603053,2.2442748091603053,-0.732824427480916,-0.0810546875,-0.035888671875,-0.607421875,1.1542999999999999
2.16793893129771,2.4732824427480917,-0.5954198473282443,-0.082275390625,-0.031494140625,-0.604736328125,1.156
2.0916030534351147,2.351145038167939,-0.5801526717557252,-0.079833984375,-0.0380859375,-0.6064453125,1.1577
2.2442748091603053,2.4580152671755724,-0.549618320610687,-0.0771484375,-0.036376953125,-0.6015625,1.1594
2.33587786259542,2.7938931297709924,-0.5954198473282443,-0.083740234375,-0.03515625,-0.603515625,1.1611
2.3969465648854964,2.885496183206107,-0.7175572519083969,-0.076904296875,-0.036376953125,-0.603271484375,1.1627999999999998
2.3053435114503817,2.854961832061069,-0.7480916030534351,-0.08251953125,-0.039306640625,-0.59716796875,1.1644999999999999
2.2290076335877864,2.9618320610687023,-0.8244274809160306,-0.083251953125,-0.035888671875,-0.604248046875,1.1662
2.3053435114503817,3.068702290076336,-0.6412213740458015,-0.07763671875,-0.03515625,-0.604736328125,1.1679
2.183206106870229,3.1297709923664123,-0.7786259541984732,-0.08203125,-0.038330078125,-0.595458984375,1.1696
2.1526717557251906,3.1755725190839694,-0.7786259541984732,-0.07861328125,-0.0361328125,-0.608642578125,1.1713
2.183206106870229,3.3435114503816794,-0.7480916030534351,-0.078125,-0.036376953125,-0.600830078125,1.173
2.030534351145038,3.282442748091603,-0.7786259541984732,-0.080322265625,-0.040283203125,-0.590087890625,1.1746999999999999
2.0916030534351147,3.404580152671756,-0.8244274809160306,-0.077392578125,-0.037109375,-0.597900390625,1.1764
1.9541984732824427,3.2213740458015265,-0.9312977099236641,-0.077392578125,-0.03955078125,-0.59912109375,1.1781
1.9083969465648856,3.3740458015267176,-0.9312977099236641,-0.07861328125,-0.032470703125,-0.6025390625,1.1798
1.83206106870229,3.49618320610687,-0.8854961832061069,-0.072021484375,-0.03662109375,-0.604248046875,1.1815
1.5877862595419847,3.5572519083969465,-0.7633587786259542,-0.074951171875,-0.0361328125,-0.597900390625,1.1832
1.5877862595419847,3.3282442748091605,-0.9312977099236641,-0.0732421875,-0.035888671875,-0.60400390625,1.1848999999999998
1.3587786259541985,3.4656488549618323,-0.8549618320610687,-0.071533203125,-0.034912109375,-0.594482421875,1.1865999999999999
1.2671755725190839,3.404580152671756,-0.7938931297709924,-0.073974609375,-0.0439453125,-0.597412109375,1.1883
1.1603053435114503,3.435114503816794,-0.916030534351145,-0.0771484375,-0.03564453125,-0.59912109375,1.19
1.1297709923664123,3.267175572519084,-0.9770992366412213,-0.076416015625,-0.0419921875,-0.602783203125,1.1917
0.9618320610687023,3.404580152671756,-0.8396946564885496,-0.072509765625,-0.03759765625,-0.593017578125,1.1934
0.6412213740458015,3.267175572519084,-0.7786259541984732,-0.074951171875,-0.03564453125,-0.602294921875,1.1950999999999998
0.7022900763358778,3.1755725190839694,-0.8549618320610687,-0.075927734375,-0.03076171875,-0.6015625,1.1967999999999999
0.32061068702290074,3.3435114503816794,-0.8549618320610687,-0.073486328125,-0.032958984375,-0.604248046875,1.1985
0.6564885496183206,3.4198473282442747,-0.8549618320610687,-0.072021484375,-0.032470703125,-0.606201171875,1.2002
0.6412213740458015,3.1755725190839694,-0.9923664122137404,-0.071533203125,-0.035888671875,-0.602294921875,1.2019
0.16793893129770993,2.9923664122137406,-0.8396946564885496,-0.07275390625,-0.0400390625,-0.611083984375,1.2036
0.1984732824427481,3.068702290076336,-0.9770992366412213,-0.075927734375,-0.035888671875,-0.608642578125,1.2053
0.10687022900763359,3.145038167938931,-0.7938931297709924,-0.075927734375,-0.0400390625,-0.6005859375,1.2069999999999999
0.061068702290076333,3.2213740458015265,-1.083969465648855,-0.07470703125,-0.038330078125,-0.6005859375,1.2086999999999999
0.015267175572519083,2.900763358778626,-1.099236641221374,-0.073486328125,-0.036376953125,-0.60693359375,1.2104
-0.04580152671755725,2.900763358778626,-1.1297709923664123,-0.072998046875,-0.033447265625,-0.607421875,1.2121
-0.15267175572519084,2.8702290076335877,-0.9923664122137404,-0.0732421875,-0.037841796875,-0.609619140625,1.2138
-0.32061068702290074,3.0381679389312977,-1.1755725190839694,-0.071044921875,-0.039794921875,-0.596923828125,1.2155
-0.3816793893129771,2.8244274809160306,-1.0687022900763359,-0.074462890625,-0.03662109375,-0.6044921875,1.2171999999999998
-0.5038167938931297,2.717557251908397,-1.0534351145038168,-0.07763671875,-0.03466796875,-0.597900390625,1.2188999999999999
-0.7175572519083969,2.6717557251908395,-0.8702290076335878,-0.07275390625,-0.03369140625,-0.6025390625,1.2206
-0.6717557251908397,2.4580152671755724,-1.0076335877862594,-0.072021484375,-0.03662109375,-0.6044921875,1.2223
-0.8854961832061069,2.549618320610687,-1.0381679389312977,-0.06884765625,-0.0341796875,-0.593994140625,1.224
-0.9923664122137404,2.4580152671755724,-1.0229007633587786,-0.072998046875,-0.032958984375,-0.60546875,1.2257
-0.9770992366412213,2.2290076335877864,-1.0076335877862594,-0.072021484375,-0.03369140625,-0.604736328125,1.2273999999999998
-0.9312977099236641,2.2442748091603053,-1.1908396946564885,-0.07177734375,-0.0283203125,-0.60693359375,1.2290999999999999
-0.8549618320610687,2.1068702290076335,-0.9923664122137404,-0.0751953125,-0.0380859375,-0.599365234375,1.2308
-0.5954198473282443,2.2442748091603053,-1.099236641221374,-0.069580078125,-0.03271484375,-0.599853515625,1.2325
-0.6717557251908397,2.2595419847328246,-1.1297709923664123,-0.07763671875,-0.03271484375,-0.601318359375,1.2342
-0.7022900763358778,2.2748091603053435,-1.3893129770992367,-0.076171875,-0.029541015625,-0.5986328125,1.2359
-0.5038167938931297,2.0610687022900764,-1.2213740458015268,-0.0751953125,-0.031982421875,-0.59228515625,1.2376
-0.5038167938931297,2.0610687022900764,-1.3893129770992367,-0.076171875,-0.0302734375,-0.592529296875,1.2392999999999998
-0.3816793893129771,1.984732824427481,-1.3587786259541985,-0.07177734375,-0.02783203125,-0.599609375,1.2409999999999999
-0.42748091603053434,1.8473282442748091,-1.633587786259542,-0.0712890625,-0.030517578125,-0.60302734375,1.2427
-0.22900763358778625,1.8473282442748091,-1.465648854961832,-0.07080078125,-0.035888671875,-0.596923828125,1.2444
-0.3053435114503817,2.0,-1.6030534351145038,-0.0703125,-0.031005859375,-0.598876953125,1.2461
-0.4122137404580153,1.8015267175572518,-1.5877862595419847,-0.0732421875,-0.02734375,-0.596435546875,1.2478
-0.1984732824427481,1.7709923664122138,-1.8778625954198473,-0.0712890625,-0.031494140625,-0.59619140625,1.2494999999999998
-0.015267175572519083,1.633587786259542,-1.8473282442748091,-0.072509765625,-0.02783203125,-0.6025390625,1.2511999999999999
-0.24427480916030533,1.5877862595419847,-1.8778625954198473,-0.071533203125,-0.02734375,-0.60693359375,1.2529
-0.2595419847328244,1.6793893129770991,-1.9541984732824427,-0.074462890625,-0.027587890625,-0.597412109375,1.2546
-0.07633587786259542,1.282442748091603,-2.0,-0.073486328125,-0.031494140625,-0.58935546875,1.2563
-0.015267175572519083,1.4198473282442747,-1.9694656488549618,-0.071533203125,-0.028076171875,-0.59912109375,1.258
-0.22900763358778625,1.4198473282442747,-2.045801526717557,-0.071044921875,-0.02880859375,-0.59619140625,1.2596999999999998
-0.12213740458015267,1.3587786259541985,-2.1068702290076335,-0.070068359375,-0.0283203125,-0.592529296875,1.2613999999999999
0.10687022900763359,1.4198473282442747,-2.0610687022900764,-0.071044921875,-0.032470703125,-0.603759765625,1.2631
0.15267175572519084,1.2366412213740459,-2.0610687022900764,-0.0693359375,-0.02978515625,-0.5966796875,1.2648
0.183206106870229,1.0229007633587786,-2.213740458015267,-0.071533203125,-0.0341796875,-0.594482421875,1.2665
0.3816793893129771,1.1450381679389312,-2.1526717557251906,-0.06884765625,-0.037353515625,-0.605224609375,1.2682
0.6412213740458015,1.083969465648855,-2.3053435114503817,-0.070556640625,-0.0322265625,-0.603271484375,1.2699
0.48854961832061067,1.0076335877862594,-2.1374045801526718,-0.06884765625,-0.033447265625,-0.59814453125,1.2715999999999998
0.6259541984732825,0.9770992366412213,-2.2290076335877864,-0.06689453125,-0.02783203125,-0.59814453125,1.2732999999999999
0.7938931297709924,0.7786259541984732,-2.351145038167939,-0.0712890625,-0.03173828125,-0.59716796875,1.275
0.6870229007633588,0.8244274809160306,-2.4427480916030535,-0.0732421875,-0.03125,-0.597412109375,1.2767
0.9312977099236641,0.5954198473282443,-2.3969465648854964,-0.0693359375,-0.0341796875,-0.594482421875,1.2784
0.9465648854961832,0.5954198473282443,-2.5801526717557253,-0.067138671875,-0.03271484375,-0.59814453125,1.2801
0.9465648854961832,0.4122137404580153,-2.366412213740458,-0.065673828125,-0.0341796875,-0.60205078125,1.2817999999999998
1.0381679389312977,0.183206106870229,-2.3206106870229006,-0.068115234375,-0.036376953125,-0.6044921875,1.2834999999999999
0.8549618320610687,0.2900763358778626,-2.198473282442748,-0.072509765625,-0.034423828125,-0.607177734375,1.2852
0.9465648854961832,0.12213740458015267,-2.5343511450381677,-0.06689453125,-0.0302734375,-0.601318359375,1.2869
0.9465648854961832,-0.10687022900763359,-2.1374045801526718,-0.0712890625,-0.0302734375,-0.592529296875,1.2886
1.0381679389312977,0.030534351145038167,-2.1374045801526718,-0.069580078125,-0.03466796875,-0.59765625,1.2903
1.0229007633587786,-0.07633587786259542,-2.1526717557251906,-0.06884765625,-0.03125,-0.59521484375,1.292
1.0687022900763359,-0.3511450381679389,-2.183206106870229,-0.067626953125,-0.03125,-0.59375,1.2936999999999999
0.9770992366412213,-0.21374045801526717,-1.9236641221374047,-0.06982421875,-0.034912109375,-0.59765625,1.2953999999999999
0.5343511450381679,-0.3816793893129771,-1.9541984732824427,-0.06982421875,-0.0341796875,-0.5947265625,1.2971
0.6870229007633588,-0.42748091603053434,-1.8931297709923665,-0.071533203125,-0.034912109375,-0.60498046875,1.2988
0.4122137404580153,-0.3969465648854962,-1.9541984732824427,-0.0703125,-0.031005859375,-0.60546875,1.3005
0.24427480916030533,-0.3511450381679389,-1.7557251908396947,-0.071044921875,-0.037109375,-0.602294921875,1.3022
0.2900763358778626,-0.366412213740458,-1.8015267175572518,-0.075927734375,-0.035888671875,-0.59619140625,1.3038999999999998
0.015267175572519083,-0.22900763358778625,-1.633587786259542,-0.07373046875,-0.03466796875,-0.59716796875,1.3055999999999999
-0.061068702290076333,-0.549618320610687,-1.6030534351145038,-0.074462890625,-0.033203125,-0.601806640625,1.3073
-0.13740458015267176,-0.5038167938931297,-1.4351145038167938,-0.076171875,-0.0322265625,-0.596923828125,1.309
-0.1984732824427481,-0.2595419847328244,-1.3893129770992367,-0.073974609375,-0.031005859375,-0.597412109375,1.3107
-0.183206106870229,-0.366412213740458,-1.4198473282442747,-0.076171875,-0.03125,-0.605224609375,1.3124
-0.15267175572519084,-0.2595419847328244,-1.6488549618320612,-0.0791015625,-0.03466796875,-0.592041015625,1.3140999999999998
-0.12213740458015267,-0.183206106870229,-1.5725190839694656,-0.07763671875,-0.03173828125,-0.59326171875,1.3157999999999999
-0.04580152671755725,0.15267175572519084,-1.633587786259542,-0.080322265625,-0.031982421875,-0.598388671875,1.3175
-0.015267175572519083,-0.030534351145038167,-1.7251908396946565,-0.083251953125,-0.03662109375,-0.59423828125,1.3192
-0.030534351145038167,-0.04580152671755725,-1.5877862595419847,-0.08154296875,-0.02783203125,-0.601318359375,1.3209
0.13740458015267176,0.33587786259541985,-1.3893129770992367,-0.083251953125,-0.035400390625,-0.604736328125,1.3226
0.15267175572519084,0.32061068702290074,-1.7099236641221374,-0.083740234375,-0.033935546875,-0.599853515625,1.3243
0.183206106870229,0.2900763358778626,-1.5725190839694656,-0.07958984375,-0.0283203125,-0.59912109375,1.3259999999999998
0.07633587786259542,0.2748091603053435,-1.7404580152671756,-0.0791015625,-0.032470703125,-0.608154296875,1.3276999999999999
0.10687022900763359,0.5190839694656488,-1.7557251908396947,-0.0810546875,-0.03271484375,-0.6083984375,1.3294
0.1984732824427481,0.5648854961832062,-1.4809160305343512,-0.081298828125,-0.0322265625,-0.60400390625,1.3311
0.0,0.732824427480916,-1.7251908396946565,-0.0810546875,-0.02880859375,-0.59814453125,1.3328
0.13740458015267176,0.7480916030534351,-1.7251908396946565,-0.077880859375,-0.029052734375,-0.599853515625,1.3345
0.16793893129770993,0.916030534351145,-1.4351145038167938,-0.0771484375,-0.03125,-0.60009765625,1.3361999999999998
0.2595419847328244,1.099236641221374,-1.6488549618320612,-0.07568359375,-0.029296875,-0.603515625,1.3378999999999999
0.16793893129770993,1.2213740458015268,-1.618320610687023,-0.073974609375,-0.029541015625,-0.601318359375,1.3396
0.2748091603053435,1.3435114503816794,-1.6946564885496183,-0.073974609375,-0.03076171875,-0.59521484375,1.3413
0.10687022900763359,1.4045801526717556,-1.465648854961832,-0.0732421875,-0.031005859375,-0.592041015625,1.343
0.3816793893129771,1.5114503816793894,-1.5725190839694656,-0.0751953125,-0.032958984375,-0.595703125,1.3447
0.5648854961832062,1.7709923664122138,-1.450381679389313,-0.076171875,-0.035888671875,-0.6005859375,1.3463999999999998
0.5343511450381679,1.7251908396946565,-1.4961832061068703,-0.075439453125,-0.03369140625,-0.592041015625,1.3480999999999999
0.6564885496183206,1.5877862595419847,-1.5267175572519085,-0.068359375,-0.03466796875,-0.605224609375,1.3497999999999999
0.5190839694656488,1.7251908396946565,-1.633587786259542,-0.078125,-0.029541015625,-0.60498046875,1.3515
0.732824427480916,2.0,-1.5267175572519085,-0.0791015625,-0.03466796875,-0.602294921875,1.3532
0.6870229007633588,1.8473282442748091,-1.3893129770992367,-0.076171875,-0.03466796875,-0.60302734375,1.3549
0.6106870229007634,1.7557251908396947,-1.4809160305343512,-0.078369140625,-0.032470703125,-0.600341796875,1.3566
0.7938931297709924,1.8625954198473282,-1.5267175572519085,-0.073486328125,-0.03271484375,-0.59326171875,1.3582999999999998
0.7938931297709924,1.9083969465648856,-1.3587786259541985,-0.078857421875,-0.029052734375,-0.596435546875,1.3599999999999999
0.3969465648854962,1.786259541984733,-1.2366412213740459,-0.07861328125,-0.0361328125,-0.59765625,1.3617
0.6106870229007634,1.8015267175572518,-1.3129770992366412,-0.069091796875,-0.03125,-0.594970703125,1.3634
0.6259541984732825,1.6793893129770991,-1.4045801526717556,-0.0703125,-0.030029296875,-0.5927734375,1.3651
0.6412213740458015,1.7709923664122138,-1.2671755725190839,-0.076171875,-0.037353515625,-0.601806640625,1.3668
0.7938931297709924,1.4961832061068703,-1.3893129770992367,-0.074951171875,-0.030517578125,-0.596435546875,1.3684999999999998
0.6870229007633588,1.5114503816793894,-1.2213740458015268,-0.06884765625,-0.03271484375,-0.597412109375,1.3701999999999999
0.916030534351145,1.7404580152671756,-1.1755725190839694,-0.073974609375,-0.0302734375,-0.600830078125,1.3719
1.0687022900763359,1.5267175572519085,-1.3587786259541985,-0.069580078125,-0.03369140625,-0.596435546875,1.3736
1.2671755725190839,1.3435114503816794,-1.297709923664122,-0.068359375,-0.0302734375,-0.602783203125,1.3753
1.0229007633587786,1.2671755725190839,-1.251908396946565,-0.0712890625,-0.03125,-0.5888671875,1.377
1.282442748091603,1.5572519083969465,-1.297709923664122,-0.07080078125,-0.030029296875,-0.592529296875,1.3786999999999998
1.2671755725190839,1.4351145038167938,-1.3435114503816794,-0.07275390625,-0.029052734375,-0.60888671875,1.3803999999999998
1.3740458015267176,1.3282442748091603,-1.1450381679389312,-0.0712890625,-0.034423828125,-0.599609375,1.3820999999999999
1.633587786259542,1.1908396946564885,-1.251908396946565,-0.073486328125,-0.03173828125,-0.60302734375,1.3838
1.7251908396946565,1.251908396946565,-0.9618320610687023,-0.0693359375,-0.032958984375,-0.60107421875,1.3855
1.5419847328244274,1.251908396946565,-1.2213740458015268,-0.07080078125,-0.031494140625,-0.60302734375,1.3872
1.7099236641221374,1.1755725190839694,-1.2671755725190839,-0.073974609375,-0.033447265625,-0.60595703125,1.3889
1.7709923664122138,1.1603053435114503,-1.0229007633587786,-0.074951171875,-0.038818359375,-0.604248046875,1.3905999999999998
1.8473282442748091,1.1908396946564885,-0.9770992366412213,-0.0751953125,-0.03125,-0.593505859375,1.3922999999999999
1.9694656488549618,1.0381679389312977,-0.9618320610687023,-0.07958984375,-0.029052734375,-0.600830078125,1.394
2.030534351145038,1.2213740458015268,-1.1603053435114503,-0.076416015625,-0.03369140625,-0.601806640625,1.3957
1.6030534351145038,1.0381679389312977,-0.9618320610687023,-0.07666015625,-0.0263671875,-0.598876953125,1.3974
1.9541984732824427,1.1145038167938932,-0.9312977099236641,-0.0751953125,-0.0302734375,-0.611328125,1.3991
1.9083969465648856,0.9923664122137404,-1.0076335877862594,-0.073974609375,-0.029541015625,-0.604736328125,1.4007999999999998
2.122137404580153,1.251908396946565,-0.8702290076335878,-0.07421875,-0.03271484375,-0.603515625,1.4024999999999999
1.984732824427481,1.1603053435114503,-0.8549618320610687,-0.0732421875,-0.03515625,-0.60498046875,1.4042
1.9694656488549618,1.0381679389312977,-0.8854961832061069,-0.073486328125,-0.034912109375,-0.597412109375,1.4059
2.045801526717557,1.0076335877862594,-1.0076335877862594,-0.0732421875,-0.03076171875,-0.599365234375,1.4076
2.198473282442748,1.0076335877862594,-1.0687022900763359,-0.071044921875,-0.03564453125,-0.59716796875,1.4093
2.16793893129771,0.9312977099236641,-1.0229007633587786,-0.072265625,-0.034912109375,-0.59423828125,1.411
2.015267175572519,0.9007633587786259,-1.1145038167938932,-0.074462890625,-0.037841796875,-0.595947265625,1.4126999999999998
2.1068702290076335,0.7786259541984732,-1.0381679389312977,-0.070556640625,-0.03076171875,-0.607421875,1.4143999999999999
2.213740458015267,0.7938931297709924,-1.0687022900763359,-0.0751953125,-0.032958984375,-0.598388671875,1.4161
2.0610687022900764,0.9007633587786259,-1.3587786259541985,-0.07177734375,-0.03564453125,-0.600830078125,1.4178
2.0916030534351147,0.8091603053435115,-1.0687022900763359,-0.074951171875,-0.03466796875,-0.601318359375,1.4195
2.3053435114503817,0.8854961832061069,-1.3282442748091603,-0.0703125,-0.0361328125,-0.593994140625,1.4212
2.122137404580153,0.7938931297709924,-1.3587786259541985,-0.07177734375,-0.032470703125,-0.603515625,1.4228999999999998
2.0610687022900764,0.7022900763358778,-1.3282442748091603,-0.070556640625,-0.0322265625,-0.60009765625,1.4245999999999999
2.0916030534351147,0.6259541984732825,-1.3893129770992367,-0.074462890625,-0.032470703125,-0.601318359375,1.4263
1.9236641221374047,0.4732824427480916,-1.297709923664122,-0.072998046875,-0.03662109375,-0.603759765625,1.428
1.8625954198473282,0.48854961832061067,-1.2213740458015268,-0.07568359375,-0.0302734375,-0.604736328125,1.4297
1.9541984732824427,0.3053435114503817,-1.465648854961832,-0.0732421875,-0.031005859375,-0.60595703125,1.4314
1.6946564885496183,0.3511450381679389,-1.3435114503816794,-0.0693359375,-0.0302734375,-0.6005859375,1.4330999999999998
1.5877862595419847,0.42748091603053434,-1.5114503816793894,-0.068603515625,-0.0283203125,-0.60400390625,1.4347999999999999
1.633587786259542,0.3053435114503817,-1.633587786259542,-0.073486328125,-0.0341796875,-0.598388671875,1.4364999999999999
1.4961832061068703,0.3816793893129771,-1.618320610687023,-0.073486328125,-0.033203125,-0.608154296875,1.4382
1.3129770992366412,0.183206106870229,-1.5114503816793894,-0.077880859375,-0.037353515625,-0.60498046875,1.4399
1.4198473282442747,0.33587786259541985,-1.6946564885496183,-0.072265625,-0.0361328125,-0.608642578125,1.4416
1.465648854961832,0.3511450381679389,-1.465648854961832,-0.07470703125,-0.03515625,-0.601318359375,1.4433
1.282442748091603,0.21374045801526717,-1.5725190839694656,-0.07470703125,-0.029052734375,-0.593505859375,1.4449999999999998
1.450381679389313,0.22900763358778625,-1.4351145038167938,-0.073974609375,-0.030517578125,-0.602294921875,1.4466999999999999
1.5267175572519085,0.2900763358778626,-1.633587786259542,-0.076904296875,-0.03466796875,-0.60400390625,1.4484
1.4198473282442747,0.2748091603053435,-1.4961832061068703,-0.078369140625,-0.032470703125,-0.595458984375,1.4501
1.3435114503816794,0.15267175572519084,-1.633587786259542,-0.073974609375,-0.033935546875,-0.596923828125,1.4518
1.3587786259541985,0.32061068702290074,-1.4045801526717556,-0.07763671875,-0.0322265625,-0.597900390625,1.4535
1.1297709923664123,0.183206106870229,-1.5572519083969465,-0.0751953125,-0.037109375,-0.60107421875,1.4551999999999998
1.2061068702290076,0.5038167938931297,-1.5725190839694656,-0.074951171875,-0.034912109375,-0.600830078125,1.4568999999999999
0.9007633587786259,0.5801526717557252,-1.633587786259542,-0.075927734375,-0.036865234375,-0.58984375,1.4586
1.1603053435114503,0.32061068702290074,-1.4351145038167938,-0.072021484375,-0.039306640625,-0.58935546875,1.4603
1.0076335877862594,0.42748091603053434,-1.4809160305343512,-0.0751953125,-0.041015625,-0.591552734375,1.462
1.0076335877862594,0.5343511450381679,-1.5572519083969465,-0.078857421875,-0.03076171875,-0.59521484375,1.4637
1.0687022900763359,0.6259541984732825,-1.618320610687023,-0.076904296875,-0.033935546875,-0.604248046875,1.4653999999999998
0.916030534351145,0.48854961832061067,-1.465648854961832,-0.072265625,-0.032958984375,-0.596923828125,1.4670999999999998
1.0687022900763359,0.8854961832061069,-1.6793893129770991,-0.073486328125,-0.037109375,-0.60205078125,1.4687999999999999
1.1450381679389312,0.6564885496183206,-1.7557251908396947,-0.073974609375,-0.041748046875,-0.596435546875,1.4705
0.8396946564885496,0.732824427480916,-1.7709923664122138,-0.076904296875,-0.037109375,-0.592041015625,1.4722
0.8854961832061069,0.916030534351145,-1.5572519083969465,-0.07763671875,-0.033447265625,-0.59912109375,1.4739
0.916030534351145,0.9465648854961832,-1.7251908396946565,-0.07666015625,-0.03271484375,-0.60400390625,1.4756
0.9923664122137404,0.9770992366412213,-1.6793893129770991,-0.07666015625,-0.0380859375,-0.599365234375,1.4772999999999998
0.9923664122137404,0.916030534351145,-1.7557251908396947,-0.076416015625,-0.038330078125,-0.599609375,1.4789999999999999
1.0076335877862594,0.9465648854961832,-1.6488549618320612,-0.070556640625,-0.03515625,-0.593505859375,1.4807
1.1297709923664123,0.9312977099236641,-1.816793893129771,-0.075439453125,-0.036376953125,-0.59521484375,1.4824
1.1450381679389312,0.9465648854961832,-1.3587786259541985,-0.0732421875,-0.036376953125,-0.608642578125,1.4841
1.083969465648855,1.1297709923664123,-1.633587786259542,-0.072265625,-0.031005859375,-0.600341796875,1.4858
1.2061068702290076,1.0229007633587786,-1.6946564885496183,-0.072021484375,-0.038818359375,-0.601318359375,1.4874999999999998
1.2213740458015268,1.0229007633587786,-1.6793893129770991,-0.078125,-0.038818359375,-0.603759765625,1.4891999999999999
1.251908396946565,0.9465648854961832,-1.6641221374045803,-0.0712890625,-0.0361328125,-0.6005859375,1.4909
1.1908396946564885,1.0534351145038168,-1.7251908396946565,-0.074951171875,-0.034912109375,-0.60205078125,1.4926
1.2213740458015268,0.9770992366412213,-1.7557251908396947,-0.072265625,-0.03515625,-0.588134765625,1.4943
1.297709923664122,0.9618320610687023,-1.6030534351145038,-0.07470703125,-0.034423828125,-0.596923828125,1.496
1.3893129770992367,0.9312977099236641,-1.5877862595419847,-0.072998046875,-0.034423828125,-0.595947265625,1.4976999999999998
1.2061068702290076,0.9007633587786259,-1.7557251908396947,-0.074462890625,-0.031982421875,-0.595947265625,1.4993999999999998
1.2366412213740459,1.0229007633587786,-1.786259541984733,-0.072021484375,-0.0361328125,-0.606689453125,1.5010999999999999
1.3282442748091603,1.0229007633587786,-1.618320610687023,-0.07373046875,-0.035888671875,-0.603271484375,1.5028
1.3893129770992367,1.099236641221374,-1.7099236641221374,-0.075927734375,-0.037109375,-0.599853515625,1.5045
1.5267175572519085,1.251908396946565,-1.6488549618320612,-0.07275390625,-0.034423828125,-0.597412109375,1.5062
1.5725190839694656,1.2366412213740459,-1.633587786259542,-0.074462890625,-0.031982421875,-0.59228515625,1.5079
1.7709923664122138,1.2061068702290076,-1.8625954198473282,-0.0732421875,-0.034423828125,-0.59326171875,1.5095999999999998
1.7404580152671756,1.2671755725190839,-1.5877862595419847,-0.0791015625,-0.0322265625,-0.6015625,1.5112999999999999
1.618320610687023,1.3129770992366412,-1.7557251908396947,-0.0771484375,-0.0302734375,-0.602783203125,1.513
1.786259541984733,1.2061068702290076,-1.465648854961832,-0.0771484375,-0.035888671875,-0.60302734375,1.5147
1.816793893129771,1.2671755725190839,-1.6030534351145038,-0.07958984375,-0.03466796875,-0.6005859375,1.5164
1.5267175572519085,1.3893129770992367,-1.6030534351145038,-0.079345703125,-0.034912109375,-0.603271484375,1.5181
1.6488549618320612,1.4351145038167938,-1.7099236641221374,-0.076904296875,-0.034423828125,-0.60107421875,1.5197999999999998
1.7709923664122138,1.4809160305343512,-1.5725190839694656,-0.07470703125,-0.030029296875,-0.603271484375,1.5214999999999999
1.633587786259542,1.3587786259541985,-1.6793893129770991,-0.077392578125,-0.0322265625,-0.59619140625,1.5231999999999999
1.83206106870229,1.5419847328244274,-1.6946564885496183,-0.07861328125,-0.03369140625,-0.597900390625,1.5249
1.4045801526717556,1.450381679389313,-1.8625954198473282,-0.07470703125,-0.032470703125,-0.603759765625,1.5266
1.7251908396946565,1.5267175572519085,-1.8015267175572518,-0.077392578125,-0.034423828125,-0.599365234375,1.5283
1.786259541984733,1.5725190839694656,-1.7557251908396947,-0.08154296875,-0.03076171875,-0.596923828125,1.5299999999999998
1.5877862595419847,1.4961832061068703,-1.8625954198473282,-0.07275390625,-0.031005859375,-0.6005859375,1.5316999999999998
1.618320610687023,1.5419847328244274,-1.7709923664122138,-0.076416015625,-0.03369140625,-0.599853515625,1.5333999999999999
1.5419847328244274,1.450381679389313,-1.7709923664122138,-0.0771484375,-0.037353515625,-0.593994140625,1.5351
1.3587786259541985,1.5877862595419847,-2.122137404580153,-0.07568359375,-0.034912109375,-0.593017578125,1.5368
1.4961832061068703,1.5877862595419847,-1.83206106870229,-0.078125,-0.03173828125,-0.602783203125,1.5385
1.816793893129771,1.7404580152671756,-2.045801526717557,-0.078857421875,-0.0302734375,-0.593505859375,1.5402
1.9083969465648856,1.4961832061068703,-1.9389312977099236,-0.07958984375,-0.033935546875,-0.60888671875,1.5418999999999998
1.6793893129770991,1.3893129770992367,-1.984732824427481,-0.0732421875,-0.030517578125,-0.603271484375,1.5435999999999999
1.816793893129771,1.5419847328244274,-2.015267175572519,-0.072265625,-0.03173828125,-0.6064453125,1.5453
1.6946564885496183,1.465648854961832,-2.213740458015267,-0.07421875,-0.03076171875,-0.6005859375,1.547
1.9083969465648856,1.618320610687023,-2.198473282442748,-0.080810546875,-0.03515625,-0.604736328125,1.5487
1.8473282442748091,1.4809160305343512,-2.381679389312977,-0.074462890625,-0.03173828125,-0.593505859375,1.5504
1.8778625954198473,1.633587786259542,-2.381679389312977,-0.06884765625,-0.034423828125,-0.59619140625,1.5520999999999998
2.0763358778625953,1.4961832061068703,-2.381679389312977,-0.077880859375,-0.03662109375,-0.612548828125,1.5537999999999998
1.9083969465648856,1.6030534351145038,-2.4122137404580153,-0.07666015625,-0.032958984375,-0.60791015625,1.5554999999999999
1.9541984732824427,1.6488549618320612,-2.2442748091603053,-0.078857421875,-0.029052734375,-0.611083984375,1.5572
2.122137404580153,1.6641221374045803,-2.16793893129771,-0.072998046875,-0.030029296875,-0.599609375,1.5589
1.83206106870229,1.633587786259542,-2.213740458015267,-0.076904296875,-0.03076171875,-0.592529296875,1.5606
1.7099236641221374,1.7251908396946565,-2.351145038167939,-0.072265625,-0.03369140625,-0.601318359375,1.5623
1.6641221374045803,1.6946564885496183,-2.16793893129771,-0.074462890625,-0.031005859375,-0.59716796875,1.5639999999999998
1.8015267175572518,1.8015267175572518,-2.122137404580153,-0.076416015625,-0.03466796875,-0.598388671875,1.5656999999999999
1.633587786259542,1.6793893129770991,-2.183206106870229,-0.07568359375,-0.0380859375,-0.59619140625,1.5674
1.6793893129770991,1.7099236641221374,-2.015267175572519,-0.069580078125,-0.0322265625,-0.6025390625,1.5691
1.786259541984733,1.786259541984733,-2.122137404580153,-0.07470703125,-0.03173828125,-0.60693359375,1.5708
1.8015267175572518,1.8931297709923665,-2.16793893129771,-0.07177734375,-0.03466796875,-0.597900390625,1.5725
1.6946564885496183,1.7709923664122138,-2.045801526717557,-0.077880859375,-0.03125,-0.59228515625,1.5741999999999998
1.7251908396946565,1.8778625954198473,-2.0610687022900764,-0.071044921875,-0.029541015625,-0.601806640625,1.5758999999999999
1.6641221374045803,1.8931297709923665,-2.122137404580153,-0.076171875,-0.037841796875,-0.597412109375,1.5776
1.816793893129771,1.7557251908396947,-1.9389312977099236,-0.072265625,-0.036376953125,-0.594970703125,1.5793
1.816793893129771,1.6030534351145038,-2.030534351145038,-0.071533203125,-0.03564453125,-0.593505859375,1.581
1.5572519083969465,1.7251908396946565,-2.0,-0.081298828125,-0.029052734375,-0.599609375,1.5827
1.6030534351145038,1.7251908396946565,-1.9083969465648856,-0.075439453125,-0.03564453125,-0.60009765625,1.5843999999999998
1.4351145038167938,1.618320610687023,-1.816793893129771,-0.07275390625,-0.034423828125,-0.60595703125,1.5860999999999998
1.4809160305343512,1.7251908396946565,-1.9236641221374047,-0.078857421875,-0.03125,-0.599365234375,1.5877999999999999
1.297709923664122,1.6946564885496183,-1.8931297709923665,-0.072509765625,-0.02783203125,-0.603759765625,1.5895
1.1297709923664123,1.7251908396946565,-1.7404580152671756,-0.0712890625,-0.034423828125,-0.6025390625,1.5912
1.1145038167938932,1.7099236641221374,-1.7709923664122138,-0.078125,-0.030517578125,-0.59765625,1.5929
1.0381679389312977,1.633587786259542,-1.8625954198473282,-0.07666015625,-0.02880859375,-0.6064453125,1.5946
0.8244274809160306,1.5419847328244274,-1.6488549618320612,-0.07275390625,-0.032958984375,-0.6044921875,1.5962999999999998
0.9007633587786259,1.7709923664122138,-1.618320610687023,-0.073486328125,-0.0302734375,-0.5947265625,1.5979999999999999
0.6870229007633588,1.618320610687023,-1.6946564885496183,-0.078369140625,-0.033447265625,-0.60595703125,1.5997
0.7633587786259542,1.8625954198473282,-1.6946564885496183,-0.07421875,-0.03515625,-0.5986328125,1.6014
0.6259541984732825,1.6946564885496183,-1.8778625954198473,-0.074951171875,-0.02978515625,-0.604248046875,1.6031
0.42748091603053434,1.6641221374045803,-1.618320610687023,-0.067138671875,-0.0341796875,-0.60205078125,1.6048
0.6259541984732825,1.6793893129770991,-1.5877862595419847,-0.0751953125,-0.033203125,-0.60498046875,1.6064999999999998
0.7633587786259542,1.5419847328244274,-1.5572519083969465,-0.072509765625,-0.029541015625,-0.598876953125,1.6081999999999999
0.3816793893129771,1.5725190839694656,-1.6641221374045803,-0.07275390625,-0.03271484375,-0.603271484375,1.6098999999999999
0.5648854961832062,1.5267175572519085,-1.6030534351145038,-0.07373046875,-0.03125,-0.61083984375,1.6116
0.7633587786259542,1.5114503816793894,-1.5877862595419847,-0.07470703125,-0.03076171875,-0.60791015625,1.6133
0.9465648854961832,1.4351145038167938,-1.3893129770992367,-0.0771484375,-0.025634765625,-0.5966796875,1.615
0.9770992366412213,1.282442748091603,-1.5114503816793894,-0.0712890625,-0.02490234375,-0.60302734375,1.6166999999999998
0.7022900763358778,1.1908396946564885,-1.5572519083969465,-0.0751953125,-0.030517578125,-0.602294921875,1.6183999999999998
0.8702290076335878,1.2671755725190839,-1.3893129770992367,-0.071044921875,-0.031005859375,-0.603515625,1.6200999999999999
0.9770992366412213,1.0687022900763359,-1.4809160305343512,-0.077880859375,-0.02587890625,-0.59814453125,1.6218
1.1297709923664123,1.2671755725190839,-1.5114503816793894,-0.070556640625,-0.03076171875,-0.60205078125,1.6235
1.099236641221374,0.8702290076335878,-1.251908396946565,-0.07958984375,-0.033203125,-0.591552734375,1.6252
1.083969465648855,0.9770992366412213,-1.3435114503816794,-0.076171875,-0.02490234375,-0.601318359375,1.6269
1.1908396946564885,1.1450381679389312,-1.465648854961832,-0.06982421875,-0.029541015625,-0.609130859375,1.6285999999999998
1.465648854961832,0.7022900763358778,-1.4351145038167938,-0.07177734375,-0.03125,-0.60595703125,1.6302999999999999
1.6030534351145038,0.7022900763358778,-1.3740458015267176,-0.076904296875,-0.027099609375,-0.604248046875,1.632
1.7557251908396947,0.9465648854961832,-1.465648854961832,-0.074951171875,-0.030029296875,-0.598388671875,1.6337
1.7251908396946565,0.6412213740458015,-1.282442748091603,-0.076171875,-0.0322265625,-0.603271484375,1.6354
1.6793893129770991,0.5801526717557252,-1.1755725190839694,-0.076416015625,-0.03173828125,-0.611328125,1.6371
1.7709923664122138,0.5190839694656488,-1.251908396946565,-0.076416015625,-0.032958984375,-0.60107421875,1.6387999999999998
1.6793893129770991,0.5954198473282443,-1.3129770992366412,-0.072021484375,-0.03125,-0.60986328125,1.6404999999999998
1.7709923664122138,0.7022900763358778,-1.3282442748091603,-0.074462890625,-0.02978515625,-0.60791015625,1.6421999999999999
1.9083969465648856,0.6717557251908397,-1.2213740458015268,-0.076904296875,-0.034423828125,-0.610595703125,1.6439
1.7557251908396947,0.6106870229007634,-1.0534351145038168,-0.072265625,-0.033935546875,-0.60205078125,1.6456
1.786259541984733,0.4732824427480916,-1.3587786259541985,-0.06884765625,-0.03369140625,-0.59814453125,1.6473
1.6946564885496183,0.6259541984732825,-1.1145038167938932,-0.0693359375,-0.030517578125,-0.61083984375,1.6489999999999998
1.7251908396946565,0.6259541984732825,-1.083969465648855,-0.0751953125,-0.031005859375,-0.609130859375,1.6506999999999998
1.633587786259542,0.6717557251908397,-1.099236641221374,-0.069580078125,-0.02978515625,-0.60888671875,1.6523999999999999
1.6793893129770991,0.7786259541984732,-1.1603053435114503,-0.078857421875,-0.025634765625,-0.597900390625,1.6541
1.633587786259542,0.5190839694656488,-1.0076335877862594,-0.075439453125,-0.03515625,-0.610595703125,1.6558
1.4961832061068703,0.6564885496183206,-1.0381679389312977,-0.073486328125,-0.032470703125,-0.60693359375,1.6575
1.6946564885496183,0.732824427480916,-0.9923664122137404,-0.07861328125,-0.034423828125,-0.605224609375,1.6592
1.4809160305343512,0.6259541984732825,-1.1145038167938932,-0.075927734375,-0.03564453125,-0.605224609375,1.6608999999999998
1.5877862595419847,0.732824427480916,-0.9618320610687023,-0.076904296875,-0.034423828125,-0.598388671875,1.6625999999999999
1.4045801526717556,0.7633587786259542,-1.0687022900763359,-0.079345703125,-0.033203125,-0.594482421875,1.6643
1.3282442748091603,0.6564885496183206,-0.8549618320610687,-0.0859375,-0.036376953125,-0.598876953125,1.666
1.2061068702290076,0.6870229007633588,-0.9770992366412213,-0.07568359375,-0.0322265625,-0.60888671875,1.6677
1.0229007633587786,0.6412213740458015,-0.8854961832061069,-0.072509765625,-0.031005859375,-0.6044921875,1.6694
0.9312977099236641,0.8702290076335878,-0.916030534351145,-0.080322265625,-0.03173828125,-0.607421875,1.6710999999999998
0.7786259541984732,0.9465648854961832,-0.9923664122137404,-0.07861328125,-0.03369140625,-0.6044921875,1.6727999999999998
0.5954198473282443,0.8854961832061069,-0.9923664122137404,-0.07666015625,-0.03759765625,-0.60498046875,1.6744999999999999
0.6106870229007634,0.7938931297709924,-0.732824427480916,-0.076171875,-0.029541015625,-0.6064453125,1.6762
0.6106870229007634,0.7480916030534351,-0.8854961832061069,-0.071533203125,-0.0322265625,-0.604248046875,1.6779
0.2748091603053435,1.0076335877862594,-0.7633587786259542,-0.07275390625,-0.033935546875,-0.605224609375,1.6796
0.33587786259541985,0.8702290076335878,-0.9770992366412213,-0.0732421875,-0.03515625,-0.6064453125,1.6813
0.4122137404580153,0.9465648854961832,-1.0534351145038168,-0.0732421875,-0.033203125,-0.6005859375,1.6829999999999998
0.6870229007633588,1.0534351145038168,-0.8702290076335878,-0.07568359375,-0.03076171875,-0.603271484375,1.6846999999999999
0.5190839694656488,0.9770992366412213,-0.8854961832061069,-0.075927734375,-0.03076171875,-0.601318359375,1.6864
0.5801526717557252,0.7633587786259542,-1.1297709923664123,-0.078125,-0.03173828125,-0.6064453125,1.6881
0.7175572519083969,0.8854961832061069,-0.7938931297709924,-0.072265625,-0.034912109375,-0.60888671875,1.6898
0.732824427480916,0.916030534351145,-0.9007633587786259,-0.07568359375,-0.031494140625,-0.59716796875,1.6915
0.5343511450381679,0.9465648854961832,-1.1297709923664123,-0.07177734375,-0.0322265625,-0.60302734375,1.6931999999999998
0.5190839694656488,0.9007633587786259,-1.0076335877862594,-0.074462890625,-0.029052734375,-0.60595703125,1.6948999999999999
0.6870229007633588,0.8702290076335878,-0.8396946564885496,-0.073974609375,-0.0341796875,-0.606201171875,1.6965999999999999
0.8702290076335878,0.8854961832061069,-1.0381679389312977,-0.072265625,-0.0322265625,-0.600830078125,1.6983
0.8702290076335878,0.9007633587786259,-0.9007633587786259,-0.0712890625,-0.03076171875,-0.607421875,1.7
1.0076335877862594,0.9465648854961832,-1.0229007633587786,-0.0732421875,-0.03076171875,-0.600830078125,1.7017
1.083969465648855,0.7175572519083969,-1.0381679389312977,-0.070556640625,-0.03125,-0.5927734375,1.7033999999999998
1.1297709923664123,0.8091603053435115,-1.1908396946564885,-0.0732421875,-0.03369140625,-0.600341796875,1.7050999999999998
1.282442748091603,0.8854961832061069,-0.9770992366412213,-0.07373046875,-0.030029296875,-0.6015625,1.7067999999999999
1.2671755725190839,0.916030534351145,-1.1297709923664123,-0.07421875,-0.029296875,-0.596923828125,1.7085
1.282442748091603,0.8091603053435115,-0.9923664122137404,-0.07275390625,-0.033447265625,-0.60693359375,1.7102
1.3435114503816794,0.8702290076335878,-1.083969465648855,-0.07421875,-0.031005859375,-0.593017578125,1.7119
1.5877862595419847,0.7175572519083969,-0.9465648854961832,-0.0703125,-0.031982421875,-0.586669921875,1.7136
1.816793893129771,0.8396946564885496,-0.9923664122137404,-0.07421875,-0.0322265625,-0.595947265625,1.7152999999999998
1.9389312977099236,0.8854961832061069,-0.9923664122137404,-0.07421875,-0.03125,-0.597900390625,1.7169999999999999
1.9694656488549618,0.8091603053435115,-0.8854961832061069,-0.072265625,-0.031494140625,-0.60400390625,1.7187
2.213740458015267,0.8549618320610687,-0.8244274809160306,-0.0712890625,-0.032470703125,-0.610595703125,1.7204
2.2900763358778624,0.7938931297709924,-0.8549618320610687,-0.072265625,-0.03271484375,-0.593994140625,1.7221
2.33587786259542,0.7022900763358778,-1.0076335877862594,-0.07470703125,-0.037841796875,-0.59228515625,1.7238
2.2900763358778624,0.9312977099236641,-0.916030534351145,-0.07373046875,-0.037109375,-0.59130859375,1.7254999999999998
2.4122137404580153,0.9770992366412213,-0.5801526717557252,-0.072265625,-0.035888671875,-0.599609375,1.7271999999999998
2.198473282442748,0.8854961832061069,-0.7633587786259542,-0.07421875,-0.03662109375,-0.60107421875,1.7288999999999999
2.4427480916030535,0.7938931297709924,-0.8244274809160306,-0.07275390625,-0.03369140625,-0.603759765625,1.7306
2.366412213740458,0.9465648854961832,-1.099236641221374,-0.0732421875,-0.0439453125,-0.6015625,1.7323
2.366412213740458,0.9923664122137404,-0.6870229007633588,-0.076171875,-0.038330078125,-0.60009765625,1.734
2.2290076335877864,1.1450381679389312,-0.7022900763358778,-0.078369140625,-0.035400390625,-0.600830078125,1.7356999999999998
2.16793893129771,1.3129770992366412,-0.9312977099236641,-0.07275390625,-0.032958984375,-0.599609375,1.7373999999999998
2.0916030534351147,1.0687022900763359,-0.9312977099236641,-0.076904296875,-0.038818359375,-0.586181640625,1.7390999999999999
2.0,1.3435114503816794,-0.9465648854961832,-0.074951171875,-0.033935546875,-0.604736328125,1.7408
1.83206106870229,1.3587786259541985,-0.9770992366412213,-0.076416015625,-0.03857421875,-0.603759765625,1.7425
1.816793893129771,1.4961832061068703,-0.9618320610687023,-0.075927734375,-0.03564453125,-0.60009765625,1.7442
1.786259541984733,1.5877862595419847,-0.8244274809160306,-0.07958984375,-0.037841796875,-0.604736328125,1.7459
1.83206106870229,1.5419847328244274,-0.8244274809160306,-0.0771484375,-0.032470703125,-0.60498046875,1.7475999999999998
1.6030534351145038,1.7709923664122138,-0.8549618320610687,-0.078857421875,-0.040283203125,-0.594482421875,1.7492999999999999
1.3282442748091603,1.5267175572519085,-0.9312977099236641,-0.080078125,-0.0380859375,-0.601318359375,1.751
1.3587786259541985,1.6488549618320612,-0.9618320610687023,-0.083740234375,-0.038818359375,-0.597900390625,1.7527
1.3893129770992367,1.5725190839694656,-0.9007633587786259,-0.07861328125,-0.0361328125,-0.5947265625,1.7544
1.3740458015267176,1.6641221374045803,-0.916030534351145,-0.08056640625,-0.029541015625,-0.60693359375,1.7561
1.0229007633587786,1.786259541984733,-1.099236641221374,-0.07861328125,-0.038818359375,-0.602783203125,1.7577999999999998
1.099236641221374,2.0916030534351147,-1.1297709923664123,-0.082275390625,-0.038818359375,-0.60205078125,1.7594999999999998
1.1145038167938932,1.8625954198473282,-1.0687022900763359,-0.075439453125,-0.036376953125,-0.60205078125,1.7611999999999999
0.7480916030534351,1.7404580152671756,-1.297709923664122,-0.0732421875,-0.033203125,-0.598388671875,1.7629
0.916030534351145,1.9083969465648856,-1.099236641221374,-0.07470703125,-0.037353515625,-0.60009765625,1.7646
0.6717557251908397,1.7404580152671756,-1.1603053435114503,-0.07861328125,-0.036865234375,-0.609130859375,1.7663
0.5648854961832062,1.8473282442748091,-1.3435114503816794,-0.0791015625,-0.03662109375,-0.595703125,1.7679999999999998
0.5190839694656488,1.9389312977099236,-1.3587786259541985,-0.07958984375,-0.0361328125,-0.5986328125,1.7696999999999998
0.1984732824427481,1.8625954198473282,-1.4961832061068703,-0.074951171875,-0.031494140625,-0.6015625,1.7713999999999999
0.3511450381679389,1.816793893129771,-1.465648854961832,-0.07568359375,-0.0380859375,-0.606689453125,1.7731
0.2748091603053435,1.816793893129771,-1.282442748091603,-0.072509765625,-0.03759765625,-0.59912109375,1.7748
0.13740458015267176,1.8778625954198473,-1.4045801526717556,-0.0703125,-0.033203125,-0.59619140625,1.7765
0.10687022900763359,1.9694656488549618,-1.450381679389313,-0.072021484375,-0.037109375,-0.60595703125,1.7782
0.13740458015267176,1.8015267175572518,-1.3587786259541985,-0.073486328125,-0.035400390625,-0.6015625,1.7798999999999998
0.07633587786259542,1.8778625954198473,-1.4045801526717556,-0.073974609375,-0.033935546875,-0.60400390625,1.7815999999999999
0.030534351145038167,1.7404580152671756,-1.3282442748091603,-0.07373046875,-0.037109375,-0.5947265625,1.7832999999999999
0.2748091603053435,1.7404580152671756,-1.4351145038167938,-0.072021484375,-0.033935546875,-0.597900390625,1.785
0.33587786259541985,1.7404580152671756,-1.4198473282442747,-0.071044921875,-0.03271484375,-0.593994140625,1.7867
