gyrox1,gyroy1,gyroz1,accelx1,accely1,accelz1,Time
-0.22900763358778625,1.3435114503816794,-1.3129770992366412,-0.451171875,-0.01708984375,-0.27392578125,0.0
-0.1984732824427481,1.7099236641221374,-1.4198473282442747,-0.4501953125,-0.018310546875,-0.268798828125,0.0017
-0.4580152671755725,1.4351145038167938,-1.5419847328244274,-0.447021484375,-0.02001953125,-0.268798828125,0.0034
-0.3053435114503817,1.5114503816793894,-1.3893129770992367,-0.4443359375,-0.013671875,-0.2705078125,0.0050999999999999995
-0.48854961832061067,1.4198473282442747,-1.3893129770992367,-0.439453125,-0.01953125,-0.271728515625,0.0068
-0.366412213740458,1.4809160305343512,-1.4351145038167938,-0.44189453125,-0.021240234375,-0.2646484375,0.008499999999999999
-0.2748091603053435,1.3587786259541985,-1.6488549618320612,-0.4423828125,-0.016845703125,-0.27587890625,0.010199999999999999
-0.5190839694656488,1.3129770992366412,-1.633587786259542,-0.44140625,-0.01708984375,-0.2685546875,0.011899999999999999
-0.3969465648854962,1.297709923664122,-1.7251908396946565,-0.44140625,-0.017333984375,-0.265380859375,0.0136
-0.48854961832061067,1.3129770992366412,-1.4961832061068703,-0.444091796875,-0.01513671875,-0.265869140625,0.0153
-0.3969465648854962,1.1755725190839694,-1.9083969465648856,-0.440185546875,-0.013671875,-0.2666015625,0.016999999999999998
-0.48854961832061067,1.0687022900763359,-1.786259541984733,-0.443115234375,-0.013916015625,-0.2646484375,0.018699999999999998
-0.44274809160305345,1.0381679389312977,-1.9083969465648856,-0.44287109375,-0.015380859375,-0.266845703125,0.020399999999999998
-0.4580152671755725,0.9770992366412213,-1.8625954198473282,-0.44140625,-0.016845703125,-0.267578125,0.022099999999999998
-0.3816793893129771,0.8091603053435115,-2.015267175572519,-0.44287109375,-0.0126953125,-0.26904296875,0.023799999999999998
-0.3511450381679389,0.7633587786259542,-1.9389312977099236,-0.44384765625,-0.011474609375,-0.266357421875,0.0255
-0.5038167938931297,0.8244274809160306,-2.0916030534351147,-0.44580078125,-0.01416015625,-0.270751953125,0.0272
-0.42748091603053434,0.732824427480916,-1.9541984732824427,-0.44482421875,-0.01513671875,-0.2734375,0.0289
-0.3969465648854962,0.8091603053435115,-2.015267175572519,-0.44384765625,-0.01123046875,-0.26904296875,0.0306
-0.2900763358778626,0.9312977099236641,-1.9236641221374047,-0.4462890625,-0.013427734375,-0.27099609375,0.032299999999999995
-0.4580152671755725,0.9770992366412213,-2.030534351145038,-0.4462890625,-0.01904296875,-0.26416015625,0.033999999999999996
-0.4122137404580153,0.8854961832061069,-1.9389312977099236,-0.440185546875,-0.0126953125,-0.2744140625,0.035699999999999996
-0.5343511450381679,0.9007633587786259,-2.030534351145038,-0.4375,-0.013671875,-0.27490234375,0.037399999999999996
-0.2900763358778626,1.0534351145038168,-1.9541984732824427,-0.440673828125,-0.014892578125,-0.2705078125,0.039099999999999996
-0.48854961832061067,0.9312977099236641,-1.9083969465648856,-0.4404296875,-0.0146484375,-0.264892578125,0.040799999999999996
-0.42748091603053434,0.8244274809160306,-1.9541984732824427,-0.4404296875,-0.01318359375,-0.269775390625,0.042499999999999996
-0.2900763358778626,0.916030534351145,-2.16793893129771,-0.439208984375,-0.01806640625,-0.267333984375,0.044199999999999996
0.07633587786259542,0.6717557251908397,-1.9389312977099236,-0.439697265625,-0.015380859375,-0.274658203125,0.045899999999999996
-0.12213740458015267,0.6259541984732825,-1.8778625954198473,-0.439208984375,-0.01171875,-0.27587890625,0.047599999999999996
-0.32061068702290074,0.6259541984732825,-1.816793893129771,-0.44189453125,-0.010009765625,-0.26806640625,0.0493
-0.16793893129770993,0.7022900763358778,-1.9694656488549618,-0.442138671875,-0.01171875,-0.275390625,0.051
-0.22900763358778625,0.6564885496183206,-2.015267175572519,-0.4404296875,-0.0078125,-0.266357421875,0.0527
-0.07633587786259542,0.33587786259541985,-2.045801526717557,-0.43603515625,-0.01416015625,-0.26513671875,0.0544
0.07633587786259542,0.3969465648854962,-2.0916030534351147,-0.43994140625,-0.00927734375,-0.267333984375,0.0561
0.061068702290076333,0.3969465648854962,-2.030534351145038,-0.43994140625,-0.00439453125,-0.26708984375,0.0578
-0.061068702290076333,0.2748091603053435,-2.0916030534351147,-0.440185546875,-0.0107421875,-0.2724609375,0.0595
0.10687022900763359,0.3511450381679389,-2.1526717557251906,-0.443603515625,-0.01123046875,-0.26708984375,0.0612
0.33587786259541985,0.33587786259541985,-2.16793893129771,-0.441162109375,-0.01611328125,-0.26708984375,0.0629
0.22900763358778625,0.33587786259541985,-2.3053435114503817,-0.441162109375,-0.014892578125,-0.264404296875,0.06459999999999999
0.4732824427480916,0.5190839694656488,-2.015267175572519,-0.445556640625,-0.0107421875,-0.26708984375,0.0663
0.3511450381679389,0.3816793893129771,-2.122137404580153,-0.44384765625,-0.00634765625,-0.2724609375,0.06799999999999999
0.48854961832061067,0.2595419847328244,-2.0,-0.443115234375,-0.007568359375,-0.2724609375,0.0697
0.6870229007633588,0.2748091603053435,-1.9694656488549618,-0.4404296875,-0.0185546875,-0.266357421875,0.07139999999999999
0.6564885496183206,0.21374045801526717,-2.030534351145038,-0.444091796875,-0.012939453125,-0.26416015625,0.0731
0.7480916030534351,0.3969465648854962,-2.0916030534351147,-0.4375,-0.012451171875,-0.265869140625,0.07479999999999999
0.9923664122137404,0.1984732824427481,-2.16793893129771,-0.442138671875,-0.00830078125,-0.25732421875,0.0765
0.9618320610687023,0.22900763358778625,-1.9694656488549618,-0.4384765625,-0.0107421875,-0.26904296875,0.07819999999999999
0.8702290076335878,0.16793893129770993,-1.8931297709923665,-0.4365234375,-0.012451171875,-0.266357421875,0.0799
1.0229007633587786,-0.030534351145038167,-2.122137404580153,-0.435546875,-0.0107421875,-0.262451171875,0.08159999999999999
1.1603053435114503,0.04580152671755725,-2.0610687022900764,-0.438232421875,-0.0146484375,-0.26611328125,0.0833
1.1603053435114503,0.10687022900763359,-1.9389312977099236,-0.439208984375,-0.01220703125,-0.267333984375,0.08499999999999999
1.1450381679389312,0.15267175572519084,-2.16793893129771,-0.435302734375,-0.01220703125,-0.26953125,0.0867
1.3282442748091603,0.10687022900763359,-2.0610687022900764,-0.440673828125,-0.008544921875,-0.26220703125,0.08839999999999999
1.3740458015267176,-0.061068702290076333,-1.9541984732824427,-0.443359375,-0.01123046875,-0.266357421875,0.0901
1.3893129770992367,0.07633587786259542,-2.183206106870229,-0.443115234375,-0.012939453125,-0.269287109375,0.09179999999999999
1.6641221374045803,0.061068702290076333,-2.0,-0.444580078125,-0.009765625,-0.27587890625,0.0935
1.6641221374045803,-0.24427480916030533,-1.984732824427481,-0.442626953125,-0.01220703125,-0.2646484375,0.09519999999999999
1.633587786259542,-0.183206106870229,-2.015267175572519,-0.4375,-0.01025390625,-0.2724609375,0.0969
1.6793893129770991,0.0,-1.9694656488549618,-0.44580078125,-0.011962890625,-0.265625,0.0986
1.6793893129770991,-0.13740458015267176,-2.0916030534351147,-0.442138671875,-0.017333984375,-0.274169921875,0.1003
1.9694656488549618,-0.2595419847328244,-1.8778625954198473,-0.4462890625,-0.012451171875,-0.26611328125,0.102
1.9236641221374047,-0.3053435114503817,-1.9236641221374047,-0.4423828125,-0.0166015625,-0.2666015625,0.1037
1.9541984732824427,-0.22900763358778625,-2.0610687022900764,-0.443603515625,-0.010986328125,-0.271240234375,0.1054
1.8625954198473282,-0.22900763358778625,-2.030534351145038,-0.44091796875,-0.015625,-0.267822265625,0.1071
1.8778625954198473,-0.030534351145038167,-1.8778625954198473,-0.442138671875,-0.014892578125,-0.269287109375,0.1088
2.0763358778625953,-0.22900763358778625,-2.015267175572519,-0.44189453125,-0.010498046875,-0.270751953125,0.11049999999999999
2.2290076335877864,-0.32061068702290074,-1.9389312977099236,-0.441650390625,-0.012939453125,-0.267333984375,0.1122
2.030534351145038,-0.183206106870229,-2.030534351145038,-0.440673828125,-0.01416015625,-0.2666015625,0.11389999999999999
2.0763358778625953,-0.2748091603053435,-2.0,-0.436767578125,-0.01513671875,-0.270263671875,0.1156
2.3053435114503817,-0.2595419847328244,-1.984732824427481,-0.4384765625,-0.01513671875,-0.27099609375,0.11729999999999999
2.183206106870229,-0.3053435114503817,-1.8625954198473282,-0.44091796875,-0.0126953125,-0.26904296875,0.119
2.2900763358778624,-0.4122137404580153,-1.8625954198473282,-0.43603515625,-0.0146484375,-0.268310546875,0.12069999999999999
2.213740458015267,-0.2900763358778626,-1.9389312977099236,-0.44189453125,-0.014404296875,-0.269287109375,0.1224
2.33587786259542,-0.3053435114503817,-2.045801526717557,-0.438720703125,-0.015869140625,-0.262451171875,0.12409999999999999
2.3206106870229006,-0.44274809160305345,-1.8778625954198473,-0.440185546875,-0.015625,-0.263427734375,0.1258
2.4427480916030535,-0.4122137404580153,-2.1526717557251906,-0.44140625,-0.01611328125,-0.263916015625,0.1275
2.4580152671755724,-0.42748091603053434,-1.9236641221374047,-0.4375,-0.011962890625,-0.26904296875,0.12919999999999998
2.351145038167939,-0.5648854961832062,-1.8473282442748091,-0.441162109375,-0.011962890625,-0.274658203125,0.1309
2.6106870229007635,-0.6717557251908397,-1.8625954198473282,-0.439208984375,-0.015380859375,-0.270263671875,0.1326
2.6259541984732824,-0.732824427480916,-2.015267175572519,-0.4375,-0.012939453125,-0.266357421875,0.1343
2.2900763358778624,-0.732824427480916,-1.83206106870229,-0.441162109375,-0.01806640625,-0.2705078125,0.13599999999999998
2.3969465648854964,-0.6259541984732825,-1.9694656488549618,-0.439453125,-0.015625,-0.26904296875,0.1377
2.4885496183206106,-0.6870229007633588,-1.8931297709923665,-0.44287109375,-0.0185546875,-0.26025390625,0.1394
2.4122137404580153,-0.8091603053435115,-1.9694656488549618,-0.4453125,-0.024169921875,-0.26904296875,0.1411
2.4122137404580153,-0.8396946564885496,-1.7404580152671756,-0.445068359375,-0.02392578125,-0.2763671875,0.14279999999999998
2.7938931297709924,-0.6259541984732825,-2.0,-0.442138671875,-0.014892578125,-0.2705078125,0.1445
2.4732824427480917,-0.732824427480916,-1.8625954198473282,-0.43994140625,-0.012939453125,-0.271728515625,0.1462
2.4122137404580153,-0.8549618320610687,-1.6793893129770991,-0.44677734375,-0.013427734375,-0.2724609375,0.1479
2.6259541984732824,-0.8549618320610687,-1.7557251908396947,-0.442626953125,-0.018310546875,-0.27099609375,0.14959999999999998
2.33587786259542,-0.8396946564885496,-1.9694656488549618,-0.43798828125,-0.021728515625,-0.263671875,0.1513
2.2442748091603053,-0.6870229007633588,-1.8625954198473282,-0.4443359375,-0.01806640625,-0.26513671875,0.153
2.4122137404580153,-0.8702290076335878,-1.9389312977099236,-0.44384765625,-0.01611328125,-0.265625,0.1547
2.4885496183206106,-0.732824427480916,-1.786259541984733,-0.443603515625,-0.017578125,-0.272216796875,0.15639999999999998
2.4732824427480917,-0.8702290076335878,-1.8778625954198473,-0.43994140625,-0.015869140625,-0.263427734375,0.1581
2.381679389312977,-0.9312977099236641,-1.8778625954198473,-0.436767578125,-0.016357421875,-0.268798828125,0.1598
2.2900763358778624,-0.8244274809160306,-1.8778625954198473,-0.4453125,-0.018310546875,-0.26318359375,0.1615
2.2290076335877864,-0.8549618320610687,-1.618320610687023,-0.44482421875,-0.016357421875,-0.273681640625,0.16319999999999998
2.4427480916030535,-0.9465648854961832,-2.0763358778625953,-0.444580078125,-0.017578125,-0.265869140625,0.1649
2.427480916030534,-1.0381679389312977,-1.786259541984733,-0.43994140625,-0.019287109375,-0.275146484375,0.1666
2.3206106870229006,-1.0534351145038168,-1.8931297709923665,-0.441650390625,-0.01513671875,-0.263427734375,0.16829999999999998
2.198473282442748,-0.9007633587786259,-1.8778625954198473,-0.44482421875,-0.016845703125,-0.264404296875,0.16999999999999998
2.427480916030534,-0.9923664122137404,-1.8625954198473282,-0.4423828125,-0.020263671875,-0.2666015625,0.1717
2.2290076335877864,-1.083969465648855,-1.9236641221374047,-0.445556640625,-0.0234375,-0.26318359375,0.1734
2.0610687022900764,-1.099236641221374,-1.9541984732824427,-0.43798828125,-0.01953125,-0.266357421875,0.17509999999999998
2.030534351145038,-1.1450381679389312,-1.9541984732824427,-0.440673828125,-0.014404296875,-0.266845703125,0.17679999999999998
2.030534351145038,-1.083969465648855,-2.0763358778625953,-0.443603515625,-0.0205078125,-0.2607421875,0.1785
2.2748091603053435,-1.083969465648855,-1.9694656488549618,-0.439208984375,-0.020751953125,-0.267333984375,0.1802
2.0,-1.2213740458015268,-2.0916030534351147,-0.442138671875,-0.01953125,-0.263916015625,0.18189999999999998
1.8931297709923665,-1.1908396946564885,-1.984732824427481,-0.44287109375,-0.01904296875,-0.263916015625,0.18359999999999999
1.9389312977099236,-1.099236641221374,-2.122137404580153,-0.44140625,-0.01513671875,-0.2646484375,0.1853
1.984732824427481,-1.1450381679389312,-2.015267175572519,-0.44189453125,-0.0126953125,-0.27099609375,0.187
1.816793893129771,-1.1908396946564885,-1.9694656488549618,-0.446044921875,-0.01611328125,-0.2666015625,0.18869999999999998
1.9083969465648856,-1.1603053435114503,-1.9541984732824427,-0.446044921875,-0.02294921875,-0.27099609375,0.19039999999999999
1.8473282442748091,-0.9923664122137404,-1.8625954198473282,-0.445068359375,-0.01904296875,-0.271240234375,0.1921
1.83206106870229,-1.0381679389312977,-1.9694656488549618,-0.442626953125,-0.020751953125,-0.26904296875,0.1938
1.8778625954198473,-1.1297709923664123,-2.183206106870229,-0.444580078125,-0.0185546875,-0.26904296875,0.19549999999999998
1.9389312977099236,-0.9618320610687023,-2.015267175572519,-0.446044921875,-0.0146484375,-0.264892578125,0.1972
1.6030534351145038,-0.9770992366412213,-2.015267175572519,-0.442626953125,-0.0185546875,-0.26513671875,0.1989
1.5114503816793894,-1.099236641221374,-2.030534351145038,-0.447265625,-0.02099609375,-0.2724609375,0.2006
1.6793893129770991,-1.0534351145038168,-2.0610687022900764,-0.443359375,-0.023681640625,-0.27392578125,0.20229999999999998
1.618320610687023,-0.9465648854961832,-1.9083969465648856,-0.448486328125,-0.021728515625,-0.265625,0.204
1.6641221374045803,-1.1603053435114503,-2.0916030534351147,-0.443115234375,-0.017578125,-0.263916015625,0.2057
1.6488549618320612,-1.1450381679389312,-2.0610687022900764,-0.442626953125,-0.024169921875,-0.2666015625,0.2074
1.5419847328244274,-0.9770992366412213,-2.122137404580153,-0.44287109375,-0.017822265625,-0.27294921875,0.20909999999999998
1.4809160305343512,-1.1297709923664123,-1.9083969465648856,-0.442626953125,-0.019775390625,-0.268310546875,0.2108
1.5114503816793894,-1.1450381679389312,-2.0763358778625953,-0.4375,-0.02197265625,-0.266845703125,0.2125
1.5267175572519085,-1.1908396946564885,-1.984732824427481,-0.444580078125,-0.0146484375,-0.2685546875,0.2142
1.4198473282442747,-1.1908396946564885,-2.0916030534351147,-0.442626953125,-0.015625,-0.26708984375,0.21589999999999998
1.4351145038167938,-1.1145038167938932,-2.0916030534351147,-0.44091796875,-0.012939453125,-0.261474609375,0.2176
1.4045801526717556,-1.099236641221374,-2.0,-0.4404296875,-0.02294921875,-0.266357421875,0.2193
1.1908396946564885,-1.083969465648855,-1.8778625954198473,-0.44189453125,-0.017333984375,-0.2705078125,0.22099999999999997
1.3893129770992367,-0.9923664122137404,-2.0,-0.44677734375,-0.015625,-0.267333984375,0.22269999999999998
1.0687022900763359,-1.0381679389312977,-2.0916030534351147,-0.44384765625,-0.01708984375,-0.25634765625,0.2244
1.3740458015267176,-1.0076335877862594,-1.984732824427481,-0.4453125,-0.013427734375,-0.2607421875,0.2261
1.3893129770992367,-0.9465648854961832,-2.015267175572519,-0.4501953125,-0.01904296875,-0.263916015625,0.22779999999999997
1.2213740458015268,-0.9312977099236641,-1.984732824427481,-0.44677734375,-0.01953125,-0.263916015625,0.22949999999999998
1.282442748091603,-0.9770992366412213,-1.8931297709923665,-0.445556640625,-0.01611328125,-0.26904296875,0.2312
1.3282442748091603,-1.0534351145038168,-2.045801526717557,-0.446044921875,-0.017822265625,-0.266845703125,0.2329
1.1297709923664123,-0.8091603053435115,-2.198473282442748,-0.444580078125,-0.01318359375,-0.279052734375,0.23459999999999998
1.1603053435114503,-0.9312977099236641,-2.16793893129771,-0.447265625,-0.01904296875,-0.273681640625,0.23629999999999998
1.0076335877862594,-1.0229007633587786,-1.8778625954198473,-0.443603515625,-0.01953125,-0.266845703125,0.238
1.1603053435114503,-1.0381679389312977,-2.1068702290076335,-0.4462890625,-0.02001953125,-0.275146484375,0.2397
1.297709923664122,-1.0076335877862594,-2.0,-0.444091796875,-0.021240234375,-0.26220703125,0.24139999999999998
1.2061068702290076,-1.0687022900763359,-2.16793893129771,-0.4453125,-0.019775390625,-0.260009765625,0.24309999999999998
1.1145038167938932,-0.8702290076335878,-1.9694656488549618,-0.442138671875,-0.017822265625,-0.264404296875,0.2448
1.1297709923664123,-0.8549618320610687,-1.9083969465648856,-0.44384765625,-0.01513671875,-0.265625,0.2465
1.1755725190839694,-0.9007633587786259,-1.9236641221374047,-0.44189453125,-0.013671875,-0.265625,0.24819999999999998
1.1755725190839694,-0.9007633587786259,-2.16793893129771,-0.443115234375,-0.018310546875,-0.271240234375,0.24989999999999998
1.2061068702290076,-0.8396946564885496,-2.0,-0.444580078125,-0.020751953125,-0.267822265625,0.2516
1.1145038167938932,-0.9007633587786259,-2.0610687022900764,-0.442138671875,-0.0185546875,-0.260009765625,0.25329999999999997
0.732824427480916,-0.9618320610687023,-2.0916030534351147,-0.442626953125,-0.01806640625,-0.262939453125,0.255
1.1908396946564885,-1.0229007633587786,-2.213740458015267,-0.4462890625,-0.016845703125,-0.263427734375,0.2567
1.282442748091603,-0.8702290076335878,-2.1068702290076335,-0.44580078125,-0.0166015625,-0.2587890625,0.25839999999999996
0.9465648854961832,-0.8854961832061069,-1.9694656488549618,-0.44189453125,-0.019775390625,-0.263671875,0.2601
0.9618320610687023,-1.0076335877862594,-1.9694656488549618,-0.4462890625,-0.01513671875,-0.2685546875,0.2618
0.9618320610687023,-0.8854961832061069,-1.9389312977099236,-0.446044921875,-0.008056640625,-0.254638671875,0.2635
1.099236641221374,-1.1450381679389312,-1.984732824427481,-0.451171875,-0.01708984375,-0.26513671875,0.2652
1.0687022900763359,-0.9007633587786259,-2.0916030534351147,-0.44189453125,-0.01416015625,-0.2666015625,0.26689999999999997
1.0229007633587786,-0.8702290076335878,-2.0763358778625953,-0.44677734375,-0.020263671875,-0.278076171875,0.2686
1.0076335877862594,-1.0534351145038168,-2.1374045801526718,-0.43994140625,-0.019775390625,-0.261474609375,0.2703
0.9007633587786259,-0.9465648854961832,-1.9694656488549618,-0.442626953125,-0.02099609375,-0.2607421875,0.27199999999999996
1.0534351145038168,-1.099236641221374,-2.0916030534351147,-0.440673828125,-0.02099609375,-0.2705078125,0.2737
0.9465648854961832,-1.0229007633587786,-2.198473282442748,-0.4453125,-0.0205078125,-0.271240234375,0.2754
1.099236641221374,-0.9465648854961832,-2.2748091603053435,-0.441162109375,-0.0146484375,-0.2626953125,0.27709999999999996
1.0229007633587786,-1.099236641221374,-2.2595419847328246,-0.440185546875,-0.02001953125,-0.26416015625,0.2788
1.0229007633587786,-1.099236641221374,-1.984732824427481,-0.440185546875,-0.016845703125,-0.2587890625,0.28049999999999997
0.916030534351145,-1.0076335877862594,-2.198473282442748,-0.443359375,-0.01611328125,-0.2587890625,0.2822
0.9618320610687023,-0.9312977099236641,-2.198473282442748,-0.44287109375,-0.017578125,-0.259521484375,0.2839
0.8244274809160306,-1.1908396946564885,-2.2900763358778624,-0.442626953125,-0.019287109375,-0.260986328125,0.28559999999999997
1.1297709923664123,-1.0076335877862594,-2.122137404580153,-0.4404296875,-0.021728515625,-0.265625,0.2873
1.099236641221374,-0.8854961832061069,-2.33587786259542,-0.443603515625,-0.01904296875,-0.271728515625,0.289
0.9923664122137404,-1.1603053435114503,-2.2900763358778624,-0.447021484375,-0.01611328125,-0.253662109375,0.29069999999999996
1.083969465648855,-0.9770992366412213,-2.381679389312977,-0.44677734375,-0.01611328125,-0.26513671875,0.2924
1.099236641221374,-0.9312977099236641,-2.3053435114503817,-0.448486328125,-0.018798828125,-0.262451171875,0.2941
1.0229007633587786,-1.1297709923664123,-2.3053435114503817,-0.44677734375,-0.01806640625,-0.252197265625,0.2958
0.9312977099236641,-1.083969465648855,-2.2748091603053435,-0.443115234375,-0.01318359375,-0.271484375,0.2975
1.1145038167938932,-1.0687022900763359,-2.3969465648854964,-0.44091796875,-0.01904296875,-0.2685546875,0.29919999999999997
1.1450381679389312,-1.2213740458015268,-2.381679389312977,-0.446533203125,-0.014404296875,-0.2626953125,0.3009
0.9618320610687023,-0.9770992366412213,-2.4580152671755724,-0.44189453125,-0.0185546875,-0.263671875,0.3026
1.0687022900763359,-0.9770992366412213,-2.4580152671755724,-0.442626953125,-0.017822265625,-0.263427734375,0.30429999999999996
1.2671755725190839,-0.9923664122137404,-2.351145038167939,-0.447265625,-0.021728515625,-0.267333984375,0.306
1.3129770992366412,-0.8396946564885496,-2.3969465648854964,-0.442138671875,-0.01904296875,-0.25146484375,0.3077
1.282442748091603,-0.9923664122137404,-2.381679389312977,-0.445068359375,-0.014404296875,-0.254638671875,0.3094
1.1450381679389312,-0.9923664122137404,-2.3969465648854964,-0.449462890625,-0.014404296875,-0.268798828125,0.3111
1.3587786259541985,-1.0687022900763359,-2.381679389312977,-0.447509765625,-0.0166015625,-0.2646484375,0.31279999999999997
1.3740458015267176,-0.9770992366412213,-2.33587786259542,-0.442138671875,-0.015869140625,-0.26611328125,0.3145
1.3587786259541985,-0.7786259541984732,-2.3969465648854964,-0.442626953125,-0.013916015625,-0.2666015625,0.3162
1.297709923664122,-0.916030534351145,-2.366412213740458,-0.447509765625,-0.020751953125,-0.265625,0.31789999999999996
1.4198473282442747,-1.0381679389312977,-2.351145038167939,-0.4384765625,-0.017578125,-0.266357421875,0.3196
1.6030534351145038,-0.9007633587786259,-2.33587786259542,-0.444580078125,-0.01416015625,-0.2607421875,0.3213
1.465648854961832,-0.8702290076335878,-2.0916030534351147,-0.44140625,-0.02197265625,-0.256103515625,0.323
1.4351145038167938,-1.0381679389312977,-2.16793893129771,-0.451416015625,-0.0205078125,-0.26123046875,0.3247
1.4809160305343512,-0.8702290076335878,-2.2442748091603053,-0.453369140625,-0.01513671875,-0.262451171875,0.32639999999999997
1.5419847328244274,-0.9007633587786259,-2.16793893129771,-0.447021484375,-0.015625,-0.263671875,0.3281
1.6793893129770991,-0.9465648854961832,-2.3969465648854964,-0.446044921875,-0.015625,-0.267822265625,0.3298
1.3893129770992367,-0.9618320610687023,-2.351145038167939,-0.446044921875,-0.018798828125,-0.266357421875,0.33149999999999996
1.7404580152671756,-0.9007633587786259,-2.3206106870229006,-0.44775390625,-0.01904296875,-0.265625,0.3332
1.6030534351145038,-0.8854961832061069,-1.984732824427481,-0.448486328125,-0.0185546875,-0.2587890625,0.3349
1.5877862595419847,-0.7786259541984732,-2.16793893129771,-0.44384765625,-0.02001953125,-0.265625,0.33659999999999995
1.618320610687023,-0.8396946564885496,-2.0916030534351147,-0.442626953125,-0.020751953125,-0.268798828125,0.3383
1.6946564885496183,-0.8091603053435115,-2.427480916030534,-0.443115234375,-0.019775390625,-0.260498046875,0.33999999999999997
1.6030534351145038,-1.0076335877862594,-1.9541984732824427,-0.444580078125,-0.018798828125,-0.26171875,0.3417
1.7709923664122138,-0.8396946564885496,-2.0763358778625953,-0.443603515625,-0.01708984375,-0.255126953125,0.3434
1.5725190839694656,-0.8549618320610687,-1.9541984732824427,-0.441650390625,-0.020263671875,-0.26513671875,0.34509999999999996
1.7404580152671756,-0.8091603053435115,-1.9541984732824427,-0.446533203125,-0.013671875,-0.25634765625,0.3468
1.8625954198473282,-0.916030534351145,-1.9083969465648856,-0.44775390625,-0.02197265625,-0.263916015625,0.3485
1.7557251908396947,-0.8702290076335878,-1.8625954198473282,-0.44677734375,-0.025390625,-0.256103515625,0.35019999999999996
1.6030534351145038,-0.8244274809160306,-1.816793893129771,-0.441650390625,-0.02001953125,-0.27001953125,0.3519
1.7099236641221374,-0.916030534351145,-2.015267175572519,-0.442138671875,-0.016845703125,-0.265625,0.35359999999999997
1.6793893129770991,-1.0534351145038168,-1.8625954198473282,-0.438720703125,-0.018798828125,-0.274169921875,0.3553
1.786259541984733,-1.0229007633587786,-1.8778625954198473,-0.447021484375,-0.015869140625,-0.271240234375,0.357
1.8778625954198473,-0.6259541984732825,-1.786259541984733,-0.447509765625,-0.0146484375,-0.26904296875,0.35869999999999996
1.8473282442748091,-0.8091603053435115,-1.816793893129771,-0.4423828125,-0.0166015625,-0.261474609375,0.3604
1.6793893129770991,-0.8854961832061069,-1.7557251908396947,-0.442626953125,-0.018310546875,-0.26513671875,0.3621
1.7404580152671756,-0.916030534351145,-1.8625954198473282,-0.447265625,-0.02099609375,-0.261474609375,0.36379999999999996
1.7099236641221374,-0.8091603053435115,-1.6793893129770991,-0.4443359375,-0.0205078125,-0.26904296875,0.3655
1.7709923664122138,-0.9618320610687023,-1.633587786259542,-0.445068359375,-0.015380859375,-0.26123046875,0.36719999999999997
1.8473282442748091,-0.9007633587786259,-1.6030534351145038,-0.445556640625,-0.020751953125,-0.2646484375,0.3689
1.8778625954198473,-0.8396946564885496,-2.0,-0.447021484375,-0.017822265625,-0.262939453125,0.3706
1.8015267175572518,-0.9465648854961832,-1.6030534351145038,-0.447998046875,-0.02001953125,-0.26220703125,0.37229999999999996
1.4961832061068703,-0.9770992366412213,-1.5725190839694656,-0.446533203125,-0.0234375,-0.259521484375,0.374
1.8625954198473282,-0.9312977099236641,-1.5267175572519085,-0.442138671875,-0.021728515625,-0.262939453125,0.3757
1.6946564885496183,-1.0229007633587786,-1.7099236641221374,-0.441650390625,-0.019775390625,-0.260009765625,0.37739999999999996
1.8778625954198473,-0.9465648854961832,-1.5572519083969465,-0.442626953125,-0.021240234375,-0.259521484375,0.3791
1.6793893129770991,-0.7022900763358778,-1.816793893129771,-0.44287109375,-0.01611328125,-0.26171875,0.38079999999999997
1.8015267175572518,-0.8549618320610687,-1.6793893129770991,-0.447021484375,-0.020263671875,-0.262451171875,0.38249999999999995
1.7709923664122138,-0.8702290076335878,-1.6030534351145038,-0.443603515625,-0.01904296875,-0.2626953125,0.3842
1.7557251908396947,-0.7938931297709924,-1.7709923664122138,-0.443359375,-0.018798828125,-0.2578125,0.38589999999999997
1.7251908396946565,-0.7022900763358778,-1.8473282442748091,-0.442138671875,-0.016357421875,-0.262939453125,0.3876
1.633587786259542,-0.916030534351145,-1.5725190839694656,-0.443359375,-0.017333984375,-0.26904296875,0.3893
1.83206106870229,-0.8244274809160306,-1.633587786259542,-0.441650390625,-0.02099609375,-0.27001953125,0.39099999999999996
1.83206106870229,-0.9465648854961832,-1.5877862595419847,-0.441650390625,-0.01953125,-0.261474609375,0.3927
1.8778625954198473,-0.8549618320610687,-1.5267175572519085,-0.44189453125,-0.021728515625,-0.262451171875,0.3944
1.8778625954198473,-0.7633587786259542,-1.5419847328244274,-0.44775390625,-0.020263671875,-0.259765625,0.39609999999999995
1.7251908396946565,-0.7633587786259542,-1.7709923664122138,-0.448974609375,-0.01708984375,-0.2578125,0.3978
1.450381679389313,-0.8091603053435115,-1.5419847328244274,-0.450439453125,-0.01904296875,-0.25732421875,0.39949999999999997
1.6030534351145038,-0.7022900763358778,-1.6488549618320612,-0.443603515625,-0.01318359375,-0.262939453125,0.4012
1.6641221374045803,-0.7175572519083969,-1.4351145038167938,-0.447265625,-0.0185546875,-0.267333984375,0.4029
1.7404580152671756,-0.6717557251908397,-1.5419847328244274,-0.448486328125,-0.015625,-0.2666015625,0.40459999999999996
1.450381679389313,-0.7480916030534351,-1.7709923664122138,-0.44091796875,-0.018798828125,-0.267333984375,0.4063
1.633587786259542,-0.7480916030534351,-1.786259541984733,-0.444091796875,-0.024169921875,-0.258056640625,0.408
1.6946564885496183,-0.6870229007633588,-1.618320610687023,-0.441162109375,-0.02197265625,-0.260986328125,0.40969999999999995
1.5114503816793894,-0.732824427480916,-1.5572519083969465,-0.441650390625,-0.015869140625,-0.260986328125,0.4114
1.6793893129770991,-0.6259541984732825,-1.6030534351145038,-0.4443359375,-0.022705078125,-0.259765625,0.41309999999999997
1.3740458015267176,-0.6564885496183206,-1.6488549618320612,-0.44287109375,-0.021240234375,-0.257568359375,0.4148
1.4809160305343512,-0.7175572519083969,-1.6488549618320612,-0.444580078125,-0.015625,-0.259765625,0.4165
1.5419847328244274,-0.7022900763358778,-1.6946564885496183,-0.445556640625,-0.0185546875,-0.260009765625,0.41819999999999996
1.450381679389313,-0.7022900763358778,-1.5877862595419847,-0.444091796875,-0.020751953125,-0.271240234375,0.4199
1.4809160305343512,-0.5801526717557252,-1.83206106870229,-0.447021484375,-0.01806640625,-0.264404296875,0.4216
1.5267175572519085,-0.5038167938931297,-1.6946564885496183,-0.447509765625,-0.01708984375,-0.259033203125,0.42329999999999995
1.5725190839694656,-0.5648854961832062,-1.6793893129770991,-0.444580078125,-0.021728515625,-0.26513671875,0.425
1.6946564885496183,-0.6106870229007634,-1.6641221374045803,-0.4453125,-0.0234375,-0.262451171875,0.42669999999999997
1.4961832061068703,-0.549618320610687,-1.8015267175572518,-0.44775390625,-0.02294921875,-0.259765625,0.4284
1.3893129770992367,-0.6259541984732825,-1.83206106870229,-0.4462890625,-0.0205078125,-0.255859375,0.4301
1.5419847328244274,-0.7786259541984732,-1.7709923664122138,-0.44140625,-0.01708984375,-0.263427734375,0.43179999999999996
1.5267175572519085,-0.5801526717557252,-1.633587786259542,-0.444580078125,-0.015869140625,-0.263671875,0.4335
1.5572519083969465,-0.7175572519083969,-1.7709923664122138,-0.443359375,-0.023193359375,-0.264892578125,0.4352
1.4961832061068703,-0.4580152671755725,-1.618320610687023,-0.44384765625,-0.0224609375,-0.260009765625,0.43689999999999996
1.465648854961832,-0.549618320610687,-1.5267175572519085,-0.4423828125,-0.018798828125,-0.25634765625,0.4386
1.2366412213740459,-0.6259541984732825,-1.7099236641221374,-0.444091796875,-0.02099609375,-0.264892578125,0.44029999999999997
1.3587786259541985,-0.5648854961832062,-1.6946564885496183,-0.44580078125,-0.017333984375,-0.259765625,0.44199999999999995
1.5877862595419847,-0.7022900763358778,-1.4351145038167938,-0.444091796875,-0.01904296875,-0.259765625,0.4437
1.251908396946565,-0.4580152671755725,-1.4809160305343512,-0.451171875,-0.020263671875,-0.26513671875,0.44539999999999996
1.3893129770992367,-0.48854961832061067,-1.6488549618320612,-0.44970703125,-0.021240234375,-0.258544921875,0.4471
1.251908396946565,-0.6106870229007634,-1.5725190839694656,-0.442626953125,-0.024169921875,-0.26904296875,0.4488
1.099236641221374,-0.4580152671755725,-1.4809160305343512,-0.438720703125,-0.0224609375,-0.266357421875,0.45049999999999996
1.5419847328244274,-0.48854961832061067,-1.5725190839694656,-0.44140625,-0.018310546875,-0.256103515625,0.4522
1.1908396946564885,-0.7633587786259542,-1.5419847328244274,-0.441162109375,-0.01904296875,-0.2587890625,0.45389999999999997
1.0381679389312977,-0.48854961832061067,-1.4198473282442747,-0.445068359375,-0.025390625,-0.25927734375,0.45559999999999995
1.3587786259541985,-0.3816793893129771,-1.3435114503816794,-0.443603515625,-0.021728515625,-0.255615234375,0.4573
1.1755725190839694,-0.549618320610687,-1.3587786259541985,-0.44482421875,-0.0224609375,-0.255615234375,0.45899999999999996
1.3740458015267176,-0.42748091603053434,-1.2061068702290076,-0.44580078125,-0.021240234375,-0.25537109375,0.4607
1.282442748091603,-0.6717557251908397,-1.297709923664122,-0.448974609375,-0.021484375,-0.259033203125,0.4624
1.3740458015267176,-0.7480916030534351,-1.4351145038167938,-0.44775390625,-0.0224609375,-0.266845703125,0.46409999999999996
1.1755725190839694,-0.4732824427480916,-1.1908396946564885,-0.442626953125,-0.021484375,-0.261962890625,0.4658
1.2061068702290076,-0.44274809160305345,-1.297709923664122,-0.44677734375,-0.018798828125,-0.264404296875,0.46749999999999997
1.1450381679389312,-0.3969465648854962,-1.5725190839694656,-0.447021484375,-0.0224609375,-0.260498046875,0.46919999999999995
1.2213740458015268,-0.2900763358778626,-1.4198473282442747,-0.445556640625,-0.021240234375,-0.270263671875,0.4709
1.2061068702290076,-0.42748091603053434,-1.4961832061068703,-0.44677734375,-0.024658203125,-0.26611328125,0.47259999999999996
1.099236641221374,-0.44274809160305345,-1.618320610687023,-0.44677734375,-0.015869140625,-0.257568359375,0.4743
1.083969465648855,-0.3511450381679389,-1.3282442748091603,-0.44921875,-0.019775390625,-0.25634765625,0.476
1.282442748091603,-0.32061068702290074,-1.6641221374045803,-0.4482421875,-0.022216796875,-0.2646484375,0.47769999999999996
1.1145038167938932,-0.24427480916030533,-1.6030534351145038,-0.447021484375,-0.021484375,-0.268310546875,0.4794
1.1450381679389312,-0.22900763358778625,-1.618320610687023,-0.4453125,-0.0185546875,-0.258544921875,0.48109999999999997
1.1450381679389312,-0.13740458015267176,-1.4809160305343512,-0.4462890625,-0.023193359375,-0.26318359375,0.48279999999999995
1.0687022900763359,-0.2748091603053435,-1.465648854961832,-0.451904296875,-0.023193359375,-0.268310546875,0.4845
1.4045801526717556,-0.0916030534351145,-1.3587786259541985,-0.447509765625,-0.01953125,-0.26416015625,0.48619999999999997
1.0229007633587786,0.0916030534351145,-1.6488549618320612,-0.449951171875,-0.019775390625,-0.26513671875,0.4879
1.297709923664122,-0.15267175572519084,-1.465648854961832,-0.447021484375,-0.020263671875,-0.266357421875,0.4896
1.1145038167938932,-0.15267175572519084,-1.6030534351145038,-0.4482421875,-0.0263671875,-0.262939453125,0.49129999999999996
1.251908396946565,-0.015267175572519083,-1.4198473282442747,-0.445556640625,-0.021484375,-0.268310546875,0.493
1.297709923664122,-0.07633587786259542,-1.5114503816793894,-0.446533203125,-0.019775390625,-0.256591796875,0.4947
0.9770992366412213,-0.10687022900763359,-1.4198473282442747,-0.446044921875,-0.021728515625,-0.262451171875,0.49639999999999995
1.2061068702290076,-0.13740458015267176,-1.3587786259541985,-0.441162109375,-0.019775390625,-0.258544921875,0.4981
1.297709923664122,0.04580152671755725,-1.450381679389313,-0.443603515625,-0.022705078125,-0.26318359375,0.49979999999999997
0.916030534351145,0.030534351145038167,-1.6946564885496183,-0.44677734375,-0.017578125,-0.26171875,0.5015
0.9465648854961832,0.12213740458015267,-1.3282442748091603,-0.4501953125,-0.02392578125,-0.257568359375,0.5032
1.0381679389312977,0.16793893129770993,-1.4045801526717556,-0.445068359375,-0.017333984375,-0.259521484375,0.5049
0.9465648854961832,0.3511450381679389,-1.1908396946564885,-0.442626953125,-0.0205078125,-0.26025390625,0.5065999999999999
1.0381679389312977,0.2900763358778626,-1.2671755725190839,-0.44677734375,-0.020263671875,-0.2587890625,0.5083
1.1603053435114503,0.5801526717557252,-1.251908396946565,-0.4443359375,-0.025390625,-0.2646484375,0.51
1.1908396946564885,0.4580152671755725,-1.2213740458015268,-0.44970703125,-0.02783203125,-0.263671875,0.5116999999999999
0.916030534351145,0.3053435114503817,-1.1603053435114503,-0.44140625,-0.02099609375,-0.25537109375,0.5134
0.9007633587786259,0.21374045801526717,-1.2366412213740459,-0.4521484375,-0.02197265625,-0.2587890625,0.5151
0.8091603053435115,0.6259541984732825,-0.9923664122137404,-0.445556640625,-0.021728515625,-0.2568359375,0.5167999999999999
0.732824427480916,0.4732824427480916,-1.282442748091603,-0.450439453125,-0.02001953125,-0.2646484375,0.5185
0.9007633587786259,0.3969465648854962,-1.0534351145038168,-0.44970703125,-0.018798828125,-0.26318359375,0.5202
0.8396946564885496,0.6564885496183206,-1.2061068702290076,-0.44921875,-0.016357421875,-0.26513671875,0.5218999999999999
0.8091603053435115,0.6259541984732825,-1.0687022900763359,-0.448486328125,-0.02001953125,-0.26025390625,0.5236
0.8244274809160306,0.6259541984732825,-1.1908396946564885,-0.447509765625,-0.021240234375,-0.26611328125,0.5253
0.8854961832061069,0.7633587786259542,-1.083969465648855,-0.445068359375,-0.02099609375,-0.2568359375,0.527
0.8702290076335878,0.7786259541984732,-1.0076335877862594,-0.447509765625,-0.020751953125,-0.25634765625,0.5287
0.6870229007633588,0.7786259541984732,-0.8396946564885496,-0.4501953125,-0.021240234375,-0.265380859375,0.5304
0.7480916030534351,0.7938931297709924,-1.4045801526717556,-0.44873046875,-0.0166015625,-0.259765625,0.5321
0.5648854961832062,0.8854961832061069,-1.1297709923664123,-0.447265625,-0.018310546875,-0.25634765625,0.5337999999999999
0.7480916030534351,0.8854961832061069,-1.1755725190839694,-0.448486328125,-0.016357421875,-0.265380859375,0.5355
0.6870229007633588,1.1908396946564885,-1.1450381679389312,-0.446533203125,-0.019775390625,-0.24951171875,0.5372
0.4732824427480916,0.8854961832061069,-1.297709923664122,-0.447021484375,-0.02197265625,-0.263916015625,0.5388999999999999
0.7175572519083969,0.8244274809160306,-1.3740458015267176,-0.447998046875,-0.0185546875,-0.255126953125,0.5406
0.6870229007633588,0.8702290076335878,-1.6488549618320612,-0.44677734375,-0.021240234375,-0.259521484375,0.5423
0.5190839694656488,0.916030534351145,-1.3893129770992367,-0.447509765625,-0.020751953125,-0.259033203125,0.5439999999999999
0.5801526717557252,0.7633587786259542,-1.5114503816793894,-0.452392578125,-0.01904296875,-0.263427734375,0.5457
0.7480916030534351,0.8091603053435115,-1.5572519083969465,-0.447021484375,-0.019775390625,-0.2626953125,0.5474
0.7480916030534351,0.5954198473282443,-1.7404580152671756,-0.445556640625,-0.012451171875,-0.2626953125,0.5490999999999999
0.7480916030534351,0.48854961832061067,-1.7404580152671756,-0.44677734375,-0.014892578125,-0.264892578125,0.5508
0.8549618320610687,0.5190839694656488,-1.8931297709923665,-0.443603515625,-0.0107421875,-0.261962890625,0.5525
0.7938931297709924,0.6564885496183206,-1.7251908396946565,-0.4443359375,-0.021484375,-0.2578125,0.5541999999999999
1.0534351145038168,0.6412213740458015,-2.015267175572519,-0.445068359375,-0.022216796875,-0.262451171875,0.5559
1.0229007633587786,0.5038167938931297,-1.816793893129771,-0.448486328125,-0.013671875,-0.26171875,0.5576
0.9007633587786259,0.6259541984732825,-2.0763358778625953,-0.447998046875,-0.018798828125,-0.258544921875,0.5593
1.0381679389312977,0.44274809160305345,-1.9083969465648856,-0.4521484375,-0.016845703125,-0.26220703125,0.5609999999999999
1.1297709923664123,0.5954198473282443,-2.045801526717557,-0.4462890625,-0.014892578125,-0.261962890625,0.5627
0.916030534351145,0.48854961832061067,-1.8625954198473282,-0.447021484375,-0.0185546875,-0.259521484375,0.5644
1.0687022900763359,0.44274809160305345,-1.9083969465648856,-0.445068359375,-0.013671875,-0.261474609375,0.5660999999999999
0.9465648854961832,0.48854961832061067,-1.7709923664122138,-0.44775390625,-0.017578125,-0.26220703125,0.5678
0.9312977099236641,0.6259541984732825,-2.2748091603053435,-0.445068359375,-0.015625,-0.26611328125,0.5695
1.0534351145038168,0.5038167938931297,-2.015267175572519,-0.43994140625,-0.017333984375,-0.260498046875,0.5711999999999999
0.8396946564885496,0.5038167938931297,-1.8931297709923665,-0.442138671875,-0.021240234375,-0.259521484375,0.5729
1.0229007633587786,0.6412213740458015,-1.8473282442748091,-0.4453125,-0.022216796875,-0.25390625,0.5746
1.099236641221374,0.4580152671755725,-1.9694656488549618,-0.44677734375,-0.022216796875,-0.260498046875,0.5762999999999999
1.1145038167938932,0.44274809160305345,-1.8625954198473282,-0.443603515625,-0.0244140625,-0.267578125,0.578
1.1908396946564885,0.366412213740458,-1.9694656488549618,-0.446044921875,-0.01904296875,-0.258544921875,0.5797
1.0381679389312977,0.22900763358778625,-1.83206106870229,-0.44140625,-0.01904296875,-0.255859375,0.5813999999999999
1.099236641221374,0.16793893129770993,-1.9541984732824427,-0.436279296875,-0.020263671875,-0.2509765625,0.5831
1.0534351145038168,-0.015267175572519083,-2.030534351145038,-0.439453125,-0.0205078125,-0.25341796875,0.5848
1.1297709923664123,0.0,-1.9389312977099236,-0.4423828125,-0.02001953125,-0.260009765625,0.5865
1.3129770992366412,-0.12213740458015267,-1.9083969465648856,-0.4423828125,-0.01806640625,-0.25927734375,0.5882
0.9465648854961832,-0.21374045801526717,-1.8625954198473282,-0.442626953125,-0.02001953125,-0.25537109375,0.5899
0.9618320610687023,-0.07633587786259542,-1.7404580152671756,-0.438720703125,-0.022705078125,-0.257080078125,0.5916
1.0076335877862594,-0.07633587786259542,-1.9236641221374047,-0.4423828125,-0.0205078125,-0.259521484375,0.5932999999999999
1.1908396946564885,-0.2748091603053435,-1.6793893129770991,-0.44482421875,-0.01953125,-0.260009765625,0.595
0.9923664122137404,-0.44274809160305345,-1.7404580152671756,-0.43701171875,-0.014892578125,-0.2578125,0.5967
1.099236641221374,-0.3969465648854962,-1.7557251908396947,-0.44140625,-0.019287109375,-0.251953125,0.5983999999999999
1.3129770992366412,-0.549618320610687,-1.6946564885496183,-0.445068359375,-0.023681640625,-0.260986328125,0.6001
0.8854961832061069,-0.3969465648854962,-1.5877862595419847,-0.44189453125,-0.021728515625,-0.2646484375,0.6018
1.1145038167938932,-0.732824427480916,-1.6641221374045803,-0.437255859375,-0.020263671875,-0.264892578125,0.6034999999999999
1.0687022900763359,-0.6870229007633588,-1.5725190839694656,-0.44873046875,-0.02001953125,-0.26025390625,0.6052
0.9923664122137404,-0.6412213740458015,-1.5725190839694656,-0.44775390625,-0.0234375,-0.264404296875,0.6069
1.099236641221374,-0.7022900763358778,-1.4351145038167938,-0.444580078125,-0.019775390625,-0.260498046875,0.6085999999999999
0.8244274809160306,-0.7786259541984732,-1.450381679389313,-0.443359375,-0.021728515625,-0.2626953125,0.6103
0.9312977099236641,-0.732824427480916,-1.251908396946565,-0.44482421875,-0.0234375,-0.2587890625,0.612
0.8396946564885496,-0.7175572519083969,-1.297709923664122,-0.444580078125,-0.019775390625,-0.252197265625,0.6136999999999999
0.8091603053435115,-0.916030534351145,-1.3893129770992367,-0.441650390625,-0.02001953125,-0.255615234375,0.6154
0.7480916030534351,-0.9007633587786259,-1.3282442748091603,-0.442138671875,-0.01953125,-0.249267578125,0.6171
0.7633587786259542,-0.8244274809160306,-1.083969465648855,-0.44384765625,-0.021240234375,-0.2646484375,0.6188
0.8244274809160306,-0.916030534351145,-1.1297709923664123,-0.44677734375,-0.020263671875,-0.268798828125,0.6204999999999999
0.6259541984732825,-1.083969465648855,-1.099236641221374,-0.43701171875,-0.0166015625,-0.255615234375,0.6222
0.7175572519083969,-1.1297709923664123,-0.8396946564885496,-0.445068359375,-0.02001953125,-0.2548828125,0.6239
0.6106870229007634,-1.0229007633587786,-1.099236641221374,-0.447265625,-0.0185546875,-0.25244140625,0.6255999999999999
0.7480916030534351,-1.0381679389312977,-0.8396946564885496,-0.441162109375,-0.0205078125,-0.25341796875,0.6273
0.6259541984732825,-1.0076335877862594,-0.9465648854961832,-0.443603515625,-0.02197265625,-0.257080078125,0.629
0.5343511450381679,-1.2213740458015268,-1.083969465648855,-0.450927734375,-0.02197265625,-0.262451171875,0.6306999999999999
0.5038167938931297,-1.1145038167938932,-0.8091603053435115,-0.442626953125,-0.02392578125,-0.2578125,0.6324
0.549618320610687,-1.0381679389312977,-0.9465648854961832,-0.44384765625,-0.017822265625,-0.265869140625,0.6341
0.42748091603053434,-0.9312977099236641,-0.7786259541984732,-0.44189453125,-0.0234375,-0.2568359375,0.6357999999999999
0.4732824427480916,-1.0687022900763359,-0.9465648854961832,-0.442138671875,-0.023193359375,-0.24609375,0.6375
0.4580152671755725,-0.916030534351145,-0.9770992366412213,-0.443359375,-0.0244140625,-0.254150390625,0.6392
0.3511450381679389,-1.0534351145038168,-1.0076335877862594,-0.441650390625,-0.026123046875,-0.266357421875,0.6408999999999999
0.04580152671755725,-0.8396946564885496,-1.0076335877862594,-0.4462890625,-0.019775390625,-0.251220703125,0.6426
0.12213740458015267,-0.7938931297709924,-0.7175572519083969,-0.445556640625,-0.021728515625,-0.262939453125,0.6443
0.10687022900763359,-0.916030534351145,-0.9007633587786259,-0.44287109375,-0.021484375,-0.25830078125,0.646
0.21374045801526717,-0.8854961832061069,-1.099236641221374,-0.446044921875,-0.0244140625,-0.2587890625,0.6476999999999999
0.1984732824427481,-0.7175572519083969,-1.0076335877862594,-0.447265625,-0.026123046875,-0.259033203125,0.6494
0.183206106870229,-0.7175572519083969,-0.8244274809160306,-0.447265625,-0.02001953125,-0.26171875,0.6511
0.015267175572519083,-0.6259541984732825,-0.9465648854961832,-0.450439453125,-0.01953125,-0.25732421875,0.6527999999999999
0.15267175572519084,-0.6412213740458015,-1.0229007633587786,-0.4462890625,-0.0205078125,-0.254638671875,0.6545
0.07633587786259542,-0.6259541984732825,-0.9465648854961832,-0.447998046875,-0.0244140625,-0.255859375,0.6562
-0.13740458015267176,-0.4580152671755725,-1.0687022900763359,-0.446044921875,-0.021240234375,-0.261962890625,0.6578999999999999
-0.12213740458015267,-0.5038167938931297,-1.0534351145038168,-0.43896484375,-0.0205078125,-0.26513671875,0.6596
0.030534351145038167,-0.549618320610687,-0.9312977099236641,-0.445068359375,-0.024169921875,-0.250732421875,0.6613
-0.0916030534351145,-0.3511450381679389,-1.0076335877862594,-0.4453125,-0.020263671875,-0.267333984375,0.6629999999999999
-0.366412213740458,-0.32061068702290074,-1.0076335877862594,-0.448974609375,-0.01806640625,-0.26611328125,0.6647
-0.15267175572519084,-0.3053435114503817,-0.916030534351145,-0.44873046875,-0.01953125,-0.2587890625,0.6664
-0.16793893129770993,-0.24427480916030533,-0.9465648854961832,-0.450439453125,-0.021240234375,-0.255615234375,0.6680999999999999
-0.2900763358778626,-0.24427480916030533,-1.083969465648855,-0.447509765625,-0.018310546875,-0.261962890625,0.6698
-0.3511450381679389,-0.07633587786259542,-1.083969465648855,-0.447021484375,-0.0224609375,-0.26708984375,0.6715
-0.24427480916030533,-0.04580152671755725,-0.9007633587786259,-0.449951171875,-0.0234375,-0.263671875,0.6731999999999999
-0.3511450381679389,0.13740458015267176,-0.916030534351145,-0.447998046875,-0.0234375,-0.260986328125,0.6748999999999999
-0.42748091603053434,-0.07633587786259542,-0.9923664122137404,-0.449462890625,-0.025634765625,-0.258056640625,0.6766
-0.42748091603053434,0.030534351145038167,-0.9618320610687023,-0.4453125,-0.02001953125,-0.259765625,0.6783
-0.5954198473282443,0.3053435114503817,-0.8091603053435115,-0.446533203125,-0.0166015625,-0.255615234375,0.6799999999999999
-0.3511450381679389,0.366412213740458,-0.916030534351145,-0.4501953125,-0.019775390625,-0.259521484375,0.6817
-0.2900763358778626,0.3969465648854962,-0.8702290076335878,-0.448974609375,-0.02197265625,-0.260009765625,0.6834
-0.6717557251908397,0.4580152671755725,-0.7480916030534351,-0.45263671875,-0.019775390625,-0.2646484375,0.6850999999999999
-0.6564885496183206,0.5190839694656488,-0.7633587786259542,-0.447998046875,-0.01904296875,-0.265380859375,0.6868
-0.5648854961832062,0.549618320610687,-0.8549618320610687,-0.451904296875,-0.020263671875,-0.25830078125,0.6885
-0.732824427480916,0.6717557251908397,-0.8244274809160306,-0.448974609375,-0.02197265625,-0.2578125,0.6901999999999999
-0.6412213740458015,0.8702290076335878,-0.8702290076335878,-0.44970703125,-0.023193359375,-0.25830078125,0.6919
-0.732824427480916,0.732824427480916,-0.8702290076335878,-0.45263671875,-0.0205078125,-0.25927734375,0.6936
-0.6412213740458015,0.8854961832061069,-0.8244274809160306,-0.45068359375,-0.02197265625,-0.26123046875,0.6952999999999999
-0.7786259541984732,0.8091603053435115,-0.8396946564885496,-0.44873046875,-0.01953125,-0.265869140625,0.697
-0.6412213740458015,0.8702290076335878,-0.7786259541984732,-0.45166015625,-0.018798828125,-0.260009765625,0.6987
-0.8244274809160306,0.8091603053435115,-1.0076335877862594,-0.442626953125,-0.02001953125,-0.26904296875,0.7003999999999999
-0.8702290076335878,0.9007633587786259,-0.9618320610687023,-0.447265625,-0.020263671875,-0.265625,0.7021
-0.6564885496183206,0.9007633587786259,-1.1145038167938932,-0.448974609375,-0.0234375,-0.26220703125,0.7038
-0.8091603053435115,0.8396946564885496,-0.7786259541984732,-0.45556640625,-0.022705078125,-0.26123046875,0.7055
-0.6564885496183206,0.8854961832061069,-0.9923664122137404,-0.453369140625,-0.019287109375,-0.264404296875,0.7071999999999999
-0.7786259541984732,1.251908396946565,-0.9618320610687023,-0.446044921875,-0.015625,-0.255615234375,0.7089
-0.732824427480916,1.2213740458015268,-0.9465648854961832,-0.448974609375,-0.0205078125,-0.26025390625,0.7106
-0.7938931297709924,1.2061068702290076,-0.8854961832061069,-0.4462890625,-0.023681640625,-0.26123046875,0.7122999999999999
-0.8702290076335878,1.1450381679389312,-1.0687022900763359,-0.44970703125,-0.01904296875,-0.252685546875,0.714
-0.8702290076335878,1.3435114503816794,-0.8854961832061069,-0.44970703125,-0.018798828125,-0.258544921875,0.7157
-1.0076335877862594,1.3587786259541985,-1.0534351145038168,-0.447998046875,-0.020751953125,-0.26025390625,0.7173999999999999
-0.8549618320610687,1.3129770992366412,-0.9923664122137404,-0.447021484375,-0.020751953125,-0.265625,0.7191
-1.0229007633587786,1.251908396946565,-1.0381679389312977,-0.447021484375,-0.02490234375,-0.258544921875,0.7208
-0.7633587786259542,1.251908396946565,-0.916030534351145,-0.44873046875,-0.0185546875,-0.260009765625,0.7224999999999999
-0.8091603053435115,1.083969465648855,-0.916030534351145,-0.44921875,-0.021728515625,-0.257080078125,0.7242
-1.1145038167938932,1.2366412213740459,-0.9312977099236641,-0.453125,-0.017333984375,-0.257568359375,0.7259
-1.0687022900763359,1.282442748091603,-0.9465648854961832,-0.447509765625,-0.0185546875,-0.26025390625,0.7275999999999999
-1.0076335877862594,1.4198473282442747,-1.0076335877862594,-0.449462890625,-0.01708984375,-0.2626953125,0.7293
-1.1603053435114503,1.4351145038167938,-0.9770992366412213,-0.4521484375,-0.0244140625,-0.267333984375,0.731
-1.0381679389312977,1.5419847328244274,-0.8549618320610687,-0.448486328125,-0.01611328125,-0.259033203125,0.7326999999999999
-0.8702290076335878,1.5877862595419847,-0.8244274809160306,-0.452392578125,-0.0205078125,-0.2607421875,0.7343999999999999
-1.2061068702290076,1.5419847328244274,-0.5801526717557252,-0.44921875,-0.0185546875,-0.2568359375,0.7361
-1.2061068702290076,1.7251908396946565,-0.6106870229007634,-0.44775390625,-0.016357421875,-0.255126953125,0.7378
-1.083969465648855,1.9236641221374047,-0.732824427480916,-0.45263671875,-0.02001953125,-0.2578125,0.7394999999999999
-1.2213740458015268,1.7557251908396947,-0.7938931297709924,-0.4521484375,-0.0146484375,-0.26708984375,0.7412
-1.3587786259541985,1.6946564885496183,-0.8854961832061069,-0.44873046875,-0.017578125,-0.259521484375,0.7429
-1.3129770992366412,1.6946564885496183,-0.7480916030534351,-0.449462890625,-0.021484375,-0.260986328125,0.7445999999999999
-1.2366412213740459,1.9236641221374047,-0.6717557251908397,-0.446044921875,-0.015625,-0.2587890625,0.7463
-1.3587786259541985,1.8015267175572518,-1.0381679389312977,-0.4453125,-0.0185546875,-0.261962890625,0.748
-1.1297709923664123,1.9083969465648856,-0.7175572519083969,-0.44970703125,-0.01953125,-0.26220703125,0.7496999999999999
-1.1450381679389312,1.9083969465648856,-0.9007633587786259,-0.44580078125,-0.01953125,-0.264892578125,0.7514
-1.2366412213740459,1.9236641221374047,-0.8702290076335878,-0.451416015625,-0.0234375,-0.254150390625,0.7531
-1.1450381679389312,2.16793893129771,-1.1450381679389312,-0.44580078125,-0.016357421875,-0.260498046875,0.7547999999999999
-1.3435114503816794,2.030534351145038,-1.1603053435114503,-0.447021484375,-0.0107421875,-0.2587890625,0.7565
-1.251908396946565,1.9083969465648856,-1.1755725190839694,-0.444580078125,-0.02294921875,-0.272216796875,0.7582
-1.251908396946565,2.16793893129771,-1.1297709923664123,-0.445068359375,-0.013916015625,-0.2626953125,0.7598999999999999
-1.2671755725190839,2.16793893129771,-1.0229007633587786,-0.4443359375,-0.019775390625,-0.261474609375,0.7615999999999999
-1.2366412213740459,1.816793893129771,-1.0229007633587786,-0.44677734375,-0.015869140625,-0.259033203125,0.7633
-1.282442748091603,2.0,-1.465648854961832,-0.44189453125,-0.019775390625,-0.260009765625,0.7649999999999999
-1.099236641221374,2.0916030534351147,-1.1450381679389312,-0.450439453125,-0.011474609375,-0.26123046875,0.7666999999999999
-1.0687022900763359,1.9541984732824427,-1.2366412213740459,-0.4443359375,-0.016845703125,-0.259521484375,0.7684
-0.9465648854961832,2.1068702290076335,-1.1908396946564885,-0.447265625,-0.01220703125,-0.257568359375,0.7701
-0.9770992366412213,2.1526717557251906,-1.3435114503816794,-0.44921875,-0.01416015625,-0.25048828125,0.7717999999999999
-1.0687022900763359,2.0916030534351147,-1.3282442748091603,-0.446533203125,-0.016845703125,-0.253173828125,0.7735
-0.8549618320610687,1.9083969465648856,-1.1603053435114503,-0.447998046875,-0.016357421875,-0.259033203125,0.7752
-0.8549618320610687,2.015267175572519,-1.1908396946564885,-0.44775390625,-0.016357421875,-0.25439453125,0.7768999999999999
-0.9923664122137404,2.0,-1.3282442748091603,-0.445068359375,-0.0146484375,-0.257080078125,0.7786
-0.7938931297709924,1.984732824427481,-1.251908396946565,-0.447021484375,-0.012451171875,-0.262939453125,0.7803
-0.7022900763358778,1.9541984732824427,-1.2213740458015268,-0.4443359375,-0.01806640625,-0.262451171875,0.7819999999999999
-0.8091603053435115,1.8473282442748091,-1.099236641221374,-0.445068359375,-0.019775390625,-0.258056640625,0.7837
-0.6106870229007634,1.9389312977099236,-1.2213740458015268,-0.4453125,-0.016845703125,-0.26123046875,0.7854
-0.7938931297709924,1.8778625954198473,-1.1755725190839694,-0.44140625,-0.017333984375,-0.25390625,0.7870999999999999
-0.7938931297709924,1.9541984732824427,-1.2061068702290076,-0.443359375,-0.013427734375,-0.262451171875,0.7888
-0.7786259541984732,1.8931297709923665,-1.1603053435114503,-0.44580078125,-0.01611328125,-0.26318359375,0.7905
-0.7022900763358778,1.786259541984733,-1.0381679389312977,-0.44482421875,-0.013671875,-0.252197265625,0.7921999999999999
-0.5343511450381679,1.8778625954198473,-1.1755725190839694,-0.44677734375,-0.02099609375,-0.264404296875,0.7938999999999999
-0.6412213740458015,2.030534351145038,-1.3282442748091603,-0.442626953125,-0.021484375,-0.263427734375,0.7956
-0.5190839694656488,1.7404580152671756,-1.083969465648855,-0.4453125,-0.015625,-0.25732421875,0.7973
-0.48854961832061067,1.6641221374045803,-1.0534351145038168,-0.445068359375,-0.013671875,-0.25927734375,0.7989999999999999
-0.32061068702290074,1.7709923664122138,-1.0687022900763359,-0.44482421875,-0.0205078125,-0.25390625,0.8007
-0.3511450381679389,1.6641221374045803,-1.0687022900763359,-0.44677734375,-0.015625,-0.257568359375,0.8024
-0.32061068702290074,1.6641221374045803,-1.1908396946564885,-0.442626953125,-0.012451171875,-0.260986328125,0.8040999999999999
-0.2900763358778626,1.4045801526717556,-1.1755725190839694,-0.447998046875,-0.01416015625,-0.251708984375,0.8058
-0.33587786259541985,1.618320610687023,-0.7938931297709924,-0.447509765625,-0.017333984375,-0.260009765625,0.8075
-0.12213740458015267,1.5725190839694656,-0.8091603053435115,-0.439208984375,-0.014892578125,-0.257568359375,0.8091999999999999
-0.183206106870229,1.633587786259542,-1.0381679389312977,-0.444580078125,-0.01806640625,-0.267578125,0.8109
-0.3816793893129771,1.5725190839694656,-0.916030534351145,-0.442626953125,-0.0126953125,-0.25927734375,0.8126
-0.2595419847328244,1.450381679389313,-0.9923664122137404,-0.439208984375,-0.014404296875,-0.267333984375,0.8142999999999999
-0.183206106870229,1.3740458015267176,-0.9923664122137404,-0.43798828125,-0.02001953125,-0.26220703125,0.816
-0.061068702290076333,1.251908396946565,-0.9007633587786259,-0.442138671875,-0.017578125,-0.25830078125,0.8177
-0.061068702290076333,1.465648854961832,-0.8549618320610687,-0.439208984375,-0.01708984375,-0.2626953125,0.8193999999999999
0.10687022900763359,1.251908396946565,-0.9312977099236641,-0.4443359375,-0.013427734375,-0.257080078125,0.8210999999999999
-0.030534351145038167,1.1145038167938932,-0.8396946564885496,-0.441162109375,-0.015380859375,-0.254150390625,0.8228
0.12213740458015267,1.1908396946564885,-0.8702290076335878,-0.442138671875,-0.01416015625,-0.254150390625,0.8244999999999999
0.07633587786259542,0.9923664122137404,-0.7786259541984732,-0.444091796875,-0.014404296875,-0.268310546875,0.8261999999999999
0.13740458015267176,0.7786259541984732,-0.7938931297709924,-0.444091796875,-0.013916015625,-0.269287109375,0.8279
0.13740458015267176,0.732824427480916,-0.9007633587786259,-0.44091796875,-0.016357421875,-0.260986328125,0.8296
0.183206106870229,1.083969465648855,-0.916030534351145,-0.445556640625,-0.01220703125,-0.25830078125,0.8312999999999999
0.22900763358778625,0.8549618320610687,-0.8854961832061069,-0.446533203125,-0.013916015625,-0.2607421875,0.833
0.10687022900763359,0.6870229007633588,-0.7480916030534351,-0.44091796875,-0.017333984375,-0.260986328125,0.8347
0.0,0.6412213740458015,-0.8091603053435115,-0.4462890625,-0.01025390625,-0.264404296875,0.8363999999999999
0.33587786259541985,0.7022900763358778,-0.7786259541984732,-0.434814453125,-0.010498046875,-0.2587890625,0.8381
0.3511450381679389,0.7480916030534351,-0.8702290076335878,-0.44580078125,-0.015869140625,-0.247314453125,0.8398
0.4580152671755725,0.549618320610687,-1.0076335877862594,-0.44775390625,-0.017578125,-0.263427734375,0.8414999999999999
0.5190839694656488,0.7786259541984732,-0.9770992366412213,-0.443359375,-0.014892578125,-0.257568359375,0.8432
0.4732824427480916,0.5190839694656488,-0.9618320610687023,-0.4423828125,-0.016845703125,-0.25927734375,0.8449
0.3511450381679389,0.5343511450381679,-0.9770992366412213,-0.444580078125,-0.014404296875,-0.25146484375,0.8465999999999999
0.2595419847328244,0.44274809160305345,-0.9923664122137404,-0.443603515625,-0.01416015625,-0.263427734375,0.8482999999999999
0.366412213740458,0.4122137404580153,-1.0076335877862594,-0.443115234375,-0.013427734375,-0.2587890625,0.85
0.4732824427480916,0.33587786259541985,-1.1145038167938932,-0.44482421875,-0.010986328125,-0.25830078125,0.8516999999999999
0.3511450381679389,0.2595419847328244,-1.0534351145038168,-0.447021484375,-0.011962890625,-0.2568359375,0.8533999999999999
0.7022900763358778,0.2748091603053435,-1.1603053435114503,-0.445068359375,-0.013427734375,-0.255615234375,0.8551
0.6259541984732825,0.3511450381679389,-1.0687022900763359,-0.439453125,-0.019287109375,-0.258544921875,0.8568
0.4580152671755725,0.366412213740458,-1.2061068702290076,-0.442626953125,-0.021240234375,-0.2666015625,0.8584999999999999
0.5648854961832062,0.44274809160305345,-1.2061068702290076,-0.44091796875,-0.0126953125,-0.2578125,0.8602
0.48854961832061067,0.3511450381679389,-1.4351145038167938,-0.4404296875,-0.01806640625,-0.26416015625,0.8619
0.5343511450381679,0.24427480916030533,-1.2061068702290076,-0.445068359375,-0.020751953125,-0.26513671875,0.8635999999999999
0.48854961832061067,0.4732824427480916,-1.1145038167938932,-0.44482421875,-0.01513671875,-0.259765625,0.8653
0.732824427480916,0.3511450381679389,-1.251908396946565,-0.44140625,-0.017333984375,-0.250244140625,0.867
0.6412213740458015,0.4122137404580153,-1.3282442748091603,-0.4443359375,-0.01904296875,-0.254638671875,0.8686999999999999
0.6564885496183206,0.2595419847328244,-1.2366412213740459,-0.443603515625,-0.016845703125,-0.258544921875,0.8704
0.6259541984732825,0.33587786259541985,-1.4961832061068703,-0.447265625,-0.017578125,-0.25927734375,0.8721
0.7175572519083969,0.44274809160305345,-1.4809160305343512,-0.451416015625,-0.01513671875,-0.262451171875,0.8737999999999999
0.5954198473282443,0.4122137404580153,-1.5114503816793894,-0.44970703125,-0.015869140625,-0.256591796875,0.8755
0.6412213740458015,0.5648854961832062,-1.450381679389313,-0.441650390625,-0.01416015625,-0.26318359375,0.8772
0.549618320610687,0.366412213740458,-1.5267175572519085,-0.446533203125,-0.02197265625,-0.26318359375,0.8788999999999999
0.6870229007633588,0.6870229007633588,-1.5114503816793894,-0.447998046875,-0.020263671875,-0.250244140625,0.8805999999999999
0.7175572519083969,0.7022900763358778,-1.6793893129770991,-0.44677734375,-0.015869140625,-0.259033203125,0.8823
0.6564885496183206,0.6259541984732825,-1.4045801526717556,-0.447265625,-0.009521484375,-0.260986328125,0.8839999999999999
0.7786259541984732,0.7480916030534351,-1.633587786259542,-0.447265625,-0.016357421875,-0.25634765625,0.8856999999999999
0.7175572519083969,0.6106870229007634,-1.3587786259541985,-0.44482421875,-0.01806640625,-0.2578125,0.8874
0.7175572519083969,0.6870229007633588,-1.6793893129770991,-0.44677734375,-0.01611328125,-0.26123046875,0.8891
0.8091603053435115,0.8244274809160306,-1.7251908396946565,-0.448974609375,-0.0205078125,-0.25830078125,0.8907999999999999
0.9770992366412213,0.8091603053435115,-1.6488549618320612,-0.446533203125,-0.015869140625,-0.262939453125,0.8925
0.9465648854961832,0.8396946564885496,-1.5572519083969465,-0.445068359375,-0.02197265625,-0.26123046875,0.8942
0.6564885496183206,0.8854961832061069,-1.83206106870229,-0.451416015625,-0.0185546875,-0.26025390625,0.8958999999999999
0.8091603053435115,0.9618320610687023,-1.633587786259542,-0.448486328125,-0.018310546875,-0.26123046875,0.8976
0.8396946564885496,0.9923664122137404,-1.7099236641221374,-0.44677734375,-0.01416015625,-0.26513671875,0.8993
0.9465648854961832,0.9770992366412213,-1.7404580152671756,-0.442138671875,-0.0185546875,-0.258056640625,0.9009999999999999
0.7938931297709924,0.9618320610687023,-1.7404580152671756,-0.448486328125,-0.0146484375,-0.249755859375,0.9027
0.44274809160305345,1.2671755725190839,-1.633587786259542,-0.44482421875,-0.01611328125,-0.255615234375,0.9044
0.6412213740458015,1.1755725190839694,-1.7404580152671756,-0.454833984375,-0.019775390625,-0.258056640625,0.9060999999999999
0.8396946564885496,1.282442748091603,-1.6641221374045803,-0.44873046875,-0.01708984375,-0.259521484375,0.9077999999999999
0.7175572519083969,1.297709923664122,-1.6641221374045803,-0.4462890625,-0.02099609375,-0.26123046875,0.9095
0.5801526717557252,1.251908396946565,-1.5572519083969465,-0.44873046875,-0.0146484375,-0.2587890625,0.9111999999999999
0.6564885496183206,1.3740458015267176,-1.6641221374045803,-0.44970703125,-0.018798828125,-0.260009765625,0.9128999999999999
0.7786259541984732,1.3740458015267176,-1.5419847328244274,-0.446044921875,-0.013671875,-0.248779296875,0.9146
0.8244274809160306,1.465648854961832,-1.633587786259542,-0.44775390625,-0.014892578125,-0.257568359375,0.9163
0.8549618320610687,1.5114503816793894,-1.6488549618320612,-0.44775390625,-0.0146484375,-0.255859375,0.9179999999999999
0.5038167938931297,1.5877862595419847,-1.83206106870229,-0.44873046875,-0.02001953125,-0.25439453125,0.9197
0.6870229007633588,1.633587786259542,-1.6030534351145038,-0.448486328125,-0.01611328125,-0.26171875,0.9214
0.8549618320610687,1.8473282442748091,-1.5572519083969465,-0.45361328125,-0.019287109375,-0.2587890625,0.9230999999999999
0.7175572519083969,1.7404580152671756,-1.6030534351145038,-0.450439453125,-0.015869140625,-0.2529296875,0.9248
0.7022900763358778,1.618320610687023,-1.7099236641221374,-0.44921875,-0.01513671875,-0.26318359375,0.9265
0.7175572519083969,1.8473282442748091,-1.6030534351145038,-0.446044921875,-0.017333984375,-0.257568359375,0.9281999999999999
0.5648854961832062,1.816793893129771,-1.7557251908396947,-0.453125,-0.016357421875,-0.258544921875,0.9299
0.7786259541984732,1.8015267175572518,-1.4809160305343512,-0.445556640625,-0.014892578125,-0.263671875,0.9316
0.6564885496183206,1.9083969465648856,-1.618320610687023,-0.451416015625,-0.019775390625,-0.25732421875,0.9332999999999999
0.7175572519083969,2.015267175572519,-1.5725190839694656,-0.44580078125,-0.017578125,-0.256591796875,0.9349999999999999
0.6259541984732825,2.0610687022900764,-1.6641221374045803,-0.44970703125,-0.016357421875,-0.2568359375,0.9367
0.5190839694656488,2.030534351145038,-1.3435114503816794,-0.445068359375,-0.01708984375,-0.259521484375,0.9383999999999999
0.48854961832061067,2.045801526717557,-1.5419847328244274,-0.44873046875,-0.015625,-0.263427734375,0.9400999999999999
0.549618320610687,2.0916030534351147,-1.5114503816793894,-0.446044921875,-0.018798828125,-0.253173828125,0.9418
0.44274809160305345,2.2900763358778624,-1.816793893129771,-0.450439453125,-0.023193359375,-0.258544921875,0.9434999999999999
0.44274809160305345,2.33587786259542,-1.633587786259542,-0.445068359375,-0.02490234375,-0.250732421875,0.9451999999999999
0.6259541984732825,2.2290076335877864,-1.5725190839694656,-0.4453125,-0.02392578125,-0.25830078125,0.9469
0.5038167938931297,2.2290076335877864,-1.5572519083969465,-0.447998046875,-0.015869140625,-0.263427734375,0.9486
0.5954198473282443,2.3206106870229006,-1.7099236641221374,-0.450927734375,-0.012451171875,-0.253173828125,0.9502999999999999
0.48854961832061067,2.381679389312977,-1.633587786259542,-0.449462890625,-0.01953125,-0.25634765625,0.952
0.5648854961832062,2.33587786259542,-1.7099236641221374,-0.446044921875,-0.01904296875,-0.263427734375,0.9537
0.7175572519083969,2.4732824427480917,-1.5877862595419847,-0.44580078125,-0.013427734375,-0.259033203125,0.9553999999999999
0.3816793893129771,2.4427480916030535,-1.5877862595419847,-0.449462890625,-0.0146484375,-0.265625,0.9571
0.5801526717557252,2.4427480916030535,-1.6488549618320612,-0.447265625,-0.017578125,-0.259521484375,0.9588
0.3969465648854962,2.4580152671755724,-1.633587786259542,-0.447021484375,-0.0224609375,-0.260498046875,0.9604999999999999
0.5801526717557252,2.5343511450381677,-1.618320610687023,-0.44677734375,-0.02001953125,-0.260009765625,0.9621999999999999
0.6259541984732825,2.4122137404580153,-1.7251908396946565,-0.450927734375,-0.01953125,-0.259765625,0.9639
0.3511450381679389,2.519083969465649,-1.618320610687023,-0.443359375,-0.01318359375,-0.25537109375,0.9655999999999999
0.42748091603053434,2.687022900763359,-1.8015267175572518,-0.44482421875,-0.0205078125,-0.257568359375,0.9672999999999999
0.5648854961832062,2.4885496183206106,-1.6641221374045803,-0.44482421875,-0.017578125,-0.2587890625,0.969
0.6412213740458015,2.687022900763359,-1.618320610687023,-0.453125,-0.01904296875,-0.26904296875,0.9706999999999999
0.549618320610687,2.6259541984732824,-1.7251908396946565,-0.44287109375,-0.017578125,-0.26123046875,0.9723999999999999
0.4580152671755725,2.6259541984732824,-1.7557251908396947,-0.4482421875,-0.017822265625,-0.25732421875,0.9741
0.44274809160305345,2.5343511450381677,-1.7099236641221374,-0.44775390625,-0.015380859375,-0.25390625,0.9758
0.6106870229007634,2.5343511450381677,-1.7251908396946565,-0.448486328125,-0.01708984375,-0.26123046875,0.9774999999999999
0.6259541984732825,2.763358778625954,-1.7557251908396947,-0.443115234375,-0.013671875,-0.26318359375,0.9792
0.5954198473282443,2.7938931297709924,-1.786259541984733,-0.447509765625,-0.014892578125,-0.2568359375,0.9809
0.42748091603053434,2.3969465648854964,-1.8015267175572518,-0.445556640625,-0.012451171875,-0.257080078125,0.9825999999999999
0.3511450381679389,2.564885496183206,-1.9236641221374047,-0.4462890625,-0.014404296875,-0.254150390625,0.9843
0.5801526717557252,2.6412213740458017,-1.8778625954198473,-0.449462890625,-0.01513671875,-0.254150390625,0.986
0.5190839694656488,2.6717557251908395,-1.7404580152671756,-0.442626953125,-0.015869140625,-0.2646484375,0.9876999999999999
0.5190839694656488,2.717557251908397,-1.6488549618320612,-0.4453125,-0.015869140625,-0.260986328125,0.9894
0.549618320610687,2.854961832061069,-1.9083969465648856,-0.444580078125,-0.0185546875,-0.25830078125,0.9911
0.44274809160305345,2.8396946564885495,-1.8473282442748091,-0.447021484375,-0.012451171875,-0.260498046875,0.9927999999999999
0.549618320610687,2.732824427480916,-1.5419847328244274,-0.44873046875,-0.0146484375,-0.256103515625,0.9944999999999999
0.5648854961832062,2.946564885496183,-1.5572519083969465,-0.444091796875,-0.01611328125,-0.2626953125,0.9962
0.5343511450381679,2.763358778625954,-1.7099236641221374,-0.443115234375,-0.016845703125,-0.2646484375,0.9978999999999999
0.48854961832061067,2.7938931297709924,-1.786259541984733,-0.445068359375,-0.021240234375,-0.25927734375,0.9995999999999999
0.48854961832061067,2.946564885496183,-1.6793893129770991,-0.446044921875,-0.01953125,-0.263671875,1.0012999999999999
0.7022900763358778,2.7938931297709924,-1.7709923664122138,-0.44775390625,-0.015869140625,-0.265625,1.003
0.6106870229007634,2.8244274809160306,-1.816793893129771,-0.44189453125,-0.01953125,-0.264404296875,1.0047
0.44274809160305345,2.8091603053435112,-1.633587786259542,-0.4462890625,-0.01953125,-0.258544921875,1.0064
0.5343511450381679,2.7022900763358777,-1.5877862595419847,-0.4482421875,-0.01611328125,-0.261474609375,1.0081
0.7480916030534351,2.8396946564885495,-1.5572519083969465,-0.444091796875,-0.0146484375,-0.25732421875,1.0098
0.5343511450381679,2.7938931297709924,-1.450381679389313,-0.442138671875,-0.017822265625,-0.2578125,1.0114999999999998
0.42748091603053434,2.687022900763359,-1.6488549618320612,-0.44384765625,-0.021728515625,-0.260009765625,1.0131999999999999
0.44274809160305345,2.717557251908397,-1.4961832061068703,-0.443115234375,-0.020751953125,-0.255615234375,1.0149
0.7633587786259542,2.8244274809160306,-1.450381679389313,-0.449951171875,-0.014892578125,-0.268310546875,1.0166
0.366412213740458,2.7938931297709924,-1.5877862595419847,-0.44482421875,-0.0146484375,-0.259765625,1.0183
0.6564885496183206,2.8091603053435112,-1.5877862595419847,-0.439208984375,-0.01708984375,-0.2666015625,1.02
0.5954198473282443,2.687022900763359,-1.1450381679389312,-0.445556640625,-0.016845703125,-0.26416015625,1.0217
0.5648854961832062,2.8244274809160306,-1.5877862595419847,-0.445556640625,-0.025146484375,-0.265625,1.0233999999999999
0.6717557251908397,2.854961832061069,-1.4809160305343512,-0.443359375,-0.018798828125,-0.259765625,1.0251
0.5038167938931297,2.8244274809160306,-1.4198473282442747,-0.44091796875,-0.01904296875,-0.259521484375,1.0268
0.7022900763358778,2.7786259541984735,-1.465648854961832,-0.44091796875,-0.01904296875,-0.25927734375,1.0285
0.6412213740458015,2.7022900763358777,-1.4198473282442747,-0.448486328125,-0.020751953125,-0.25830078125,1.0302
0.3816793893129771,2.8091603053435112,-1.3282442748091603,-0.445068359375,-0.01806640625,-0.261474609375,1.0319
0.7022900763358778,2.7786259541984735,-1.3587786259541985,-0.4443359375,-0.01806640625,-0.265869140625,1.0335999999999999
0.5648854961832062,2.6259541984732824,-1.2671755725190839,-0.4462890625,-0.02197265625,-0.258056640625,1.0352999999999999
0.44274809160305345,2.6717557251908395,-1.3435114503816794,-0.443115234375,-0.01611328125,-0.2529296875,1.037
0.5343511450381679,2.732824427480916,-1.3587786259541985,-0.445556640625,-0.01953125,-0.267333984375,1.0387
0.5954198473282443,2.5343511450381677,-1.083969465648855,-0.44580078125,-0.019287109375,-0.257568359375,1.0404
0.6564885496183206,2.5343511450381677,-1.1908396946564885,-0.44677734375,-0.017333984375,-0.25830078125,1.0421
0.6106870229007634,2.549618320610687,-1.5419847328244274,-0.447265625,-0.0185546875,-0.272216796875,1.0437999999999998
0.6870229007633588,2.6412213740458017,-1.3282442748091603,-0.446533203125,-0.0224609375,-0.259521484375,1.0454999999999999
0.6412213740458015,2.50381679389313,-1.297709923664122,-0.44287109375,-0.014404296875,-0.2607421875,1.0472
0.3511450381679389,2.519083969465649,-1.0687022900763359,-0.44384765625,-0.017333984375,-0.265380859375,1.0489
0.7175572519083969,2.4580152671755724,-1.1908396946564885,-0.44482421875,-0.019775390625,-0.25732421875,1.0506
0.5954198473282443,2.351145038167939,-1.2061068702290076,-0.445556640625,-0.01953125,-0.260986328125,1.0523
0.5648854961832062,2.50381679389313,-1.2061068702290076,-0.44677734375,-0.020263671875,-0.255126953125,1.054
0.5038167938931297,2.427480916030534,-1.099236641221374,-0.43896484375,-0.01611328125,-0.258056640625,1.0556999999999999
0.5190839694656488,2.732824427480916,-1.1908396946564885,-0.4462890625,-0.021728515625,-0.263916015625,1.0574
0.549618320610687,2.5343511450381677,-1.2061068702290076,-0.447998046875,-0.021240234375,-0.26806640625,1.0591
0.6412213740458015,2.519083969465649,-1.3282442748091603,-0.440185546875,-0.01708984375,-0.262451171875,1.0608
0.549618320610687,2.4732824427480917,-1.251908396946565,-0.4423828125,-0.011962890625,-0.26708984375,1.0625
0.4122137404580153,2.4885496183206106,-1.282442748091603,-0.443115234375,-0.01513671875,-0.266845703125,1.0642
0.6717557251908397,2.4580152671755724,-1.1755725190839694,-0.446044921875,-0.01513671875,-0.264892578125,1.0658999999999998
0.6106870229007634,2.4885496183206106,-1.1755725190839694,-0.443115234375,-0.016357421875,-0.265625,1.0675999999999999
0.5343511450381679,2.351145038167939,-1.1297709923664123,-0.447265625,-0.017578125,-0.26611328125,1.0693
0.48854961832061067,2.366412213740458,-1.1145038167938932,-0.4453125,-0.014404296875,-0.26123046875,1.071
0.48854961832061067,2.366412213740458,-1.2213740458015268,-0.443359375,-0.00927734375,-0.269775390625,1.0727
0.5038167938931297,2.381679389312977,-1.4045801526717556,-0.4462890625,-0.02001953125,-0.262939453125,1.0744
0.48854961832061067,2.381679389312977,-1.099236641221374,-0.444580078125,-0.018798828125,-0.264404296875,1.0760999999999998
0.3816793893129771,2.351145038167939,-1.1908396946564885,-0.443359375,-0.018798828125,-0.268798828125,1.0777999999999999
0.4732824427480916,2.3206106870229006,-0.916030534351145,-0.446044921875,-0.018310546875,-0.263671875,1.0795
0.6564885496183206,2.549618320610687,-1.251908396946565,-0.446533203125,-0.023681640625,-0.2626953125,1.0812
0.3969465648854962,2.381679389312977,-1.1603053435114503,-0.443603515625,-0.013671875,-0.25732421875,1.0829
0.549618320610687,2.427480916030534,-1.0381679389312977,-0.4501953125,-0.02001953125,-0.2646484375,1.0846
0.6412213740458015,2.381679389312977,-1.2061068702290076,-0.446533203125,-0.02294921875,-0.2646484375,1.0863
0.3969465648854962,2.519083969465649,-1.1297709923664123,-0.443359375,-0.021728515625,-0.26220703125,1.0879999999999999
0.549618320610687,2.4885496183206106,-1.0687022900763359,-0.4443359375,-0.018310546875,-0.25244140625,1.0897
0.32061068702290074,2.3053435114503817,-1.1908396946564885,-0.443603515625,-0.017822265625,-0.2646484375,1.0914
0.3511450381679389,2.4427480916030535,-1.2366412213740459,-0.438720703125,-0.018310546875,-0.2578125,1.0931
0.3053435114503817,2.3206106870229006,-1.0687022900763359,-0.4423828125,-0.01318359375,-0.25,1.0948
0.33587786259541985,2.33587786259542,-1.0076335877862594,-0.447509765625,-0.01953125,-0.259033203125,1.0965
0.6259541984732825,2.3206106870229006,-1.282442748091603,-0.446533203125,-0.022216796875,-0.263671875,1.0981999999999998
0.366412213740458,2.2900763358778624,-1.1450381679389312,-0.445556640625,-0.0126953125,-0.26806640625,1.0998999999999999
0.2748091603053435,2.2595419847328246,-1.1297709923664123,-0.442138671875,-0.009521484375,-0.26611328125,1.1016
0.48854961832061067,2.33587786259542,-1.083969465648855,-0.4443359375,-0.015869140625,-0.26318359375,1.1033
0.7786259541984732,2.3053435114503817,-1.3129770992366412,-0.443359375,-0.017578125,-0.25341796875,1.105
0.4732824427480916,2.3053435114503817,-1.0687022900763359,-0.443359375,-0.017822265625,-0.267822265625,1.1067
0.2748091603053435,2.4122137404580153,-1.1755725190839694,-0.44482421875,-0.0185546875,-0.26953125,1.1083999999999998
0.4732824427480916,2.2748091603053435,-1.1297709923664123,-0.443359375,-0.014404296875,-0.2578125,1.1100999999999999
0.5801526717557252,2.4580152671755724,-1.1755725190839694,-0.443603515625,-0.0166015625,-0.259765625,1.1118
0.3511450381679389,2.351145038167939,-1.2366412213740459,-0.44482421875,-0.0185546875,-0.260986328125,1.1135
0.48854961832061067,2.4732824427480917,-1.1297709923664123,-0.441162109375,-0.014892578125,-0.26611328125,1.1152
0.5190839694656488,2.5343511450381677,-1.0687022900763359,-0.444580078125,-0.016845703125,-0.26611328125,1.1169
0.2900763358778626,2.4427480916030535,-1.083969465648855,-0.44287109375,-0.018798828125,-0.267578125,1.1186
0.549618320610687,2.427480916030534,-1.1603053435114503,-0.443359375,-0.01513671875,-0.2685546875,1.1202999999999999
0.3816793893129771,2.2595419847328246,-1.1297709923664123,-0.4462890625,-0.01416015625,-0.2607421875,1.1219999999999999
0.2748091603053435,2.3206106870229006,-0.9923664122137404,-0.441162109375,-0.017333984375,-0.262939453125,1.1237
0.6259541984732825,2.2442748091603053,-1.083969465648855,-0.4462890625,-0.015869140625,-0.25927734375,1.1254
0.6412213740458015,2.5343511450381677,-1.2213740458015268,-0.443603515625,-0.01611328125,-0.26708984375,1.1271
0.5190839694656488,2.2748091603053435,-1.2061068702290076,-0.44384765625,-0.01416015625,-0.263916015625,1.1288
0.5190839694656488,2.2442748091603053,-1.0381679389312977,-0.444580078125,-0.016845703125,-0.263427734375,1.1304999999999998
0.32061068702290074,2.351145038167939,-1.0229007633587786,-0.440673828125,-0.022705078125,-0.26025390625,1.1321999999999999
0.4732824427480916,2.3969465648854964,-0.9465648854961832,-0.446044921875,-0.015625,-0.26318359375,1.1339
0.44274809160305345,2.427480916030534,-0.9312977099236641,-0.4443359375,-0.015625,-0.261474609375,1.1356
0.33587786259541985,2.4427480916030535,-1.0687022900763359,-0.443603515625,-0.014892578125,-0.26611328125,1.1373
0.5038167938931297,2.3969465648854964,-1.0229007633587786,-0.445068359375,-0.01318359375,-0.26171875,1.139
0.3511450381679389,2.366412213740458,-0.8854961832061069,-0.440673828125,-0.013427734375,-0.254638671875,1.1407
0.32061068702290074,2.2595419847328246,-1.1755725190839694,-0.449462890625,-0.01318359375,-0.259521484375,1.1423999999999999
0.3816793893129771,2.198473282442748,-1.0381679389312977,-0.44482421875,-0.011962890625,-0.26318359375,1.1441
0.3969465648854962,2.3206106870229006,-1.1450381679389312,-0.442626953125,-0.019775390625,-0.265625,1.1458
0.3816793893129771,2.198473282442748,-0.9618320610687023,-0.4443359375,-0.0166015625,-0.265869140625,1.1475
0.2595419847328244,2.2595419847328246,-1.0076335877862594,-0.44140625,-0.015869140625,-0.266357421875,1.1492
0.3969465648854962,2.33587786259542,-1.0381679389312977,-0.444580078125,-0.013671875,-0.26318359375,1.1509
0.2595419847328244,2.351145038167939,-1.2366412213740459,-0.4443359375,-0.021484375,-0.26171875,1.1525999999999998
0.32061068702290074,2.2900763358778624,-1.1755725190839694,-0.4453125,-0.021240234375,-0.267578125,1.1542999999999999
0.42748091603053434,2.2595419847328246,-1.1908396946564885,-0.445556640625,-0.01904296875,-0.26318359375,1.156
0.2748091603053435,2.183206106870229,-1.2366412213740459,-0.44921875,-0.017333984375,-0.2568359375,1.1577
0.3969465648854962,2.213740458015267,-1.297709923664122,-0.44287109375,-0.01708984375,-0.263671875,1.1594
0.2595419847328244,2.33587786259542,-1.3435114503816794,-0.447509765625,-0.015625,-0.257080078125,1.1611
0.1984732824427481,2.366412213740458,-1.282442748091603,-0.452880859375,-0.0185546875,-0.269287109375,1.1627999999999998
0.3511450381679389,2.2900763358778624,-1.3740458015267176,-0.44921875,-0.015869140625,-0.27490234375,1.1644999999999999
0.3816793893129771,2.213740458015267,-1.5114503816793894,-0.446533203125,-0.01123046875,-0.261474609375,1.1662
0.33587786259541985,2.2900763358778624,-1.3740458015267176,-0.44775390625,-0.01318359375,-0.26513671875,1.1679
0.549618320610687,2.351145038167939,-1.6488549618320612,-0.44384765625,-0.01513671875,-0.262451171875,1.1696
0.4580152671755725,2.3206106870229006,-1.5877862595419847,-0.4443359375,-0.01416015625,-0.27197265625,1.1713
0.33587786259541985,2.33587786259542,-1.5572519083969465,-0.446533203125,-0.017578125,-0.258056640625,1.173
0.33587786259541985,2.4122137404580153,-1.618320610687023,-0.44873046875,-0.014892578125,-0.254638671875,1.1746999999999999
0.5648854961832062,2.50381679389313,-1.7709923664122138,-0.443359375,-0.0166015625,-0.270751953125,1.1764
0.5954198473282443,2.2595419847328246,-1.6641221374045803,-0.44873046875,-0.015625,-0.2744140625,1.1781
0.5648854961832062,2.2442748091603053,-1.5419847328244274,-0.447509765625,-0.02001953125,-0.26708984375,1.1798
0.42748091603053434,2.351145038167939,-1.7404580152671756,-0.450927734375,-0.0205078125,-0.26025390625,1.1815
0.4732824427480916,2.213740458015267,-1.9694656488549618,-0.445556640625,-0.01513671875,-0.26611328125,1.1832
0.5038167938931297,2.2595419847328246,-1.9236641221374047,-0.44189453125,-0.014892578125,-0.273681640625,1.1848999999999998
0.549618320610687,2.351145038167939,-1.7404580152671756,-0.447509765625,-0.015625,-0.26904296875,1.1865999999999999
0.549618320610687,2.4580152671755724,-1.9083969465648856,-0.4453125,-0.013671875,-0.261474609375,1.1883
0.33587786259541985,2.4885496183206106,-1.7251908396946565,-0.443359375,-0.017333984375,-0.26416015625,1.19
0.3969465648854962,2.6259541984732824,-1.5572519083969465,-0.442626953125,-0.015869140625,-0.26416015625,1.1917
0.6106870229007634,2.7786259541984735,-1.5725190839694656,-0.446533203125,-0.018798828125,-0.263427734375,1.1934
0.4580152671755725,2.763358778625954,-1.4961832061068703,-0.447509765625,-0.016357421875,-0.263427734375,1.1950999999999998
0.5190839694656488,2.9770992366412212,-1.5877862595419847,-0.44677734375,-0.015625,-0.262939453125,1.1967999999999999
0.3053435114503817,2.931297709923664,-1.6488549618320612,-0.444091796875,-0.013671875,-0.26220703125,1.1985
0.7175572519083969,2.8244274809160306,-1.5877862595419847,-0.446533203125,-0.017578125,-0.263427734375,1.2002
0.5954198473282443,2.854961832061069,-1.3435114503816794,-0.447021484375,-0.01806640625,-0.259521484375,1.2019
0.3511450381679389,2.7786259541984735,-1.6641221374045803,-0.446533203125,-0.01806640625,-0.261962890625,1.2036
0.6106870229007634,3.0381679389312977,-1.5267175572519085,-0.4462890625,-0.015869140625,-0.270263671875,1.2053
0.6564885496183206,2.946564885496183,-1.3435114503816794,-0.447021484375,-0.021240234375,-0.264404296875,1.2069999999999999
0.3816793893129771,2.9160305343511452,-1.4198473282442747,-0.447021484375,-0.02099609375,-0.26513671875,1.2086999999999999
0.6870229007633588,2.9618320610687023,-1.450381679389313,-0.439697265625,-0.017333984375,-0.25830078125,1.2104
0.5648854961832062,3.0839694656488548,-1.5114503816793894,-0.443359375,-0.012939453125,-0.265869140625,1.2121
0.3053435114503817,2.8396946564885495,-1.3740458015267176,-0.445068359375,-0.01806640625,-0.257568359375,1.2138
0.4580152671755725,2.9160305343511452,-1.3282442748091603,-0.4462890625,-0.018798828125,-0.260498046875,1.2155
0.549618320610687,3.053435114503817,-1.4045801526717556,-0.44580078125,-0.016845703125,-0.266357421875,1.2171999999999998
0.4732824427480916,3.2519083969465647,-1.4198473282442747,-0.448974609375,-0.0126953125,-0.259765625,1.2188999999999999
0.3816793893129771,3.2519083969465647,-1.465648854961832,-0.447021484375,-0.013427734375,-0.26416015625,1.2206
0.42748091603053434,3.3740458015267176,-1.5572519083969465,-0.44482421875,-0.01416015625,-0.260986328125,1.2223
0.42748091603053434,2.9618320610687023,-1.465648854961832,-0.447509765625,-0.013916015625,-0.256591796875,1.224
0.3053435114503817,2.9923664122137406,-1.618320610687023,-0.446533203125,-0.0185546875,-0.26025390625,1.2257
0.4732824427480916,3.2519083969465647,-1.5725190839694656,-0.44384765625,-0.013671875,-0.271728515625,1.2273999999999998
0.5648854961832062,3.1603053435114505,-1.7099236641221374,-0.44384765625,-0.01611328125,-0.26806640625,1.2290999999999999
0.5954198473282443,3.1603053435114505,-1.8625954198473282,-0.44287109375,-0.009521484375,-0.25830078125,1.2308
0.732824427480916,3.068702290076336,-1.9236641221374047,-0.4423828125,-0.01025390625,-0.260009765625,1.2325
0.8244274809160306,2.946564885496183,-1.984732824427481,-0.443603515625,-0.013916015625,-0.26123046875,1.2342
0.8396946564885496,3.099236641221374,-2.0610687022900764,-0.44775390625,-0.012939453125,-0.26806640625,1.2359
0.8244274809160306,3.068702290076336,-1.984732824427481,-0.443603515625,-0.012451171875,-0.26904296875,1.2376
0.8244274809160306,3.0381679389312977,-2.1068702290076335,-0.439453125,-0.0146484375,-0.26513671875,1.2392999999999998
0.9007633587786259,2.8702290076335877,-2.1526717557251906,-0.444580078125,-0.014404296875,-0.26904296875,1.2409999999999999
0.8396946564885496,2.9160305343511452,-2.33587786259542,-0.446044921875,-0.00927734375,-0.26220703125,1.2427
0.732824427480916,2.8396946564885495,-2.213740458015267,-0.447265625,-0.01513671875,-0.265869140625,1.2444
1.0687022900763359,2.8396946564885495,-2.564885496183206,-0.442138671875,-0.01513671875,-0.260986328125,1.2461
1.2671755725190839,2.7022900763358777,-2.351145038167939,-0.438720703125,-0.01416015625,-0.263427734375,1.2478
1.2671755725190839,2.7786259541984735,-2.519083969465649,-0.438720703125,-0.01416015625,-0.26416015625,1.2494999999999998
1.2061068702290076,2.8244274809160306,-2.3969465648854964,-0.43994140625,-0.01513671875,-0.255859375,1.2511999999999999
0.9770992366412213,2.7786259541984735,-2.50381679389313,-0.442138671875,-0.010986328125,-0.264404296875,1.2529
1.1908396946564885,2.595419847328244,-2.4732824427480917,-0.443603515625,-0.016357421875,-0.267333984375,1.2546
1.3129770992366412,2.7022900763358777,-2.6564885496183206,-0.44580078125,-0.017578125,-0.25634765625,1.2563
1.2671755725190839,2.564885496183206,-2.4122137404580153,-0.443359375,-0.017578125,-0.266357421875,1.258
1.3129770992366412,2.4580152671755724,-2.595419847328244,-0.444091796875,-0.0205078125,-0.26953125,1.2596999999999998
1.3740458015267176,2.687022900763359,-2.4122137404580153,-0.4404296875,-0.011474609375,-0.25634765625,1.2613999999999999
1.3435114503816794,2.732824427480916,-2.381679389312977,-0.4404296875,-0.01611328125,-0.27001953125,1.2631
1.2366412213740459,2.4732824427480917,-2.519083969465649,-0.4423828125,-0.0146484375,-0.263671875,1.2648
1.4198473282442747,2.366412213740458,-2.50381679389313,-0.446533203125,-0.02197265625,-0.255859375,1.2665
1.3740458015267176,2.4122137404580153,-2.2900763358778624,-0.4423828125,-0.0126953125,-0.261474609375,1.2682
1.3893129770992367,2.366412213740458,-2.4732824427480917,-0.439697265625,-0.015625,-0.2685546875,1.2699
1.5267175572519085,2.2748091603053435,-2.3053435114503817,-0.439453125,-0.013671875,-0.267578125,1.2715999999999998
1.4351145038167938,2.2748091603053435,-2.4427480916030535,-0.441162109375,-0.01904296875,-0.263427734375,1.2732999999999999
1.4045801526717556,1.9694656488549618,-2.2290076335877864,-0.442626953125,-0.0224609375,-0.26708984375,1.275
1.5114503816793894,1.9083969465648856,-2.33587786259542,-0.442138671875,-0.01806640625,-0.258544921875,1.2767
1.5114503816793894,1.83206106870229,-2.198473282442748,-0.44140625,-0.018798828125,-0.26025390625,1.2784
1.5114503816793894,1.8778625954198473,-2.3053435114503817,-0.438232421875,-0.01806640625,-0.25927734375,1.2801
1.4809160305343512,1.8473282442748091,-2.2595419847328246,-0.435302734375,-0.021240234375,-0.25927734375,1.2817999999999998
1.5725190839694656,1.6641221374045803,-2.198473282442748,-0.4462890625,-0.017333984375,-0.270751953125,1.2834999999999999
1.3893129770992367,1.618320610687023,-2.16793893129771,-0.438720703125,-0.020263671875,-0.267333984375,1.2852
1.2213740458015268,1.3282442748091603,-2.030534351145038,-0.44091796875,-0.0185546875,-0.264404296875,1.2869
1.3282442748091603,1.4351145038167938,-2.0763358778625953,-0.43701171875,-0.01416015625,-0.26708984375,1.2886
1.450381679389313,1.4351145038167938,-2.1068702290076335,-0.439453125,-0.0126953125,-0.260009765625,1.2903
1.3587786259541985,1.1603053435114503,-1.7404580152671756,-0.443359375,-0.023193359375,-0.2705078125,1.292
1.4809160305343512,1.1145038167938932,-2.0916030534351147,-0.4404296875,-0.020751953125,-0.268310546875,1.2936999999999999
1.3893129770992367,1.083969465648855,-1.8473282442748091,-0.443359375,-0.021484375,-0.2626953125,1.2953999999999999
1.4198473282442747,0.8702290076335878,-1.9083969465648856,-0.442626953125,-0.020263671875,-0.2568359375,1.2971
1.3740458015267176,0.9007633587786259,-1.6793893129770991,-0.4404296875,-0.0205078125,-0.2509765625,1.2988
1.3740458015267176,0.8244274809160306,-1.5877862595419847,-0.443115234375,-0.02001953125,-0.26904296875,1.3005
1.1755725190839694,0.7480916030534351,-1.6946564885496183,-0.4404296875,-0.0185546875,-0.2705078125,1.3022
1.3129770992366412,0.7938931297709924,-1.618320610687023,-0.439453125,-0.02392578125,-0.26416015625,1.3038999999999998
1.4351145038167938,0.6106870229007634,-1.5725190839694656,-0.44091796875,-0.017578125,-0.27001953125,1.3055999999999999
1.2061068702290076,0.732824427480916,-1.5572519083969465,-0.443115234375,-0.02392578125,-0.26025390625,1.3073
1.2213740458015268,0.5648854961832062,-1.4045801526717556,-0.441650390625,-0.0224609375,-0.271484375,1.309
1.282442748091603,0.4122137404580153,-1.2366412213740459,-0.441650390625,-0.014404296875,-0.26904296875,1.3107
1.3587786259541985,0.4580152671755725,-1.251908396946565,-0.443115234375,-0.01806640625,-0.2568359375,1.3124
1.4351145038167938,0.6564885496183206,-1.3740458015267176,-0.44091796875,-0.021240234375,-0.25537109375,1.3140999999999998
1.1145038167938932,0.4122137404580153,-1.251908396946565,-0.437744140625,-0.01953125,-0.25634765625,1.3157999999999999
1.083969465648855,0.21374045801526717,-1.3587786259541985,-0.447021484375,-0.01611328125,-0.263916015625,1.3175
1.0076335877862594,0.183206106870229,-1.1603053435114503,-0.443603515625,-0.025146484375,-0.26123046875,1.3192
0.9923664122137404,0.07633587786259542,-1.2671755725190839,-0.445556640625,-0.02294921875,-0.259521484375,1.3209
1.0534351145038168,0.2900763358778626,-1.1755725190839694,-0.441650390625,-0.021240234375,-0.26025390625,1.3226
0.9770992366412213,0.2595419847328244,-1.1908396946564885,-0.440185546875,-0.023193359375,-0.2578125,1.3243
0.9465648854961832,0.3053435114503817,-1.1755725190839694,-0.443359375,-0.02001953125,-0.26123046875,1.3259999999999998
0.9465648854961832,0.2748091603053435,-1.2213740458015268,-0.441650390625,-0.019287109375,-0.260009765625,1.3276999999999999
0.9770992366412213,0.3511450381679389,-0.9770992366412213,-0.443603515625,-0.016357421875,-0.26513671875,1.3294
0.7022900763358778,0.24427480916030533,-0.9923664122137404,-0.440185546875,-0.022705078125,-0.262451171875,1.3311
0.7633587786259542,0.1984732824427481,-1.083969465648855,-0.442626953125,-0.016357421875,-0.25830078125,1.3328
0.9618320610687023,0.21374045801526717,-1.3435114503816794,-0.44775390625,-0.015625,-0.26513671875,1.3345
0.8244274809160306,0.2748091603053435,-0.9770992366412213,-0.44287109375,-0.01953125,-0.26416015625,1.3361999999999998
0.5954198473282443,0.3511450381679389,-1.1908396946564885,-0.442138671875,-0.0224609375,-0.273193359375,1.3378999999999999
0.5954198473282443,0.3969465648854962,-1.2061068702290076,-0.446533203125,-0.019287109375,-0.267822265625,1.3396
0.7175572519083969,0.366412213740458,-1.2366412213740459,-0.442138671875,-0.021484375,-0.26953125,1.3413
0.5190839694656488,0.6106870229007634,-1.2061068702290076,-0.444580078125,-0.0224609375,-0.259521484375,1.343
0.5343511450381679,0.366412213740458,-1.2213740458015268,-0.44384765625,-0.01953125,-0.259521484375,1.3447
0.5038167938931297,0.5190839694656488,-1.2366412213740459,-0.439697265625,-0.0224609375,-0.2685546875,1.3463999999999998
0.6412213740458015,0.4732824427480916,-1.282442748091603,-0.446044921875,-0.012939453125,-0.251953125,1.3480999999999999
0.6870229007633588,0.5190839694656488,-1.450381679389313,-0.44677734375,-0.017333984375,-0.259521484375,1.3497999999999999
0.44274809160305345,0.5648854961832062,-1.4961832061068703,-0.446533203125,-0.01904296875,-0.26025390625,1.3515
0.4732824427480916,0.6564885496183206,-1.2213740458015268,-0.448974609375,-0.014892578125,-0.258056640625,1.3532
0.5801526717557252,0.732824427480916,-1.4045801526717556,-0.445068359375,-0.0224609375,-0.2666015625,1.3549
0.5648854961832062,0.5954198473282443,-1.4045801526717556,-0.448486328125,-0.018310546875,-0.263427734375,1.3566
0.5190839694656488,0.7022900763358778,-1.3587786259541985,-0.447509765625,-0.0166015625,-0.264892578125,1.3582999999999998
0.3969465648854962,0.8091603053435115,-1.297709923664122,-0.44775390625,-0.015380859375,-0.260986328125,1.3599999999999999
0.1984732824427481,1.0076335877862594,-1.3282442748091603,-0.44775390625,-0.015869140625,-0.262451171875,1.3617
0.5038167938931297,0.916030534351145,-1.465648854961832,-0.44921875,-0.018798828125,-0.264892578125,1.3634
0.3053435114503817,1.1450381679389312,-1.3587786259541985,-0.44091796875,-0.017333984375,-0.272216796875,1.3651
0.2595419847328244,1.0687022900763359,-1.4198473282442747,-0.447021484375,-0.018798828125,-0.268798828125,1.3668
0.4580152671755725,1.0381679389312977,-1.3740458015267176,-0.449951171875,-0.017333984375,-0.26318359375,1.3684999999999998
0.1984732824427481,1.251908396946565,-1.3587786259541985,-0.449951171875,-0.012451171875,-0.263916015625,1.3701999999999999
0.24427480916030533,1.251908396946565,-1.3740458015267176,-0.453857421875,-0.019287109375,-0.2626953125,1.3719
0.24427480916030533,1.2671755725190839,-1.3740458015267176,-0.447021484375,-0.01708984375,-0.264404296875,1.3736
0.16793893129770993,1.3893129770992367,-1.450381679389313,-0.44775390625,-0.016845703125,-0.265380859375,1.3753
0.32061068702290074,1.282442748091603,-1.3893129770992367,-0.44384765625,-0.0166015625,-0.259765625,1.377
0.10687022900763359,1.3587786259541985,-1.251908396946565,-0.44921875,-0.01904296875,-0.264892578125,1.3786999999999998
0.183206106870229,1.5419847328244274,-1.3282442748091603,-0.44384765625,-0.017822265625,-0.261962890625,1.3803999999999998
0.22900763358778625,1.4198473282442747,-1.465648854961832,-0.445068359375,-0.0166015625,-0.271240234375,1.3820999999999999
0.030534351145038167,1.5725190839694656,-1.4045801526717556,-0.448974609375,-0.018310546875,-0.263916015625,1.3838
0.12213740458015267,1.6030534351145038,-1.450381679389313,-0.443359375,-0.018310546875,-0.26025390625,1.3855
0.24427480916030533,1.6793893129770991,-1.3893129770992367,-0.443603515625,-0.016845703125,-0.262451171875,1.3872
0.015267175572519083,1.4809160305343512,-1.3740458015267176,-0.44970703125,-0.020263671875,-0.262939453125,1.3889
0.183206106870229,1.618320610687023,-1.4961832061068703,-0.449462890625,-0.01904296875,-0.25830078125,1.3905999999999998
-0.0916030534351145,1.6946564885496183,-1.4809160305343512,-0.444091796875,-0.020751953125,-0.26416015625,1.3922999999999999
0.015267175572519083,1.7251908396946565,-1.6030534351145038,-0.442138671875,-0.013916015625,-0.262939453125,1.394
0.12213740458015267,1.786259541984733,-1.633587786259542,-0.447509765625,-0.015380859375,-0.272216796875,1.3957
0.12213740458015267,1.7404580152671756,-1.5267175572519085,-0.445068359375,-0.020263671875,-0.262451171875,1.3974
0.16793893129770993,1.7709923664122138,-1.4198473282442747,-0.443603515625,-0.0166015625,-0.268798828125,1.3991
-0.04580152671755725,1.8931297709923665,-1.6488549618320612,-0.443603515625,-0.01904296875,-0.267578125,1.4007999999999998
-0.015267175572519083,1.8625954198473282,-1.5725190839694656,-0.4453125,-0.011962890625,-0.260986328125,1.4024999999999999
0.12213740458015267,1.7404580152671756,-1.5725190839694656,-0.439208984375,-0.013671875,-0.2587890625,1.4042
-0.04580152671755725,1.786259541984733,-1.450381679389313,-0.4404296875,-0.016845703125,-0.261474609375,1.4059
0.061068702290076333,1.6946564885496183,-1.4045801526717556,-0.44287109375,-0.01220703125,-0.26416015625,1.4076
0.32061068702290074,1.7404580152671756,-1.3587786259541985,-0.44091796875,-0.017333984375,-0.257568359375,1.4093
0.15267175572519084,1.786259541984733,-1.2061068702290076,-0.441162109375,-0.021728515625,-0.263427734375,1.411
-0.061068702290076333,1.7709923664122138,-1.3740458015267176,-0.443115234375,-0.0146484375,-0.2705078125,1.4126999999999998
0.015267175572519083,1.816793893129771,-1.465648854961832,-0.444580078125,-0.0146484375,-0.26513671875,1.4143999999999999
0.15267175572519084,1.8015267175572518,-1.1603053435114503,-0.4501953125,-0.015625,-0.261474609375,1.4161
0.12213740458015267,1.786259541984733,-1.2061068702290076,-0.448486328125,-0.015625,-0.267578125,1.4178
-0.030534351145038167,1.9694656488549618,-1.297709923664122,-0.44873046875,-0.01611328125,-0.26318359375,1.4195
0.10687022900763359,1.8931297709923665,-1.4045801526717556,-0.444091796875,-0.018798828125,-0.259033203125,1.4212
0.22900763358778625,1.8931297709923665,-1.3282442748091603,-0.4501953125,-0.013427734375,-0.268310546875,1.4228999999999998
0.07633587786259542,2.0,-1.282442748091603,-0.44189453125,-0.013916015625,-0.2568359375,1.4245999999999999
0.030534351145038167,1.816793893129771,-1.1908396946564885,-0.447509765625,-0.012939453125,-0.26416015625,1.4263
0.030534351145038167,1.7251908396946565,-1.0687022900763359,-0.4462890625,-0.01611328125,-0.26318359375,1.428
0.0,1.8778625954198473,-1.1297709923664123,-0.444580078125,-0.0107421875,-0.269287109375,1.4297
0.33587786259541985,1.7557251908396947,-1.2366412213740459,-0.448974609375,-0.01904296875,-0.2666015625,1.4314
0.10687022900763359,1.816793893129771,-1.251908396946565,-0.446044921875,-0.0166015625,-0.267578125,1.4330999999999998
0.22900763358778625,1.7404580152671756,-1.282442748091603,-0.44580078125,-0.0185546875,-0.268310546875,1.4347999999999999
0.2595419847328244,1.7709923664122138,-1.251908396946565,-0.4423828125,-0.014892578125,-0.266357421875,1.4364999999999999
0.21374045801526717,1.8473282442748091,-1.3282442748091603,-0.44140625,-0.020263671875,-0.265380859375,1.4382
0.3053435114503817,1.6946564885496183,-1.1603053435114503,-0.4423828125,-0.015869140625,-0.256103515625,1.4399
0.21374045801526717,1.8015267175572518,-1.3893129770992367,-0.448974609375,-0.013671875,-0.257080078125,1.4416
0.24427480916030533,1.7557251908396947,-1.3435114503816794,-0.447265625,-0.01171875,-0.261474609375,1.4433
0.3969465648854962,1.7099236641221374,-1.4045801526717556,-0.445068359375,-0.012451171875,-0.266357421875,1.4449999999999998
0.22900763358778625,1.8473282442748091,-1.4351145038167938,-0.44384765625,-0.01953125,-0.2685546875,1.4466999999999999
0.732824427480916,1.7709923664122138,-1.4809160305343512,-0.444580078125,-0.01513671875,-0.265869140625,1.4484
0.5343511450381679,1.83206106870229,-1.4351145038167938,-0.447021484375,-0.01611328125,-0.263916015625,1.4501
0.366412213740458,1.6641221374045803,-1.4809160305343512,-0.440185546875,-0.011962890625,-0.266357421875,1.4518
0.549618320610687,1.4198473282442747,-1.3435114503816794,-0.44189453125,-0.015380859375,-0.2685546875,1.4535
0.3053435114503817,1.6488549618320612,-1.3893129770992367,-0.44287109375,-0.01611328125,-0.26025390625,1.4551999999999998
0.5801526717557252,1.5572519083969465,-1.4198473282442747,-0.4443359375,-0.015869140625,-0.268798828125,1.4568999999999999
0.6106870229007634,1.5419847328244274,-1.4809160305343512,-0.446533203125,-0.01318359375,-0.26708984375,1.4586
0.5343511450381679,1.6030534351145038,-1.5114503816793894,-0.446533203125,-0.013427734375,-0.263427734375,1.4603
0.732824427480916,1.5572519083969465,-1.6641221374045803,-0.4375,-0.018798828125,-0.25830078125,1.462
0.6259541984732825,1.5572519083969465,-1.450381679389313,-0.438232421875,-0.0146484375,-0.26513671875,1.4637
0.6106870229007634,1.297709923664122,-1.5267175572519085,-0.438232421875,-0.015625,-0.264404296875,1.4653999999999998
0.7633587786259542,1.4045801526717556,-1.3282442748091603,-0.440185546875,-0.01416015625,-0.268798828125,1.4670999999999998
0.916030534351145,1.450381679389313,-1.3740458015267176,-0.43896484375,-0.01708984375,-0.2607421875,1.4687999999999999
0.8854961832061069,1.3129770992366412,-1.4198473282442747,-0.441162109375,-0.00927734375,-0.25927734375,1.4705
0.8854961832061069,1.4351145038167938,-1.465648854961832,-0.4443359375,-0.01220703125,-0.265869140625,1.4722
1.0687022900763359,1.3893129770992367,-1.3587786259541985,-0.442626953125,-0.01123046875,-0.267333984375,1.4739
0.8091603053435115,1.3129770992366412,-1.4961832061068703,-0.43994140625,-0.01318359375,-0.27001953125,1.4756
0.8244274809160306,1.251908396946565,-1.4198473282442747,-0.441650390625,-0.01416015625,-0.266845703125,1.4772999999999998
1.0687022900763359,1.1603053435114503,-1.4351145038167938,-0.449462890625,-0.019287109375,-0.265625,1.4789999999999999
1.083969465648855,1.2061068702290076,-1.5877862595419847,-0.44384765625,-0.01025390625,-0.26220703125,1.4807
1.0381679389312977,1.2061068702290076,-1.4809160305343512,-0.442626953125,-0.01025390625,-0.261962890625,1.4824
1.1145038167938932,1.1145038167938932,-1.4961832061068703,-0.443359375,-0.012939453125,-0.265869140625,1.4841
1.2061068702290076,1.2671755725190839,-1.5877862595419847,-0.443115234375,-0.01904296875,-0.261962890625,1.4858
1.083969465648855,1.1145038167938932,-1.4961832061068703,-0.44189453125,-0.012939453125,-0.25732421875,1.4874999999999998
1.0229007633587786,1.099236641221374,-1.7557251908396947,-0.439208984375,-0.01513671875,-0.263671875,1.4891999999999999
1.1145038167938932,1.083969465648855,-1.5419847328244274,-0.437255859375,-0.009033203125,-0.264892578125,1.4909
1.1603053435114503,0.8091603053435115,-1.633587786259542,-0.43994140625,-0.01416015625,-0.266357421875,1.4926
1.5725190839694656,0.9923664122137404,-1.4961832061068703,-0.444580078125,-0.01171875,-0.267822265625,1.4943
1.4351145038167938,0.916030534351145,-1.6641221374045803,-0.4404296875,-0.01513671875,-0.26513671875,1.496
1.251908396946565,0.9465648854961832,-1.6793893129770991,-0.43505859375,-0.015380859375,-0.2666015625,1.4976999999999998
1.251908396946565,0.8549618320610687,-1.633587786259542,-0.4384765625,-0.01708984375,-0.2607421875,1.4993999999999998
1.3587786259541985,0.6564885496183206,-1.4198473282442747,-0.44287109375,-0.015869140625,-0.26708984375,1.5010999999999999
1.450381679389313,0.6564885496183206,-1.5114503816793894,-0.445556640625,-0.015869140625,-0.2646484375,1.5028
1.450381679389313,0.6106870229007634,-1.465648854961832,-0.43994140625,-0.020263671875,-0.25732421875,1.5045
1.282442748091603,0.6259541984732825,-1.6488549618320612,-0.442626953125,-0.01806640625,-0.25341796875,1.5062
1.3893129770992367,0.5190839694656488,-1.7099236641221374,-0.442626953125,-0.022705078125,-0.2685546875,1.5079
1.3893129770992367,0.6259541984732825,-1.465648854961832,-0.439208984375,-0.01513671875,-0.26171875,1.5095999999999998
1.4351145038167938,0.5801526717557252,-1.3740458015267176,-0.43701171875,-0.01953125,-0.261962890625,1.5112999999999999
1.3129770992366412,0.3969465648854962,-1.4961832061068703,-0.44482421875,-0.01513671875,-0.260986328125,1.513
1.3893129770992367,0.2748091603053435,-1.4198473282442747,-0.4384765625,-0.01611328125,-0.26513671875,1.5147
1.4198473282442747,0.4122137404580153,-1.4809160305343512,-0.443115234375,-0.014404296875,-0.2685546875,1.5164
1.4961832061068703,0.21374045801526717,-1.3740458015267176,-0.4365234375,-0.015625,-0.26220703125,1.5181
1.282442748091603,0.183206106870229,-1.5725190839694656,-0.440185546875,-0.017578125,-0.263427734375,1.5197999999999998
1.4351145038167938,0.22900763358778625,-1.450381679389313,-0.44091796875,-0.02197265625,-0.26220703125,1.5214999999999999
1.3893129770992367,0.16793893129770993,-1.3740458015267176,-0.4404296875,-0.014404296875,-0.2587890625,1.5231999999999999
1.5725190839694656,0.0916030534351145,-1.4809160305343512,-0.440185546875,-0.0146484375,-0.271728515625,1.5249
1.5114503816793894,0.015267175572519083,-1.4809160305343512,-0.439697265625,-0.015380859375,-0.26806640625,1.5266
1.3893129770992367,-0.10687022900763359,-1.2366412213740459,-0.43798828125,-0.015869140625,-0.266357421875,1.5283
1.465648854961832,-0.12213740458015267,-1.4198473282442747,-0.448486328125,-0.015380859375,-0.26025390625,1.5299999999999998
1.465648854961832,-0.030534351145038167,-1.251908396946565,-0.4423828125,-0.015869140625,-0.263671875,1.5316999999999998
1.5725190839694656,-0.13740458015267176,-1.2366412213740459,-0.446533203125,-0.013671875,-0.2587890625,1.5333999999999999
1.6030534351145038,-0.2595419847328244,-1.2366412213740459,-0.441650390625,-0.024169921875,-0.259033203125,1.5351
1.2061068702290076,-0.3053435114503817,-1.2366412213740459,-0.44287109375,-0.01806640625,-0.26025390625,1.5368
1.6641221374045803,-0.3053435114503817,-1.1145038167938932,-0.44091796875,-0.017333984375,-0.257568359375,1.5385
1.5114503816793894,-0.42748091603053434,-1.3893129770992367,-0.43896484375,-0.0224609375,-0.26123046875,1.5402
1.4351145038167938,-0.4732824427480916,-1.2366412213740459,-0.446044921875,-0.022705078125,-0.2646484375,1.5418999999999998
1.2061068702290076,-0.4122137404580153,-1.2061068702290076,-0.442626953125,-0.013671875,-0.267822265625,1.5435999999999999
1.297709923664122,-0.549618320610687,-1.099236641221374,-0.4462890625,-0.022216796875,-0.2666015625,1.5453
1.2366412213740459,-0.6717557251908397,-1.3282442748091603,-0.440673828125,-0.019287109375,-0.258056640625,1.547
1.4809160305343512,-0.6259541984732825,-1.3740458015267176,-0.4404296875,-0.01806640625,-0.262939453125,1.5487
1.251908396946565,-0.48854961832061067,-1.2213740458015268,-0.440673828125,-0.014892578125,-0.267333984375,1.5504
1.3435114503816794,-0.5954198473282443,-1.450381679389313,-0.440673828125,-0.015380859375,-0.260498046875,1.5520999999999998
1.465648854961832,-0.549618320610687,-1.4198473282442747,-0.44091796875,-0.02587890625,-0.266357421875,1.5537999999999998
1.2671755725190839,-0.6564885496183206,-1.1755725190839694,-0.440185546875,-0.024169921875,-0.26123046875,1.5554999999999999
1.3282442748091603,-0.7480916030534351,-1.2671755725190839,-0.445068359375,-0.01708984375,-0.266357421875,1.5572
1.3282442748091603,-0.7480916030534351,-1.282442748091603,-0.447021484375,-0.018798828125,-0.26806640625,1.5589
1.2366412213740459,-0.7022900763358778,-1.282442748091603,-0.445556640625,-0.017822265625,-0.26171875,1.5606
1.251908396946565,-0.6717557251908397,-1.1755725190839694,-0.4443359375,-0.017333984375,-0.26025390625,1.5623
1.3129770992366412,-0.6259541984732825,-1.3587786259541985,-0.4443359375,-0.01611328125,-0.26708984375,1.5639999999999998
1.4198473282442747,-0.44274809160305345,-1.1450381679389312,-0.443359375,-0.014404296875,-0.25927734375,1.5656999999999999
1.4809160305343512,-0.48854961832061067,-1.083969465648855,-0.445556640625,-0.01953125,-0.2578125,1.5674
1.2366412213740459,-0.7480916030534351,-1.297709923664122,-0.445556640625,-0.015869140625,-0.2626953125,1.5691
1.1755725190839694,-0.42748091603053434,-1.4198473282442747,-0.442626953125,-0.013427734375,-0.265869140625,1.5708
1.3893129770992367,-0.6412213740458015,-1.297709923664122,-0.4453125,-0.019775390625,-0.261474609375,1.5725
1.3740458015267176,-0.7633587786259542,-1.1145038167938932,-0.440673828125,-0.023193359375,-0.259765625,1.5741999999999998
1.3282442748091603,-0.7633587786259542,-1.2671755725190839,-0.444091796875,-0.01904296875,-0.266357421875,1.5758999999999999
1.2671755725190839,-0.7480916030534351,-1.1908396946564885,-0.446533203125,-0.016845703125,-0.266845703125,1.5776
1.3587786259541985,-0.9312977099236641,-1.3435114503816794,-0.444091796875,-0.017578125,-0.26318359375,1.5793
1.0687022900763359,-0.9007633587786259,-1.2671755725190839,-0.44482421875,-0.02099609375,-0.2666015625,1.581
1.1755725190839694,-0.7022900763358778,-1.2366412213740459,-0.445068359375,-0.015380859375,-0.267333984375,1.5827
1.0229007633587786,-0.6564885496183206,-1.282442748091603,-0.4501953125,-0.01953125,-0.265380859375,1.5843999999999998
1.1450381679389312,-0.48854961832061067,-1.2671755725190839,-0.447021484375,-0.0224609375,-0.251220703125,1.5860999999999998
1.1908396946564885,-0.5343511450381679,-1.2671755725190839,-0.44580078125,-0.01904296875,-0.26416015625,1.5877999999999999
1.099236641221374,-0.48854961832061067,-1.282442748091603,-0.452880859375,-0.02099609375,-0.260986328125,1.5895
1.1755725190839694,-0.7175572519083969,-1.2061068702290076,-0.4482421875,-0.01806640625,-0.2607421875,1.5912
1.0534351145038168,-0.6259541984732825,-1.251908396946565,-0.447509765625,-0.019287109375,-0.26416015625,1.5929
1.0229007633587786,-0.7175572519083969,-1.3740458015267176,-0.44677734375,-0.0185546875,-0.273681640625,1.5946
1.0076335877862594,-0.7480916030534351,-0.916030534351145,-0.44384765625,-0.016357421875,-0.266357421875,1.5962999999999998
1.099236641221374,-0.5648854961832062,-1.1145038167938932,-0.4453125,-0.015625,-0.268798828125,1.5979999999999999
1.1145038167938932,-0.7022900763358778,-1.4045801526717556,-0.447021484375,-0.019775390625,-0.26904296875,1.5997
0.9465648854961832,-0.5648854961832062,-1.0534351145038168,-0.4453125,-0.01611328125,-0.268798828125,1.6014
0.8702290076335878,-0.4732824427480916,-1.251908396946565,-0.445556640625,-0.020751953125,-0.261962890625,1.6031
0.9770992366412213,-0.7175572519083969,-1.2366412213740459,-0.440185546875,-0.0185546875,-0.2666015625,1.6048
1.0381679389312977,-0.4732824427480916,-1.2061068702290076,-0.44482421875,-0.0185546875,-0.2666015625,1.6064999999999998
0.9465648854961832,-0.5801526717557252,-1.1908396946564885,-0.44921875,-0.01513671875,-0.2626953125,1.6081999999999999
0.8702290076335878,-0.6717557251908397,-1.0687022900763359,-0.444580078125,-0.02099609375,-0.26513671875,1.6098999999999999
0.7633587786259542,-0.6412213740458015,-1.1755725190839694,-0.445068359375,-0.02001953125,-0.2607421875,1.6116
0.7022900763358778,-0.5190839694656488,-1.282442748091603,-0.44140625,-0.015380859375,-0.262451171875,1.6133
0.5801526717557252,-0.6717557251908397,-1.2061068702290076,-0.44287109375,-0.019775390625,-0.267578125,1.615
1.0229007633587786,-0.5343511450381679,-1.1603053435114503,-0.44384765625,-0.017822265625,-0.268798828125,1.6166999999999998
0.8702290076335878,-0.6106870229007634,-1.083969465648855,-0.44775390625,-0.020263671875,-0.260009765625,1.6183999999999998
0.6564885496183206,-0.549618320610687,-1.3282442748091603,-0.440185546875,-0.019775390625,-0.2626953125,1.6200999999999999
0.8549618320610687,-0.5648854961832062,-1.297709923664122,-0.447265625,-0.016845703125,-0.269287109375,1.6218
0.6870229007633588,-0.5801526717557252,-1.282442748091603,-0.44677734375,-0.015625,-0.2685546875,1.6235
0.6106870229007634,-0.549618320610687,-1.083969465648855,-0.447998046875,-0.01904296875,-0.260986328125,1.6252
0.6564885496183206,-0.7022900763358778,-1.4198473282442747,-0.4404296875,-0.0185546875,-0.266845703125,1.6269
0.6259541984732825,-0.6259541984732825,-1.2366412213740459,-0.44482421875,-0.019287109375,-0.2607421875,1.6285999999999998
0.7480916030534351,-0.7633587786259542,-1.297709923664122,-0.44189453125,-0.0185546875,-0.255615234375,1.6302999999999999
0.7786259541984732,-0.6412213740458015,-1.2366412213740459,-0.4453125,-0.021728515625,-0.270263671875,1.632
0.7022900763358778,-0.7022900763358778,-1.4045801526717556,-0.446533203125,-0.019775390625,-0.263916015625,1.6337
0.7633587786259542,-0.8549618320610687,-1.3893129770992367,-0.44873046875,-0.018310546875,-0.254638671875,1.6354
0.7480916030534351,-0.732824427480916,-1.4351145038167938,-0.442138671875,-0.015625,-0.25341796875,1.6371
0.549618320610687,-0.6412213740458015,-1.3129770992366412,-0.443115234375,-0.020263671875,-0.25537109375,1.6387999999999998
0.6870229007633588,-0.7022900763358778,-1.6030534351145038,-0.4404296875,-0.020263671875,-0.25732421875,1.6404999999999998
0.5038167938931297,-0.6412213740458015,-1.3435114503816794,-0.4462890625,-0.0126953125,-0.25830078125,1.6421999999999999
0.9007633587786259,-0.916030534351145,-1.2366412213740459,-0.447998046875,-0.020263671875,-0.260009765625,1.6439
0.5038167938931297,-0.7022900763358778,-1.3129770992366412,-0.44775390625,-0.017333984375,-0.265380859375,1.6456
0.6412213740458015,-0.5648854961832062,-1.3740458015267176,-0.4443359375,-0.01708984375,-0.260498046875,1.6473
0.6564885496183206,-0.6259541984732825,-1.3435114503816794,-0.4443359375,-0.019287109375,-0.259521484375,1.6489999999999998
0.7480916030534351,-0.7022900763358778,-1.282442748091603,-0.445068359375,-0.01904296875,-0.261474609375,1.6506999999999998
0.5343511450381679,-0.5801526717557252,-1.3435114503816794,-0.44384765625,-0.017333984375,-0.260498046875,1.6523999999999999
0.4732824427480916,-0.6412213740458015,-1.4198473282442747,-0.447509765625,-0.023681640625,-0.256591796875,1.6541
0.7633587786259542,-0.5801526717557252,-1.3740458015267176,-0.448974609375,-0.021240234375,-0.250732421875,1.6558
0.6106870229007634,-0.6870229007633588,-1.3893129770992367,-0.444091796875,-0.02099609375,-0.2646484375,1.6575
0.8091603053435115,-0.7786259541984732,-1.4198473282442747,-0.44189453125,-0.01904296875,-0.259521484375,1.6592
0.6564885496183206,-0.6259541984732825,-1.465648854961832,-0.44384765625,-0.022216796875,-0.26171875,1.6608999999999998
0.6564885496183206,-0.7480916030534351,-1.3435114503816794,-0.442626953125,-0.02001953125,-0.259033203125,1.6625999999999999
0.7480916030534351,-0.8244274809160306,-1.3435114503816794,-0.44384765625,-0.021240234375,-0.261962890625,1.6643
0.7175572519083969,-0.7938931297709924,-1.297709923664122,-0.444091796875,-0.01904296875,-0.2587890625,1.666
0.6259541984732825,-0.7633587786259542,-1.4045801526717556,-0.4423828125,-0.01708984375,-0.25927734375,1.6677
0.7786259541984732,-0.6564885496183206,-1.2061068702290076,-0.445556640625,-0.020263671875,-0.255615234375,1.6694
0.7786259541984732,-0.8244274809160306,-1.282442748091603,-0.445068359375,-0.019775390625,-0.2568359375,1.6710999999999998
0.8091603053435115,-0.9770992366412213,-1.1603053435114503,-0.444580078125,-0.016357421875,-0.259765625,1.6727999999999998
0.6564885496183206,-0.7786259541984732,-1.2061068702290076,-0.446044921875,-0.016845703125,-0.263671875,1.6744999999999999
0.7633587786259542,-0.6870229007633588,-1.1755725190839694,-0.448486328125,-0.020263671875,-0.263916015625,1.6762
0.8549618320610687,-0.7175572519083969,-1.3129770992366412,-0.4482421875,-0.0224609375,-0.2548828125,1.6779
0.7938931297709924,-0.8091603053435115,-1.0687022900763359,-0.44921875,-0.012939453125,-0.255615234375,1.6796
0.916030534351145,-0.6412213740458015,-1.2366412213740459,-0.447509765625,-0.016845703125,-0.2587890625,1.6813
0.8549618320610687,-0.7175572519083969,-1.0229007633587786,-0.43994140625,-0.013671875,-0.262939453125,1.6829999999999998
0.7633587786259542,-0.6259541984732825,-1.1755725190839694,-0.4443359375,-0.018798828125,-0.2587890625,1.6846999999999999
0.6870229007633588,-0.6870229007633588,-0.9770992366412213,-0.442626953125,-0.017578125,-0.259521484375,1.6864
0.7938931297709924,-0.732824427480916,-1.0687022900763359,-0.44482421875,-0.01904296875,-0.255126953125,1.6881
0.8396946564885496,-0.7022900763358778,-0.9312977099236641,-0.443359375,-0.01904296875,-0.2568359375,1.6898
0.7633587786259542,-0.7022900763358778,-1.099236641221374,-0.445068359375,-0.0166015625,-0.267333984375,1.6915
0.7786259541984732,-0.6870229007633588,-0.9465648854961832,-0.44091796875,-0.01416015625,-0.262451171875,1.6931999999999998
0.8396946564885496,-0.7633587786259542,-0.9923664122137404,-0.442626953125,-0.017822265625,-0.268310546875,1.6948999999999999
0.916030534351145,-0.8091603053435115,-0.8854961832061069,-0.44384765625,-0.0234375,-0.26318359375,1.6965999999999999
0.6412213740458015,-0.7633587786259542,-0.8702290076335878,-0.44775390625,-0.015380859375,-0.26220703125,1.6983
0.8702290076335878,-0.5801526717557252,-0.7938931297709924,-0.44677734375,-0.018310546875,-0.261962890625,1.7
0.8549618320610687,-0.7633587786259542,-0.9923664122137404,-0.4482421875,-0.016357421875,-0.256591796875,1.7017
0.7175572519083969,-0.6870229007633588,-0.6412213740458015,-0.44384765625,-0.0185546875,-0.26123046875,1.7033999999999998
0.8702290076335878,-0.549618320610687,-0.9465648854961832,-0.447509765625,-0.0224609375,-0.2587890625,1.7050999999999998
0.6564885496183206,-0.6106870229007634,-0.9312977099236641,-0.443115234375,-0.0234375,-0.265380859375,1.7067999999999999
0.6412213740458015,-0.5648854961832062,-0.7022900763358778,-0.4462890625,-0.015625,-0.260009765625,1.7085
0.8091603053435115,-0.6412213740458015,-0.6717557251908397,-0.4443359375,-0.0205078125,-0.263427734375,1.7102
0.6106870229007634,-0.5343511450381679,-0.8702290076335878,-0.442626953125,-0.018798828125,-0.2685546875,1.7119
0.7175572519083969,-0.42748091603053434,-0.549618320610687,-0.44775390625,-0.016845703125,-0.25830078125,1.7136
0.6412213740458015,-0.4122137404580153,-0.7786259541984732,-0.449462890625,-0.01416015625,-0.26416015625,1.7152999999999998
0.5801526717557252,-0.5343511450381679,-0.4122137404580153,-0.445556640625,-0.021484375,-0.2529296875,1.7169999999999999
0.549618320610687,-0.6870229007633588,-0.549618320610687,-0.4423828125,-0.018798828125,-0.266357421875,1.7187
0.732824427480916,-0.549618320610687,-0.6717557251908397,-0.4423828125,-0.02001953125,-0.262451171875,1.7204
0.732824427480916,-0.6106870229007634,-0.6412213740458015,-0.443359375,-0.021484375,-0.265625,1.7221
0.33587786259541985,-0.366412213740458,-0.42748091603053434,-0.44921875,-0.024169921875,-0.261474609375,1.7238
0.4732824427480916,-0.48854961832061067,-0.6412213740458015,-0.449462890625,-0.01904296875,-0.255126953125,1.7254999999999998
0.732824427480916,-0.549618320610687,-0.5648854961832062,-0.44873046875,-0.020751953125,-0.25830078125,1.7271999999999998
0.7022900763358778,-0.5648854961832062,-0.5648854961832062,-0.44873046875,-0.021728515625,-0.26171875,1.7288999999999999
0.3969465648854962,-0.5648854961832062,-0.42748091603053434,-0.450439453125,-0.014404296875,-0.255126953125,1.7306
0.33587786259541985,-0.4732824427480916,-0.4122137404580153,-0.44970703125,-0.020263671875,-0.261474609375,1.7323
0.4580152671755725,-0.3511450381679389,-0.4732824427480916,-0.4501953125,-0.02197265625,-0.25830078125,1.734
0.44274809160305345,-0.4122137404580153,-0.5038167938931297,-0.450927734375,-0.019287109375,-0.258544921875,1.7356999999999998
0.3816793893129771,-0.3969465648854962,-0.48854961832061067,-0.444580078125,-0.018310546875,-0.25927734375,1.7373999999999998
0.4580152671755725,-0.3511450381679389,-0.3969465648854962,-0.452880859375,-0.015625,-0.251953125,1.7390999999999999
0.32061068702290074,-0.2900763358778626,-0.183206106870229,-0.44775390625,-0.0185546875,-0.255859375,1.7408
0.22900763358778625,-0.2595419847328244,-0.366412213740458,-0.446533203125,-0.01806640625,-0.26416015625,1.7425
0.2595419847328244,-0.3511450381679389,-0.4732824427480916,-0.44384765625,-0.022705078125,-0.25830078125,1.7442
0.15267175572519084,-0.21374045801526717,-0.2595419847328244,-0.444091796875,-0.0166015625,-0.260986328125,1.7459
0.366412213740458,-0.07633587786259542,-0.2900763358778626,-0.444091796875,-0.017822265625,-0.2646484375,1.7475999999999998
0.21374045801526717,-0.07633587786259542,-0.4732824427480916,-0.445556640625,-0.02099609375,-0.25830078125,1.7492999999999999
0.10687022900763359,-0.1984732824427481,-0.2900763358778626,-0.444580078125,-0.020263671875,-0.25634765625,1.751
0.0916030534351145,-0.3511450381679389,-0.22900763358778625,-0.449951171875,-0.02197265625,-0.267578125,1.7527
0.07633587786259542,-0.3969465648854962,-0.2595419847328244,-0.44775390625,-0.015625,-0.265380859375,1.7544
-0.15267175572519084,-0.24427480916030533,-0.4122137404580153,-0.4453125,-0.01904296875,-0.25244140625,1.7561
-0.07633587786259542,-0.2595419847328244,-0.16793893129770993,-0.445556640625,-0.02490234375,-0.251220703125,1.7577999999999998
-0.061068702290076333,-0.3053435114503817,-0.21374045801526717,-0.4501953125,-0.02490234375,-0.254150390625,1.7594999999999998
0.07633587786259542,-0.1984732824427481,-0.33587786259541985,-0.443359375,-0.02099609375,-0.25634765625,1.7611999999999999
-0.07633587786259542,-0.22900763358778625,-0.183206106870229,-0.447998046875,-0.017822265625,-0.252197265625,1.7629
-0.183206106870229,-0.0916030534351145,-0.0916030534351145,-0.44921875,-0.02490234375,-0.2578125,1.7646
-0.22900763358778625,-0.3511450381679389,-0.183206106870229,-0.450927734375,-0.01953125,-0.2646484375,1.7663
-0.3816793893129771,-0.1984732824427481,-0.2900763358778626,-0.450927734375,-0.02099609375,-0.261474609375,1.7679999999999998
-0.21374045801526717,-0.015267175572519083,0.07633587786259542,-0.449462890625,-0.021728515625,-0.261962890625,1.7696999999999998
-0.16793893129770993,-0.061068702290076333,-0.15267175572519084,-0.44921875,-0.018798828125,-0.267333984375,1.7713999999999999
-0.2595419847328244,-0.0916030534351145,-0.12213740458015267,-0.44921875,-0.021728515625,-0.261962890625,1.7731
-0.3053435114503817,-0.04580152671755725,-0.04580152671755725,-0.44482421875,-0.01953125,-0.254638671875,1.7748
-0.2900763358778626,0.061068702290076333,-0.061068702290076333,-0.4501953125,-0.0205078125,-0.251220703125,1.7765
-0.4580152671755725,0.030534351145038167,0.04580152671755725,-0.447509765625,-0.01611328125,-0.26220703125,1.7782
