gyrox1,gyroy1,gyroz1,accelx1,accely1,accelz1,Time
4.198473282442748,2.6106870229007635,-1.0381679389312977,-0.115234375,0.0234375,-0.580322265625,0.0
4.0458015267175576,2.366412213740458,-1.3893129770992367,-0.115234375,0.026123046875,-0.590087890625,0.0017
3.877862595419847,2.763358778625954,-1.5267175572519085,-0.11328125,0.02734375,-0.579833984375,0.0034
3.7557251908396947,2.717557251908397,-1.3129770992366412,-0.1162109375,0.022216796875,-0.58642578125,0.0050999999999999995
3.7404580152671754,2.8091603053435112,-1.2061068702290076,-0.115966796875,0.022216796875,-0.576904296875,0.0068
3.618320610687023,2.854961832061069,-1.2213740458015268,-0.115478515625,0.0224609375,-0.5859375,0.008499999999999999
3.3435114503816794,2.931297709923664,-1.4198473282442747,-0.1142578125,0.02685546875,-0.58935546875,0.010199999999999999
3.1908396946564888,3.0076335877862594,-1.3282442748091603,-0.11767578125,0.0234375,-0.592041015625,0.011899999999999999
3.2061068702290076,2.900763358778626,-1.2061068702290076,-0.120361328125,0.02685546875,-0.5849609375,0.0136
2.9770992366412212,2.8702290076335877,-1.4961832061068703,-0.119873046875,0.02294921875,-0.585205078125,0.0153
2.885496183206107,3.0229007633587788,-1.3587786259541985,-0.114990234375,0.021240234375,-0.579345703125,0.016999999999999998
2.7022900763358777,3.2213740458015265,-1.3282442748091603,-0.114501953125,0.0263671875,-0.58056640625,0.018699999999999998
2.6259541984732824,3.267175572519084,-1.3893129770992367,-0.114990234375,0.02734375,-0.588134765625,0.020399999999999998
2.427480916030534,3.2977099236641223,-1.3587786259541985,-0.115478515625,0.024658203125,-0.589599609375,0.022099999999999998
2.0763358778625953,3.435114503816794,-1.4961832061068703,-0.1181640625,0.0263671875,-0.589599609375,0.023799999999999998
2.045801526717557,3.4656488549618323,-1.4961832061068703,-0.114013671875,0.021484375,-0.587646484375,0.0255
1.816793893129771,3.5877862595419847,-1.297709923664122,-0.11376953125,0.018798828125,-0.584228515625,0.0272
1.7557251908396947,3.3893129770992365,-1.3587786259541985,-0.11328125,0.02685546875,-0.582275390625,0.0289
1.6488549618320612,3.267175572519084,-1.2213740458015268,-0.1181640625,0.025634765625,-0.582763671875,0.0306
1.786259541984733,3.236641221374046,-1.0687022900763359,-0.115478515625,0.02880859375,-0.584228515625,0.032299999999999995
1.984732824427481,3.3740458015267176,-1.4809160305343512,-0.1142578125,0.0263671875,-0.594482421875,0.033999999999999996
1.786259541984733,3.3740458015267176,-1.3129770992366412,-0.117431640625,0.026123046875,-0.584228515625,0.035699999999999996
2.030534351145038,3.5267175572519083,-1.2213740458015268,-0.11376953125,0.02294921875,-0.582275390625,0.037399999999999996
1.7404580152671756,3.3282442748091605,-1.4198473282442747,-0.116943359375,0.02294921875,-0.59228515625,0.039099999999999996
1.8625954198473282,3.1297709923664123,-1.3282442748091603,-0.115478515625,0.028076171875,-0.586669921875,0.040799999999999996
1.9541984732824427,3.450381679389313,-1.282442748091603,-0.11474609375,0.02587890625,-0.5830078125,0.042499999999999996
1.6488549618320612,3.2977099236641223,-1.3893129770992367,-0.11181640625,0.02490234375,-0.580322265625,0.044199999999999996
1.5267175572519085,3.404580152671756,-1.3893129770992367,-0.117431640625,0.02880859375,-0.58642578125,0.045899999999999996
1.6030534351145038,3.114503816793893,-1.251908396946565,-0.1162109375,0.033203125,-0.580322265625,0.047599999999999996
1.4198473282442747,3.267175572519084,-1.2061068702290076,-0.11181640625,0.031982421875,-0.587158203125,0.0493
1.450381679389313,3.282442748091603,-1.3893129770992367,-0.1064453125,0.03076171875,-0.58447265625,0.051
1.2213740458015268,2.9770992366412212,-1.251908396946565,-0.10986328125,0.028564453125,-0.586181640625,0.0527
1.0687022900763359,2.732824427480916,-1.1908396946564885,-0.10693359375,0.031005859375,-0.58740234375,0.0544
0.8854961832061069,2.7938931297709924,-1.282442748091603,-0.107666015625,0.03173828125,-0.5869140625,0.0561
0.8854961832061069,3.0229007633587788,-1.1145038167938932,-0.110595703125,0.031005859375,-0.5830078125,0.0578
0.9923664122137404,2.717557251908397,-1.0229007633587786,-0.11181640625,0.025146484375,-0.585693359375,0.0595
0.8244274809160306,2.427480916030534,-1.099236641221374,-0.109130859375,0.028564453125,-0.5869140625,0.0612
0.7022900763358778,2.2442748091603053,-1.0534351145038168,-0.109375,0.027099609375,-0.5908203125,0.0629
0.8396946564885496,2.4580152671755724,-1.0534351145038168,-0.109375,0.026611328125,-0.587890625,0.06459999999999999
0.9923664122137404,2.2595419847328246,-1.1908396946564885,-0.108154296875,0.030517578125,-0.585205078125,0.0663
1.1450381679389312,2.0,-1.2061068702290076,-0.10986328125,0.02392578125,-0.580810546875,0.06799999999999999
1.4198473282442747,1.9694656488549618,-1.099236641221374,-0.11376953125,0.028564453125,-0.5791015625,0.0697
1.465648854961832,1.83206106870229,-1.1450381679389312,-0.112060546875,0.033447265625,-0.580810546875,0.07139999999999999
1.7709923664122138,1.7404580152671756,-1.1755725190839694,-0.1142578125,0.02978515625,-0.577392578125,0.0731
2.030534351145038,1.5114503816793894,-1.3435114503816794,-0.112060546875,0.025390625,-0.583984375,0.07479999999999999
2.2290076335877864,1.4351145038167938,-1.1297709923664123,-0.11328125,0.024658203125,-0.58251953125,0.0765
2.045801526717557,1.297709923664122,-1.3435114503816794,-0.11181640625,0.034912109375,-0.58837890625,0.07819999999999999
2.4732824427480917,1.1603053435114503,-1.4045801526717556,-0.11328125,0.029541015625,-0.589599609375,0.0799
2.687022900763359,0.916030534351145,-1.3282442748091603,-0.11865234375,0.030517578125,-0.587646484375,0.08159999999999999
2.931297709923664,1.0534351145038168,-1.633587786259542,-0.11474609375,0.03466796875,-0.58447265625,0.0833
2.595419847328244,0.732824427480916,-1.8778625954198473,-0.1123046875,0.0302734375,-0.585205078125,0.08499999999999999
2.931297709923664,0.5343511450381679,-1.5419847328244274,-0.111328125,0.033447265625,-0.583984375,0.0867
2.7022900763358777,0.7938931297709924,-1.7099236641221374,-0.110595703125,0.031494140625,-0.586181640625,0.08839999999999999
2.564885496183206,0.6717557251908397,-1.618320610687023,-0.1123046875,0.02685546875,-0.580810546875,0.0901
2.2900763358778624,0.7786259541984732,-1.6946564885496183,-0.111083984375,0.03271484375,-0.5859375,0.09179999999999999
2.030534351145038,0.5038167938931297,-1.7404580152671756,-0.112060546875,0.033203125,-0.588134765625,0.0935
2.2290076335877864,0.5038167938931297,-1.633587786259542,-0.110595703125,0.03271484375,-0.587890625,0.09519999999999999
1.9236641221374047,0.5038167938931297,-1.6793893129770991,-0.11474609375,0.03173828125,-0.583251953125,0.0969
1.8931297709923665,0.33587786259541985,-1.8015267175572518,-0.119140625,0.03076171875,-0.567626953125,0.0986
1.3435114503816794,0.22900763358778625,-1.4351145038167938,-0.11865234375,0.029541015625,-0.5693359375,0.1003
1.3893129770992367,0.0,-1.7557251908396947,-0.1123046875,0.02880859375,-0.585205078125,0.102
1.4961832061068703,-0.061068702290076333,-1.6946564885496183,-0.109375,0.03076171875,-0.583984375,0.1037
1.2213740458015268,0.030534351145038167,-1.618320610687023,-0.109130859375,0.0263671875,-0.579345703125,0.1054
1.4351145038167938,0.030534351145038167,-1.5114503816793894,-0.109375,0.02734375,-0.58154296875,0.1071
1.5725190839694656,-0.2595419847328244,-1.3435114503816794,-0.11181640625,0.026611328125,-0.58251953125,0.1088
1.618320610687023,-0.10687022900763359,-1.2061068702290076,-0.11376953125,0.024169921875,-0.580322265625,0.11049999999999999
1.6793893129770991,-0.2595419847328244,-1.4198473282442747,-0.115234375,0.026611328125,-0.5869140625,0.1122
1.816793893129771,-0.16793893129770993,-1.2061068702290076,-0.10986328125,0.021728515625,-0.583984375,0.11389999999999999
1.83206106870229,-0.0916030534351145,-1.2061068702290076,-0.111083984375,0.02294921875,-0.585693359375,0.1156
1.83206106870229,0.04580152671755725,-1.3129770992366412,-0.114013671875,0.02197265625,-0.58984375,0.11729999999999999
1.9083969465648856,0.24427480916030533,-1.5114503816793894,-0.114501953125,0.0244140625,-0.584228515625,0.119
1.8015267175572518,0.061068702290076333,-1.2061068702290076,-0.11279296875,0.025146484375,-0.586669921875,0.12069999999999999
1.6488549618320612,0.030534351145038167,-1.4198473282442747,-0.1181640625,0.023193359375,-0.57666015625,0.1224
1.465648854961832,0.183206106870229,-1.5419847328244274,-0.1201171875,0.02783203125,-0.591552734375,0.12409999999999999
1.4045801526717556,0.12213740458015267,-1.4351145038167938,-0.11669921875,0.0234375,-0.58251953125,0.1258
1.0381679389312977,0.15267175572519084,-1.1450381679389312,-0.11767578125,0.029541015625,-0.5888671875,0.1275
0.9312977099236641,0.2595419847328244,-1.4961832061068703,-0.11767578125,0.0283203125,-0.587646484375,0.12919999999999998
1.0687022900763359,0.24427480916030533,-1.4961832061068703,-0.119873046875,0.020263671875,-0.578125,0.1309
0.8549618320610687,0.0,-1.2671755725190839,-0.12109375,0.022216796875,-0.586669921875,0.1326
0.8091603053435115,0.33587786259541985,-1.282442748091603,-0.113037109375,0.024169921875,-0.581787109375,0.1343
0.732824427480916,0.32061068702290074,-1.4351145038167938,-0.1201171875,0.022705078125,-0.583251953125,0.13599999999999998
0.2900763358778626,0.16793893129770993,-1.3587786259541985,-0.11767578125,0.02490234375,-0.591552734375,0.1377
0.21374045801526717,0.0,-1.297709923664122,-0.118896484375,0.025634765625,-0.583251953125,0.1394
0.07633587786259542,0.3053435114503817,-1.1603053435114503,-0.1171875,0.02734375,-0.588623046875,0.1411
-0.061068702290076333,0.3969465648854962,-1.2061068702290076,-0.1142578125,0.0263671875,-0.585693359375,0.14279999999999998
0.0,0.5190839694656488,-1.1603053435114503,-0.118896484375,0.0263671875,-0.580810546875,0.1445
-0.22900763358778625,0.6564885496183206,-1.297709923664122,-0.1220703125,0.028076171875,-0.58154296875,0.1462
-0.48854961832061067,0.5038167938931297,-1.297709923664122,-0.115966796875,0.022705078125,-0.582275390625,0.1479
-0.44274809160305345,0.7480916030534351,-1.3893129770992367,-0.1171875,0.02734375,-0.58740234375,0.14959999999999998
-0.4122137404580153,1.0687022900763359,-1.1755725190839694,-0.11767578125,0.02587890625,-0.583740234375,0.1513
-0.4122137404580153,1.1145038167938932,-1.1603053435114503,-0.11474609375,0.026611328125,-0.585693359375,0.153
-0.4732824427480916,1.1603053435114503,-1.2366412213740459,-0.114501953125,0.02685546875,-0.58203125,0.1547
-0.6259541984732825,1.0076335877862594,-1.3435114503816794,-0.11767578125,0.0263671875,-0.580322265625,0.15639999999999998
-0.4122137404580153,0.7633587786259542,-1.282442748091603,-0.11376953125,0.022705078125,-0.578125,0.1581
-0.5954198473282443,1.1450381679389312,-1.099236641221374,-0.11865234375,0.0283203125,-0.58056640625,0.1598
-0.3511450381679389,0.9923664122137404,-1.0687022900763359,-0.115234375,0.027099609375,-0.587158203125,0.1615
-0.07633587786259542,0.7938931297709924,-1.2061068702290076,-0.1162109375,0.026611328125,-0.580078125,0.16319999999999998
0.0916030534351145,1.0534351145038168,-1.1297709923664123,-0.112060546875,0.031982421875,-0.58837890625,0.1649
-0.3053435114503817,1.0381679389312977,-1.0687022900763359,-0.117919921875,0.032958984375,-0.587890625,0.1666
0.2748091603053435,0.7633587786259542,-1.083969465648855,-0.116943359375,0.031494140625,-0.591796875,0.16829999999999998
0.42748091603053434,0.8702290076335878,-1.099236641221374,-0.113525390625,0.029541015625,-0.58154296875,0.16999999999999998
0.6870229007633588,1.0381679389312977,-1.0229007633587786,-0.11572265625,0.03076171875,-0.58251953125,0.1717
0.7633587786259542,0.7480916030534351,-1.083969465648855,-0.110595703125,0.033447265625,-0.585693359375,0.1734
0.5343511450381679,0.7633587786259542,-1.099236641221374,-0.108154296875,0.03173828125,-0.58642578125,0.17509999999999998
0.9465648854961832,0.7480916030534351,-0.9923664122137404,-0.111328125,0.031005859375,-0.58154296875,0.17679999999999998
0.9618320610687023,0.8549618320610687,-0.8702290076335878,-0.1123046875,0.032470703125,-0.590087890625,0.1785
0.7022900763358778,0.8702290076335878,-1.2366412213740459,-0.112548828125,0.0341796875,-0.58056640625,0.1802
0.9465648854961832,0.9312977099236641,-1.0076335877862594,-0.111572265625,0.03173828125,-0.577392578125,0.18189999999999998
1.0229007633587786,0.6106870229007634,-1.0381679389312977,-0.113037109375,0.02880859375,-0.580078125,0.18359999999999999
1.099236641221374,0.7480916030534351,-0.7175572519083969,-0.114013671875,0.035400390625,-0.57666015625,0.1853
1.0076335877862594,0.6870229007633588,-0.9770992366412213,-0.114990234375,0.033935546875,-0.593505859375,0.187
0.916030534351145,0.7480916030534351,-0.7175572519083969,-0.1142578125,0.031005859375,-0.581787109375,0.18869999999999998
1.0687022900763359,0.8091603053435115,-0.7175572519083969,-0.11279296875,0.02978515625,-0.578857421875,0.19039999999999999
1.3435114503816794,0.9923664122137404,-0.8396946564885496,-0.117431640625,0.027587890625,-0.579345703125,0.1921
0.9770992366412213,0.7786259541984732,-0.7786259541984732,-0.11376953125,0.027587890625,-0.582275390625,0.1938
1.282442748091603,0.8702290076335878,-0.6412213740458015,-0.114501953125,0.0283203125,-0.584716796875,0.19549999999999998
1.6488549618320612,0.8549618320610687,-0.5343511450381679,-0.115234375,0.033447265625,-0.587890625,0.1972
1.6030534351145038,1.0381679389312977,-0.5801526717557252,-0.1103515625,0.03173828125,-0.58447265625,0.1989
1.7099236641221374,0.916030534351145,-0.5190839694656488,-0.11328125,0.027587890625,-0.587890625,0.2006
1.6946564885496183,1.0534351145038168,-0.5038167938931297,-0.114501953125,0.02685546875,-0.577392578125,0.20229999999999998
1.6488549618320612,0.9465648854961832,-0.549618320610687,-0.114990234375,0.031005859375,-0.59033203125,0.204
1.8778625954198473,1.1145038167938932,-0.5190839694656488,-0.116455078125,0.027099609375,-0.585693359375,0.2057
2.030534351145038,0.9312977099236641,-0.32061068702290074,-0.11083984375,0.02734375,-0.59033203125,0.2074
1.8625954198473282,0.8854961832061069,-0.3511450381679389,-0.114990234375,0.022216796875,-0.5869140625,0.20909999999999998
1.83206106870229,0.9312977099236641,-0.4732824427480916,-0.113525390625,0.029296875,-0.586181640625,0.2108
1.6641221374045803,0.8854961832061069,-0.3053435114503817,-0.117431640625,0.030517578125,-0.592529296875,0.2125
1.9389312977099236,0.9312977099236641,-0.2900763358778626,-0.115478515625,0.03466796875,-0.58447265625,0.2142
1.7709923664122138,0.9007633587786259,-0.4122137404580153,-0.112548828125,0.033203125,-0.58251953125,0.21589999999999998
1.5725190839694656,1.0381679389312977,-0.21374045801526717,-0.107666015625,0.028076171875,-0.5869140625,0.2176
1.8473282442748091,1.083969465648855,-0.0916030534351145,-0.11279296875,0.03125,-0.580078125,0.2193
1.7099236641221374,1.0381679389312977,-0.13740458015267176,-0.115966796875,0.027099609375,-0.58154296875,0.22099999999999997
2.0,1.0687022900763359,-0.13740458015267176,-0.113525390625,0.0263671875,-0.585205078125,0.22269999999999998
2.0763358778625953,1.3129770992366412,-0.12213740458015267,-0.11669921875,0.026123046875,-0.58203125,0.2244
1.816793893129771,1.0687022900763359,-0.12213740458015267,-0.1162109375,0.027587890625,-0.5859375,0.2261
1.9389312977099236,1.099236641221374,-0.07633587786259542,-0.111083984375,0.025634765625,-0.575927734375,0.22779999999999997
2.0610687022900764,1.1450381679389312,0.030534351145038167,-0.110107421875,0.02783203125,-0.580078125,0.22949999999999998
2.1374045801526718,1.0687022900763359,-0.030534351145038167,-0.1171875,0.02197265625,-0.58349609375,0.2312
2.3969465648854964,0.9923664122137404,0.12213740458015267,-0.109619140625,0.024169921875,-0.580810546875,0.2329
2.50381679389313,1.083969465648855,-0.13740458015267176,-0.115966796875,0.0263671875,-0.580322265625,0.23459999999999998
2.4427480916030535,1.1145038167938932,-0.13740458015267176,-0.119873046875,0.028564453125,-0.590576171875,0.23629999999999998
2.427480916030534,1.2061068702290076,0.030534351145038167,-0.11669921875,0.023681640625,-0.586669921875,0.238
2.427480916030534,1.251908396946565,-0.12213740458015267,-0.11328125,0.03076171875,-0.592041015625,0.2397
2.381679389312977,1.2366412213740459,-0.15267175572519084,-0.116455078125,0.025634765625,-0.578369140625,0.24139999999999998
2.1374045801526718,1.465648854961832,-0.0916030534351145,-0.118408203125,0.0283203125,-0.589599609375,0.24309999999999998
2.1374045801526718,1.5572519083969465,0.1984732824427481,-0.110107421875,0.023193359375,-0.581298828125,0.2448
2.2595419847328246,1.5877862595419847,-0.16793893129770993,-0.111083984375,0.0224609375,-0.584228515625,0.2465
2.0916030534351147,1.5419847328244274,-0.061068702290076333,-0.11865234375,0.02392578125,-0.583984375,0.24819999999999998
2.2442748091603053,1.7099236641221374,0.13740458015267176,-0.110107421875,0.02197265625,-0.5830078125,0.24989999999999998
2.183206106870229,1.786259541984733,0.0,-0.109375,0.021728515625,-0.58544921875,0.2516
1.9694656488549618,1.7557251908396947,-0.0916030534351145,-0.115966796875,0.0244140625,-0.578369140625,0.25329999999999997
2.183206106870229,1.9236641221374047,0.1984732824427481,-0.118408203125,0.0263671875,-0.5888671875,0.255
2.16793893129771,2.0,0.21374045801526717,-0.114013671875,0.0244140625,-0.58544921875,0.2567
2.1374045801526718,2.030534351145038,0.061068702290076333,-0.116943359375,0.022705078125,-0.58203125,0.25839999999999996
2.015267175572519,2.015267175572519,0.04580152671755725,-0.115234375,0.028564453125,-0.586181640625,0.2601
2.0610687022900764,2.045801526717557,0.13740458015267176,-0.112548828125,0.024658203125,-0.585693359375,0.2618
2.16793893129771,2.0,0.04580152671755725,-0.114013671875,0.0244140625,-0.5859375,0.2635
1.83206106870229,1.9694656488549618,0.015267175572519083,-0.11572265625,0.0263671875,-0.578369140625,0.2652
1.786259541984733,1.8931297709923665,0.07633587786259542,-0.115966796875,0.027099609375,-0.58251953125,0.26689999999999997
1.816793893129771,1.8931297709923665,-0.21374045801526717,-0.11181640625,0.027099609375,-0.583984375,0.2686
1.7709923664122138,2.015267175572519,-0.21374045801526717,-0.11181640625,0.02685546875,-0.5791015625,0.2703
1.5419847328244274,1.7099236641221374,-0.07633587786259542,-0.110107421875,0.0234375,-0.583740234375,0.27199999999999996
1.8015267175572518,1.8778625954198473,-0.07633587786259542,-0.116943359375,0.029296875,-0.5810546875,0.2737
1.5114503816793894,2.015267175572519,-0.22900763358778625,-0.11083984375,0.023681640625,-0.584716796875,0.2754
1.7404580152671756,1.8015267175572518,-0.1984732824427481,-0.110595703125,0.031494140625,-0.584716796875,0.27709999999999996
2.0,1.8931297709923665,-0.1984732824427481,-0.10546875,0.029296875,-0.57861328125,0.2788
1.9694656488549618,1.9083969465648856,-0.44274809160305345,-0.114013671875,0.027587890625,-0.58984375,0.28049999999999997
1.7557251908396947,2.015267175572519,-0.3511450381679389,-0.114990234375,0.026611328125,-0.582763671875,0.2822
2.045801526717557,1.816793893129771,-0.732824427480916,-0.110107421875,0.027099609375,-0.5849609375,0.2839
2.1068702290076335,1.5267175572519085,-0.48854961832061067,-0.10888671875,0.025634765625,-0.591064453125,0.28559999999999997
2.1526717557251906,1.618320610687023,-0.7786259541984732,-0.107421875,0.030029296875,-0.5859375,0.2873
2.2442748091603053,1.465648854961832,-0.6717557251908397,-0.114990234375,0.029296875,-0.583740234375,0.289
2.381679389312977,1.5725190839694656,-0.8091603053435115,-0.112548828125,0.025634765625,-0.586181640625,0.29069999999999996
2.2595419847328246,1.1908396946564885,-0.916030534351145,-0.11279296875,0.03173828125,-0.588134765625,0.2924
2.366412213740458,1.1603053435114503,-0.9312977099236641,-0.10791015625,0.032958984375,-0.5888671875,0.2941
2.351145038167939,1.1603053435114503,-0.8854961832061069,-0.109619140625,0.029052734375,-0.591064453125,0.2958
2.381679389312977,0.7786259541984732,-0.9923664122137404,-0.11279296875,0.02880859375,-0.589111328125,0.2975
2.3053435114503817,1.0229007633587786,-1.0687022900763359,-0.111083984375,0.023681640625,-0.5927734375,0.29919999999999997
2.1068702290076335,1.1908396946564885,-1.0381679389312977,-0.113525390625,0.02197265625,-0.583251953125,0.3009
2.030534351145038,0.9007633587786259,-1.0381679389312977,-0.111083984375,0.0244140625,-0.578857421875,0.3026
1.7557251908396947,0.8244274809160306,-1.0229007633587786,-0.109375,0.025634765625,-0.593017578125,0.30429999999999996
1.5572519083969465,0.8549618320610687,-1.0076335877862594,-0.1142578125,0.02294921875,-0.584716796875,0.306
1.4045801526717556,1.0381679389312977,-1.2213740458015268,-0.11669921875,0.029296875,-0.587646484375,0.3077
1.4045801526717556,0.8091603053435115,-1.0381679389312977,-0.114013671875,0.027587890625,-0.586181640625,0.3094
1.5114503816793894,0.8854961832061069,-1.099236641221374,-0.115966796875,0.027099609375,-0.5810546875,0.3111
1.1755725190839694,0.8549618320610687,-1.3129770992366412,-0.113037109375,0.029296875,-0.588134765625,0.31279999999999997
1.3129770992366412,1.0076335877862594,-1.2213740458015268,-0.11279296875,0.023681640625,-0.58984375,0.3145
1.251908396946565,0.9770992366412213,-1.1908396946564885,-0.114013671875,0.0244140625,-0.582275390625,0.3162
1.2213740458015268,0.9007633587786259,-1.3740458015267176,-0.10986328125,0.02197265625,-0.587158203125,0.31789999999999996
1.2213740458015268,1.2061068702290076,-1.2366412213740459,-0.115234375,0.026611328125,-0.5869140625,0.3196
1.0534351145038168,0.9312977099236641,-1.3893129770992367,-0.108154296875,0.02880859375,-0.582275390625,0.3213
1.099236641221374,1.2366412213740459,-1.3740458015267176,-0.114501953125,0.02099609375,-0.57958984375,0.323
1.0687022900763359,1.3740458015267176,-1.5419847328244274,-0.11669921875,0.027099609375,-0.578857421875,0.3247
1.1603053435114503,1.1297709923664123,-1.3587786259541985,-0.11083984375,0.02587890625,-0.580078125,0.32639999999999997
1.0381679389312977,1.2366412213740459,-1.5572519083969465,-0.109130859375,0.024658203125,-0.58447265625,0.3281
0.8244274809160306,1.2366412213740459,-1.3129770992366412,-0.109619140625,0.026123046875,-0.592529296875,0.3298
0.9618320610687023,1.4351145038167938,-1.5572519083969465,-0.10400390625,0.017822265625,-0.592529296875,0.33149999999999996
0.7938931297709924,1.3282442748091603,-1.3893129770992367,-0.111328125,0.0244140625,-0.5849609375,0.3332
0.6870229007633588,1.4198473282442747,-1.5725190839694656,-0.10791015625,0.021484375,-0.585693359375,0.3349
0.8396946564885496,1.2671755725190839,-1.5419847328244274,-0.1142578125,0.020263671875,-0.583984375,0.33659999999999995
0.5801526717557252,1.2061068702290076,-1.5877862595419847,-0.1083984375,0.021728515625,-0.57666015625,0.3383
0.48854961832061067,1.2366412213740459,-1.3129770992366412,-0.11181640625,0.023681640625,-0.580810546875,0.33999999999999997
0.4580152671755725,1.0687022900763359,-1.465648854961832,-0.111328125,0.021484375,-0.58251953125,0.3417
0.5190839694656488,0.8854961832061069,-1.2671755725190839,-0.11474609375,0.0283203125,-0.574951171875,0.3434
0.21374045801526717,0.9923664122137404,-1.3740458015267176,-0.11279296875,0.025634765625,-0.57275390625,0.34509999999999996
0.4122137404580153,0.6564885496183206,-1.3587786259541985,-0.111083984375,0.024169921875,-0.581298828125,0.3468
0.5343511450381679,0.8091603053435115,-1.3893129770992367,-0.105224609375,0.023193359375,-0.581787109375,0.3485
0.5190839694656488,0.8549618320610687,-1.251908396946565,-0.10498046875,0.025390625,-0.579833984375,0.35019999999999996
0.48854961832061067,0.549618320610687,-1.450381679389313,-0.111083984375,0.0244140625,-0.583984375,0.3519
0.5343511450381679,0.4122137404580153,-1.0534351145038168,-0.10888671875,0.025146484375,-0.58251953125,0.35359999999999997
0.5190839694656488,0.5038167938931297,-1.297709923664122,-0.10791015625,0.032470703125,-0.587890625,0.3553
0.6717557251908397,0.4580152671755725,-1.297709923664122,-0.108642578125,0.031982421875,-0.585693359375,0.357
0.8091603053435115,0.48854961832061067,-1.4809160305343512,-0.10693359375,0.03125,-0.58642578125,0.35869999999999996
0.8244274809160306,0.48854961832061067,-1.3740458015267176,-0.110107421875,0.026123046875,-0.578369140625,0.3604
0.9465648854961832,0.24427480916030533,-1.465648854961832,-0.113525390625,0.02880859375,-0.587646484375,0.3621
1.0687022900763359,0.3969465648854962,-1.465648854961832,-0.111328125,0.028564453125,-0.58251953125,0.36379999999999996
1.2671755725190839,0.6106870229007634,-1.4809160305343512,-0.1083984375,0.023681640625,-0.577880859375,0.3655
1.099236641221374,0.3969465648854962,-1.2366412213740459,-0.1083984375,0.028076171875,-0.58544921875,0.36719999999999997
1.3282442748091603,0.2900763358778626,-1.282442748091603,-0.114013671875,0.026123046875,-0.5810546875,0.3689
1.3587786259541985,0.4580152671755725,-1.2213740458015268,-0.107177734375,0.031005859375,-0.5859375,0.3706
1.5419847328244274,0.549618320610687,-1.2671755725190839,-0.109375,0.030029296875,-0.57958984375,0.37229999999999996
1.450381679389313,0.48854961832061067,-1.1297709923664123,-0.110107421875,0.033203125,-0.577880859375,0.374
1.5572519083969465,0.6259541984732825,-1.3129770992366412,-0.114501953125,0.0302734375,-0.5830078125,0.3757
1.6793893129770991,0.5801526717557252,-1.0687022900763359,-0.1123046875,0.02587890625,-0.582763671875,0.37739999999999996
1.7251908396946565,0.6564885496183206,-0.9923664122137404,-0.111083984375,0.02587890625,-0.587646484375,0.3791
1.8473282442748091,0.6106870229007634,-1.0381679389312977,-0.10595703125,0.024169921875,-0.5927734375,0.38079999999999997
2.1374045801526718,0.42748091603053434,-1.0381679389312977,-0.11572265625,0.026123046875,-0.58984375,0.38249999999999995
2.16793893129771,0.549618320610687,-0.8549618320610687,-0.111572265625,0.031005859375,-0.58740234375,0.3842
2.0763358778625953,0.5954198473282443,-0.8549618320610687,-0.11572265625,0.0244140625,-0.5859375,0.38589999999999997
2.183206106870229,0.7786259541984732,-1.1145038167938932,-0.112060546875,0.027099609375,-0.579345703125,0.3876
2.2442748091603053,0.6717557251908397,-1.083969465648855,-0.1103515625,0.027099609375,-0.59326171875,0.3893
2.2442748091603053,0.6564885496183206,-1.1603053435114503,-0.1123046875,0.0224609375,-0.58349609375,0.39099999999999996
2.33587786259542,0.6564885496183206,-1.099236641221374,-0.111572265625,0.030517578125,-0.583984375,0.3927
2.198473282442748,0.6259541984732825,-1.2366412213740459,-0.11181640625,0.027099609375,-0.580810546875,0.3944
2.0,0.8091603053435115,-1.1755725190839694,-0.111083984375,0.02587890625,-0.579833984375,0.39609999999999995
2.16793893129771,0.8549618320610687,-1.2366412213740459,-0.11376953125,0.028076171875,-0.57958984375,0.3978
1.984732824427481,0.8854961832061069,-1.2061068702290076,-0.1162109375,0.02685546875,-0.58447265625,0.39949999999999997
1.6946564885496183,0.9007633587786259,-1.1145038167938932,-0.1162109375,0.027099609375,-0.58203125,0.4012
1.786259541984733,0.9618320610687023,-1.297709923664122,-0.116455078125,0.02783203125,-0.595703125,0.4029
1.7709923664122138,1.0534351145038168,-1.1603053435114503,-0.114501953125,0.02880859375,-0.57861328125,0.40459999999999996
1.6946564885496183,0.9465648854961832,-1.4045801526717556,-0.11279296875,0.0224609375,-0.5859375,0.4063
1.6641221374045803,1.1145038167938932,-1.251908396946565,-0.11328125,0.028076171875,-0.583984375,0.408
1.251908396946565,0.9007633587786259,-1.1603053435114503,-0.11279296875,0.02783203125,-0.584228515625,0.40969999999999995
1.282442748091603,1.0381679389312977,-1.3435114503816794,-0.111328125,0.027587890625,-0.580810546875,0.4114
1.4809160305343512,1.297709923664122,-1.3435114503816794,-0.108642578125,0.02587890625,-0.586181640625,0.41309999999999997
1.2366412213740459,1.0076335877862594,-1.282442748091603,-0.109619140625,0.031005859375,-0.587158203125,0.4148
1.083969465648855,0.9007633587786259,-1.251908396946565,-0.111083984375,0.02978515625,-0.58349609375,0.4165
1.083969465648855,1.0534351145038168,-1.099236641221374,-0.111572265625,0.02587890625,-0.58056640625,0.41819999999999996
1.297709923664122,1.1145038167938932,-1.3740458015267176,-0.11083984375,0.031982421875,-0.5859375,0.4199
1.251908396946565,0.8244274809160306,-1.1755725190839694,-0.10888671875,0.0322265625,-0.582275390625,0.4216
1.2061068702290076,0.732824427480916,-1.2213740458015268,-0.10986328125,0.027099609375,-0.580322265625,0.42329999999999995
1.5114503816793894,0.8549618320610687,-1.0381679389312977,-0.116943359375,0.024169921875,-0.5830078125,0.425
1.6793893129770991,0.7480916030534351,-1.1755725190839694,-0.118408203125,0.02294921875,-0.58203125,0.42669999999999997
1.6488549618320612,0.7480916030534351,-1.3740458015267176,-0.112548828125,0.024658203125,-0.583740234375,0.4284
1.7251908396946565,0.8396946564885496,-1.2213740458015268,-0.11279296875,0.0205078125,-0.58447265625,0.4301
2.1374045801526718,0.7175572519083969,-1.1450381679389312,-0.1162109375,0.02294921875,-0.588623046875,0.43179999999999996
2.213740458015267,0.7938931297709924,-1.3740458015267176,-0.11181640625,0.028564453125,-0.5771484375,0.4335
2.213740458015267,0.8396946564885496,-1.4809160305343512,-0.111572265625,0.0234375,-0.587158203125,0.4352
2.2290076335877864,0.8396946564885496,-1.2213740458015268,-0.11572265625,0.031494140625,-0.58642578125,0.43689999999999996
2.4732824427480917,0.9312977099236641,-1.1908396946564885,-0.117431640625,0.026123046875,-0.581298828125,0.4386
2.427480916030534,1.0381679389312977,-1.4198473282442747,-0.11328125,0.026611328125,-0.58984375,0.44029999999999997
2.183206106870229,0.916030534351145,-1.4961832061068703,-0.11279296875,0.0244140625,-0.58349609375,0.44199999999999995
2.3969465648854964,0.8549618320610687,-1.3435114503816794,-0.115478515625,0.0244140625,-0.585693359375,0.4437
2.3053435114503817,0.916030534351145,-1.2671755725190839,-0.11572265625,0.031494140625,-0.587158203125,0.44539999999999996
2.3206106870229006,1.083969465648855,-1.3587786259541985,-0.119140625,0.02490234375,-0.58447265625,0.4471
2.6106870229007635,0.8244274809160306,-1.3435114503816794,-0.111572265625,0.028564453125,-0.595947265625,0.4488
2.3969465648854964,0.7938931297709924,-1.4961832061068703,-0.11572265625,0.025390625,-0.5859375,0.45049999999999996
2.4885496183206106,0.9923664122137404,-1.4961832061068703,-0.11962890625,0.022705078125,-0.58349609375,0.4522
2.4732824427480917,0.9465648854961832,-1.450381679389313,-0.11279296875,0.025390625,-0.579833984375,0.45389999999999997
2.4427480916030535,1.0381679389312977,-1.2061068702290076,-0.11328125,0.023193359375,-0.5908203125,0.45559999999999995
2.4122137404580153,1.0687022900763359,-1.2061068702290076,-0.116943359375,0.025146484375,-0.59228515625,0.4573
2.50381679389313,1.099236641221374,-1.1450381679389312,-0.11279296875,0.0302734375,-0.58984375,0.45899999999999996
2.3053435114503817,1.1450381679389312,-1.5267175572519085,-0.114501953125,0.02294921875,-0.588134765625,0.4607
2.381679389312977,1.099236641221374,-1.282442748091603,-0.113037109375,0.026611328125,-0.58349609375,0.4624
1.8778625954198473,1.282442748091603,-1.3893129770992367,-0.1162109375,0.0234375,-0.58349609375,0.46409999999999996
2.0,1.2061068702290076,-1.1908396946564885,-0.118408203125,0.025146484375,-0.587890625,0.4658
2.2748091603053435,1.5419847328244274,-1.1755725190839694,-0.120361328125,0.023681640625,-0.584228515625,0.46749999999999997
1.9389312977099236,1.5267175572519085,-1.0687022900763359,-0.121826171875,0.027099609375,-0.58740234375,0.46919999999999995
1.984732824427481,1.1908396946564885,-1.1297709923664123,-0.1181640625,0.02392578125,-0.597412109375,0.4709
1.9694656488549618,1.2366412213740459,-1.251908396946565,-0.114501953125,0.023681640625,-0.58837890625,0.47259999999999996
2.045801526717557,1.099236641221374,-1.3129770992366412,-0.116455078125,0.020751953125,-0.586669921875,0.4743
1.9083969465648856,1.465648854961832,-1.2213740458015268,-0.1142578125,0.026611328125,-0.578125,0.476
1.8931297709923665,1.4198473282442747,-1.2671755725190839,-0.114501953125,0.02197265625,-0.586181640625,0.47769999999999996
1.8015267175572518,1.3435114503816794,-1.2213740458015268,-0.114501953125,0.0234375,-0.5888671875,0.4794
1.633587786259542,1.3435114503816794,-1.1908396946564885,-0.1142578125,0.02880859375,-0.583984375,0.48109999999999997
1.5725190839694656,1.3435114503816794,-1.4045801526717556,-0.118896484375,0.027587890625,-0.592529296875,0.48279999999999995
1.4351145038167938,1.2061068702290076,-1.297709923664122,-0.11572265625,0.027099609375,-0.583251953125,0.4845
1.1908396946564885,1.2366412213740459,-1.4045801526717556,-0.114013671875,0.0263671875,-0.581787109375,0.48619999999999997
1.3282442748091603,1.099236641221374,-1.450381679389313,-0.11572265625,0.02587890625,-0.585693359375,0.4879
1.1450381679389312,0.9923664122137404,-1.7251908396946565,-0.114990234375,0.02587890625,-0.57861328125,0.4896
0.8549618320610687,1.0229007633587786,-1.5419847328244274,-0.111328125,0.0244140625,-0.58447265625,0.49129999999999996
0.9923664122137404,1.0229007633587786,-1.5419847328244274,-0.1201171875,0.02783203125,-0.593505859375,0.493
0.9007633587786259,1.1145038167938932,-1.465648854961832,-0.115478515625,0.02490234375,-0.58349609375,0.4947
0.9312977099236641,1.0076335877862594,-1.3893129770992367,-0.109619140625,0.027099609375,-0.587646484375,0.49639999999999995
0.8702290076335878,1.1755725190839694,-1.7099236641221374,-0.114990234375,0.02978515625,-0.585693359375,0.4981
0.8396946564885496,1.1603053435114503,-1.786259541984733,-0.113037109375,0.027587890625,-0.58349609375,0.49979999999999997
0.8854961832061069,1.2213740458015268,-1.7251908396946565,-0.114990234375,0.029052734375,-0.588623046875,0.5015
1.099236641221374,1.1450381679389312,-1.816793893129771,-0.114990234375,0.033447265625,-0.58642578125,0.5032
0.732824427480916,1.0534351145038168,-1.4809160305343512,-0.11279296875,0.02734375,-0.586181640625,0.5049
1.099236641221374,1.450381679389313,-1.6488549618320612,-0.11474609375,0.021728515625,-0.587890625,0.5065999999999999
1.0229007633587786,1.4198473282442747,-1.4961832061068703,-0.11767578125,0.027587890625,-0.58447265625,0.5083
0.9007633587786259,1.1755725190839694,-1.633587786259542,-0.116455078125,0.0244140625,-0.591064453125,0.51
1.1145038167938932,1.1908396946564885,-1.5572519083969465,-0.11474609375,0.031982421875,-0.59033203125,0.5116999999999999
0.8702290076335878,1.3129770992366412,-1.7404580152671756,-0.114990234375,0.029296875,-0.5908203125,0.5134
1.099236641221374,1.3282442748091603,-1.8015267175572518,-0.111083984375,0.03076171875,-0.5859375,0.5151
0.916030534351145,1.4351145038167938,-1.6488549618320612,-0.11669921875,0.029541015625,-0.578369140625,0.5167999999999999
1.0229007633587786,1.2366412213740459,-1.6793893129770991,-0.114013671875,0.025390625,-0.590576171875,0.5185
1.0687022900763359,1.099236641221374,-1.6488549618320612,-0.11572265625,0.02783203125,-0.580810546875,0.5202
0.9618320610687023,1.2366412213740459,-1.633587786259542,-0.111572265625,0.02978515625,-0.5908203125,0.5218999999999999
1.3740458015267176,1.2061068702290076,-1.786259541984733,-0.114990234375,0.029052734375,-0.588134765625,0.5236
1.3893129770992367,1.2671755725190839,-1.786259541984733,-0.112060546875,0.029296875,-0.590576171875,0.5253
1.450381679389313,1.297709923664122,-1.984732824427481,-0.119140625,0.033203125,-0.5859375,0.527
1.5114503816793894,1.3435114503816794,-1.6488549618320612,-0.114013671875,0.027099609375,-0.58203125,0.5287
1.6946564885496183,1.3282442748091603,-1.7099236641221374,-0.113525390625,0.028076171875,-0.5849609375,0.5304
1.7709923664122138,1.3740458015267176,-1.7404580152671756,-0.11181640625,0.0283203125,-0.58447265625,0.5321
1.8473282442748091,1.4351145038167938,-1.7709923664122138,-0.11474609375,0.032958984375,-0.580322265625,0.5337999999999999
2.030534351145038,1.7099236641221374,-1.5572519083969465,-0.11328125,0.0283203125,-0.5888671875,0.5355
2.2442748091603053,1.4809160305343512,-1.5725190839694656,-0.110107421875,0.027587890625,-0.5908203125,0.5372
2.0,1.5419847328244274,-1.5572519083969465,-0.112060546875,0.030517578125,-0.579833984375,0.5388999999999999
2.1526717557251906,1.7557251908396947,-1.3893129770992367,-0.112548828125,0.024658203125,-0.576904296875,0.5406
2.2290076335877864,1.4809160305343512,-1.2213740458015268,-0.112060546875,0.0205078125,-0.5810546875,0.5423
2.1374045801526718,1.7099236641221374,-1.5267175572519085,-0.11572265625,0.035400390625,-0.58642578125,0.5439999999999999
2.16793893129771,1.6488549618320612,-1.4045801526717556,-0.113037109375,0.031494140625,-0.592041015625,0.5457
2.198473282442748,1.6030534351145038,-1.297709923664122,-0.111083984375,0.031982421875,-0.5869140625,0.5474
2.1526717557251906,1.4198473282442747,-1.2061068702290076,-0.1142578125,0.031982421875,-0.584228515625,0.5490999999999999
2.2595419847328246,1.633587786259542,-1.1755725190839694,-0.11181640625,0.026611328125,-0.587890625,0.5508
1.9694656488549618,1.450381679389313,-0.9923664122137404,-0.1142578125,0.029541015625,-0.586669921875,0.5525
2.2900763358778624,1.4198473282442747,-1.282442748091603,-0.111572265625,0.0283203125,-0.581298828125,0.5541999999999999
2.1374045801526718,1.5267175572519085,-1.1603053435114503,-0.11083984375,0.0341796875,-0.57958984375,0.5559
2.0763358778625953,1.465648854961832,-1.1603053435114503,-0.115478515625,0.031005859375,-0.581787109375,0.5576
1.8625954198473282,1.7404580152671756,-1.099236641221374,-0.115966796875,0.033447265625,-0.589111328125,0.5593
1.8473282442748091,1.7557251908396947,-1.3129770992366412,-0.115966796875,0.029052734375,-0.595703125,0.5609999999999999
1.6946564885496183,1.5725190839694656,-1.1908396946564885,-0.11181640625,0.028076171875,-0.5859375,0.5627
1.8778625954198473,1.5725190839694656,-1.0534351145038168,-0.108642578125,0.029296875,-0.578125,0.5644
1.5725190839694656,1.6641221374045803,-1.083969465648855,-0.11572265625,0.031005859375,-0.59619140625,0.5660999999999999
1.6488549618320612,1.6641221374045803,-1.1297709923664123,-0.11865234375,0.030029296875,-0.58203125,0.5678
1.7709923664122138,1.4351145038167938,-0.9770992366412213,-0.107177734375,0.03173828125,-0.583740234375,0.5695
1.7099236641221374,1.5419847328244274,-1.0076335877862594,-0.112060546875,0.026611328125,-0.586181640625,0.5711999999999999
1.618320610687023,1.5725190839694656,-1.083969465648855,-0.11181640625,0.02783203125,-0.588623046875,0.5729
1.7557251908396947,1.4961832061068703,-1.0534351145038168,-0.11328125,0.031005859375,-0.592529296875,0.5746
1.6488549618320612,1.5267175572519085,-1.0229007633587786,-0.112548828125,0.02783203125,-0.586669921875,0.5762999999999999
1.8015267175572518,1.5267175572519085,-1.1450381679389312,-0.111328125,0.031494140625,-0.58642578125,0.578
1.633587786259542,1.3129770992366412,-0.9465648854961832,-0.1142578125,0.029541015625,-0.58935546875,0.5797
1.282442748091603,1.3435114503816794,-0.9923664122137404,-0.1103515625,0.03076171875,-0.5908203125,0.5813999999999999
1.5725190839694656,1.5267175572519085,-0.8244274809160306,-0.11279296875,0.02734375,-0.59033203125,0.5831
1.4045801526717556,1.465648854961832,-0.8854961832061069,-0.112548828125,0.032958984375,-0.580322265625,0.5848
1.3740458015267176,1.450381679389313,-0.8244274809160306,-0.110595703125,0.034423828125,-0.582275390625,0.5865
0.9770992366412213,1.3129770992366412,-0.8396946564885496,-0.11474609375,0.03076171875,-0.591064453125,0.5882
1.0381679389312977,1.2061068702290076,-0.4732824427480916,-0.117431640625,0.031494140625,-0.592041015625,0.5899
1.1450381679389312,1.251908396946565,-0.7786259541984732,-0.118896484375,0.03173828125,-0.587158203125,0.5916
1.1603053435114503,1.282442748091603,-0.7022900763358778,-0.111083984375,0.024658203125,-0.58642578125,0.5932999999999999
0.8702290076335878,1.3893129770992367,-0.4732824427480916,-0.114013671875,0.03125,-0.579833984375,0.595
1.2061068702290076,1.2366412213740459,-0.3969465648854962,-0.110595703125,0.026611328125,-0.58642578125,0.5967
0.9618320610687023,1.2366412213740459,-0.549618320610687,-0.10595703125,0.0283203125,-0.58349609375,0.5983999999999999
0.916030534351145,1.3435114503816794,-0.4732824427480916,-0.12060546875,0.028076171875,-0.580322265625,0.6001
1.2213740458015268,1.3740458015267176,-0.7175572519083969,-0.11962890625,0.025390625,-0.59130859375,0.6018
1.1297709923664123,1.3129770992366412,-0.5648854961832062,-0.118896484375,0.029296875,-0.590576171875,0.6034999999999999
1.099236641221374,1.465648854961832,-0.7175572519083969,-0.11669921875,0.029052734375,-0.5849609375,0.6052
1.0687022900763359,1.7099236641221374,-0.5190839694656488,-0.114990234375,0.022705078125,-0.581298828125,0.6069
0.9923664122137404,1.6641221374045803,-0.5343511450381679,-0.1162109375,0.029052734375,-0.582275390625,0.6085999999999999
0.9923664122137404,1.8625954198473282,-0.8702290076335878,-0.118408203125,0.027099609375,-0.5830078125,0.6103
1.1603053435114503,1.8931297709923665,-0.7786259541984732,-0.116943359375,0.027099609375,-0.593505859375,0.612
1.2366412213740459,1.6793893129770991,-0.6717557251908397,-0.114013671875,0.02587890625,-0.588134765625,0.6136999999999999
1.0687022900763359,1.8931297709923665,-0.8091603053435115,-0.11962890625,0.026611328125,-0.575927734375,0.6154
0.9618320610687023,1.9389312977099236,-0.9770992366412213,-0.119140625,0.0263671875,-0.58935546875,0.6171
1.0534351145038168,2.198473282442748,-1.0381679389312977,-0.114501953125,0.0283203125,-0.580810546875,0.6188
0.8702290076335878,2.183206106870229,-0.6717557251908397,-0.11962890625,0.02783203125,-0.5810546875,0.6204999999999999
0.9007633587786259,1.984732824427481,-0.732824427480916,-0.111328125,0.025390625,-0.5791015625,0.6222
0.8854961832061069,2.198473282442748,-0.7480916030534351,-0.113525390625,0.02490234375,-0.58837890625,0.6239
1.0687022900763359,2.3206106870229006,-0.7633587786259542,-0.108642578125,0.026123046875,-0.583740234375,0.6255999999999999
1.1450381679389312,2.2442748091603053,-0.8702290076335878,-0.110595703125,0.022216796875,-0.58642578125,0.6273
1.0076335877862594,2.1374045801526718,-0.7022900763358778,-0.110595703125,0.02685546875,-0.583251953125,0.629
1.2213740458015268,2.0610687022900764,-0.5801526717557252,-0.112548828125,0.025146484375,-0.586181640625,0.6306999999999999
1.0687022900763359,2.3053435114503817,-0.9923664122137404,-0.11279296875,0.025390625,-0.581787109375,0.6324
1.3282442748091603,2.045801526717557,-0.9770992366412213,-0.10791015625,0.027587890625,-0.584716796875,0.6341
1.0687022900763359,2.0,-0.8091603053435115,-0.10791015625,0.024169921875,-0.5859375,0.6357999999999999
0.9007633587786259,1.6488549618320612,-0.6870229007633588,-0.106201171875,0.026123046875,-0.581787109375,0.6375
1.2366412213740459,1.6946564885496183,-0.8549618320610687,-0.110107421875,0.023681640625,-0.59326171875,0.6392
1.5419847328244274,1.5114503816793894,-0.7480916030534351,-0.1083984375,0.02294921875,-0.578857421875,0.6408999999999999
1.3129770992366412,1.2061068702290076,-0.8244274809160306,-0.10888671875,0.017333984375,-0.58154296875,0.6426
1.099236641221374,1.0534351145038168,-0.5190839694656488,-0.106689453125,0.023193359375,-0.585693359375,0.6443
1.6030534351145038,1.0076335877862594,-0.5954198473282443,-0.103271484375,0.0283203125,-0.587158203125,0.646
1.3282442748091603,0.6564885496183206,-0.7175572519083969,-0.104248046875,0.025634765625,-0.578369140625,0.6476999999999999
1.4045801526717556,0.732824427480916,-0.4732824427480916,-0.107666015625,0.028076171875,-0.581298828125,0.6494
1.4961832061068703,0.366412213740458,-0.549618320610687,-0.109130859375,0.02294921875,-0.58447265625,0.6511
1.786259541984733,0.183206106870229,-0.6870229007633588,-0.106689453125,0.024169921875,-0.58984375,0.6527999999999999
2.1526717557251906,0.15267175572519084,-0.4580152671755725,-0.102294921875,0.025634765625,-0.5830078125,0.6545
1.9236641221374047,-0.015267175572519083,-0.42748091603053434,-0.100830078125,0.027099609375,-0.588623046875,0.6562
1.8778625954198473,-0.030534351145038167,-0.3053435114503817,-0.1064453125,0.030029296875,-0.5927734375,0.6578999999999999
2.0610687022900764,0.04580152671755725,-0.48854961832061067,-0.108154296875,0.029296875,-0.58935546875,0.6596
2.1374045801526718,-0.13740458015267176,-0.4122137404580153,-0.114990234375,0.03369140625,-0.578369140625,0.6613
1.9083969465648856,-0.366412213740458,-0.6412213740458015,-0.11376953125,0.029296875,-0.577880859375,0.6629999999999999
1.9694656488549618,-0.32061068702290074,-0.5343511450381679,-0.115966796875,0.03271484375,-0.5791015625,0.6647
2.2290076335877864,-0.3816793893129771,-0.3969465648854962,-0.11181640625,0.032470703125,-0.588623046875,0.6664
1.9541984732824427,-0.2748091603053435,-0.4580152671755725,-0.112548828125,0.03076171875,-0.581787109375,0.6680999999999999
2.0,-0.061068702290076333,-0.44274809160305345,-0.11279296875,0.027099609375,-0.582275390625,0.6698
1.9541984732824427,-0.22900763358778625,-0.7022900763358778,-0.113037109375,0.02685546875,-0.58056640625,0.6715
2.045801526717557,-0.16793893129770993,-0.8854961832061069,-0.115966796875,0.032470703125,-0.58544921875,0.6731999999999999
1.984732824427481,-0.1984732824427481,-0.6717557251908397,-0.1171875,0.0302734375,-0.585205078125,0.6748999999999999
2.2442748091603053,-0.015267175572519083,-0.8244274809160306,-0.1171875,0.023681640625,-0.588134765625,0.6766
2.3053435114503817,0.030534351145038167,-0.9618320610687023,-0.115478515625,0.0263671875,-0.58837890625,0.6783
2.1068702290076335,0.1984732824427481,-0.916030534351145,-0.11865234375,0.026123046875,-0.587646484375,0.6799999999999999
2.2595419847328246,0.4580152671755725,-1.0229007633587786,-0.115966796875,0.026611328125,-0.591064453125,0.6817
2.4427480916030535,0.366412213740458,-0.9923664122137404,-0.116455078125,0.023193359375,-0.590576171875,0.6834
2.1374045801526718,0.6870229007633588,-0.916030534351145,-0.11669921875,0.022705078125,-0.579833984375,0.6850999999999999
1.7709923664122138,0.7175572519083969,-1.0229007633587786,-0.11962890625,0.023681640625,-0.586669921875,0.6868
1.83206106870229,0.6717557251908397,-1.1603053435114503,-0.1171875,0.0244140625,-0.5810546875,0.6885
1.7557251908396947,0.6564885496183206,-0.9618320610687023,-0.11181640625,0.024169921875,-0.581298828125,0.6901999999999999
1.5419847328244274,0.8396946564885496,-1.2366412213740459,-0.113525390625,0.02197265625,-0.589111328125,0.6919
1.3282442748091603,0.8244274809160306,-1.3129770992366412,-0.11474609375,0.025146484375,-0.5849609375,0.6936
1.3129770992366412,0.5190839694656488,-1.450381679389313,-0.115966796875,0.02197265625,-0.580810546875,0.6952999999999999
1.0534351145038168,0.42748091603053434,-1.3435114503816794,-0.110107421875,0.0205078125,-0.57958984375,0.697
1.1145038167938932,0.6412213740458015,-1.4961832061068703,-0.11328125,0.022705078125,-0.586181640625,0.6987
0.8702290076335878,0.5648854961832062,-1.5419847328244274,-0.113037109375,0.023681640625,-0.58935546875,0.7003999999999999
0.9618320610687023,0.5954198473282443,-1.633587786259542,-0.1103515625,0.016845703125,-0.580810546875,0.7021
0.8702290076335878,0.3969465648854962,-1.4045801526717556,-0.110107421875,0.019775390625,-0.587890625,0.7038
0.6564885496183206,0.33587786259541985,-1.5267175572519085,-0.112548828125,0.02587890625,-0.585693359375,0.7055
0.5801526717557252,0.549618320610687,-1.5572519083969465,-0.11279296875,0.024169921875,-0.583251953125,0.7071999999999999
0.6564885496183206,0.4122137404580153,-1.5725190839694656,-0.11279296875,0.023681640625,-0.58349609375,0.7089
0.32061068702290074,0.5190839694656488,-1.5419847328244274,-0.109130859375,0.026123046875,-0.591796875,0.7106
0.22900763358778625,0.6259541984732825,-1.4351145038167938,-0.10986328125,0.023681640625,-0.592529296875,0.7122999999999999
0.061068702290076333,0.44274809160305345,-1.3740458015267176,-0.112548828125,0.021240234375,-0.5810546875,0.714
0.015267175572519083,0.5954198473282443,-1.3740458015267176,-0.111328125,0.024169921875,-0.5810546875,0.7157
-0.015267175572519083,0.5648854961832062,-1.1755725190839694,-0.110595703125,0.02587890625,-0.579345703125,0.7173999999999999
-0.030534351145038167,0.732824427480916,-1.1145038167938932,-0.1123046875,0.027587890625,-0.583984375,0.7191
-0.32061068702290074,0.549618320610687,-1.0534351145038168,-0.11572265625,0.025634765625,-0.585205078125,0.7208
-0.2748091603053435,0.7786259541984732,-1.0076335877862594,-0.112548828125,0.02099609375,-0.58154296875,0.7224999999999999
-0.366412213740458,0.9007633587786259,-0.9465648854961832,-0.1162109375,0.021484375,-0.596435546875,0.7242
-0.061068702290076333,0.7786259541984732,-0.8244274809160306,-0.1171875,0.020263671875,-0.5908203125,0.7259
-0.07633587786259542,0.8549618320610687,-0.5343511450381679,-0.11279296875,0.0263671875,-0.586181640625,0.7275999999999999
-0.21374045801526717,1.083969465648855,-0.8854961832061069,-0.111572265625,0.020263671875,-0.58837890625,0.7293
-0.32061068702290074,1.1450381679389312,-0.9007633587786259,-0.1123046875,0.024169921875,-0.5888671875,0.731
-0.4122137404580153,1.2671755725190839,-0.6870229007633588,-0.1142578125,0.024169921875,-0.580322265625,0.7326999999999999
-0.04580152671755725,1.3740458015267176,-0.5801526717557252,-0.11328125,0.02490234375,-0.579833984375,0.7343999999999999
-0.2748091603053435,1.3282442748091603,-0.8396946564885496,-0.119384765625,0.0224609375,-0.58642578125,0.7361
-0.0916030534351145,1.5419847328244274,-0.9618320610687023,-0.120361328125,0.027587890625,-0.58349609375,0.7378
-0.5343511450381679,1.5572519083969465,-0.9923664122137404,-0.115234375,0.021728515625,-0.579833984375,0.7394999999999999
-0.21374045801526717,1.7557251908396947,-1.0229007633587786,-0.11474609375,0.0244140625,-0.590087890625,0.7412
-0.2900763358778626,1.7557251908396947,-1.0687022900763359,-0.116943359375,0.028076171875,-0.584228515625,0.7429
-0.5038167938931297,2.0916030534351147,-1.1908396946564885,-0.1181640625,0.0283203125,-0.577392578125,0.7445999999999999
-0.44274809160305345,2.2595419847328246,-1.5419847328244274,-0.117431640625,0.02685546875,-0.5830078125,0.7463
-0.32061068702290074,2.351145038167939,-1.2213740458015268,-0.11328125,0.027099609375,-0.579833984375,0.748
-0.13740458015267176,2.1068702290076335,-1.2671755725190839,-0.114501953125,0.028076171875,-0.5869140625,0.7496999999999999
-0.12213740458015267,2.351145038167939,-1.3435114503816794,-0.1162109375,0.025634765625,-0.580078125,0.7514
0.030534351145038167,2.3969465648854964,-1.4351145038167938,-0.1123046875,0.026123046875,-0.59423828125,0.7531
0.030534351145038167,2.351145038167939,-1.465648854961832,-0.1181640625,0.029052734375,-0.5908203125,0.7547999999999999
0.13740458015267176,2.381679389312977,-1.4961832061068703,-0.11083984375,0.026611328125,-0.5869140625,0.7565
0.12213740458015267,2.687022900763359,-1.4045801526717556,-0.111328125,0.0302734375,-0.589111328125,0.7582
0.4732824427480916,2.5801526717557253,-1.465648854961832,-0.1083984375,0.030517578125,-0.587890625,0.7598999999999999
0.42748091603053434,2.4427480916030535,-1.4045801526717556,-0.11279296875,0.033935546875,-0.593994140625,0.7615999999999999
0.5190839694656488,2.4122137404580153,-1.4045801526717556,-0.109375,0.033935546875,-0.583740234375,0.7633
0.732824427480916,2.549618320610687,-1.4198473282442747,-0.10546875,0.0361328125,-0.589599609375,0.7649999999999999
1.0534351145038168,2.4885496183206106,-1.4198473282442747,-0.112548828125,0.033447265625,-0.587890625,0.7666999999999999
1.0381679389312977,2.198473282442748,-1.1450381679389312,-0.11181640625,0.03369140625,-0.584716796875,0.7684
1.4198473282442747,2.3206106870229006,-1.4198473282442747,-0.11083984375,0.032958984375,-0.588134765625,0.7701
1.5725190839694656,2.381679389312977,-1.4045801526717556,-0.1103515625,0.034423828125,-0.57861328125,0.7717999999999999
1.6793893129770991,2.213740458015267,-1.5572519083969465,-0.110595703125,0.041015625,-0.57666015625,0.7735
1.8015267175572518,2.122137404580153,-1.5877862595419847,-0.114013671875,0.037353515625,-0.59423828125,0.7752
1.8931297709923665,1.9389312977099236,-1.6030534351145038,-0.109130859375,0.03564453125,-0.591796875,0.7768999999999999
2.2595419847328246,2.122137404580153,-1.251908396946565,-0.108642578125,0.03955078125,-0.580078125,0.7786
2.2595419847328246,2.122137404580153,-1.5114503816793894,-0.11572265625,0.035400390625,-0.588134765625,0.7803
2.549618320610687,2.030534351145038,-1.5877862595419847,-0.110595703125,0.036376953125,-0.58056640625,0.7819999999999999
2.6106870229007635,1.8473282442748091,-1.450381679389313,-0.108154296875,0.034912109375,-0.580810546875,0.7837
2.687022900763359,2.015267175572519,-1.4198473282442747,-0.109375,0.03369140625,-0.577392578125,0.7854
2.6106870229007635,1.9541984732824427,-1.4809160305343512,-0.110107421875,0.03466796875,-0.580322265625,0.7870999999999999
2.885496183206107,1.8778625954198473,-1.3282442748091603,-0.112548828125,0.03125,-0.587890625,0.7888
3.1755725190839694,1.6030534351145038,-1.6793893129770991,-0.11474609375,0.027099609375,-0.586181640625,0.7905
2.9770992366412212,1.7251908396946565,-1.4045801526717556,-0.1103515625,0.035888671875,-0.584716796875,0.7921999999999999
3.1603053435114505,1.7709923664122138,-1.5267175572519085,-0.10986328125,0.03759765625,-0.576904296875,0.7938999999999999
3.282442748091603,1.618320610687023,-1.5725190839694656,-0.110107421875,0.02978515625,-0.58056640625,0.7956
3.2977099236641223,1.816793893129771,-1.5419847328244274,-0.1201171875,0.027099609375,-0.581298828125,0.7973
3.0229007633587788,1.5725190839694656,-1.6793893129770991,-0.114501953125,0.02880859375,-0.581787109375,0.7989999999999999
3.2977099236641223,1.816793893129771,-1.9236641221374047,-0.1103515625,0.02734375,-0.593994140625,0.8007
3.1603053435114505,1.6946564885496183,-1.8931297709923665,-0.115478515625,0.023681640625,-0.5888671875,0.8024
2.931297709923664,1.786259541984733,-1.7404580152671756,-0.113037109375,0.027587890625,-0.5859375,0.8040999999999999
2.8091603053435112,1.786259541984733,-1.7251908396946565,-0.112548828125,0.025390625,-0.5859375,0.8058
2.595419847328244,1.83206106870229,-1.9541984732824427,-0.1181640625,0.031494140625,-0.59033203125,0.8075
2.6717557251908395,1.8015267175572518,-1.9389312977099236,-0.115478515625,0.029052734375,-0.585205078125,0.8091999999999999
2.427480916030534,1.8931297709923665,-1.9389312977099236,-0.112548828125,0.02978515625,-0.58447265625,0.8109
2.4427480916030535,1.9083969465648856,-1.786259541984733,-0.1142578125,0.0341796875,-0.59130859375,0.8126
2.0916030534351147,1.8473282442748091,-1.816793893129771,-0.114013671875,0.02490234375,-0.592041015625,0.8142999999999999
2.122137404580153,1.83206106870229,-1.6641221374045803,-0.1123046875,0.031494140625,-0.588134765625,0.816
1.7557251908396947,1.9389312977099236,-1.83206106870229,-0.115234375,0.02880859375,-0.58642578125,0.8177
1.8778625954198473,1.9694656488549618,-1.618320610687023,-0.114013671875,0.034423828125,-0.58544921875,0.8193999999999999
1.5572519083969465,1.9083969465648856,-1.618320610687023,-0.114990234375,0.0263671875,-0.58251953125,0.8210999999999999
1.4809160305343512,2.045801526717557,-1.5267175572519085,-0.111328125,0.0302734375,-0.5859375,0.8228
1.8778625954198473,2.198473282442748,-1.6641221374045803,-0.111083984375,0.021240234375,-0.583740234375,0.8244999999999999
1.4961832061068703,2.045801526717557,-1.5572519083969465,-0.11474609375,0.022216796875,-0.580810546875,0.8261999999999999
1.3740458015267176,2.045801526717557,-1.282442748091603,-0.11669921875,0.023681640625,-0.58154296875,0.8279
1.618320610687023,2.213740458015267,-1.251908396946565,-0.11181640625,0.028076171875,-0.587890625,0.8296
1.6793893129770991,2.1374045801526718,-1.3893129770992367,-0.115234375,0.023681640625,-0.591552734375,0.8312999999999999
1.3435114503816794,2.2595419847328246,-1.251908396946565,-0.11328125,0.025634765625,-0.585205078125,0.833
1.465648854961832,2.2442748091603053,-1.3740458015267176,-0.10986328125,0.028564453125,-0.592041015625,0.8347
1.465648854961832,2.16793893129771,-1.0076335877862594,-0.11328125,0.0244140625,-0.58837890625,0.8363999999999999
1.0076335877862594,2.2900763358778624,-1.1603053435114503,-0.11376953125,0.025390625,-0.593017578125,0.8381
0.8549618320610687,2.183206106870229,-1.2366412213740459,-0.111083984375,0.0244140625,-0.585693359375,0.8398
0.9465648854961832,2.33587786259542,-1.251908396946565,-0.11328125,0.0244140625,-0.584228515625,0.8414999999999999
1.0229007633587786,2.0916030534351147,-0.9923664122137404,-0.11572265625,0.021484375,-0.59228515625,0.8432
0.7938931297709924,2.198473282442748,-1.0534351145038168,-0.112060546875,0.02392578125,-0.58154296875,0.8449
0.6106870229007634,2.33587786259542,-1.0687022900763359,-0.10791015625,0.02490234375,-0.5849609375,0.8465999999999999
0.6259541984732825,2.3053435114503817,-0.9007633587786259,-0.11181640625,0.024658203125,-0.586669921875,0.8482999999999999
0.6106870229007634,1.984732824427481,-1.0076335877862594,-0.111572265625,0.021728515625,-0.589111328125,0.85
0.42748091603053434,2.045801526717557,-1.1450381679389312,-0.11279296875,0.02978515625,-0.58447265625,0.8516999999999999
0.3053435114503817,1.984732824427481,-1.0381679389312977,-0.10986328125,0.027587890625,-0.592041015625,0.8533999999999999
0.3511450381679389,1.9236641221374047,-0.8549618320610687,-0.113525390625,0.026611328125,-0.5888671875,0.8551
0.366412213740458,1.83206106870229,-0.8396946564885496,-0.110107421875,0.029052734375,-0.582275390625,0.8568
0.22900763358778625,1.9083969465648856,-1.0534351145038168,-0.114501953125,0.02880859375,-0.579345703125,0.8584999999999999
0.4732824427480916,1.6946564885496183,-0.9618320610687023,-0.115234375,0.0302734375,-0.582763671875,0.8602
0.24427480916030533,1.6488549618320612,-0.8244274809160306,-0.11328125,0.021484375,-0.581787109375,0.8619
-0.07633587786259542,1.8473282442748091,-0.9618320610687023,-0.115234375,0.031494140625,-0.58935546875,0.8635999999999999
0.16793893129770993,1.9694656488549618,-0.9923664122137404,-0.11376953125,0.03369140625,-0.58154296875,0.8653
0.15267175572519084,1.6488549618320612,-0.7022900763358778,-0.11181640625,0.028564453125,-0.5830078125,0.867
0.10687022900763359,1.5419847328244274,-0.8854961832061069,-0.11767578125,0.029296875,-0.580810546875,0.8686999999999999
0.1984732824427481,1.4351145038167938,-1.083969465648855,-0.112060546875,0.032958984375,-0.58203125,0.8704
0.12213740458015267,1.7099236641221374,-1.0076335877862594,-0.110107421875,0.0283203125,-0.580322265625,0.8721
0.366412213740458,1.5877862595419847,-1.0229007633587786,-0.111083984375,0.031005859375,-0.577880859375,0.8737999999999999
0.3511450381679389,1.2213740458015268,-0.9923664122137404,-0.11376953125,0.035888671875,-0.587158203125,0.8755
0.6564885496183206,1.282442748091603,-0.9465648854961832,-0.12109375,0.03173828125,-0.586669921875,0.8772
0.9465648854961832,1.1755725190839694,-0.8549618320610687,-0.108642578125,0.03173828125,-0.584716796875,0.8788999999999999
0.8549618320610687,1.3282442748091603,-0.916030534351145,-0.112060546875,0.032958984375,-0.581298828125,0.8805999999999999
1.0076335877862594,1.465648854961832,-1.1297709923664123,-0.10986328125,0.03271484375,-0.58154296875,0.8823
1.282442748091603,1.251908396946565,-1.3587786259541985,-0.108154296875,0.0390625,-0.58447265625,0.8839999999999999
1.4809160305343512,1.3129770992366412,-1.3893129770992367,-0.111328125,0.02880859375,-0.5859375,0.8856999999999999
1.7404580152671756,1.465648854961832,-1.1755725190839694,-0.1083984375,0.035888671875,-0.583251953125,0.8874
1.8015267175572518,1.297709923664122,-1.465648854961832,-0.115966796875,0.02880859375,-0.580810546875,0.8891
1.8473282442748091,1.3282442748091603,-1.3129770992366412,-0.111328125,0.034423828125,-0.58740234375,0.8907999999999999
1.8931297709923665,1.4198473282442747,-1.2213740458015268,-0.11279296875,0.036865234375,-0.583251953125,0.8925
2.015267175572519,1.1755725190839694,-1.3129770992366412,-0.113525390625,0.030029296875,-0.583740234375,0.8942
2.2290076335877864,1.3740458015267176,-1.465648854961832,-0.111328125,0.03564453125,-0.58935546875,0.8958999999999999
2.3053435114503817,1.2671755725190839,-1.3282442748091603,-0.11572265625,0.027099609375,-0.58203125,0.8976
2.0916030534351147,1.297709923664122,-1.1603053435114503,-0.116455078125,0.025634765625,-0.58642578125,0.8993
2.3206106870229006,1.1603053435114503,-1.3435114503816794,-0.1142578125,0.031494140625,-0.587890625,0.9009999999999999
2.351145038167939,0.9923664122137404,-1.297709923664122,-0.111328125,0.02978515625,-0.57275390625,0.9027
2.3969465648854964,1.1145038167938932,-0.9770992366412213,-0.1103515625,0.029052734375,-0.587890625,0.9044
2.595419847328244,1.1145038167938932,-1.1145038167938932,-0.110107421875,0.0244140625,-0.586669921875,0.9060999999999999
2.381679389312977,0.8854961832061069,-1.1908396946564885,-0.109130859375,0.027587890625,-0.5888671875,0.9077999999999999
2.33587786259542,1.0381679389312977,-1.1603053435114503,-0.11083984375,0.02734375,-0.587158203125,0.9095
2.122137404580153,0.9465648854961832,-1.0076335877862594,-0.114990234375,0.026611328125,-0.5869140625,0.9111999999999999
2.2595419847328246,0.7633587786259542,-1.1755725190839694,-0.10986328125,0.027099609375,-0.5859375,0.9128999999999999
2.4122137404580153,0.8396946564885496,-1.0687022900763359,-0.113037109375,0.028564453125,-0.575439453125,0.9146
2.183206106870229,0.7938931297709924,-0.9618320610687023,-0.115478515625,0.02587890625,-0.5732421875,0.9163
2.015267175572519,0.6106870229007634,-1.099236641221374,-0.114990234375,0.025146484375,-0.58740234375,0.9179999999999999
2.0916030534351147,0.7175572519083969,-1.1450381679389312,-0.111083984375,0.02880859375,-0.580810546875,0.9197
2.213740458015267,0.6870229007633588,-1.083969465648855,-0.115966796875,0.030029296875,-0.574951171875,0.9214
2.030534351145038,0.7633587786259542,-1.1603053435114503,-0.11474609375,0.028076171875,-0.58251953125,0.9230999999999999
2.0,0.732824427480916,-1.297709923664122,-0.11474609375,0.02099609375,-0.57666015625,0.9248
1.9083969465648856,0.9770992366412213,-1.0534351145038168,-0.116455078125,0.029052734375,-0.580810546875,0.9265
1.7557251908396947,0.9007633587786259,-1.3435114503816794,-0.115234375,0.02490234375,-0.5830078125,0.9281999999999999
1.7099236641221374,0.9312977099236641,-1.2213740458015268,-0.112548828125,0.0263671875,-0.587646484375,0.9299
1.4961832061068703,1.2061068702290076,-1.1450381679389312,-0.113525390625,0.022705078125,-0.583984375,0.9316
1.3282442748091603,1.2213740458015268,-1.0229007633587786,-0.1162109375,0.027587890625,-0.58154296875,0.9332999999999999
1.450381679389313,1.3893129770992367,-1.2213740458015268,-0.11474609375,0.03076171875,-0.580810546875,0.9349999999999999
1.3740458015267176,1.3587786259541985,-1.3435114503816794,-0.115966796875,0.0302734375,-0.590576171875,0.9367
1.0534351145038168,1.633587786259542,-1.1603053435114503,-0.11181640625,0.028076171875,-0.585205078125,0.9383999999999999
1.1603053435114503,1.5877862595419847,-1.1450381679389312,-0.115478515625,0.029296875,-0.599609375,0.9400999999999999
1.1145038167938932,1.7404580152671756,-1.282442748091603,-0.11572265625,0.025634765625,-0.5849609375,0.9418
0.8396946564885496,1.786259541984733,-1.0381679389312977,-0.115478515625,0.028564453125,-0.589111328125,0.9434999999999999
0.7480916030534351,1.83206106870229,-1.0076335877862594,-0.118408203125,0.025634765625,-0.579833984375,0.9451999999999999
0.732824427480916,1.8625954198473282,-1.099236641221374,-0.11962890625,0.027587890625,-0.594482421875,0.9469
0.7938931297709924,1.9236641221374047,-1.2366412213740459,-0.113037109375,0.02734375,-0.58544921875,0.9486
0.6412213740458015,1.8473282442748091,-1.1603053435114503,-0.1142578125,0.025634765625,-0.5888671875,0.9502999999999999
0.2748091603053435,1.9694656488549618,-1.282442748091603,-0.11279296875,0.027099609375,-0.584716796875,0.952
0.366412213740458,1.9236641221374047,-1.0229007633587786,-0.116943359375,0.032958984375,-0.588623046875,0.9537
0.3511450381679389,1.8015267175572518,-0.8854961832061069,-0.11474609375,0.029296875,-0.580322265625,0.9553999999999999
0.3816793893129771,1.7557251908396947,-0.8244274809160306,-0.113525390625,0.0302734375,-0.580078125,0.9571
0.15267175572519084,1.618320610687023,-0.9312977099236641,-0.114013671875,0.032958984375,-0.586181640625,0.9588
0.12213740458015267,1.8015267175572518,-1.0076335877862594,-0.115966796875,0.0263671875,-0.586181640625,0.9604999999999999
0.5038167938931297,1.786259541984733,-0.9923664122137404,-0.11767578125,0.029296875,-0.5869140625,0.9621999999999999
0.4122137404580153,1.5419847328244274,-0.9465648854961832,-0.111083984375,0.033447265625,-0.586669921875,0.9639
0.24427480916030533,1.4809160305343512,-0.9007633587786259,-0.11474609375,0.033203125,-0.587890625,0.9655999999999999
0.7786259541984732,1.450381679389313,-1.1145038167938932,-0.10986328125,0.03125,-0.585205078125,0.9672999999999999
0.8244274809160306,1.2213740458015268,-1.2061068702290076,-0.11279296875,0.031982421875,-0.58447265625,0.969
0.7633587786259542,1.2061068702290076,-0.916030534351145,-0.114013671875,0.032958984375,-0.585205078125,0.9706999999999999
1.1145038167938932,1.1755725190839694,-1.0229007633587786,-0.11376953125,0.031005859375,-0.580322265625,0.9723999999999999
1.0229007633587786,1.1145038167938932,-0.9923664122137404,-0.10986328125,0.02978515625,-0.588134765625,0.9741
1.0534351145038168,1.0534351145038168,-0.9312977099236641,-0.11181640625,0.03369140625,-0.591064453125,0.9758
1.1908396946564885,1.1908396946564885,-1.0076335877862594,-0.10888671875,0.030029296875,-0.5869140625,0.9774999999999999
1.0534351145038168,1.083969465648855,-1.0229007633587786,-0.10986328125,0.031494140625,-0.587890625,0.9792
1.2366412213740459,1.0687022900763359,-0.9923664122137404,-0.1171875,0.0302734375,-0.582763671875,0.9809
1.4198473282442747,1.1297709923664123,-1.1908396946564885,-0.116455078125,0.031005859375,-0.588134765625,0.9825999999999999
1.251908396946565,1.2061068702290076,-0.8396946564885496,-0.114501953125,0.028564453125,-0.584716796875,0.9843
1.450381679389313,1.1755725190839694,-0.916030534351145,-0.1142578125,0.031982421875,-0.578125,0.986
1.4198473282442747,1.297709923664122,-0.8549618320610687,-0.1201171875,0.03662109375,-0.5859375,0.9876999999999999
1.1145038167938932,1.1450381679389312,-0.7786259541984732,-0.115478515625,0.035400390625,-0.583984375,0.9894
1.4045801526717556,1.297709923664122,-0.8549618320610687,-0.1171875,0.03125,-0.583984375,0.9911
1.5419847328244274,1.282442748091603,-0.9465648854961832,-0.114501953125,0.030517578125,-0.5732421875,0.9927999999999999
1.5877862595419847,1.251908396946565,-0.9007633587786259,-0.1171875,0.028564453125,-0.58447265625,0.9944999999999999
1.5419847328244274,1.297709923664122,-0.9007633587786259,-0.112548828125,0.0341796875,-0.592041015625,0.9962
1.4045801526717556,1.3282442748091603,-0.8854961832061069,-0.1171875,0.028564453125,-0.585205078125,0.9978999999999999
1.3587786259541985,1.4045801526717556,-0.9770992366412213,-0.116943359375,0.02783203125,-0.5810546875,0.9995999999999999
1.2366412213740459,1.7251908396946565,-0.8702290076335878,-0.114990234375,0.031982421875,-0.586669921875,1.0012999999999999
1.2061068702290076,1.7251908396946565,-1.0381679389312977,-0.119140625,0.0302734375,-0.57470703125,1.003
1.450381679389313,1.5114503816793894,-0.7022900763358778,-0.111572265625,0.027587890625,-0.582275390625,1.0047
1.3740458015267176,1.7709923664122138,-0.8091603053435115,-0.11865234375,0.031982421875,-0.583740234375,1.0064
1.282442748091603,1.8015267175572518,-0.9465648854961832,-0.11474609375,0.027099609375,-0.58251953125,1.0081
1.2061068702290076,1.7099236641221374,-1.2061068702290076,-0.1142578125,0.024658203125,-0.57470703125,1.0098
1.282442748091603,1.5572519083969465,-0.9923664122137404,-0.115966796875,0.0205078125,-0.571044921875,1.0114999999999998
1.3893129770992367,1.5572519083969465,-0.9312977099236641,-0.113037109375,0.0244140625,-0.58642578125,1.0131999999999999
1.6946564885496183,1.4351145038167938,-0.8854961832061069,-0.118896484375,0.029541015625,-0.57470703125,1.0149
1.4351145038167938,1.450381679389313,-1.099236641221374,-0.117431640625,0.02880859375,-0.58349609375,1.0166
1.9083969465648856,1.282442748091603,-0.8549618320610687,-0.112060546875,0.031494140625,-0.576904296875,1.0183
1.8473282442748091,1.282442748091603,-1.0076335877862594,-0.111572265625,0.029052734375,-0.582275390625,1.02
1.8931297709923665,1.2366412213740459,-0.9770992366412213,-0.113525390625,0.0263671875,-0.579833984375,1.0217
1.6946564885496183,1.297709923664122,-0.8702290076335878,-0.113525390625,0.027587890625,-0.577880859375,1.0233999999999999
1.7099236641221374,1.251908396946565,-0.8549618320610687,-0.11376953125,0.0234375,-0.58837890625,1.0251
2.0,1.2213740458015268,-0.8091603053435115,-0.11767578125,0.023681640625,-0.58251953125,1.0268
1.9389312977099236,1.297709923664122,-1.0687022900763359,-0.123046875,0.02490234375,-0.5849609375,1.0285
1.786259541984733,1.450381679389313,-1.083969465648855,-0.10986328125,0.023681640625,-0.584716796875,1.0302
1.8778625954198473,1.465648854961832,-0.916030534351145,-0.113525390625,0.0302734375,-0.580078125,1.0319
1.5725190839694656,1.4351145038167938,-1.0229007633587786,-0.115966796875,0.028076171875,-0.589111328125,1.0335999999999999
1.816793893129771,1.4351145038167938,-0.7938931297709924,-0.114013671875,0.030517578125,-0.58544921875,1.0352999999999999
1.7099236641221374,1.465648854961832,-0.9770992366412213,-0.106689453125,0.0302734375,-0.5888671875,1.037
1.6488549618320612,1.4809160305343512,-0.8549618320610687,-0.1142578125,0.03076171875,-0.583251953125,1.0387
1.6030534351145038,1.4961832061068703,-0.8702290076335878,-0.11181640625,0.034423828125,-0.58349609375,1.0404
1.3893129770992367,1.6641221374045803,-0.7175572519083969,-0.109375,0.030517578125,-0.5859375,1.0421
1.5267175572519085,1.4351145038167938,-0.9465648854961832,-0.106689453125,0.02783203125,-0.591796875,1.0437999999999998
1.450381679389313,1.450381679389313,-0.7480916030534351,-0.113525390625,0.027099609375,-0.58447265625,1.0454999999999999
1.3587786259541985,1.5114503816793894,-0.6717557251908397,-0.1123046875,0.02978515625,-0.5830078125,1.0472
1.1145038167938932,1.5572519083969465,-0.5648854961832062,-0.115234375,0.027099609375,-0.586181640625,1.0489
1.5725190839694656,1.618320610687023,-0.7022900763358778,-0.11181640625,0.027099609375,-0.58837890625,1.0506
1.3282442748091603,1.6030534351145038,-0.6259541984732825,-0.115478515625,0.02880859375,-0.583740234375,1.0523
1.4961832061068703,1.4351145038167938,-0.6259541984732825,-0.11376953125,0.024169921875,-0.580322265625,1.054
1.1603053435114503,1.5419847328244274,-0.3969465648854962,-0.11474609375,0.031005859375,-0.592041015625,1.0556999999999999
1.251908396946565,1.6641221374045803,-0.4122137404580153,-0.109130859375,0.027099609375,-0.59228515625,1.0574
1.3587786259541985,1.7557251908396947,-0.5343511450381679,-0.10986328125,0.02978515625,-0.5859375,1.0591
1.282442748091603,1.6488549618320612,-0.6412213740458015,-0.109130859375,0.027099609375,-0.580078125,1.0608
1.2671755725190839,1.5572519083969465,-0.42748091603053434,-0.11083984375,0.02734375,-0.5810546875,1.0625
1.297709923664122,1.4961832061068703,-0.44274809160305345,-0.10986328125,0.02685546875,-0.583984375,1.0642
1.3282442748091603,1.6488549618320612,-0.5648854961832062,-0.11083984375,0.031005859375,-0.584716796875,1.0658999999999998
1.282442748091603,1.465648854961832,-0.6717557251908397,-0.110595703125,0.028564453125,-0.59130859375,1.0675999999999999
1.2671755725190839,1.6488549618320612,-0.5801526717557252,-0.111328125,0.03125,-0.588623046875,1.0693
1.297709923664122,1.7404580152671756,-0.7633587786259542,-0.11181640625,0.027587890625,-0.586181640625,1.071
1.1145038167938932,1.6030534351145038,-0.7175572519083969,-0.109375,0.026123046875,-0.591796875,1.0727
1.083969465648855,1.633587786259542,-0.6870229007633588,-0.10791015625,0.027587890625,-0.590087890625,1.0744
1.083969465648855,1.7251908396946565,-0.6106870229007634,-0.11376953125,0.02685546875,-0.570068359375,1.0760999999999998
1.3129770992366412,1.6030534351145038,-0.7175572519083969,-0.109375,0.032958984375,-0.573974609375,1.0777999999999999
1.1908396946564885,1.5572519083969465,-0.5648854961832062,-0.110107421875,0.02880859375,-0.584716796875,1.0795
1.1450381679389312,1.8015267175572518,-0.5801526717557252,-0.10888671875,0.029052734375,-0.590087890625,1.0812
1.2366412213740459,1.618320610687023,-0.6717557251908397,-0.108154296875,0.029296875,-0.586181640625,1.0829
1.3129770992366412,1.7404580152671756,-0.48854961832061067,-0.107421875,0.03173828125,-0.580322265625,1.0846
1.0381679389312977,1.4961832061068703,-0.366412213740458,-0.107421875,0.027587890625,-0.585693359375,1.0863
1.2213740458015268,1.786259541984733,-0.5954198473282443,-0.109619140625,0.0322265625,-0.57177734375,1.0879999999999999
1.1603053435114503,1.6488549618320612,-0.5190839694656488,-0.108642578125,0.026611328125,-0.58154296875,1.0897
0.9618320610687023,1.8473282442748091,-0.42748091603053434,-0.105224609375,0.028076171875,-0.5947265625,1.0914
1.099236641221374,1.6793893129770991,-0.3969465648854962,-0.1123046875,0.031005859375,-0.587890625,1.0931
1.1755725190839694,1.984732824427481,-0.5801526717557252,-0.114501953125,0.025390625,-0.58544921875,1.0948
1.2366412213740459,1.9694656488549618,-0.3969465648854962,-0.10888671875,0.031982421875,-0.57373046875,1.0965
1.3282442748091603,1.7709923664122138,-0.21374045801526717,-0.11474609375,0.028564453125,-0.5908203125,1.0981999999999998
1.5877862595419847,1.7251908396946565,-0.12213740458015267,-0.11328125,0.02734375,-0.587890625,1.0998999999999999
1.0534351145038168,1.8015267175572518,-0.13740458015267176,-0.110595703125,0.02978515625,-0.58447265625,1.1016
1.4351145038167938,1.7709923664122138,-0.13740458015267176,-0.108154296875,0.029541015625,-0.583251953125,1.1033
1.3893129770992367,1.6793893129770991,-0.366412213740458,-0.107177734375,0.028076171875,-0.5947265625,1.105
1.4045801526717556,1.5725190839694656,-0.3053435114503817,-0.111328125,0.029052734375,-0.58837890625,1.1067
1.633587786259542,1.4809160305343512,-0.5343511450381679,-0.107421875,0.024169921875,-0.582275390625,1.1083999999999998
1.83206106870229,1.450381679389313,-0.33587786259541985,-0.109375,0.030029296875,-0.589111328125,1.1100999999999999
1.83206106870229,1.2671755725190839,-0.366412213740458,-0.11083984375,0.031982421875,-0.58154296875,1.1118
1.618320610687023,1.2213740458015268,-0.3053435114503817,-0.11083984375,0.03271484375,-0.583740234375,1.1135
1.4961832061068703,0.9770992366412213,-0.44274809160305345,-0.106201171875,0.033447265625,-0.5869140625,1.1152
1.282442748091603,0.9770992366412213,-0.7022900763358778,-0.109130859375,0.0361328125,-0.5830078125,1.1169
1.3435114503816794,0.916030534351145,-0.6412213740458015,-0.1083984375,0.03173828125,-0.58740234375,1.1186
1.099236641221374,0.916030534351145,-0.5343511450381679,-0.112548828125,0.02880859375,-0.588134765625,1.1202999999999999
0.7786259541984732,0.9770992366412213,-0.6412213740458015,-0.110595703125,0.031494140625,-0.58349609375,1.1219999999999999
1.3435114503816794,0.8244274809160306,-0.5038167938931297,-0.10546875,0.028564453125,-0.589111328125,1.1237
1.5114503816793894,0.8091603053435115,-0.6259541984732825,-0.113525390625,0.03271484375,-0.58544921875,1.1254
1.1450381679389312,0.8244274809160306,-0.732824427480916,-0.115478515625,0.031982421875,-0.58203125,1.1271
1.3129770992366412,0.8244274809160306,-0.549618320610687,-0.110107421875,0.033447265625,-0.582275390625,1.1288
1.6946564885496183,0.7938931297709924,-0.5190839694656488,-0.11572265625,0.031005859375,-0.5869140625,1.1304999999999998
1.7099236641221374,0.7480916030534351,-0.5954198473282443,-0.11279296875,0.02783203125,-0.5771484375,1.1321999999999999
1.7404580152671756,0.9007633587786259,-0.5038167938931297,-0.114501953125,0.032958984375,-0.581787109375,1.1339
2.045801526717557,0.8244274809160306,-0.6412213740458015,-0.115234375,0.027587890625,-0.589599609375,1.1356
2.0763358778625953,0.8396946564885496,-0.549618320610687,-0.109619140625,0.02978515625,-0.583251953125,1.1373
2.427480916030534,0.9618320610687023,-0.5343511450381679,-0.109130859375,0.034912109375,-0.58447265625,1.139
2.3053435114503817,0.916030534351145,-0.7480916030534351,-0.116455078125,0.026611328125,-0.584716796875,1.1407
2.2595419847328246,1.1297709923664123,-0.7175572519083969,-0.1103515625,0.036376953125,-0.587890625,1.1423999999999999
2.198473282442748,0.8091603053435115,-0.6412213740458015,-0.115966796875,0.026123046875,-0.5869140625,1.1441
2.5343511450381677,0.8549618320610687,-0.6717557251908397,-0.113525390625,0.02978515625,-0.584716796875,1.1458
2.717557251908397,0.9465648854961832,-0.7786259541984732,-0.110595703125,0.029296875,-0.581787109375,1.1475
2.687022900763359,0.916030534351145,-0.6564885496183206,-0.10693359375,0.025390625,-0.5849609375,1.1492
2.8396946564885495,0.9770992366412213,-0.7022900763358778,-0.11083984375,0.027099609375,-0.584716796875,1.1509
2.885496183206107,0.8854961832061069,-0.7938931297709924,-0.108154296875,0.029541015625,-0.58544921875,1.1525999999999998
2.732824427480916,1.1450381679389312,-0.8854961832061069,-0.111083984375,0.0263671875,-0.57958984375,1.1542999999999999
2.595419847328244,1.0381679389312977,-0.6717557251908397,-0.111328125,0.023193359375,-0.5771484375,1.156
2.6717557251908395,0.8091603053435115,-0.8549618320610687,-0.11376953125,0.0263671875,-0.57861328125,1.1577
3.053435114503817,0.7786259541984732,-0.9465648854961832,-0.10888671875,0.02978515625,-0.57470703125,1.1594
2.8396946564885495,0.9770992366412213,-0.9923664122137404,-0.1083984375,0.0283203125,-0.582275390625,1.1611
2.564885496183206,0.8244274809160306,-0.8549618320610687,-0.10791015625,0.025146484375,-0.5712890625,1.1627999999999998
2.6259541984732824,0.6564885496183206,-1.251908396946565,-0.1103515625,0.026611328125,-0.577392578125,1.1644999999999999
2.4885496183206106,0.6412213740458015,-0.8549618320610687,-0.11083984375,0.023681640625,-0.58642578125,1.1662
2.549618320610687,0.5648854961832062,-0.9923664122137404,-0.112548828125,0.0234375,-0.585693359375,1.1679
2.3206106870229006,0.6106870229007634,-1.0381679389312977,-0.111328125,0.02587890625,-0.58837890625,1.1696
2.0916030534351147,0.6717557251908397,-0.7938931297709924,-0.108642578125,0.0283203125,-0.585205078125,1.1713
2.0,0.7633587786259542,-0.8396946564885496,-0.109375,0.02294921875,-0.582763671875,1.173
2.2748091603053435,0.5954198473282443,-0.7786259541984732,-0.113525390625,0.024658203125,-0.584716796875,1.1746999999999999
1.83206106870229,0.7633587786259542,-0.8854961832061069,-0.1083984375,0.027099609375,-0.584228515625,1.1764
2.045801526717557,0.8396946564885496,-0.9312977099236641,-0.109375,0.027587890625,-0.587890625,1.1781
1.8625954198473282,0.7786259541984732,-0.7938931297709924,-0.109130859375,0.0244140625,-0.586181640625,1.1798
2.0610687022900764,0.8244274809160306,-0.6412213740458015,-0.11376953125,0.025146484375,-0.588134765625,1.1815
2.122137404580153,0.8549618320610687,-0.9923664122137404,-0.11328125,0.026611328125,-0.58642578125,1.1832
2.015267175572519,1.0229007633587786,-1.0076335877862594,-0.11279296875,0.027587890625,-0.5810546875,1.1848999999999998
2.015267175572519,1.1908396946564885,-1.0229007633587786,-0.105712890625,0.018310546875,-0.57568359375,1.1865999999999999
2.16793893129771,1.2366412213740459,-1.2061068702290076,-0.11328125,0.024658203125,-0.588623046875,1.1883
2.1068702290076335,1.2213740458015268,-1.0381679389312977,-0.11328125,0.0205078125,-0.590087890625,1.19
1.8931297709923665,1.251908396946565,-1.0076335877862594,-0.113525390625,0.02685546875,-0.58154296875,1.1917
1.9541984732824427,1.5267175572519085,-0.916030534351145,-0.113525390625,0.027099609375,-0.58154296875,1.1934
1.984732824427481,1.5267175572519085,-1.0229007633587786,-0.114501953125,0.027587890625,-0.577392578125,1.1950999999999998
1.4809160305343512,1.633587786259542,-0.7938931297709924,-0.1083984375,0.02685546875,-0.5849609375,1.1967999999999999
1.786259541984733,1.7251908396946565,-1.083969465648855,-0.1123046875,0.0244140625,-0.5908203125,1.1985
1.6793893129770991,1.7557251908396947,-1.0076335877862594,-0.10986328125,0.02734375,-0.584228515625,1.2002
1.450381679389313,1.8015267175572518,-0.9465648854961832,-0.11962890625,0.020751953125,-0.57666015625,1.2019
1.5419847328244274,1.9694656488549618,-0.916030534351145,-0.11181640625,0.021484375,-0.579345703125,1.2036
1.3587786259541985,1.8473282442748091,-0.9923664122137404,-0.115478515625,0.022705078125,-0.5986328125,1.2053
1.4961832061068703,2.1068702290076335,-0.7938931297709924,-0.111083984375,0.027587890625,-0.58349609375,1.2069999999999999
1.6030534351145038,1.9389312977099236,-0.8702290076335878,-0.111572265625,0.02490234375,-0.578857421875,1.2086999999999999
1.5725190839694656,2.1068702290076335,-0.9923664122137404,-0.112060546875,0.031982421875,-0.588134765625,1.2104
1.4961832061068703,2.2748091603053435,-0.9770992366412213,-0.108154296875,0.025634765625,-0.583740234375,1.2121
1.5267175572519085,2.1374045801526718,-0.9770992366412213,-0.10595703125,0.022216796875,-0.587890625,1.2138
1.282442748091603,2.1374045801526718,-1.0687022900763359,-0.111083984375,0.026611328125,-0.591064453125,1.2155
1.633587786259542,2.198473282442748,-1.1603053435114503,-0.11083984375,0.0263671875,-0.58544921875,1.2171999999999998
1.3129770992366412,2.1068702290076335,-1.2213740458015268,-0.110107421875,0.025634765625,-0.586181640625,1.2188999999999999
1.4961832061068703,2.1068702290076335,-0.9923664122137404,-0.113525390625,0.026611328125,-0.5859375,1.2206
1.633587786259542,2.0916030534351147,-1.0076335877862594,-0.1064453125,0.02587890625,-0.58544921875,1.2223
1.5725190839694656,2.045801526717557,-1.099236641221374,-0.10986328125,0.023193359375,-0.584716796875,1.224
1.618320610687023,1.8473282442748091,-1.1755725190839694,-0.1064453125,0.03271484375,-0.573974609375,1.2257
1.7709923664122138,1.7404580152671756,-0.9312977099236641,-0.110595703125,0.025146484375,-0.580322265625,1.2273999999999998
1.6488549618320612,1.7557251908396947,-1.0229007633587786,-0.106689453125,0.029296875,-0.578369140625,1.2290999999999999
1.6641221374045803,1.8625954198473282,-1.1603053435114503,-0.11083984375,0.03125,-0.582275390625,1.2308
1.8931297709923665,1.5419847328244274,-1.2671755725190839,-0.105224609375,0.023193359375,-0.58251953125,1.2325
1.7251908396946565,1.297709923664122,-1.099236641221374,-0.108642578125,0.027587890625,-0.585693359375,1.2342
1.6488549618320612,1.297709923664122,-1.251908396946565,-0.107666015625,0.03271484375,-0.587646484375,1.2359
1.8473282442748091,1.2061068702290076,-1.282442748091603,-0.1103515625,0.031005859375,-0.58642578125,1.2376
1.8931297709923665,1.1297709923664123,-1.3893129770992367,-0.1083984375,0.027099609375,-0.591064453125,1.2392999999999998
2.015267175572519,1.0534351145038168,-1.1603053435114503,-0.109375,0.029541015625,-0.58154296875,1.2409999999999999
2.198473282442748,1.0381679389312977,-1.5267175572519085,-0.1103515625,0.029052734375,-0.583251953125,1.2427
1.9694656488549618,0.9923664122137404,-1.4961832061068703,-0.111572265625,0.032470703125,-0.58642578125,1.2444
2.0,0.9465648854961832,-1.4198473282442747,-0.10400390625,0.0361328125,-0.583984375,1.2461
2.045801526717557,1.0381679389312977,-1.4198473282442747,-0.1142578125,0.030517578125,-0.58935546875,1.2478
2.366412213740458,1.2213740458015268,-1.6946564885496183,-0.11279296875,0.029052734375,-0.5869140625,1.2494999999999998
2.198473282442748,0.8549618320610687,-1.4961832061068703,-0.112060546875,0.033203125,-0.592529296875,1.2511999999999999
2.2900763358778624,0.8549618320610687,-1.4961832061068703,-0.109375,0.029052734375,-0.58642578125,1.2529
2.16793893129771,1.0534351145038168,-1.5572519083969465,-0.1083984375,0.03271484375,-0.5830078125,1.2546
2.0,0.916030534351145,-1.786259541984733,-0.1142578125,0.02734375,-0.58447265625,1.2563
2.0,0.916030534351145,-1.6488549618320612,-0.1142578125,0.025146484375,-0.59521484375,1.258
2.030534351145038,1.0381679389312977,-1.6946564885496183,-0.111572265625,0.028564453125,-0.58642578125,1.2596999999999998
2.122137404580153,0.9312977099236641,-1.7099236641221374,-0.11767578125,0.0341796875,-0.5888671875,1.2613999999999999
2.50381679389313,1.0076335877862594,-1.7251908396946565,-0.111572265625,0.033447265625,-0.581787109375,1.2631
2.595419847328244,0.9770992366412213,-1.9083969465648856,-0.110107421875,0.029541015625,-0.57958984375,1.2648
2.2748091603053435,1.0076335877862594,-1.984732824427481,-0.11279296875,0.02880859375,-0.5908203125,1.2665
2.3053435114503817,1.1908396946564885,-2.015267175572519,-0.111083984375,0.02587890625,-0.587890625,1.2682
2.3206106870229006,1.2061068702290076,-2.0916030534351147,-0.1123046875,0.029541015625,-0.583740234375,1.2699
2.015267175572519,1.3740458015267176,-1.9541984732824427,-0.1142578125,0.031005859375,-0.589111328125,1.2715999999999998
1.9083969465648856,1.251908396946565,-2.0,-0.114501953125,0.03271484375,-0.588623046875,1.2732999999999999
2.015267175572519,1.251908396946565,-1.9541984732824427,-0.111083984375,0.032958984375,-0.59423828125,1.275
1.6946564885496183,1.6946564885496183,-2.0,-0.113037109375,0.024169921875,-0.585693359375,1.2767
1.4198473282442747,1.7251908396946565,-1.7404580152671756,-0.110595703125,0.02880859375,-0.58740234375,1.2784
1.1755725190839694,1.6030534351145038,-2.1526717557251906,-0.1171875,0.02880859375,-0.58984375,1.2801
1.1755725190839694,1.5267175572519085,-1.8473282442748091,-0.11376953125,0.028564453125,-0.5888671875,1.2817999999999998
0.9770992366412213,1.5419847328244274,-1.9389312977099236,-0.1123046875,0.023681640625,-0.586181640625,1.2834999999999999
1.099236641221374,1.465648854961832,-1.816793893129771,-0.112548828125,0.028076171875,-0.58447265625,1.2852
0.9007633587786259,1.3587786259541985,-1.8015267175572518,-0.10888671875,0.024169921875,-0.5830078125,1.2869
0.9007633587786259,1.2671755725190839,-1.7709923664122138,-0.11181640625,0.0224609375,-0.589111328125,1.2886
0.8702290076335878,1.3893129770992367,-1.816793893129771,-0.11279296875,0.031005859375,-0.583251953125,1.2903
0.916030534351145,1.251908396946565,-1.8625954198473282,-0.11767578125,0.026611328125,-0.58935546875,1.292
1.1145038167938932,0.9923664122137404,-1.83206106870229,-0.109375,0.023681640625,-0.57763671875,1.2936999999999999
0.8244274809160306,1.083969465648855,-1.9389312977099236,-0.111572265625,0.022705078125,-0.583984375,1.2953999999999999
1.0687022900763359,1.0381679389312977,-2.030534351145038,-0.111572265625,0.029296875,-0.586181640625,1.2971
1.2213740458015268,1.0687022900763359,-2.1068702290076335,-0.1142578125,0.033203125,-0.584716796875,1.2988
1.1450381679389312,1.2366412213740459,-2.0763358778625953,-0.115966796875,0.027099609375,-0.595458984375,1.3005
0.9770992366412213,1.297709923664122,-1.9083969465648856,-0.114990234375,0.028076171875,-0.5869140625,1.3022
1.3129770992366412,1.0534351145038168,-2.213740458015267,-0.1142578125,0.0244140625,-0.5859375,1.3038999999999998
1.1297709923664123,1.099236641221374,-2.213740458015267,-0.110595703125,0.032470703125,-0.595703125,1.3055999999999999
1.1603053435114503,1.2671755725190839,-2.2290076335877864,-0.113037109375,0.03076171875,-0.57763671875,1.3073
1.099236641221374,1.1755725190839694,-2.0916030534351147,-0.113525390625,0.034423828125,-0.583251953125,1.309
1.2061068702290076,1.1297709923664123,-1.9694656488549618,-0.11376953125,0.031982421875,-0.58544921875,1.3107
1.3129770992366412,1.3282442748091603,-2.0,-0.108642578125,0.033935546875,-0.592529296875,1.3124
1.0381679389312977,1.2213740458015268,-1.8931297709923665,-0.11083984375,0.0322265625,-0.586669921875,1.3140999999999998
1.0534351145038168,1.1755725190839694,-1.7709923664122138,-0.116943359375,0.03125,-0.5927734375,1.3157999999999999
1.0687022900763359,1.282442748091603,-1.984732824427481,-0.1171875,0.02783203125,-0.5859375,1.3175
0.916030534351145,1.3129770992366412,-1.816793893129771,-0.1142578125,0.030517578125,-0.587646484375,1.3192
1.2213740458015268,1.3587786259541985,-1.7709923664122138,-0.119873046875,0.030029296875,-0.58740234375,1.3209
0.9923664122137404,1.099236641221374,-1.7099236641221374,-0.114501953125,0.02685546875,-0.58935546875,1.3226
1.0534351145038168,1.1755725190839694,-1.6488549618320612,-0.119384765625,0.027099609375,-0.586181640625,1.3243
1.1145038167938932,1.2366412213740459,-1.7099236641221374,-0.10693359375,0.0341796875,-0.590576171875,1.3259999999999998
1.2061068702290076,1.5572519083969465,-1.8778625954198473,-0.116943359375,0.03173828125,-0.583984375,1.3276999999999999
1.3893129770992367,1.450381679389313,-1.816793893129771,-0.11669921875,0.0302734375,-0.58544921875,1.3294
1.4045801526717556,1.450381679389313,-1.5572519083969465,-0.11474609375,0.03076171875,-0.58349609375,1.3311
1.6488549618320612,1.5419847328244274,-1.6030534351145038,-0.1142578125,0.034423828125,-0.583984375,1.3328
1.7404580152671756,1.6641221374045803,-1.7251908396946565,-0.111572265625,0.03173828125,-0.583984375,1.3345
1.633587786259542,1.618320610687023,-1.8778625954198473,-0.11474609375,0.03271484375,-0.578369140625,1.3361999999999998
1.5725190839694656,1.6488549618320612,-1.8931297709923665,-0.110595703125,0.030517578125,-0.591064453125,1.3378999999999999
1.7709923664122138,1.6793893129770991,-1.7557251908396947,-0.112060546875,0.026611328125,-0.586181640625,1.3396
1.4351145038167938,1.786259541984733,-1.8473282442748091,-0.11083984375,0.03466796875,-0.58056640625,1.3413
1.7404580152671756,1.4351145038167938,-1.786259541984733,-0.114501953125,0.0361328125,-0.589599609375,1.343
1.5267175572519085,1.7251908396946565,-1.7404580152671756,-0.107177734375,0.028076171875,-0.58447265625,1.3447
1.2366412213740459,1.5267175572519085,-1.450381679389313,-0.108642578125,0.035888671875,-0.5810546875,1.3463999999999998
1.6030534351145038,1.618320610687023,-1.7557251908396947,-0.11279296875,0.030029296875,-0.586669921875,1.3480999999999999
1.4045801526717556,1.618320610687023,-1.3740458015267176,-0.10888671875,0.03271484375,-0.58447265625,1.3497999999999999
1.83206106870229,1.3893129770992367,-1.6030534351145038,-0.10888671875,0.035400390625,-0.583984375,1.3515
1.618320610687023,1.6641221374045803,-1.3740458015267176,-0.1103515625,0.028564453125,-0.58203125,1.3532
1.6641221374045803,1.5572519083969465,-1.2671755725190839,-0.11181640625,0.031494140625,-0.5830078125,1.3549
1.786259541984733,1.5572519083969465,-1.4045801526717556,-0.1181640625,0.0322265625,-0.58203125,1.3566
1.5877862595419847,1.6946564885496183,-1.3893129770992367,-0.11376953125,0.029296875,-0.587158203125,1.3582999999999998
1.8625954198473282,1.8931297709923665,-1.1908396946564885,-0.11279296875,0.027587890625,-0.583251953125,1.3599999999999999
1.618320610687023,1.7404580152671756,-1.1603053435114503,-0.10986328125,0.037353515625,-0.59130859375,1.3617
1.6488549618320612,1.6946564885496183,-1.3740458015267176,-0.1083984375,0.03076171875,-0.591552734375,1.3634
1.7557251908396947,1.7251908396946565,-1.297709923664122,-0.110107421875,0.02587890625,-0.583984375,1.3651
1.8015267175572518,1.7404580152671756,-1.0381679389312977,-0.109619140625,0.02783203125,-0.58837890625,1.3668
1.4045801526717556,1.83206106870229,-0.8854961832061069,-0.108154296875,0.032470703125,-0.588134765625,1.3684999999999998
1.5877862595419847,1.7709923664122138,-1.1450381679389312,-0.111572265625,0.033203125,-0.5791015625,1.3701999999999999
1.7709923664122138,1.7099236641221374,-0.7786259541984732,-0.11083984375,0.032958984375,-0.58837890625,1.3719
1.4045801526717556,1.816793893129771,-0.8549618320610687,-0.108642578125,0.033203125,-0.5888671875,1.3736
1.251908396946565,1.8778625954198473,-0.916030534351145,-0.114501953125,0.030029296875,-0.582763671875,1.3753
1.3129770992366412,2.030534351145038,-0.5954198473282443,-0.11669921875,0.02783203125,-0.5888671875,1.377
1.2061068702290076,2.0,-0.7175572519083969,-0.113525390625,0.031494140625,-0.584228515625,1.3786999999999998
1.1297709923664123,2.015267175572519,-0.5648854961832062,-0.1123046875,0.03173828125,-0.59130859375,1.3803999999999998
1.1908396946564885,1.9541984732824427,-0.6412213740458015,-0.1171875,0.028076171875,-0.585693359375,1.3820999999999999
1.0687022900763359,1.9083969465648856,-0.7480916030534351,-0.113037109375,0.02978515625,-0.58544921875,1.3838
1.0076335877862594,2.0763358778625953,-0.5801526717557252,-0.11279296875,0.03466796875,-0.580810546875,1.3855
0.9465648854961832,1.984732824427481,-0.7480916030534351,-0.115234375,0.02978515625,-0.579833984375,1.3872
1.251908396946565,2.122137404580153,-0.6870229007633588,-0.116455078125,0.028564453125,-0.578857421875,1.3889
1.251908396946565,2.1374045801526718,-0.8091603053435115,-0.11328125,0.027099609375,-0.58154296875,1.3905999999999998
1.0076335877862594,1.8625954198473282,-0.7633587786259542,-0.107421875,0.025634765625,-0.583984375,1.3922999999999999
1.297709923664122,1.8015267175572518,-0.6870229007633588,-0.113037109375,0.028564453125,-0.583251953125,1.394
1.465648854961832,1.8015267175572518,-0.8396946564885496,-0.116943359375,0.032958984375,-0.583251953125,1.3957
1.3893129770992367,1.7709923664122138,-0.8091603053435115,-0.111572265625,0.032470703125,-0.587158203125,1.3974
1.4961832061068703,1.618320610687023,-0.7175572519083969,-0.1162109375,0.031494140625,-0.5859375,1.3991
1.5725190839694656,1.5725190839694656,-0.5343511450381679,-0.107421875,0.031494140625,-0.574951171875,1.4007999999999998
1.7099236641221374,1.6488549618320612,-0.5648854961832062,-0.111572265625,0.0302734375,-0.579833984375,1.4024999999999999
1.6946564885496183,1.7557251908396947,-0.8854961832061069,-0.112548828125,0.031005859375,-0.590576171875,1.4042
1.6030534351145038,1.7251908396946565,-0.5801526717557252,-0.112548828125,0.029296875,-0.592041015625,1.4059
1.3587786259541985,1.5877862595419847,-0.7022900763358778,-0.109130859375,0.031982421875,-0.59375,1.4076
1.6946564885496183,1.6946564885496183,-0.6870229007633588,-0.114501953125,0.031005859375,-0.586181640625,1.4093
1.6488549618320612,1.8015267175572518,-0.549618320610687,-0.110107421875,0.03564453125,-0.580810546875,1.411
1.7099236641221374,1.83206106870229,-0.5038167938931297,-0.114013671875,0.025634765625,-0.572509765625,1.4126999999999998
1.7099236641221374,1.633587786259542,-0.7022900763358778,-0.109375,0.033203125,-0.590576171875,1.4143999999999999
1.6641221374045803,1.633587786259542,-0.5801526717557252,-0.11083984375,0.028076171875,-0.58740234375,1.4161
1.9389312977099236,1.6793893129770991,-0.2748091603053435,-0.112548828125,0.029296875,-0.5849609375,1.4178
2.0,1.5419847328244274,-0.1984732824427481,-0.109375,0.030517578125,-0.57421875,1.4195
1.8778625954198473,1.450381679389313,-0.5038167938931297,-0.116943359375,0.029296875,-0.583740234375,1.4212
2.0610687022900764,1.3893129770992367,-0.3053435114503817,-0.10986328125,0.028076171875,-0.5751953125,1.4228999999999998
2.2290076335877864,1.297709923664122,-0.33587786259541985,-0.109130859375,0.0283203125,-0.577880859375,1.4245999999999999
2.3053435114503817,1.251908396946565,-0.3969465648854962,-0.1044921875,0.029296875,-0.588623046875,1.4263
2.045801526717557,1.2366412213740459,-0.2595419847328244,-0.10986328125,0.03076171875,-0.58251953125,1.428
2.1068702290076335,1.099236641221374,-0.0916030534351145,-0.111083984375,0.030517578125,-0.580322265625,1.4297
2.0610687022900764,0.9312977099236641,-0.3969465648854962,-0.107421875,0.029052734375,-0.58154296875,1.4314
1.9541984732824427,0.8702290076335878,-0.24427480916030533,-0.107666015625,0.0283203125,-0.576171875,1.4330999999999998
2.015267175572519,0.7633587786259542,-0.061068702290076333,-0.110107421875,0.0283203125,-0.580322265625,1.4347999999999999
1.9083969465648856,0.7633587786259542,-0.2595419847328244,-0.111572265625,0.0302734375,-0.58935546875,1.4364999999999999
1.7709923664122138,0.7022900763358778,-0.3969465648854962,-0.1103515625,0.03076171875,-0.58251953125,1.4382
1.5572519083969465,0.5801526717557252,-0.183206106870229,-0.108154296875,0.031005859375,-0.586181640625,1.4399
1.816793893129771,0.6259541984732825,-0.1984732824427481,-0.110595703125,0.033203125,-0.587890625,1.4416
1.5114503816793894,0.6106870229007634,-0.1984732824427481,-0.109375,0.0263671875,-0.5869140625,1.4433
1.7709923664122138,0.366412213740458,-0.22900763358778625,-0.108154296875,0.02978515625,-0.582275390625,1.4449999999999998
1.5114503816793894,0.21374045801526717,-0.13740458015267176,-0.10693359375,0.03173828125,-0.5791015625,1.4466999999999999
1.4961832061068703,0.22900763358778625,-0.24427480916030533,-0.105712890625,0.031005859375,-0.5791015625,1.4484
1.3435114503816794,0.015267175572519083,-0.4122137404580153,-0.111083984375,0.031494140625,-0.579833984375,1.4501
1.4961832061068703,0.015267175572519083,-0.3969465648854962,-0.110107421875,0.029296875,-0.5830078125,1.4518
1.4961832061068703,0.0,-0.1984732824427481,-0.1083984375,0.032470703125,-0.593505859375,1.4535
1.5419847328244274,0.16793893129770993,-0.7022900763358778,-0.11767578125,0.027099609375,-0.581298828125,1.4551999999999998
1.618320610687023,-0.07633587786259542,-0.48854961832061067,-0.113525390625,0.02880859375,-0.58837890625,1.4568999999999999
1.3740458015267176,0.3511450381679389,-0.5343511450381679,-0.1171875,0.031005859375,-0.584228515625,1.4586
1.5725190839694656,0.4122137404580153,-0.5648854961832062,-0.116943359375,0.025390625,-0.583984375,1.4603
1.6488549618320612,0.13740458015267176,-0.4732824427480916,-0.1142578125,0.02587890625,-0.573486328125,1.462
1.816793893129771,0.2748091603053435,-0.6259541984732825,-0.1123046875,0.02734375,-0.580322265625,1.4637
1.3435114503816794,0.3969465648854962,-0.8244274809160306,-0.1220703125,0.030029296875,-0.58447265625,1.4653999999999998
1.4045801526717556,0.5648854961832062,-0.8854961832061069,-0.11279296875,0.0302734375,-0.583984375,1.4670999999999998
1.3893129770992367,0.32061068702290074,-1.0229007633587786,-0.117919921875,0.0322265625,-0.584228515625,1.4687999999999999
1.1603053435114503,0.5038167938931297,-0.9923664122137404,-0.11572265625,0.03076171875,-0.583740234375,1.4705
0.8854961832061069,0.5343511450381679,-1.2061068702290076,-0.11474609375,0.03173828125,-0.584228515625,1.4722
0.7480916030534351,0.42748091603053434,-1.0229007633587786,-0.114501953125,0.03515625,-0.584716796875,1.4739
1.0076335877862594,0.3511450381679389,-1.3129770992366412,-0.1142578125,0.0283203125,-0.587158203125,1.4756
0.732824427480916,0.366412213740458,-1.2061068702290076,-0.1162109375,0.02880859375,-0.5830078125,1.4772999999999998
0.7480916030534351,0.366412213740458,-1.297709923664122,-0.115478515625,0.02392578125,-0.589111328125,1.4789999999999999
1.0534351145038168,0.3816793893129771,-1.297709923664122,-0.1142578125,0.029052734375,-0.586181640625,1.4807
1.1145038167938932,0.3053435114503817,-1.4045801526717556,-0.113525390625,0.029296875,-0.58935546875,1.4824
0.8549618320610687,0.4580152671755725,-1.3129770992366412,-0.112060546875,0.02490234375,-0.586181640625,1.4841
0.6259541984732825,0.3969465648854962,-1.6793893129770991,-0.111572265625,0.0244140625,-0.591064453125,1.4858
0.8244274809160306,0.24427480916030533,-1.2366412213740459,-0.111083984375,0.021728515625,-0.59814453125,1.4874999999999998
0.5954198473282443,0.2748091603053435,-1.3587786259541985,-0.110595703125,0.02294921875,-0.5888671875,1.4891999999999999
0.3816793893129771,0.3053435114503817,-1.297709923664122,-0.111083984375,0.02685546875,-0.58837890625,1.4909
0.3969465648854962,0.15267175572519084,-1.450381679389313,-0.114990234375,0.025634765625,-0.589599609375,1.4926
0.2900763358778626,0.21374045801526717,-1.2671755725190839,-0.106689453125,0.024169921875,-0.585693359375,1.4943
-0.04580152671755725,0.183206106870229,-1.297709923664122,-0.111083984375,0.022705078125,-0.59326171875,1.496
0.015267175572519083,0.15267175572519084,-1.1297709923664123,-0.11328125,0.030517578125,-0.585205078125,1.4976999999999998
-0.12213740458015267,0.04580152671755725,-1.297709923664122,-0.1103515625,0.023193359375,-0.58642578125,1.4993999999999998
0.015267175572519083,0.07633587786259542,-0.9618320610687023,-0.116943359375,0.028076171875,-0.5888671875,1.5010999999999999
-0.32061068702290074,0.13740458015267176,-1.2213740458015268,-0.115966796875,0.0244140625,-0.583984375,1.5028
0.21374045801526717,0.13740458015267176,-1.099236641221374,-0.109130859375,0.025146484375,-0.586181640625,1.5045
0.44274809160305345,0.24427480916030533,-1.1603053435114503,-0.111083984375,0.024658203125,-0.592041015625,1.5062
-0.015267175572519083,0.24427480916030533,-1.083969465648855,-0.11328125,0.026611328125,-0.58642578125,1.5079
0.183206106870229,0.16793893129770993,-1.297709923664122,-0.10986328125,0.0244140625,-0.588623046875,1.5095999999999998
0.10687022900763359,0.1984732824427481,-1.1145038167938932,-0.111083984375,0.0263671875,-0.58447265625,1.5112999999999999
0.3053435114503817,0.4122137404580153,-1.3740458015267176,-0.113525390625,0.02490234375,-0.58447265625,1.513
0.0916030534351145,0.32061068702290074,-1.3129770992366412,-0.116943359375,0.02734375,-0.578125,1.5147
0.22900763358778625,0.33587786259541985,-1.2213740458015268,-0.115234375,0.0244140625,-0.583740234375,1.5164
0.32061068702290074,0.5038167938931297,-1.0687022900763359,-0.11572265625,0.0263671875,-0.589599609375,1.5181
0.22900763358778625,0.5343511450381679,-1.2366412213740459,-0.113037109375,0.027099609375,-0.58251953125,1.5197999999999998
0.24427480916030533,0.4732824427480916,-1.3282442748091603,-0.111572265625,0.025390625,-0.585693359375,1.5214999999999999
0.5801526717557252,0.7786259541984732,-1.2061068702290076,-0.117919921875,0.031494140625,-0.58935546875,1.5231999999999999
0.7786259541984732,1.0687022900763359,-1.2213740458015268,-0.112060546875,0.02734375,-0.588623046875,1.5249
0.6564885496183206,1.083969465648855,-1.3129770992366412,-0.11572265625,0.026611328125,-0.579833984375,1.5266
0.6717557251908397,0.916030534351145,-1.4351145038167938,-0.116455078125,0.03076171875,-0.58837890625,1.5283
0.7480916030534351,0.8549618320610687,-1.3893129770992367,-0.110595703125,0.027587890625,-0.593017578125,1.5299999999999998
0.7022900763358778,1.2671755725190839,-1.2671755725190839,-0.11474609375,0.02490234375,-0.58984375,1.5316999999999998
0.732824427480916,1.083969465648855,-1.3129770992366412,-0.10595703125,0.0302734375,-0.58251953125,1.5333999999999999
0.7175572519083969,1.251908396946565,-1.1145038167938932,-0.109375,0.035888671875,-0.576416015625,1.5351
0.7938931297709924,1.4045801526717556,-1.282442748091603,-0.105712890625,0.033935546875,-0.58349609375,1.5368
0.8702290076335878,1.2671755725190839,-1.251908396946565,-0.1103515625,0.03271484375,-0.573486328125,1.5385
0.7786259541984732,1.3587786259541985,-1.2366412213740459,-0.11083984375,0.02734375,-0.5869140625,1.5402
1.1145038167938932,1.4809160305343512,-1.1145038167938932,-0.111572265625,0.034423828125,-0.5830078125,1.5418999999999998
1.2213740458015268,1.2366412213740459,-1.297709923664122,-0.10986328125,0.03076171875,-0.58154296875,1.5435999999999999
1.1603053435114503,1.4045801526717556,-1.083969465648855,-0.10693359375,0.03271484375,-0.594970703125,1.5453
1.3435114503816794,1.5877862595419847,-1.1450381679389312,-0.107666015625,0.028564453125,-0.582275390625,1.547
1.9083969465648856,1.4198473282442747,-1.1297709923664123,-0.107177734375,0.02978515625,-0.579833984375,1.5487
1.7404580152671756,1.4198473282442747,-1.0534351145038168,-0.10791015625,0.030029296875,-0.581787109375,1.5504
1.83206106870229,1.3893129770992367,-1.251908396946565,-0.106689453125,0.03173828125,-0.589111328125,1.5520999999999998
2.0,1.4809160305343512,-1.3282442748091603,-0.1123046875,0.029296875,-0.5869140625,1.5537999999999998
2.213740458015267,1.450381679389313,-1.2061068702290076,-0.109619140625,0.03466796875,-0.58154296875,1.5554999999999999
2.0610687022900764,1.6793893129770991,-1.1755725190839694,-0.108642578125,0.03515625,-0.581787109375,1.5572
2.4427480916030535,1.7557251908396947,-0.9770992366412213,-0.107421875,0.038330078125,-0.5810546875,1.5589
2.519083969465649,1.5877862595419847,-1.2366412213740459,-0.106689453125,0.0322265625,-0.587646484375,1.5606
2.4885496183206106,1.633587786259542,-1.0687022900763359,-0.113525390625,0.033203125,-0.584228515625,1.5623
2.6106870229007635,1.7557251908396947,-1.2671755725190839,-0.112548828125,0.034423828125,-0.58837890625,1.5639999999999998
2.6259541984732824,1.7099236641221374,-0.9312977099236641,-0.112060546875,0.035888671875,-0.585205078125,1.5656999999999999
2.7480916030534353,1.816793893129771,-0.9770992366412213,-0.107421875,0.036376953125,-0.58447265625,1.5674
2.7480916030534353,1.786259541984733,-0.9312977099236641,-0.101806640625,0.0322265625,-0.579345703125,1.5691
2.7786259541984735,1.5877862595419847,-1.0076335877862594,-0.112060546875,0.03662109375,-0.585693359375,1.5708
2.8702290076335877,1.7099236641221374,-0.916030534351145,-0.107421875,0.031005859375,-0.58203125,1.5725
2.9618320610687023,1.7709923664122138,-0.8244274809160306,-0.110595703125,0.032470703125,-0.583740234375,1.5741999999999998
3.0229007633587788,1.7557251908396947,-0.7633587786259542,-0.113037109375,0.030029296875,-0.58740234375,1.5758999999999999
2.9923664122137406,1.7709923664122138,-1.0381679389312977,-0.109619140625,0.035400390625,-0.5888671875,1.5776
3.1908396946564888,1.6793893129770991,-0.8244274809160306,-0.10986328125,0.030029296875,-0.58642578125,1.5793
3.0076335877862594,1.8015267175572518,-0.8549618320610687,-0.111083984375,0.029296875,-0.5869140625,1.581
2.9923664122137406,1.9541984732824427,-0.6870229007633588,-0.108154296875,0.03271484375,-0.58251953125,1.5827
2.946564885496183,1.816793893129771,-1.0381679389312977,-0.107666015625,0.031494140625,-0.5927734375,1.5843999999999998
2.854961832061069,1.786259541984733,-0.8854961832061069,-0.110595703125,0.03076171875,-0.5947265625,1.5860999999999998
2.687022900763359,1.7557251908396947,-0.6412213740458015,-0.110107421875,0.027099609375,-0.58837890625,1.5877999999999999
2.8396946564885495,1.7709923664122138,-0.732824427480916,-0.111572265625,0.02685546875,-0.580810546875,1.5895
2.351145038167939,2.183206106870229,-0.7633587786259542,-0.1142578125,0.027099609375,-0.5849609375,1.5912
2.2290076335877864,2.030534351145038,-0.6412213740458015,-0.11083984375,0.02978515625,-0.591064453125,1.5929
1.9236641221374047,1.83206106870229,-0.7175572519083969,-0.1103515625,0.031005859375,-0.58935546875,1.5946
1.9541984732824427,1.786259541984733,-0.6564885496183206,-0.11279296875,0.033203125,-0.579345703125,1.5962999999999998
1.6793893129770991,1.7251908396946565,-0.5648854961832062,-0.112548828125,0.030517578125,-0.58447265625,1.5979999999999999
1.297709923664122,1.83206106870229,-0.6870229007633588,-0.114501953125,0.032958984375,-0.5859375,1.5997
1.3129770992366412,1.9083969465648856,-0.6564885496183206,-0.109130859375,0.031982421875,-0.591796875,1.6014
1.0687022900763359,1.9541984732824427,-0.5954198473282443,-0.111328125,0.029541015625,-0.591796875,1.6031
0.7480916030534351,1.8778625954198473,-0.183206106870229,-0.10791015625,0.029541015625,-0.585693359375,1.6048
0.5190839694656488,2.0610687022900764,-0.4732824427480916,-0.11181640625,0.02734375,-0.595458984375,1.6064999999999998
0.549618320610687,2.045801526717557,-0.5954198473282443,-0.110595703125,0.03125,-0.59326171875,1.6081999999999999
0.2900763358778626,2.16793893129771,-0.4122137404580153,-0.109375,0.025146484375,-0.584228515625,1.6098999999999999
0.15267175572519084,1.83206106870229,-0.24427480916030533,-0.113037109375,0.025146484375,-0.581787109375,1.6116
0.0916030534351145,1.7709923664122138,-0.33587786259541985,-0.106689453125,0.028076171875,-0.579345703125,1.6133
0.07633587786259542,1.8015267175572518,-0.4732824427480916,-0.110595703125,0.02978515625,-0.586181640625,1.615
-0.13740458015267176,1.618320610687023,-0.21374045801526717,-0.11279296875,0.029296875,-0.58837890625,1.6166999999999998
0.0,1.7099236641221374,-0.4122137404580153,-0.108642578125,0.02880859375,-0.5849609375,1.6183999999999998
0.33587786259541985,1.7709923664122138,-0.366412213740458,-0.111328125,0.0302734375,-0.582275390625,1.6200999999999999
0.15267175572519084,1.7251908396946565,-0.183206106870229,-0.1123046875,0.029296875,-0.593505859375,1.6218
0.183206106870229,1.618320610687023,-0.48854961832061067,-0.1103515625,0.03125,-0.586181640625,1.6235
0.5038167938931297,1.5419847328244274,-0.4732824427480916,-0.110107421875,0.03271484375,-0.588134765625,1.6252
0.4122137404580153,1.282442748091603,-0.3511450381679389,-0.111328125,0.031005859375,-0.58203125,1.6269
0.5343511450381679,1.450381679389313,-0.2595419847328244,-0.10986328125,0.031005859375,-0.585205078125,1.6285999999999998
0.6259541984732825,1.618320610687023,-0.4580152671755725,-0.10595703125,0.02978515625,-0.5908203125,1.6302999999999999
0.5648854961832062,1.4351145038167938,-0.366412213740458,-0.107666015625,0.035400390625,-0.586669921875,1.632
0.8854961832061069,1.251908396946565,-0.2595419847328244,-0.1103515625,0.0302734375,-0.583984375,1.6337
0.9007633587786259,1.4045801526717556,-0.3511450381679389,-0.113037109375,0.036865234375,-0.579345703125,1.6354
1.0381679389312977,1.1908396946564885,-0.549618320610687,-0.11279296875,0.02880859375,-0.595458984375,1.6371
1.1145038167938932,1.282442748091603,-0.2900763358778626,-0.11279296875,0.02880859375,-0.589599609375,1.6387999999999998
1.450381679389313,1.3282442748091603,-0.42748091603053434,-0.114013671875,0.031494140625,-0.580810546875,1.6404999999999998
1.465648854961832,1.3893129770992367,-0.4122137404580153,-0.115234375,0.029052734375,-0.581298828125,1.6421999999999999
1.5114503816793894,1.282442748091603,-0.5648854961832062,-0.108154296875,0.03369140625,-0.591796875,1.6439
1.6641221374045803,1.3435114503816794,-0.5190839694656488,-0.112548828125,0.031005859375,-0.58837890625,1.6456
1.786259541984733,1.4045801526717556,-0.7480916030534351,-0.114990234375,0.027587890625,-0.587158203125,1.6473
1.6488549618320612,1.1603053435114503,-0.5954198473282443,-0.113525390625,0.031494140625,-0.575927734375,1.6489999999999998
1.8015267175572518,1.4198473282442747,-0.5648854961832062,-0.114013671875,0.029296875,-0.58837890625,1.6506999999999998
1.9694656488549618,1.4961832061068703,-0.732824427480916,-0.114990234375,0.030029296875,-0.590576171875,1.6523999999999999
2.0763358778625953,1.297709923664122,-0.549618320610687,-0.10791015625,0.031494140625,-0.59716796875,1.6541
2.122137404580153,1.465648854961832,-0.5801526717557252,-0.11328125,0.03076171875,-0.58544921875,1.6558
2.2290076335877864,1.450381679389313,-0.7175572519083969,-0.11572265625,0.033935546875,-0.59130859375,1.6575
2.198473282442748,1.4198473282442747,-0.732824427480916,-0.1142578125,0.03125,-0.590576171875,1.6592
2.564885496183206,1.3893129770992367,-0.7633587786259542,-0.11279296875,0.030517578125,-0.580810546875,1.6608999999999998
2.4427480916030535,1.5419847328244274,-0.7022900763358778,-0.109619140625,0.02978515625,-0.584228515625,1.6625999999999999
2.50381679389313,1.5114503816793894,-0.6717557251908397,-0.112060546875,0.0302734375,-0.591552734375,1.6643
2.366412213740458,1.6793893129770991,-0.7175572519083969,-0.11474609375,0.0322265625,-0.58544921875,1.666
2.4885496183206106,1.8473282442748091,-0.8702290076335878,-0.107421875,0.0302734375,-0.585693359375,1.6677
2.5343511450381677,1.633587786259542,-0.7938931297709924,-0.109130859375,0.0341796875,-0.58740234375,1.6694
2.4580152671755724,1.6946564885496183,-0.7786259541984732,-0.10595703125,0.035400390625,-0.58935546875,1.6710999999999998
2.198473282442748,1.786259541984733,-0.8091603053435115,-0.109130859375,0.03466796875,-0.591064453125,1.6727999999999998
2.030534351145038,1.618320610687023,-0.7022900763358778,-0.109375,0.0283203125,-0.58203125,1.6744999999999999
2.015267175572519,1.7099236641221374,-0.2595419847328244,-0.111083984375,0.024169921875,-0.5830078125,1.6762
1.4809160305343512,1.5877862595419847,-0.549618320610687,-0.111083984375,0.025146484375,-0.584228515625,1.6779
1.7404580152671756,1.465648854961832,-0.32061068702290074,-0.112548828125,0.0302734375,-0.585205078125,1.6796
1.7099236641221374,1.5267175572519085,-0.12213740458015267,-0.10986328125,0.023681640625,-0.576904296875,1.6813
1.6793893129770991,1.4961832061068703,-0.07633587786259542,-0.1142578125,0.026611328125,-0.587890625,1.6829999999999998
1.7251908396946565,1.6030534351145038,-0.32061068702290074,-0.106201171875,0.018798828125,-0.583740234375,1.6846999999999999
1.7251908396946565,1.5114503816793894,-0.22900763358778625,-0.107421875,0.021728515625,-0.586181640625,1.6864
1.8473282442748091,1.7404580152671756,-0.0916030534351145,-0.11474609375,0.0224609375,-0.590087890625,1.6881
1.8931297709923665,1.9083969465648856,-0.04580152671755725,-0.10693359375,0.021484375,-0.586669921875,1.6898
1.4961832061068703,1.9083969465648856,-0.4122137404580153,-0.111328125,0.021484375,-0.588623046875,1.6915
1.4351145038167938,2.2290076335877864,-0.2748091603053435,-0.110107421875,0.0244140625,-0.587158203125,1.6931999999999998
1.3129770992366412,2.1374045801526718,-0.3053435114503817,-0.11083984375,0.029296875,-0.5859375,1.6948999999999999
1.099236641221374,2.0,-0.33587786259541985,-0.111083984375,0.0302734375,-0.580810546875,1.6965999999999999
1.1145038167938932,1.9389312977099236,-0.33587786259541985,-0.11279296875,0.02197265625,-0.584716796875,1.6983
0.7022900763358778,1.9083969465648856,-0.5343511450381679,-0.1064453125,0.0234375,-0.580322265625,1.7
0.6412213740458015,1.984732824427481,-0.6717557251908397,-0.112548828125,0.029541015625,-0.593017578125,1.7017
0.6106870229007634,2.045801526717557,-0.4732824427480916,-0.1103515625,0.027587890625,-0.586669921875,1.7033999999999998
0.3053435114503817,1.8625954198473282,-0.33587786259541985,-0.107666015625,0.0302734375,-0.573486328125,1.7050999999999998
0.22900763358778625,1.8625954198473282,-0.5954198473282443,-0.1064453125,0.034423828125,-0.584228515625,1.7067999999999999
0.10687022900763359,1.7709923664122138,-0.7633587786259542,-0.103515625,0.031982421875,-0.588134765625,1.7085
0.2748091603053435,1.4809160305343512,-0.2595419847328244,-0.10986328125,0.029541015625,-0.58251953125,1.7102
0.061068702290076333,1.3129770992366412,-0.3969465648854962,-0.10595703125,0.033447265625,-0.5791015625,1.7119
0.3969465648854962,1.3587786259541985,-0.3511450381679389,-0.105712890625,0.024658203125,-0.59228515625,1.7136
0.183206106870229,1.282442748091603,-0.32061068702290074,-0.108642578125,0.02490234375,-0.58544921875,1.7152999999999998
0.3511450381679389,1.2061068702290076,0.0,-0.103271484375,0.028076171875,-0.58154296875,1.7169999999999999
0.48854961832061067,1.099236641221374,-0.32061068702290074,-0.10986328125,0.033203125,-0.582763671875,1.7187
0.6717557251908397,1.297709923664122,-0.1984732824427481,-0.11083984375,0.033935546875,-0.5888671875,1.7204
0.9312977099236641,1.1297709923664123,-0.4122137404580153,-0.11474609375,0.0322265625,-0.587158203125,1.7221
1.2213740458015268,1.083969465648855,-0.22900763358778625,-0.11181640625,0.030517578125,-0.585205078125,1.7238
1.3129770992366412,1.099236641221374,-0.4122137404580153,-0.11328125,0.034912109375,-0.583740234375,1.7254999999999998
1.4198473282442747,1.1450381679389312,-0.16793893129770993,-0.105224609375,0.03955078125,-0.580322265625,1.7271999999999998
1.6641221374045803,1.1908396946564885,-0.183206106870229,-0.110595703125,0.034423828125,-0.580078125,1.7288999999999999
2.0,1.2366412213740459,-0.183206106870229,-0.111328125,0.0302734375,-0.579345703125,1.7306
2.0,1.1297709923664123,-0.22900763358778625,-0.10791015625,0.029052734375,-0.5927734375,1.7323
2.2900763358778624,1.2366412213740459,-0.24427480916030533,-0.108154296875,0.0302734375,-0.585693359375,1.734
2.4427480916030535,1.0381679389312977,-0.2900763358778626,-0.109619140625,0.031005859375,-0.57470703125,1.7356999999999998
2.4885496183206106,1.3129770992366412,-0.2748091603053435,-0.10791015625,0.031982421875,-0.57568359375,1.7373999999999998
2.763358778625954,1.2366412213740459,-0.2900763358778626,-0.10498046875,0.033935546875,-0.57958984375,1.7390999999999999
2.7938931297709924,1.0687022900763359,-0.1984732824427481,-0.114013671875,0.0322265625,-0.576416015625,1.7408
2.6106870229007635,1.1297709923664123,-0.2595419847328244,-0.1103515625,0.02783203125,-0.57763671875,1.7425
2.687022900763359,1.3129770992366412,0.0,-0.109130859375,0.020751953125,-0.58984375,1.7442
2.8244274809160306,1.2366412213740459,-0.3511450381679389,-0.11181640625,0.02685546875,-0.58544921875,1.7459
2.6717557251908395,1.282442748091603,-0.24427480916030533,-0.106689453125,0.026611328125,-0.591552734375,1.7475999999999998
2.3206106870229006,1.4045801526717556,-0.33587786259541985,-0.110595703125,0.028076171875,-0.58251953125,1.7492999999999999
2.3053435114503817,1.4045801526717556,-0.1984732824427481,-0.11767578125,0.026611328125,-0.580810546875,1.751
2.351145038167939,1.5419847328244274,-0.1984732824427481,-0.11083984375,0.02587890625,-0.579833984375,1.7527
1.9541984732824427,1.5725190839694656,-0.1984732824427481,-0.11181640625,0.02685546875,-0.581298828125,1.7544
1.7099236641221374,1.3129770992366412,-0.22900763358778625,-0.11376953125,0.02880859375,-0.5869140625,1.7561
2.015267175572519,1.465648854961832,-0.13740458015267176,-0.114990234375,0.027099609375,-0.5869140625,1.7577999999999998
2.015267175572519,1.5419847328244274,-0.3053435114503817,-0.110595703125,0.024169921875,-0.578125,1.7594999999999998
1.633587786259542,1.282442748091603,-0.061068702290076333,-0.117919921875,0.023681640625,-0.58154296875,1.7611999999999999
1.5877862595419847,1.297709923664122,-0.3053435114503817,-0.109130859375,0.02783203125,-0.591796875,1.7629
1.7251908396946565,1.3587786259541985,-0.44274809160305345,-0.114013671875,0.021728515625,-0.59033203125,1.7646
1.4045801526717556,1.2061068702290076,-0.42748091603053434,-0.109130859375,0.021484375,-0.586181640625,1.7663
1.6641221374045803,1.099236641221374,-0.4732824427480916,-0.108642578125,0.022216796875,-0.583984375,1.7679999999999998
1.6641221374045803,1.1297709923664123,-0.7786259541984732,-0.11279296875,0.02490234375,-0.587890625,1.7696999999999998
1.4961832061068703,1.3740458015267176,-0.5801526717557252,-0.1103515625,0.0224609375,-0.58251953125,1.7713999999999999
1.3893129770992367,1.2213740458015268,-0.8244274809160306,-0.10986328125,0.0244140625,-0.58349609375,1.7731
1.2061068702290076,1.3435114503816794,-0.7786259541984732,-0.1064453125,0.022705078125,-0.585693359375,1.7748
1.5877862595419847,1.4961832061068703,-0.7022900763358778,-0.10888671875,0.025390625,-0.5830078125,1.7765
1.2671755725190839,1.3435114503816794,-0.9007633587786259,-0.109375,0.020263671875,-0.58349609375,1.7782
1.282442748091603,1.3282442748091603,-0.7938931297709924,-0.108642578125,0.025634765625,-0.581298828125,1.7798999999999998
1.2671755725190839,1.618320610687023,-0.732824427480916,-0.1083984375,0.025634765625,-0.579833984375,1.7815999999999999
1.1755725190839694,1.4961832061068703,-0.7022900763358778,-0.112060546875,0.028076171875,-0.5830078125,1.7832999999999999
1.0229007633587786,1.6488549618320612,-0.6870229007633588,-0.111083984375,0.026123046875,-0.58154296875,1.785
0.916030534351145,1.5572519083969465,-0.7633587786259542,-0.108154296875,0.024658203125,-0.5849609375,1.7867
0.7938931297709924,1.4809160305343512,-0.5190839694656488,-0.1123046875,0.028564453125,-0.591552734375,1.7884
0.8244274809160306,1.6641221374045803,-0.6412213740458015,-0.1103515625,0.02783203125,-0.59130859375,1.7900999999999998
0.7786259541984732,1.6488549618320612,-0.6259541984732825,-0.11279296875,0.02685546875,-0.586669921875,1.7917999999999998
0.6564885496183206,1.816793893129771,-0.6564885496183206,-0.1103515625,0.0263671875,-0.582275390625,1.7934999999999999
1.0229007633587786,2.0,-0.5648854961832062,-0.114013671875,0.03369140625,-0.58544921875,1.7952
0.8396946564885496,1.816793893129771,-0.5190839694656488,-0.111572265625,0.032470703125,-0.58349609375,1.7969
0.8549618320610687,1.7709923664122138,-0.5648854961832062,-0.109375,0.02783203125,-0.582275390625,1.7986
1.0229007633587786,1.7099236641221374,-0.7175572519083969,-0.111083984375,0.02880859375,-0.5830078125,1.8002999999999998
1.1145038167938932,1.7404580152671756,-0.6106870229007634,-0.110595703125,0.03369140625,-0.578125,1.8019999999999998
1.1297709923664123,1.7251908396946565,-0.5648854961832062,-0.111083984375,0.02783203125,-0.584228515625,1.8036999999999999
1.1908396946564885,1.6488549618320612,-0.9007633587786259,-0.111083984375,0.031005859375,-0.578125,1.8054
1.3435114503816794,1.786259541984733,-1.083969465648855,-0.113037109375,0.029296875,-0.583740234375,1.8071
