gyrox1,gyroy1,gyroz1,accelx1,accely1,accelz1,Time
1.816793893129771,1.1297709923664123,-1.099236641221374,-0.46435546875,-0.003173828125,-0.15478515625,0.0
1.4961832061068703,1.2366412213740459,-0.9770992366412213,-0.472900390625,-0.00390625,-0.154296875,0.0017
1.6030534351145038,1.1908396946564885,-1.0229007633587786,-0.466552734375,-0.002685546875,-0.1572265625,0.0034
1.618320610687023,1.3282442748091603,-0.9770992366412213,-0.466064453125,-0.001953125,-0.147705078125,0.0050999999999999995
1.5114503816793894,1.5114503816793894,-1.0229007633587786,-0.46826171875,-0.001953125,-0.1572265625,0.0068
1.282442748091603,1.2213740458015268,-0.9770992366412213,-0.4658203125,-0.00146484375,-0.157958984375,0.008499999999999999
1.4809160305343512,1.1603053435114503,-0.8091603053435115,-0.46435546875,-0.00390625,-0.155029296875,0.010199999999999999
1.4961832061068703,1.3282442748091603,-0.7022900763358778,-0.466552734375,0.000732421875,-0.152587890625,0.011899999999999999
1.3893129770992367,1.5877862595419847,-0.732824427480916,-0.463623046875,0.002685546875,-0.14794921875,0.0136
1.5267175572519085,1.5419847328244274,-0.5954198473282443,-0.462646484375,0.002685546875,-0.15576171875,0.0153
1.5877862595419847,1.4961832061068703,-0.916030534351145,-0.46435546875,0.0009765625,-0.158203125,0.016999999999999998
1.3129770992366412,1.6030534351145038,-1.0534351145038168,-0.4677734375,-0.001953125,-0.151611328125,0.018699999999999998
1.5114503816793894,1.633587786259542,-0.8702290076335878,-0.458251953125,-0.001708984375,-0.1484375,0.020399999999999998
1.3893129770992367,1.3893129770992367,-0.7938931297709924,-0.46142578125,-0.00439453125,-0.14794921875,0.022099999999999998
1.6946564885496183,1.5572519083969465,-1.1450381679389312,-0.462646484375,0.000732421875,-0.15771484375,0.023799999999999998
1.4961832061068703,1.5725190839694656,-1.1755725190839694,-0.4619140625,0.0,-0.1513671875,0.0255
1.633587786259542,1.6030534351145038,-1.1908396946564885,-0.457275390625,0.001708984375,-0.153076171875,0.0272
1.3435114503816794,1.7557251908396947,-1.2213740458015268,-0.464599609375,0.000244140625,-0.15625,0.0289
1.4961832061068703,1.7099236641221374,-1.1145038167938932,-0.4609375,0.000244140625,-0.15234375,0.0306
1.7251908396946565,1.4961832061068703,-1.5114503816793894,-0.463623046875,-0.003173828125,-0.150146484375,0.032299999999999995
1.6488549618320612,1.5419847328244274,-1.251908396946565,-0.46533203125,-0.00048828125,-0.155517578125,0.033999999999999996
1.7404580152671756,1.5114503816793894,-1.2366412213740459,-0.464599609375,-0.0048828125,-0.1484375,0.035699999999999996
1.633587786259542,1.633587786259542,-1.2366412213740459,-0.463623046875,0.0029296875,-0.150390625,0.037399999999999996
1.8473282442748091,1.5267175572519085,-1.3282442748091603,-0.46240234375,0.0048828125,-0.1533203125,0.039099999999999996
1.9083969465648856,1.633587786259542,-1.3893129770992367,-0.4658203125,0.00048828125,-0.147216796875,0.040799999999999996
1.8931297709923665,1.3282442748091603,-1.4045801526717556,-0.46533203125,-0.00048828125,-0.158447265625,0.042499999999999996
1.8931297709923665,1.4961832061068703,-1.297709923664122,-0.46630859375,-0.004638671875,-0.157958984375,0.044199999999999996
1.7709923664122138,1.450381679389313,-1.450381679389313,-0.466064453125,0.00146484375,-0.1513671875,0.045899999999999996
1.633587786259542,1.297709923664122,-1.5267175572519085,-0.46337890625,0.000732421875,-0.146240234375,0.047599999999999996
1.816793893129771,1.4045801526717556,-1.465648854961832,-0.463134765625,-0.0009765625,-0.15478515625,0.0493
1.7251908396946565,1.618320610687023,-1.4351145038167938,-0.46826171875,0.0,-0.162109375,0.051
1.6946564885496183,1.618320610687023,-1.5419847328244274,-0.460693359375,0.000244140625,-0.153564453125,0.0527
1.8473282442748091,1.7557251908396947,-1.5114503816793894,-0.46484375,-0.001708984375,-0.147216796875,0.0544
1.6641221374045803,1.5419847328244274,-1.4809160305343512,-0.46923828125,0.00048828125,-0.152099609375,0.0561
1.6641221374045803,1.7404580152671756,-1.5725190839694656,-0.46533203125,0.000732421875,-0.153564453125,0.0578
1.8015267175572518,1.6946564885496183,-1.6488549618320612,-0.46728515625,-0.0048828125,-0.15234375,0.0595
1.6030534351145038,1.5877862595419847,-1.5114503816793894,-0.4677734375,-0.0009765625,-0.1455078125,0.0612
2.015267175572519,1.6641221374045803,-1.5114503816793894,-0.462646484375,0.00537109375,-0.15185546875,0.0629
1.8015267175572518,1.7251908396946565,-1.450381679389313,-0.4619140625,0.00341796875,-0.160888671875,0.06459999999999999
1.7557251908396947,1.6793893129770991,-1.618320610687023,-0.462890625,-0.00048828125,-0.15478515625,0.0663
1.7404580152671756,1.5877862595419847,-1.6641221374045803,-0.463134765625,0.001953125,-0.151611328125,0.06799999999999999
1.7404580152671756,1.618320610687023,-1.6488549618320612,-0.46533203125,0.003173828125,-0.146728515625,0.0697
1.8015267175572518,1.5419847328244274,-1.465648854961832,-0.464599609375,0.000244140625,-0.1474609375,0.07139999999999999
1.7557251908396947,1.450381679389313,-1.6946564885496183,-0.463623046875,0.000244140625,-0.149658203125,0.0731
2.015267175572519,1.6030534351145038,-1.6488549618320612,-0.466064453125,0.00244140625,-0.1474609375,0.07479999999999999
1.786259541984733,1.6641221374045803,-1.7251908396946565,-0.4619140625,-0.002197265625,-0.147216796875,0.0765
1.6793893129770991,1.7404580152671756,-1.6641221374045803,-0.467041015625,-0.003662109375,-0.1533203125,0.07819999999999999
1.7709923664122138,1.618320610687023,-1.6641221374045803,-0.462646484375,-0.000244140625,-0.15234375,0.0799
1.816793893129771,1.7709923664122138,-1.6030534351145038,-0.468017578125,-0.0029296875,-0.147705078125,0.08159999999999999
1.8015267175572518,1.6793893129770991,-1.8473282442748091,-0.465576171875,0.00146484375,-0.15625,0.0833
1.9694656488549618,1.5725190839694656,-1.6641221374045803,-0.4619140625,0.002197265625,-0.157470703125,0.08499999999999999
1.8931297709923665,1.7404580152671756,-1.816793893129771,-0.4638671875,0.004638671875,-0.15087890625,0.0867
1.8015267175572518,1.6793893129770991,-1.8015267175572518,-0.462158203125,0.00048828125,-0.150146484375,0.08839999999999999
1.786259541984733,1.6488549618320612,-1.8778625954198473,-0.462890625,-0.00439453125,-0.157470703125,0.0901
1.8778625954198473,1.7099236641221374,-1.8015267175572518,-0.465087890625,-0.000732421875,-0.15185546875,0.09179999999999999
1.7557251908396947,1.6793893129770991,-2.030534351145038,-0.466064453125,0.001708984375,-0.15673828125,0.0935
1.816793893129771,1.7709923664122138,-1.8473282442748091,-0.46142578125,-0.0009765625,-0.151611328125,0.09519999999999999
1.7251908396946565,1.7557251908396947,-1.8931297709923665,-0.463134765625,-0.004150390625,-0.157958984375,0.0969
2.0,1.618320610687023,-1.6946564885496183,-0.465087890625,-0.003662109375,-0.15380859375,0.0986
1.8473282442748091,1.633587786259542,-1.9236641221374047,-0.4677734375,0.005126953125,-0.153564453125,0.1003
1.633587786259542,1.5877862595419847,-1.984732824427481,-0.4619140625,-0.007080078125,-0.14501953125,0.102
1.9083969465648856,1.6946564885496183,-1.9389312977099236,-0.467529296875,0.001220703125,-0.142333984375,0.1037
1.9083969465648856,1.633587786259542,-1.9236641221374047,-0.468017578125,0.00390625,-0.150390625,0.1054
1.6641221374045803,1.5267175572519085,-2.0763358778625953,-0.462646484375,-0.00146484375,-0.152587890625,0.1071
2.015267175572519,1.5267175572519085,-2.0,-0.465576171875,-0.006591796875,-0.15185546875,0.1088
1.9541984732824427,1.6488549618320612,-2.0610687022900764,-0.46484375,-0.003173828125,-0.1591796875,0.11049999999999999
1.7709923664122138,1.6488549618320612,-2.1374045801526718,-0.468017578125,-0.003662109375,-0.156494140625,0.1122
2.045801526717557,1.7099236641221374,-2.2900763358778624,-0.46435546875,-0.00341796875,-0.165283203125,0.11389999999999999
1.7709923664122138,1.8015267175572518,-2.045801526717557,-0.4638671875,0.000244140625,-0.1552734375,0.1156
1.8931297709923665,1.633587786259542,-2.3969465648854964,-0.4599609375,-0.00341796875,-0.152099609375,0.11729999999999999
1.9389312977099236,1.8625954198473282,-2.2595419847328246,-0.46533203125,-0.001953125,-0.15478515625,0.119
1.9541984732824427,1.984732824427481,-2.33587786259542,-0.4609375,-0.002685546875,-0.146728515625,0.12069999999999999
1.8473282442748091,1.9541984732824427,-2.3053435114503817,-0.4599609375,-0.00244140625,-0.15576171875,0.1224
1.8625954198473282,2.122137404580153,-2.2748091603053435,-0.46484375,-0.001953125,-0.155029296875,0.12409999999999999
1.7099236641221374,2.16793893129771,-2.213740458015267,-0.45849609375,0.004638671875,-0.153564453125,0.1258
1.7404580152671756,2.2290076335877864,-2.549618320610687,-0.4619140625,-0.00146484375,-0.15185546875,0.1275
1.8625954198473282,2.2442748091603053,-2.2900763358778624,-0.462890625,-0.005126953125,-0.15625,0.12919999999999998
1.8473282442748091,2.0916030534351147,-2.33587786259542,-0.46484375,-0.00390625,-0.159423828125,0.1309
1.83206106870229,2.16793893129771,-2.366412213740458,-0.459228515625,-0.001708984375,-0.156982421875,0.1326
1.8778625954198473,2.122137404580153,-2.2748091603053435,-0.46533203125,-0.001220703125,-0.15625,0.1343
1.8015267175572518,1.7251908396946565,-2.3053435114503817,-0.46435546875,-0.005615234375,-0.1474609375,0.13599999999999998
2.0,1.6793893129770991,-2.564885496183206,-0.460693359375,-0.005615234375,-0.152587890625,0.1377
1.8931297709923665,1.7099236641221374,-2.183206106870229,-0.46484375,-0.000732421875,-0.157470703125,0.1394
2.045801526717557,1.4809160305343512,-2.2595419847328246,-0.4599609375,-0.00341796875,-0.155029296875,0.1411
1.9083969465648856,1.5114503816793894,-2.015267175572519,-0.457275390625,-0.00244140625,-0.1494140625,0.14279999999999998
2.015267175572519,1.3893129770992367,-2.3053435114503817,-0.45849609375,-0.003662109375,-0.16552734375,0.1445
1.7251908396946565,1.3587786259541985,-2.1374045801526718,-0.462158203125,-0.00146484375,-0.15234375,0.1462
1.786259541984733,1.3129770992366412,-2.33587786259542,-0.46484375,-0.00390625,-0.162841796875,0.1479
1.7099236641221374,1.465648854961832,-2.198473282442748,-0.46044921875,-0.00439453125,-0.153564453125,0.14959999999999998
1.6946564885496183,1.282442748091603,-2.183206106870229,-0.46484375,-0.00048828125,-0.15234375,0.1513
1.7709923664122138,1.4045801526717556,-2.0916030534351147,-0.46435546875,-0.000244140625,-0.1552734375,0.153
1.7099236641221374,1.2213740458015268,-2.0916030534351147,-0.466796875,-0.001220703125,-0.155029296875,0.1547
1.8931297709923665,1.3435114503816794,-1.9389312977099236,-0.46484375,-0.0029296875,-0.16015625,0.15639999999999998
1.786259541984733,1.4045801526717556,-1.8625954198473282,-0.462890625,-0.00341796875,-0.1591796875,0.1581
1.6030534351145038,1.2366412213740459,-1.7404580152671756,-0.46484375,-0.005615234375,-0.15283203125,0.1598
1.618320610687023,1.4045801526717556,-1.816793893129771,-0.46435546875,-0.007080078125,-0.14990234375,0.1615
1.5877862595419847,1.3435114503816794,-2.030534351145038,-0.46142578125,-0.001953125,-0.15771484375,0.16319999999999998
1.7404580152671756,1.2061068702290076,-2.1068702290076335,-0.461181640625,-0.003173828125,-0.16552734375,0.1649
1.5419847328244274,1.2366412213740459,-1.7557251908396947,-0.4638671875,-0.0009765625,-0.1640625,0.1666
1.4809160305343512,0.9923664122137404,-2.0763358778625953,-0.4619140625,-0.00146484375,-0.158935546875,0.16829999999999998
1.6641221374045803,0.9618320610687023,-1.8778625954198473,-0.463623046875,-0.007568359375,-0.158203125,0.16999999999999998
1.3740458015267176,0.916030534351145,-1.816793893129771,-0.46435546875,-0.01025390625,-0.1611328125,0.1717
1.816793893129771,1.0534351145038168,-1.8931297709923665,-0.468017578125,-0.00390625,-0.151123046875,0.1734
1.6793893129770991,0.8244274809160306,-1.7709923664122138,-0.462646484375,-0.006103515625,-0.15283203125,0.17509999999999998
1.5114503816793894,0.7633587786259542,-1.633587786259542,-0.46240234375,-0.0029296875,-0.147705078125,0.17679999999999998
1.633587786259542,0.6870229007633588,-1.8625954198473282,-0.458740234375,-0.005615234375,-0.154296875,0.1785
1.7099236641221374,0.5801526717557252,-1.7251908396946565,-0.45947265625,-0.00341796875,-0.153076171875,0.1802
1.3893129770992367,0.8702290076335878,-1.7557251908396947,-0.462158203125,-0.001953125,-0.150634765625,0.18189999999999998
1.4198473282442747,0.7480916030534351,-1.7251908396946565,-0.46142578125,-0.00390625,-0.156005859375,0.18359999999999999
1.465648854961832,0.5801526717557252,-1.9694656488549618,-0.46435546875,-0.0078125,-0.158203125,0.1853
1.465648854961832,0.5190839694656488,-1.7251908396946565,-0.46435546875,-0.005859375,-0.1484375,0.187
1.5572519083969465,0.6259541984732825,-1.7557251908396947,-0.463623046875,-0.0078125,-0.1513671875,0.18869999999999998
1.5572519083969465,0.5343511450381679,-1.5877862595419847,-0.468017578125,-0.0048828125,-0.157470703125,0.19039999999999999
1.1297709923664123,0.4122137404580153,-1.816793893129771,-0.464111328125,-0.001708984375,-0.15576171875,0.1921
1.3587786259541985,0.6259541984732825,-1.618320610687023,-0.4677734375,-0.001953125,-0.153076171875,0.1938
1.5419847328244274,0.4732824427480916,-1.7251908396946565,-0.466064453125,-0.004150390625,-0.150390625,0.19549999999999998
1.251908396946565,0.6106870229007634,-1.4961832061068703,-0.466796875,-0.00390625,-0.150146484375,0.1972
1.1145038167938932,0.7175572519083969,-1.5572519083969465,-0.466552734375,-0.00390625,-0.15380859375,0.1989
1.2366412213740459,0.8702290076335878,-1.465648854961832,-0.464111328125,-0.005859375,-0.156982421875,0.2006
1.3435114503816794,0.8396946564885496,-1.3282442748091603,-0.466796875,-0.005126953125,-0.156005859375,0.20229999999999998
1.3893129770992367,0.8091603053435115,-1.3129770992366412,-0.462646484375,-0.005859375,-0.1484375,0.204
1.0229007633587786,0.9007633587786259,-1.251908396946565,-0.46533203125,-0.005859375,-0.1494140625,0.2057
1.099236641221374,0.9770992366412213,-1.4045801526717556,-0.461181640625,-0.001953125,-0.157958984375,0.2074
1.1755725190839694,0.5801526717557252,-1.4961832061068703,-0.4619140625,-0.0009765625,-0.15576171875,0.20909999999999998
1.1297709923664123,0.6717557251908397,-1.3435114503816794,-0.464599609375,-0.003173828125,-0.158935546875,0.2108
1.1755725190839694,0.6564885496183206,-1.450381679389313,-0.46484375,-0.004150390625,-0.156005859375,0.2125
1.3435114503816794,0.4580152671755725,-1.5725190839694656,-0.462158203125,-0.00341796875,-0.157958984375,0.2142
1.2213740458015268,0.2748091603053435,-1.6946564885496183,-0.46044921875,-0.00537109375,-0.154052734375,0.21589999999999998
1.099236641221374,0.22900763358778625,-1.5114503816793894,-0.461181640625,-0.00390625,-0.16259765625,0.2176
1.0534351145038168,0.366412213740458,-1.5572519083969465,-0.46142578125,-0.004638671875,-0.16015625,0.2193
1.1297709923664123,0.3053435114503817,-1.282442748091603,-0.465087890625,-0.00390625,-0.15576171875,0.22099999999999997
0.916030534351145,0.15267175572519084,-1.3740458015267176,-0.464599609375,-0.002197265625,-0.15625,0.22269999999999998
0.9618320610687023,0.030534351145038167,-1.251908396946565,-0.4716796875,-0.003662109375,-0.155517578125,0.2244
0.8396946564885496,-0.030534351145038167,-1.1908396946564885,-0.4658203125,-0.009765625,-0.150634765625,0.2261
0.9007633587786259,-0.10687022900763359,-1.0381679389312977,-0.464111328125,-0.006103515625,-0.15087890625,0.22779999999999997
0.8702290076335878,0.015267175572519083,-1.0381679389312977,-0.467529296875,-0.008056640625,-0.14892578125,0.22949999999999998
1.0229007633587786,0.04580152671755725,-1.1145038167938932,-0.45849609375,-0.00390625,-0.16064453125,0.2312
0.9007633587786259,-0.07633587786259542,-1.3435114503816794,-0.465576171875,-0.0029296875,-0.15576171875,0.2329
0.9923664122137404,-0.030534351145038167,-1.297709923664122,-0.46240234375,-0.003662109375,-0.153564453125,0.23459999999999998
0.8396946564885496,0.015267175572519083,-1.1145038167938932,-0.46630859375,0.0,-0.152587890625,0.23629999999999998
0.5954198473282443,0.2900763358778626,-1.2061068702290076,-0.46142578125,-0.005615234375,-0.156005859375,0.238
0.5648854961832062,0.22900763358778625,-1.3282442748091603,-0.46240234375,-0.00537109375,-0.146484375,0.2397
0.8396946564885496,0.2595419847328244,-1.083969465648855,-0.468017578125,-0.007080078125,-0.160400390625,0.24139999999999998
0.48854961832061067,0.15267175572519084,-1.2366412213740459,-0.463623046875,-0.00830078125,-0.15869140625,0.24309999999999998
0.4580152671755725,0.22900763358778625,-0.9923664122137404,-0.46728515625,-0.0048828125,-0.15576171875,0.2448
0.5190839694656488,0.366412213740458,-1.0687022900763359,-0.46484375,-0.00439453125,-0.15087890625,0.2465
0.5343511450381679,0.16793893129770993,-1.2366412213740459,-0.467041015625,-0.0107421875,-0.161865234375,0.24819999999999998
0.3053435114503817,0.0,-1.2671755725190839,-0.462890625,-0.010498046875,-0.14990234375,0.24989999999999998
0.5343511450381679,-0.07633587786259542,-1.099236641221374,-0.462646484375,-0.004150390625,-0.163330078125,0.2516
0.5648854961832062,-0.21374045801526717,-1.3129770992366412,-0.462646484375,-0.004150390625,-0.156982421875,0.25329999999999997
0.3511450381679389,-0.21374045801526717,-1.3282442748091603,-0.45654296875,-0.00048828125,-0.150634765625,0.255
0.07633587786259542,-0.22900763358778625,-1.5725190839694656,-0.45751953125,-0.00390625,-0.1591796875,0.2567
0.061068702290076333,-0.24427480916030533,-1.4961832061068703,-0.460205078125,-0.0068359375,-0.15478515625,0.25839999999999996
0.24427480916030533,-0.3969465648854962,-1.5419847328244274,-0.467529296875,-0.005615234375,-0.148193359375,0.2601
0.0916030534351145,-0.48854961832061067,-1.618320610687023,-0.4619140625,-0.003662109375,-0.151611328125,0.2618
-0.10687022900763359,-0.5038167938931297,-1.5572519083969465,-0.46044921875,-0.0009765625,-0.158447265625,0.2635
0.061068702290076333,-0.6412213740458015,-1.4198473282442747,-0.4619140625,-0.00146484375,-0.15478515625,0.2652
0.10687022900763359,-0.8549618320610687,-1.3893129770992367,-0.466064453125,-0.001708984375,-0.154296875,0.26689999999999997
-0.061068702290076333,-1.0687022900763359,-1.1755725190839694,-0.458740234375,-0.001953125,-0.158203125,0.2686
0.015267175572519083,-0.9618320610687023,-1.0381679389312977,-0.46630859375,0.0009765625,-0.154541015625,0.2703
0.16793893129770993,-1.0381679389312977,-1.0076335877862594,-0.45947265625,0.0,-0.150634765625,0.27199999999999996
0.3053435114503817,-1.1603053435114503,-0.9770992366412213,-0.461669921875,-0.000244140625,-0.147216796875,0.2737
0.0916030534351145,-1.0534351145038168,-0.9465648854961832,-0.460693359375,-0.002197265625,-0.149658203125,0.2754
0.2595419847328244,-0.9618320610687023,-1.0381679389312977,-0.45654296875,-0.001953125,-0.1552734375,0.27709999999999996
0.1984732824427481,-1.083969465648855,-0.9007633587786259,-0.459716796875,-0.001708984375,-0.159423828125,0.2788
0.10687022900763359,-1.1755725190839694,-0.8854961832061069,-0.4638671875,0.00048828125,-0.151123046875,0.28049999999999997
0.16793893129770993,-1.1603053435114503,-1.1145038167938932,-0.466064453125,-0.003173828125,-0.16259765625,0.2822
0.015267175572519083,-1.2366412213740459,-1.099236641221374,-0.461181640625,-0.002685546875,-0.162109375,0.2839
0.015267175572519083,-1.1145038167938932,-1.2213740458015268,-0.463134765625,-0.00439453125,-0.148681640625,0.28559999999999997
0.030534351145038167,-1.1908396946564885,-1.099236641221374,-0.46142578125,-0.00341796875,-0.149658203125,0.2873
-0.13740458015267176,-1.3129770992366412,-0.9618320610687023,-0.46875,0.00048828125,-0.15380859375,0.289
0.030534351145038167,-1.4045801526717556,-0.9618320610687023,-0.463623046875,0.00244140625,-0.152099609375,0.29069999999999996
-0.015267175572519083,-1.4198473282442747,-0.8396946564885496,-0.463623046875,-0.00146484375,-0.14892578125,0.2924
0.10687022900763359,-1.3435114503816794,-0.8702290076335878,-0.46630859375,-0.00390625,-0.15478515625,0.2941
-0.04580152671755725,-1.5877862595419847,-0.7480916030534351,-0.466796875,-0.00341796875,-0.151123046875,0.2958
-0.0916030534351145,-1.4809160305343512,-0.6412213740458015,-0.466796875,-0.00439453125,-0.15234375,0.2975
0.0916030534351145,-1.4809160305343512,-0.5954198473282443,-0.464111328125,-0.002197265625,-0.15625,0.29919999999999997
-0.0916030534351145,-1.3282442748091603,-0.44274809160305345,-0.46630859375,0.000244140625,-0.147216796875,0.3009
-0.15267175572519084,-1.297709923664122,-0.5190839694656488,-0.463623046875,-0.00146484375,-0.1513671875,0.3026
-0.13740458015267176,-1.4198473282442747,-0.5648854961832062,-0.46240234375,0.001220703125,-0.150146484375,0.30429999999999996
-0.061068702290076333,-1.5114503816793894,-0.6870229007633588,-0.46533203125,0.000732421875,-0.151123046875,0.306
-0.21374045801526717,-1.297709923664122,-0.7175572519083969,-0.46826171875,-0.00048828125,-0.154296875,0.3077
-0.0916030534351145,-1.4045801526717556,-0.7480916030534351,-0.47021484375,0.001220703125,-0.156494140625,0.3094
-0.07633587786259542,-1.4961832061068703,-0.8091603053435115,-0.46826171875,0.00048828125,-0.14892578125,0.3111
-0.183206106870229,-1.450381679389313,-1.083969465648855,-0.466064453125,-0.00048828125,-0.15673828125,0.31279999999999997
-0.3969465648854962,-1.633587786259542,-1.0534351145038168,-0.461181640625,-0.005859375,-0.145751953125,0.3145
-0.183206106870229,-1.5572519083969465,-1.251908396946565,-0.470947265625,-0.003173828125,-0.16064453125,0.3162
-0.48854961832061067,-1.6488549618320612,-1.3893129770992367,-0.469970703125,-0.001953125,-0.152099609375,0.31789999999999996
-0.1984732824427481,-1.8931297709923665,-1.5572519083969465,-0.46337890625,-0.004150390625,-0.149658203125,0.3196
-0.24427480916030533,-2.030534351145038,-1.4351145038167938,-0.461669921875,0.001220703125,-0.156494140625,0.3213
-0.44274809160305345,-1.984732824427481,-1.5572519083969465,-0.46240234375,-0.000244140625,-0.16015625,0.323
-0.22900763358778625,-2.1526717557251906,-1.6030534351145038,-0.46484375,-0.00048828125,-0.160400390625,0.3247
-0.32061068702290074,-2.351145038167939,-1.618320610687023,-0.46923828125,-0.00537109375,-0.150390625,0.32639999999999997
-0.2900763358778626,-2.5343511450381677,-1.6030534351145038,-0.46728515625,-0.00341796875,-0.1552734375,0.3281
-0.366412213740458,-2.564885496183206,-1.6793893129770991,-0.46630859375,0.0,-0.154052734375,0.3298
-0.44274809160305345,-2.5801526717557253,-1.6030534351145038,-0.472900390625,0.001220703125,-0.152587890625,0.33149999999999996
-0.366412213740458,-2.6412213740458017,-1.8778625954198473,-0.46875,-0.00048828125,-0.15576171875,0.3332
-0.2900763358778626,-2.6259541984732824,-1.7404580152671756,-0.472900390625,-0.000244140625,-0.157958984375,0.3349
-0.3969465648854962,-2.717557251908397,-2.1374045801526718,-0.46875,-0.000244140625,-0.1474609375,0.33659999999999995
-0.7022900763358778,-2.6564885496183206,-2.015267175572519,-0.466552734375,-0.002197265625,-0.146484375,0.3383
-0.6717557251908397,-2.7480916030534353,-2.030534351145038,-0.462158203125,-0.00390625,-0.146240234375,0.33999999999999997
-0.4580152671755725,-2.564885496183206,-2.198473282442748,-0.4638671875,0.0009765625,-0.145751953125,0.3417
-0.6106870229007634,-2.427480916030534,-2.2290076335877864,-0.470458984375,-0.002197265625,-0.154296875,0.3434
-0.6564885496183206,-2.595419847328244,-2.2290076335877864,-0.4716796875,-0.003173828125,-0.1552734375,0.34509999999999996
-0.8396946564885496,-2.564885496183206,-2.1068702290076335,-0.463134765625,-0.00439453125,-0.155029296875,0.3468
-0.8854961832061069,-2.6259541984732824,-2.1068702290076335,-0.46142578125,-0.004638671875,-0.158447265625,0.3485
-0.7938931297709924,-2.8091603053435112,-2.3053435114503817,-0.463623046875,-0.001708984375,-0.156005859375,0.35019999999999996
-0.8244274809160306,-2.900763358778626,-2.33587786259542,-0.46044921875,-0.001708984375,-0.15576171875,0.3519
-0.9923664122137404,-3.4198473282442747,-2.549618320610687,-0.469482421875,-0.006103515625,-0.147705078125,0.35359999999999997
-0.8396946564885496,-3.8931297709923665,-2.564885496183206,-0.46484375,-0.006591796875,-0.15576171875,0.3553
-0.9007633587786259,-3.83206106870229,-2.6717557251908395,-0.46630859375,-0.000244140625,-0.15380859375,0.357
-0.8396946564885496,-3.9389312977099236,-2.6717557251908395,-0.464599609375,-0.0009765625,-0.1455078125,0.35869999999999996
-0.7175572519083969,-4.0,-2.519083969465649,-0.46240234375,-0.00537109375,-0.157470703125,0.3604
-0.7786259541984732,-3.984732824427481,-2.381679389312977,-0.4638671875,-0.004150390625,-0.15185546875,0.3621
-0.7175572519083969,-3.8931297709923665,-2.3969465648854964,-0.464111328125,-0.002197265625,-0.140625,0.36379999999999996
-0.5801526717557252,-3.8625954198473282,-2.122137404580153,-0.46435546875,0.005615234375,-0.150634765625,0.3655
-0.6412213740458015,-3.83206106870229,-2.381679389312977,-0.462158203125,-0.001220703125,-0.1484375,0.36719999999999997
-0.8702290076335878,-3.5572519083969465,-2.3206106870229006,-0.465576171875,-0.00146484375,-0.14404296875,0.3689
-0.7175572519083969,-3.7251908396946565,-2.2595419847328246,-0.462890625,-0.002197265625,-0.153076171875,0.3706
-0.7938931297709924,-3.9083969465648853,-2.0916030534351147,-0.467041015625,-0.00390625,-0.1494140625,0.37229999999999996
-0.6564885496183206,-3.9389312977099236,-2.4580152671755724,-0.462158203125,0.000244140625,-0.14453125,0.374
-0.7022900763358778,-3.9083969465648853,-2.3969465648854964,-0.460693359375,0.0029296875,-0.14404296875,0.3757
-0.7786259541984732,-3.8473282442748094,-2.549618320610687,-0.46435546875,0.00439453125,-0.14697265625,0.37739999999999996
-0.6870229007633588,-3.9389312977099236,-2.595419847328244,-0.459716796875,-0.00146484375,-0.14990234375,0.3791
-0.7480916030534351,-4.076335877862595,-2.564885496183206,-0.460693359375,0.0,-0.1552734375,0.38079999999999997
-0.7786259541984732,-4.030534351145038,-2.4427480916030535,-0.46337890625,-0.00048828125,-0.15478515625,0.38249999999999995
-0.5648854961832062,-4.0,-2.8091603053435112,-0.4638671875,0.00048828125,-0.151123046875,0.3842
-0.6106870229007634,-4.061068702290076,-2.519083969465649,-0.469482421875,-0.00048828125,-0.153076171875,0.38589999999999997
-0.6106870229007634,-4.076335877862595,-2.351145038167939,-0.469482421875,0.002197265625,-0.148681640625,0.3876
-0.48854961832061067,-4.015267175572519,-2.3206106870229006,-0.462646484375,0.0,-0.15087890625,0.3893
-0.4580152671755725,-3.877862595419847,-2.2748091603053435,-0.46435546875,0.002197265625,-0.15185546875,0.39099999999999996
-0.42748091603053434,-3.7099236641221376,-1.8015267175572518,-0.458251953125,-0.00146484375,-0.148193359375,0.3927
-0.3511450381679389,-3.633587786259542,-1.7099236641221374,-0.46728515625,0.001220703125,-0.15625,0.3944
-0.1984732824427481,-3.3740458015267176,-1.7709923664122138,-0.46533203125,-0.0009765625,-0.15380859375,0.39609999999999995
-0.48854961832061067,-3.450381679389313,-2.045801526717557,-0.471435546875,0.0,-0.146728515625,0.3978
-0.3969465648854962,-3.2213740458015265,-1.9389312977099236,-0.46435546875,0.002197265625,-0.148681640625,0.39949999999999997
-0.4732824427480916,-3.145038167938931,-2.0610687022900764,-0.46435546875,-0.001953125,-0.150634765625,0.4012
-0.5038167938931297,-3.2977099236641223,-2.0610687022900764,-0.4677734375,-0.001708984375,-0.146484375,0.4029
-0.366412213740458,-3.3282442748091605,-2.0763358778625953,-0.462646484375,-0.004150390625,-0.144287109375,0.40459999999999996
-0.32061068702290074,-3.1755725190839694,-1.7099236641221374,-0.4609375,-0.004150390625,-0.145751953125,0.4063
-0.2748091603053435,-3.145038167938931,-2.3053435114503817,-0.464111328125,-0.004638671875,-0.148681640625,0.408
-0.13740458015267176,-3.2213740458015265,-2.045801526717557,-0.464599609375,0.004638671875,-0.150146484375,0.40969999999999995
-0.10687022900763359,-3.099236641221374,-2.1526717557251906,-0.462158203125,-0.004638671875,-0.144287109375,0.4114
-0.3053435114503817,-3.099236641221374,-2.015267175572519,-0.457763671875,-0.001708984375,-0.137939453125,0.41309999999999997
-0.10687022900763359,-2.8396946564885495,-2.0610687022900764,-0.4609375,0.000732421875,-0.14990234375,0.4148
0.0,-2.687022900763359,-1.9694656488549618,-0.46826171875,0.000732421875,-0.152587890625,0.4165
0.07633587786259542,-2.6564885496183206,-1.8778625954198473,-0.4697265625,-0.0009765625,-0.153076171875,0.41819999999999996
0.061068702290076333,-2.5801526717557253,-1.6793893129770991,-0.4697265625,0.000244140625,-0.14306640625,0.4199
0.04580152671755725,-2.5343511450381677,-1.618320610687023,-0.462158203125,-0.001708984375,-0.148193359375,0.4216
0.04580152671755725,-2.7480916030534353,-1.633587786259542,-0.463623046875,-0.001220703125,-0.153564453125,0.42329999999999995
0.0916030534351145,-2.427480916030534,-1.7251908396946565,-0.46484375,-0.003662109375,-0.148193359375,0.425
0.24427480916030533,-2.4122137404580153,-1.7099236641221374,-0.4658203125,-0.00146484375,-0.15283203125,0.42669999999999997
0.12213740458015267,-2.1068702290076335,-1.7099236641221374,-0.46826171875,-0.00244140625,-0.1484375,0.4284
0.0916030534351145,-2.1068702290076335,-1.6030534351145038,-0.466552734375,0.003173828125,-0.1484375,0.4301
0.183206106870229,-2.0763358778625953,-1.7251908396946565,-0.464599609375,-0.001220703125,-0.146728515625,0.43179999999999996
0.15267175572519084,-1.8473282442748091,-1.6488549618320612,-0.470458984375,-0.00634765625,-0.1484375,0.4335
0.3511450381679389,-1.7557251908396947,-1.7099236641221374,-0.466796875,-0.00537109375,-0.151123046875,0.4352
0.2595419847328244,-1.83206106870229,-1.4961832061068703,-0.46044921875,-0.004638671875,-0.14501953125,0.43689999999999996
0.5343511450381679,-2.030534351145038,-1.6488549618320612,-0.465087890625,-0.00146484375,-0.14501953125,0.4386
0.5648854961832062,-1.7557251908396947,-1.5572519083969465,-0.4677734375,-0.00439453125,-0.148681640625,0.44029999999999997
0.5648854961832062,-1.5725190839694656,-1.7709923664122138,-0.466552734375,0.00341796875,-0.14794921875,0.44199999999999995
0.5038167938931297,-1.6488549618320612,-1.5572519083969465,-0.46484375,0.00048828125,-0.152099609375,0.4437
0.5190839694656488,-1.4045801526717556,-1.5725190839694656,-0.467529296875,0.000244140625,-0.142822265625,0.44539999999999996
0.5038167938931297,-1.3587786259541985,-1.3129770992366412,-0.464111328125,0.0009765625,-0.145263671875,0.4471
0.8396946564885496,-1.297709923664122,-1.3587786259541985,-0.4658203125,0.0009765625,-0.154052734375,0.4488
0.7633587786259542,-1.3435114503816794,-1.1297709923664123,-0.458984375,-0.002685546875,-0.14453125,0.45049999999999996
0.7633587786259542,-1.4351145038167938,-1.3587786259541985,-0.459228515625,-0.004638671875,-0.142578125,0.4522
0.8244274809160306,-1.1297709923664123,-1.297709923664122,-0.466064453125,-0.00146484375,-0.14501953125,0.45389999999999997
1.0229007633587786,-1.1603053435114503,-1.4351145038167938,-0.459716796875,-0.002197265625,-0.146484375,0.45559999999999995
1.0687022900763359,-1.0687022900763359,-1.3893129770992367,-0.462158203125,-0.00048828125,-0.14306640625,0.4573
1.083969465648855,-1.0076335877862594,-1.6030534351145038,-0.46484375,0.001708984375,-0.147216796875,0.45899999999999996
1.1908396946564885,-1.1603053435114503,-1.450381679389313,-0.46533203125,-0.00048828125,-0.14208984375,0.4607
1.1603053435114503,-0.8091603053435115,-1.5114503816793894,-0.470458984375,-0.000732421875,-0.14404296875,0.4624
0.9618320610687023,-0.6870229007633588,-1.251908396946565,-0.46533203125,-0.002685546875,-0.13818359375,0.46409999999999996
1.0076335877862594,-0.6412213740458015,-1.4045801526717556,-0.4716796875,0.003662109375,-0.14892578125,0.4658
1.4045801526717556,-0.549618320610687,-1.3129770992366412,-0.463623046875,-0.002197265625,-0.152587890625,0.46749999999999997
1.1603053435114503,-0.5801526717557252,-1.1603053435114503,-0.464111328125,-0.00048828125,-0.14208984375,0.46919999999999995
1.5419847328244274,-0.3053435114503817,-1.1603053435114503,-0.466796875,0.000732421875,-0.1494140625,0.4709
1.465648854961832,-0.15267175572519084,-0.9770992366412213,-0.470458984375,0.0029296875,-0.146240234375,0.47259999999999996
1.5267175572519085,-0.04580152671755725,-1.0076335877862594,-0.470458984375,-0.00146484375,-0.1494140625,0.4743
1.450381679389313,0.0916030534351145,-1.2213740458015268,-0.468017578125,-0.000244140625,-0.145263671875,0.476
1.3893129770992367,0.1984732824427481,-1.0687022900763359,-0.474853515625,0.000732421875,-0.138671875,0.47769999999999996
1.4351145038167938,0.2900763358778626,-1.099236641221374,-0.46826171875,-0.00341796875,-0.14697265625,0.4794
1.5419847328244274,0.5648854961832062,-1.0229007633587786,-0.46435546875,0.000732421875,-0.143798828125,0.48109999999999997
1.5877862595419847,0.5954198473282443,-1.1145038167938932,-0.464599609375,-0.001953125,-0.14208984375,0.48279999999999995
1.7557251908396947,0.5343511450381679,-0.8244274809160306,-0.46435546875,-0.001708984375,-0.14404296875,0.4845
1.816793893129771,0.8702290076335878,-0.9465648854961832,-0.46875,0.00048828125,-0.14794921875,0.48619999999999997
1.618320610687023,0.7480916030534351,-0.9923664122137404,-0.4638671875,-0.0009765625,-0.147216796875,0.4879
1.8015267175572518,1.0534351145038168,-1.083969465648855,-0.471435546875,-0.0048828125,-0.152099609375,0.4896
1.9236641221374047,1.2366412213740459,-0.9923664122137404,-0.472900390625,-0.00341796875,-0.146240234375,0.49129999999999996
1.7099236641221374,1.2366412213740459,-0.8396946564885496,-0.465576171875,-0.000732421875,-0.143798828125,0.493
1.9236641221374047,1.3282442748091603,-0.916030534351145,-0.46728515625,0.0029296875,-0.144775390625,0.4947
1.7557251908396947,1.450381679389313,-0.8396946564885496,-0.470947265625,0.00048828125,-0.14501953125,0.49639999999999995
1.8015267175572518,1.5725190839694656,-0.8091603053435115,-0.46484375,-0.00390625,-0.142822265625,0.4981
2.0916030534351147,1.5419847328244274,-0.916030534351145,-0.466552734375,-0.00439453125,-0.151123046875,0.49979999999999997
1.9694656488549618,1.5572519083969465,-0.7022900763358778,-0.466796875,-0.002685546875,-0.1533203125,0.5015
2.1526717557251906,1.6641221374045803,-0.7022900763358778,-0.470458984375,0.00244140625,-0.142822265625,0.5032
2.381679389312977,1.7099236641221374,-0.8396946564885496,-0.46533203125,0.000732421875,-0.13427734375,0.5049
2.381679389312977,1.8625954198473282,-0.5190839694656488,-0.466064453125,0.00146484375,-0.1455078125,0.5065999999999999
2.0763358778625953,1.9083969465648856,-0.6564885496183206,-0.469970703125,-0.0009765625,-0.148681640625,0.5083
2.2290076335877864,2.1068702290076335,-0.8091603053435115,-0.46630859375,-0.0029296875,-0.14453125,0.51
2.5801526717557253,2.2442748091603053,-0.5954198473282443,-0.469970703125,-0.00146484375,-0.151123046875,0.5116999999999999
2.2748091603053435,2.1068702290076335,-0.7786259541984732,-0.47216796875,-0.001708984375,-0.1533203125,0.5134
2.3206106870229006,2.2900763358778624,-0.7175572519083969,-0.46533203125,-0.002685546875,-0.149169921875,0.5151
2.4885496183206106,2.549618320610687,-0.5648854961832062,-0.471923828125,-0.0048828125,-0.141845703125,0.5167999999999999
2.4732824427480917,2.6717557251908395,-0.6106870229007634,-0.466064453125,-0.00146484375,-0.1513671875,0.5185
2.3053435114503817,2.549618320610687,-0.7175572519083969,-0.464599609375,0.003173828125,-0.136962890625,0.5202
2.2290076335877864,2.6717557251908395,-0.549618320610687,-0.463134765625,-0.005859375,-0.149169921875,0.5218999999999999
2.4885496183206106,3.053435114503817,-0.549618320610687,-0.466064453125,-0.0048828125,-0.146240234375,0.5236
2.198473282442748,2.900763358778626,-0.6564885496183206,-0.4638671875,-0.001220703125,-0.150146484375,0.5253
2.4580152671755724,2.7022900763358777,-0.7022900763358778,-0.459716796875,-0.0048828125,-0.15771484375,0.527
2.5801526717557253,2.6717557251908395,-0.44274809160305345,-0.462646484375,-0.00244140625,-0.14501953125,0.5287
2.4732824427480917,2.2442748091603053,-0.5038167938931297,-0.463134765625,0.000244140625,-0.14111328125,0.5304
2.6106870229007635,2.122137404580153,-0.48854961832061067,-0.46533203125,-0.002197265625,-0.15283203125,0.5321
2.5801526717557253,2.030534351145038,-0.4732824427480916,-0.463134765625,-0.001708984375,-0.1474609375,0.5337999999999999
2.9160305343511452,1.83206106870229,-0.5954198473282443,-0.460693359375,-0.00048828125,-0.143310546875,0.5355
2.7022900763358777,1.786259541984733,-0.2900763358778626,-0.467041015625,0.0,-0.145263671875,0.5372
2.8244274809160306,1.816793893129771,-0.6564885496183206,-0.466796875,-0.002685546875,-0.1474609375,0.5388999999999999
2.946564885496183,1.618320610687023,-0.7022900763358778,-0.468994140625,-0.002197265625,-0.15087890625,0.5406
2.9770992366412212,1.5725190839694656,-0.5038167938931297,-0.469482421875,-0.00244140625,-0.14404296875,0.5423
2.732824427480916,1.786259541984733,-0.6564885496183206,-0.46533203125,0.003173828125,-0.148193359375,0.5439999999999999
2.7480916030534353,2.015267175572519,-0.5343511450381679,-0.46044921875,0.005615234375,-0.148681640625,0.5457
2.9618320610687023,1.8931297709923665,-0.32061068702290074,-0.462890625,0.00048828125,-0.14306640625,0.5474
2.717557251908397,2.045801526717557,-0.366412213740458,-0.467529296875,0.002197265625,-0.156494140625,0.5490999999999999
2.6564885496183206,2.045801526717557,-0.12213740458015267,-0.467529296875,0.003173828125,-0.146728515625,0.5508
2.595419847328244,2.16793893129771,-0.061068702290076333,-0.46826171875,-0.001220703125,-0.154296875,0.5525
2.7022900763358777,2.0763358778625953,0.04580152671755725,-0.4638671875,0.001953125,-0.14501953125,0.5541999999999999
2.8396946564885495,2.0763358778625953,-0.24427480916030533,-0.46826171875,-0.00146484375,-0.14208984375,0.5559
3.0381679389312977,2.213740458015267,0.061068702290076333,-0.464599609375,-0.000244140625,-0.14892578125,0.5576
2.7786259541984735,2.1374045801526718,-0.04580152671755725,-0.459228515625,0.000732421875,-0.146240234375,0.5593
3.236641221374046,2.0916030534351147,0.04580152671755725,-0.462158203125,0.005615234375,-0.141845703125,0.5609999999999999
3.1603053435114505,2.0916030534351147,-0.07633587786259542,-0.458984375,0.004150390625,-0.151123046875,0.5627
3.053435114503817,2.030534351145038,-0.16793893129770993,-0.4580078125,0.002197265625,-0.15380859375,0.5644
3.1297709923664123,2.030534351145038,-0.42748091603053434,-0.46533203125,0.00537109375,-0.156982421875,0.5660999999999999
3.1603053435114505,1.9389312977099236,-0.48854961832061067,-0.4580078125,0.006591796875,-0.160400390625,0.5678
3.3740458015267176,1.6793893129770991,-0.6564885496183206,-0.46044921875,0.002685546875,-0.153564453125,0.5695
3.2519083969465647,1.450381679389313,-0.8854961832061069,-0.465087890625,-0.002197265625,-0.1435546875,0.5711999999999999
3.2977099236641223,1.282442748091603,-1.0687022900763359,-0.46142578125,0.001708984375,-0.145263671875,0.5729
3.3282442748091605,1.0229007633587786,-1.1297709923664123,-0.464599609375,0.001220703125,-0.141357421875,0.5746
3.435114503816794,0.9465648854961832,-1.2213740458015268,-0.458740234375,-0.004638671875,-0.150146484375,0.5762999999999999
3.480916030534351,0.916030534351145,-1.0076335877862594,-0.455322265625,0.003173828125,-0.1376953125,0.578
3.480916030534351,0.8396946564885496,-0.8854961832061069,-0.458251953125,0.002685546875,-0.14892578125,0.5797
3.801526717557252,0.8091603053435115,-0.8244274809160306,-0.463134765625,0.000732421875,-0.14453125,0.5813999999999999
3.5572519083969465,0.7786259541984732,-1.0381679389312977,-0.462890625,0.001220703125,-0.153564453125,0.5831
3.6030534351145036,0.549618320610687,-1.1145038167938932,-0.459228515625,-0.00341796875,-0.135009765625,0.5848
3.7557251908396947,0.4122137404580153,-1.1145038167938932,-0.47021484375,0.0,-0.1494140625,0.5865
3.7709923664122136,0.5954198473282443,-1.0229007633587786,-0.462158203125,0.00341796875,-0.1552734375,0.5882
3.6793893129770994,0.5954198473282443,-1.2671755725190839,-0.465576171875,0.000244140625,-0.150390625,0.5899
3.816793893129771,0.549618320610687,-1.099236641221374,-0.46142578125,0.00146484375,-0.1484375,0.5916
3.66412213740458,0.4732824427480916,-1.5725190839694656,-0.46240234375,-0.001708984375,-0.157958984375,0.5932999999999999
3.5419847328244276,0.3053435114503817,-1.4809160305343512,-0.466064453125,0.000244140625,-0.1513671875,0.595
3.450381679389313,0.24427480916030533,-1.465648854961832,-0.462158203125,0.002197265625,-0.14794921875,0.5967
3.435114503816794,0.030534351145038167,-1.3129770992366412,-0.464111328125,0.00244140625,-0.14697265625,0.5983999999999999
3.404580152671756,0.07633587786259542,-1.450381679389313,-0.460693359375,-0.00048828125,-0.151611328125,0.6001
3.7251908396946565,0.13740458015267176,-1.2671755725190839,-0.45703125,-0.003662109375,-0.15234375,0.6018
3.8625954198473282,0.10687022900763359,-1.282442748091603,-0.458740234375,0.00244140625,-0.157958984375,0.6034999999999999
3.7709923664122136,0.07633587786259542,-1.099236641221374,-0.461181640625,-0.0009765625,-0.151611328125,0.6052
4.1679389312977095,-0.1984732824427481,-1.3282442748091603,-0.461181640625,0.002197265625,-0.1455078125,0.6069
3.954198473282443,-0.32061068702290074,-1.2213740458015268,-0.4599609375,0.001953125,-0.149169921875,0.6085999999999999
3.9083969465648853,-0.5801526717557252,-1.2366412213740459,-0.46142578125,-0.00048828125,-0.14794921875,0.6103
3.9083969465648853,-0.7786259541984732,-1.1755725190839694,-0.461669921875,-0.0009765625,-0.148681640625,0.612
3.954198473282443,-0.6717557251908397,-1.099236641221374,-0.4609375,0.000244140625,-0.154296875,0.6136999999999999
3.954198473282443,-0.5954198473282443,-1.3587786259541985,-0.46533203125,-0.00048828125,-0.149169921875,0.6154
4.0458015267175576,-0.6717557251908397,-1.6030534351145038,-0.466552734375,0.00341796875,-0.145263671875,0.6171
3.9236641221374047,-0.7022900763358778,-1.3740458015267176,-0.467041015625,-0.000732421875,-0.151123046875,0.6188
4.259541984732825,-0.4732824427480916,-1.3282442748091603,-0.46630859375,-0.001708984375,-0.1513671875,0.6204999999999999
4.137404580152672,-0.3053435114503817,-1.2366412213740459,-0.46630859375,0.0,-0.153076171875,0.6222
3.984732824427481,-0.183206106870229,-1.1145038167938932,-0.468017578125,-0.00634765625,-0.151123046875,0.6239
3.969465648854962,0.030534351145038167,-1.1603053435114503,-0.46484375,-0.003173828125,-0.150146484375,0.6255999999999999
4.320610687022901,-0.12213740458015267,-1.1908396946564885,-0.4638671875,-0.00146484375,-0.145751953125,0.6273
4.122137404580153,-0.16793893129770993,-0.9770992366412213,-0.463134765625,-0.00244140625,-0.13818359375,0.629
4.198473282442748,-0.15267175572519084,-1.3129770992366412,-0.466552734375,-0.002197265625,-0.139404296875,0.6306999999999999
4.137404580152672,-0.3053435114503817,-1.1908396946564885,-0.463134765625,-0.002197265625,-0.14306640625,0.6324
4.106870229007634,-0.2748091603053435,-1.1145038167938932,-0.460693359375,0.00341796875,-0.148193359375,0.6341
4.33587786259542,-0.42748091603053434,-1.251908396946565,-0.467041015625,0.000732421875,-0.157958984375,0.6357999999999999
4.488549618320611,-0.24427480916030533,-1.1908396946564885,-0.4619140625,0.0,-0.151123046875,0.6375
4.33587786259542,-0.2900763358778626,-1.1297709923664123,-0.462890625,0.001953125,-0.1455078125,0.6392
4.473282442748092,-0.183206106870229,-1.4045801526717556,-0.46533203125,0.00048828125,-0.149658203125,0.6408999999999999
4.427480916030534,-0.21374045801526717,-1.0381679389312977,-0.46533203125,-0.001953125,-0.146728515625,0.6426
4.564885496183206,-0.22900763358778625,-1.0381679389312977,-0.4697265625,0.00048828125,-0.154541015625,0.6443
4.5038167938931295,-0.2748091603053435,-0.8702290076335878,-0.4638671875,0.0,-0.146728515625,0.646
4.6106870229007635,0.030534351145038167,-0.9312977099236641,-0.464599609375,-0.008056640625,-0.142578125,0.6476999999999999
4.519083969465649,0.07633587786259542,-0.8091603053435115,-0.470947265625,0.001220703125,-0.147216796875,0.6494
4.717557251908397,0.183206106870229,-0.8854961832061069,-0.4677734375,0.000244140625,-0.146484375,0.6511
4.641221374045801,0.33587786259541985,-0.7022900763358778,-0.466796875,0.00439453125,-0.14404296875,0.6527999999999999
4.488549618320611,0.44274809160305345,-0.9465648854961832,-0.46875,0.005615234375,-0.14990234375,0.6545
4.748091603053435,0.3511450381679389,-0.7480916030534351,-0.4658203125,-0.00244140625,-0.15234375,0.6562
4.870229007633588,0.4732824427480916,-0.8549618320610687,-0.467041015625,0.00146484375,-0.153564453125,0.6578999999999999
4.870229007633588,0.5343511450381679,-0.8091603053435115,-0.46484375,-0.00048828125,-0.153564453125,0.6596
4.717557251908397,0.6564885496183206,-0.8702290076335878,-0.467041015625,0.002197265625,-0.15185546875,0.6613
4.549618320610687,0.8396946564885496,-0.8854961832061069,-0.466552734375,-0.002197265625,-0.1533203125,0.6629999999999999
4.793893129770993,0.6412213740458015,-0.7938931297709924,-0.46630859375,0.001953125,-0.1494140625,0.6647
4.824427480916031,0.8396946564885496,-0.7175572519083969,-0.468017578125,0.003662109375,-0.150634765625,0.6664
4.732824427480916,0.9923664122137404,-0.8244274809160306,-0.461669921875,0.000244140625,-0.14306640625,0.6680999999999999
5.145038167938932,0.9465648854961832,-0.6564885496183206,-0.4658203125,0.000244140625,-0.145263671875,0.6698
5.00763358778626,0.8091603053435115,-0.7633587786259542,-0.465576171875,-0.00048828125,-0.1455078125,0.6715
5.022900763358779,0.7022900763358778,-0.6412213740458015,-0.467041015625,0.001708984375,-0.144287109375,0.6731999999999999
5.114503816793893,0.8244274809160306,-0.7938931297709924,-0.46923828125,0.002197265625,-0.14599609375,0.6748999999999999
5.00763358778626,0.7022900763358778,-0.7633587786259542,-0.4638671875,-0.000244140625,-0.14111328125,0.6766
5.297709923664122,0.916030534351145,-0.732824427480916,-0.470458984375,-0.00439453125,-0.146728515625,0.6783
5.206106870229007,0.8702290076335878,-0.6564885496183206,-0.466796875,-0.00634765625,-0.146240234375,0.6799999999999999
5.312977099236641,0.9007633587786259,-0.6564885496183206,-0.4658203125,-0.001220703125,-0.146240234375,0.6817
5.435114503816794,1.1145038167938932,-0.6259541984732825,-0.470947265625,-0.001708984375,-0.147705078125,0.6834
5.419847328244275,1.099236641221374,-0.7786259541984732,-0.4677734375,0.007080078125,-0.14599609375,0.6850999999999999
5.251908396946565,1.1908396946564885,-0.44274809160305345,-0.470458984375,0.00439453125,-0.15771484375,0.6868
5.251908396946565,1.2671755725190839,-0.6412213740458015,-0.469482421875,-0.002685546875,-0.138671875,0.6885
5.435114503816794,1.3587786259541985,-0.549618320610687,-0.467041015625,-0.001708984375,-0.145751953125,0.6901999999999999
5.404580152671755,1.4045801526717556,-0.4580152671755725,-0.4677734375,-0.0009765625,-0.143310546875,0.6919
5.435114503816794,1.6030534351145038,-0.6106870229007634,-0.468994140625,0.001220703125,-0.1416015625,0.6936
5.3893129770992365,1.7557251908396947,-0.5648854961832062,-0.469482421875,-0.002197265625,-0.1494140625,0.6952999999999999
5.511450381679389,1.786259541984733,-0.2900763358778626,-0.462890625,0.000732421875,-0.144287109375,0.697
5.587786259541985,1.7557251908396947,-0.5190839694656488,-0.4677734375,-0.00341796875,-0.1494140625,0.6987
5.6183206106870225,1.8931297709923665,-0.4580152671755725,-0.463134765625,-0.002685546875,-0.144287109375,0.7003999999999999
5.374045801526718,1.8473282442748091,-0.48854961832061067,-0.466552734375,-0.00244140625,-0.1416015625,0.7021
5.282442748091603,1.786259541984733,-0.33587786259541985,-0.465087890625,-0.003173828125,-0.14892578125,0.7038
5.343511450381679,1.8778625954198473,-0.5038167938931297,-0.467529296875,-0.005126953125,-0.146728515625,0.7055
5.358778625954199,1.8778625954198473,-0.366412213740458,-0.463623046875,-0.001953125,-0.149169921875,0.7071999999999999
5.465648854961832,1.6488549618320612,-0.48854961832061067,-0.46484375,-0.002685546875,-0.148193359375,0.7089
5.465648854961832,1.6641221374045803,-0.2748091603053435,-0.46240234375,0.0009765625,-0.14208984375,0.7106
5.465648854961832,1.465648854961832,-0.3969465648854962,-0.45947265625,-0.001953125,-0.15869140625,0.7122999999999999
5.816793893129771,1.4961832061068703,-0.3511450381679389,-0.4619140625,-0.0048828125,-0.15185546875,0.714
5.66412213740458,1.7251908396946565,-0.32061068702290074,-0.46337890625,-0.00537109375,-0.1435546875,0.7157
5.740458015267175,1.8015267175572518,-0.3816793893129771,-0.46826171875,-0.0009765625,-0.146728515625,0.7173999999999999
5.984732824427481,1.7709923664122138,-0.6564885496183206,-0.46630859375,0.000732421875,-0.1416015625,0.7191
5.694656488549619,1.786259541984733,-0.183206106870229,-0.46630859375,-0.000732421875,-0.1513671875,0.7208
5.770992366412214,1.7709923664122138,-0.21374045801526717,-0.46044921875,-0.0048828125,-0.158447265625,0.7224999999999999
5.786259541984733,1.7404580152671756,-0.3969465648854962,-0.46240234375,0.001708984375,-0.164306640625,0.7242
5.847328244274809,1.8473282442748091,-0.3969465648854962,-0.4677734375,-0.001953125,-0.1591796875,0.7259
5.694656488549619,1.786259541984733,-0.4732824427480916,-0.47119140625,-0.004638671875,-0.151611328125,0.7275999999999999
5.679389312977099,2.0916030534351147,-0.3969465648854962,-0.46435546875,0.0,-0.148193359375,0.7293
5.770992366412214,2.0763358778625953,-0.1984732824427481,-0.464111328125,-0.002197265625,-0.151611328125,0.731
5.786259541984733,2.030534351145038,-0.44274809160305345,-0.462890625,-0.0009765625,-0.14697265625,0.7326999999999999
5.801526717557252,2.1068702290076335,-0.3969465648854962,-0.464599609375,0.0,-0.147216796875,0.7343999999999999
5.847328244274809,2.015267175572519,-0.3969465648854962,-0.467041015625,0.000732421875,-0.147705078125,0.7361
5.938931297709924,1.8778625954198473,-0.3053435114503817,-0.467041015625,-0.00341796875,-0.1513671875,0.7378
5.770992366412214,1.8931297709923665,-0.32061068702290074,-0.45849609375,-0.004638671875,-0.1494140625,0.7394999999999999
5.801526717557252,1.9541984732824427,-0.3053435114503817,-0.463623046875,-0.002197265625,-0.14990234375,0.7412
5.786259541984733,1.984732824427481,-0.44274809160305345,-0.46484375,0.00146484375,-0.14990234375,0.7429
5.709923664122138,1.83206106870229,-0.183206106870229,-0.464599609375,0.001708984375,-0.156982421875,0.7445999999999999
5.8320610687022905,1.7557251908396947,-0.32061068702290074,-0.46728515625,-0.006103515625,-0.14892578125,0.7463
5.847328244274809,1.9083969465648856,-0.3511450381679389,-0.4638671875,-0.000732421875,-0.147705078125,0.748
5.816793893129771,2.0,-0.24427480916030533,-0.4619140625,-0.001953125,-0.14892578125,0.7496999999999999
5.587786259541985,2.045801526717557,-0.48854961832061067,-0.464599609375,0.0009765625,-0.15185546875,0.7514
5.847328244274809,1.8931297709923665,-0.5343511450381679,-0.46923828125,-0.003173828125,-0.15087890625,0.7531
5.740458015267175,1.8625954198473282,-0.2900763358778626,-0.465087890625,-0.002685546875,-0.155517578125,0.7547999999999999
5.740458015267175,1.8625954198473282,-0.48854961832061067,-0.46337890625,-0.004150390625,-0.15283203125,0.7565
5.526717557251908,1.6793893129770991,-0.3511450381679389,-0.465087890625,-0.0068359375,-0.1494140625,0.7582
5.587786259541985,1.7709923664122138,-0.42748091603053434,-0.470458984375,-0.004150390625,-0.146484375,0.7598999999999999
5.66412213740458,1.633587786259542,-0.4122137404580153,-0.466552734375,-0.001220703125,-0.14892578125,0.7615999999999999
5.66412213740458,1.7251908396946565,-0.44274809160305345,-0.46484375,-0.004150390625,-0.147216796875,0.7633
5.587786259541985,1.8473282442748091,-0.12213740458015267,-0.469970703125,0.0,-0.14794921875,0.7649999999999999
5.221374045801527,1.9236641221374047,-0.16793893129770993,-0.471435546875,-0.003173828125,-0.15478515625,0.7666999999999999
5.404580152671755,2.015267175572519,-0.061068702290076333,-0.4619140625,0.004638671875,-0.149658203125,0.7684
5.572519083969466,1.8778625954198473,-0.13740458015267176,-0.468994140625,-0.001708984375,-0.1484375,0.7701
5.358778625954199,1.9083969465648856,0.015267175572519083,-0.467041015625,-0.0048828125,-0.1484375,0.7717999999999999
5.374045801526718,2.0,-0.030534351145038167,-0.466552734375,-0.003173828125,-0.143798828125,0.7735
5.343511450381679,2.0610687022900764,-0.030534351145038167,-0.466552734375,-0.001708984375,-0.14892578125,0.7752
5.465648854961832,2.16793893129771,0.04580152671755725,-0.462646484375,-0.004150390625,-0.138427734375,0.7768999999999999
5.465648854961832,2.0,-0.015267175572519083,-0.46728515625,0.0,-0.1484375,0.7786
5.068702290076335,1.9236641221374047,0.04580152671755725,-0.46435546875,-0.005859375,-0.15234375,0.7803
5.022900763358779,2.183206106870229,0.0916030534351145,-0.46337890625,-0.001953125,-0.14892578125,0.7819999999999999
5.236641221374046,2.1068702290076335,0.21374045801526717,-0.465576171875,-0.001953125,-0.152587890625,0.7837
5.099236641221374,2.045801526717557,0.07633587786259542,-0.458251953125,-0.0029296875,-0.145751953125,0.7854
5.068702290076335,2.030534351145038,0.0,-0.458740234375,-0.004150390625,-0.146728515625,0.7870999999999999
4.99236641221374,1.9694656488549618,-0.04580152671755725,-0.466064453125,-0.005615234375,-0.1494140625,0.7888
5.221374045801527,1.7404580152671756,0.04580152671755725,-0.46240234375,0.0,-0.152587890625,0.7905
4.824427480916031,1.6946564885496183,0.0,-0.459228515625,-0.004150390625,-0.150634765625,0.7921999999999999
5.022900763358779,1.6946564885496183,-0.13740458015267176,-0.46630859375,-0.001953125,-0.147216796875,0.7938999999999999
4.9465648854961835,1.8015267175572518,-0.061068702290076333,-0.462158203125,-0.00146484375,-0.15380859375,0.7956
4.748091603053435,1.7404580152671756,0.10687022900763359,-0.46728515625,-0.005615234375,-0.1484375,0.7973
4.885496183206107,1.4961832061068703,-0.061068702290076333,-0.467041015625,-0.005859375,-0.147216796875,0.7989999999999999
4.656488549618321,1.4961832061068703,-0.030534351145038167,-0.465576171875,-0.0078125,-0.14501953125,0.8007
4.8396946564885495,1.633587786259542,0.12213740458015267,-0.463623046875,-0.0029296875,-0.153076171875,0.8024
4.732824427480916,1.6641221374045803,0.2595419847328244,-0.46630859375,-0.008056640625,-0.147216796875,0.8040999999999999
4.473282442748092,1.816793893129771,0.5038167938931297,-0.471435546875,-0.001953125,-0.147216796875,0.8058
4.442748091603053,1.7557251908396947,0.1984732824427481,-0.468017578125,-0.00537109375,-0.144775390625,0.8075
4.6106870229007635,1.8931297709923665,0.2595419847328244,-0.470947265625,-0.003173828125,-0.14501953125,0.8091999999999999
4.427480916030534,1.8015267175572518,0.32061068702290074,-0.4697265625,-0.0087890625,-0.150390625,0.8109
4.198473282442748,1.816793893129771,0.10687022900763359,-0.469482421875,0.00048828125,-0.1494140625,0.8126
4.213740458015267,2.030534351145038,0.16793893129770993,-0.465576171875,-0.003662109375,-0.147705078125,0.8142999999999999
4.412213740458015,1.8778625954198473,0.3816793893129771,-0.468994140625,-0.00439453125,-0.1552734375,0.816
4.427480916030534,2.0916030534351147,0.2748091603053435,-0.46533203125,-0.006103515625,-0.15087890625,0.8177
4.305343511450381,2.2595419847328246,0.33587786259541985,-0.468505859375,-0.01171875,-0.149169921875,0.8193999999999999
4.152671755725191,2.3969465648854964,0.3969465648854962,-0.4716796875,-0.0107421875,-0.152587890625,0.8210999999999999
4.198473282442748,2.381679389312977,0.21374045801526717,-0.466064453125,-0.001953125,-0.153564453125,0.8228
4.198473282442748,2.0916030534351147,0.33587786259541985,-0.462158203125,-0.00537109375,-0.154052734375,0.8244999999999999
4.030534351145038,2.366412213740458,0.3969465648854962,-0.469482421875,-0.007080078125,-0.1455078125,0.8261999999999999
3.8931297709923665,2.4732824427480917,0.5648854961832062,-0.4638671875,0.00048828125,-0.1455078125,0.8279
3.9236641221374047,2.4122137404580153,0.3969465648854962,-0.466552734375,0.00244140625,-0.152099609375,0.8296
3.8473282442748094,2.3206106870229006,0.6259541984732825,-0.471435546875,-0.0048828125,-0.14794921875,0.8312999999999999
3.969465648854962,2.381679389312977,0.5648854961832062,-0.471435546875,-0.00341796875,-0.1484375,0.833
4.061068702290076,2.3206106870229006,0.6106870229007634,-0.466552734375,-0.005615234375,-0.15234375,0.8347
3.572519083969466,2.4580152671755724,0.6870229007633588,-0.46240234375,-0.003173828125,-0.1435546875,0.8363999999999999
3.7557251908396947,2.427480916030534,0.7480916030534351,-0.463134765625,-0.00537109375,-0.14501953125,0.8381
3.83206106870229,2.50381679389313,0.7786259541984732,-0.470458984375,0.000732421875,-0.1416015625,0.8398
3.6030534351145036,2.763358778625954,0.9007633587786259,-0.4716796875,-0.002685546875,-0.150390625,0.8414999999999999
3.801526717557252,2.7786259541984735,0.7633587786259542,-0.473876953125,-0.00244140625,-0.144775390625,0.8432
3.8625954198473282,2.9923664122137406,0.9770992366412213,-0.472900390625,-0.006103515625,-0.15380859375,0.8449
3.6793893129770994,3.0229007633587788,0.9923664122137404,-0.474609375,-0.008056640625,-0.1357421875,0.8465999999999999
3.83206106870229,3.450381679389313,1.0534351145038168,-0.47412109375,-0.008056640625,-0.144287109375,0.8482999999999999
3.7099236641221376,3.404580152671756,1.297709923664122,-0.47705078125,-0.008056640625,-0.142578125,0.85
3.66412213740458,3.5419847328244276,1.2213740458015268,-0.47802734375,-0.005859375,-0.150634765625,0.8516999999999999
3.6946564885496183,3.7709923664122136,1.2061068702290076,-0.47607421875,-0.005615234375,-0.148193359375,0.8533999999999999
3.236641221374046,3.8473282442748094,1.3129770992366412,-0.47705078125,-0.00634765625,-0.15380859375,0.8551
3.3893129770992365,3.7709923664122136,1.297709923664122,-0.4775390625,-0.005615234375,-0.145751953125,0.8568
3.3435114503816794,4.213740458015267,1.3282442748091603,-0.483642578125,-0.0087890625,-0.1513671875,0.8584999999999999
3.312977099236641,4.305343511450381,1.3893129770992367,-0.47998046875,-0.003173828125,-0.157470703125,0.8602
3.2213740458015265,4.564885496183206,1.6793893129770991,-0.47607421875,-0.0029296875,-0.15283203125,0.8619
3.2519083969465647,4.793893129770993,1.5419847328244274,-0.481201171875,-0.00390625,-0.15234375,0.8635999999999999
3.3282442748091605,5.129770992366412,1.984732824427481,-0.47900390625,0.00048828125,-0.149658203125,0.8653
2.9770992366412212,5.465648854961832,1.816793893129771,-0.47802734375,-0.00390625,-0.153564453125,0.867
3.068702290076336,5.541984732824427,1.9694656488549618,-0.47802734375,-0.00244140625,-0.14990234375,0.8686999999999999
3.1908396946564888,6.0458015267175576,2.0916030534351147,-0.47412109375,-0.002685546875,-0.1513671875,0.8704
2.9618320610687023,6.320610687022901,2.16793893129771,-0.476806640625,-0.00341796875,-0.14599609375,0.8721
2.8091603053435112,6.351145038167939,2.183206106870229,-0.480224609375,0.00439453125,-0.15185546875,0.8737999999999999
2.8702290076335877,6.702290076335878,2.366412213740458,-0.47900390625,-0.00439453125,-0.153076171875,0.8755
2.946564885496183,6.99236641221374,2.366412213740458,-0.478271484375,-0.002197265625,-0.153564453125,0.8772
2.8091603053435112,7.297709923664122,2.6717557251908395,-0.476318359375,0.00390625,-0.154296875,0.8788999999999999
2.8244274809160306,7.480916030534351,2.519083969465649,-0.4765625,-0.006591796875,-0.146728515625,0.8805999999999999
2.6259541984732824,7.938931297709924,2.8244274809160306,-0.479248046875,-0.0048828125,-0.153076171875,0.8823
2.7022900763358777,8.229007633587786,2.717557251908397,-0.47119140625,-0.001953125,-0.149169921875,0.8839999999999999
2.381679389312977,8.351145038167939,2.9618320610687023,-0.46728515625,0.001953125,-0.148681640625,0.8856999999999999
2.4580152671755724,8.534351145038167,2.885496183206107,-0.4619140625,0.0,-0.150146484375,0.8874
2.381679389312977,8.67175572519084,3.0076335877862594,-0.470703125,-0.00048828125,-0.1572265625,0.8891
2.366412213740458,8.992366412213741,2.9923664122137406,-0.47119140625,-0.002197265625,-0.14306640625,0.8907999999999999
2.2595419847328246,8.977099236641221,3.0229007633587788,-0.46875,-0.003173828125,-0.15771484375,0.8925
2.1068702290076335,8.931297709923664,3.312977099236641,-0.465576171875,0.002685546875,-0.152099609375,0.8942
1.9694656488549618,9.114503816793894,3.114503816793893,-0.46533203125,-0.000244140625,-0.146240234375,0.8958999999999999
1.9541984732824427,9.099236641221374,3.068702290076336,-0.464111328125,0.0,-0.145263671875,0.8976
1.8625954198473282,9.099236641221374,3.068702290076336,-0.46484375,-0.000244140625,-0.156005859375,0.8993
1.786259541984733,9.068702290076336,3.0076335877862594,-0.46533203125,-0.008544921875,-0.1572265625,0.9009999999999999
1.6488549618320612,9.007633587786259,3.1908396946564888,-0.47216796875,-0.003173828125,-0.148193359375,0.9027
1.8473282442748091,8.992366412213741,3.099236641221374,-0.46826171875,-0.002685546875,-0.1494140625,0.9044
1.7709923664122138,8.763358778625955,3.145038167938931,-0.466796875,-0.006103515625,-0.146240234375,0.9060999999999999
1.7404580152671756,9.083969465648854,3.2061068702290076,-0.46533203125,0.00048828125,-0.137451171875,0.9077999999999999
1.6793893129770991,9.099236641221374,3.404580152671756,-0.463623046875,-0.00048828125,-0.142333984375,0.9095
1.4351145038167938,9.068702290076336,3.2213740458015265,-0.46142578125,0.000732421875,-0.155517578125,0.9111999999999999
1.297709923664122,9.007633587786259,3.2213740458015265,-0.45947265625,-0.005126953125,-0.1484375,0.9128999999999999
1.099236641221374,9.114503816793894,3.2519083969465647,-0.463134765625,-0.004638671875,-0.14990234375,0.9146
1.4351145038167938,9.007633587786259,3.3435114503816794,-0.4609375,-0.00244140625,-0.14794921875,0.9163
1.0381679389312977,8.854961832061068,3.236641221374046,-0.455322265625,-0.003173828125,-0.152587890625,0.9179999999999999
1.1145038167938932,8.702290076335878,3.267175572519084,-0.461181640625,-0.00390625,-0.158447265625,0.9197
1.2366412213740459,8.396946564885496,3.114503816793893,-0.456787109375,-0.007080078125,-0.154541015625,0.9214
1.0687022900763359,8.076335877862595,3.282442748091603,-0.453369140625,0.000244140625,-0.15380859375,0.9230999999999999
1.0229007633587786,8.0,2.9923664122137406,-0.456787109375,0.005615234375,-0.14990234375,0.9248
1.0534351145038168,7.862595419847328,3.068702290076336,-0.453369140625,0.000732421875,-0.154296875,0.9265
0.9618320610687023,7.740458015267175,2.9770992366412212,-0.454345703125,0.0048828125,-0.16064453125,0.9281999999999999
0.9465648854961832,7.511450381679389,3.0229007633587788,-0.449462890625,0.00390625,-0.153564453125,0.9299
0.9465648854961832,7.435114503816794,2.854961832061069,-0.451416015625,0.002685546875,-0.15478515625,0.9316
0.9007633587786259,7.251908396946565,3.099236641221374,-0.45751953125,0.00439453125,-0.1484375,0.9332999999999999
0.8702290076335878,7.312977099236641,3.0229007633587788,-0.458984375,0.001708984375,-0.1494140625,0.9349999999999999
0.916030534351145,7.1603053435114505,2.9770992366412212,-0.45556640625,0.00830078125,-0.1513671875,0.9367
0.7786259541984732,6.870229007633588,2.900763358778626,-0.455810546875,0.00341796875,-0.151611328125,0.9383999999999999
0.7938931297709924,6.793893129770993,3.0076335877862594,-0.454833984375,-0.001708984375,-0.15576171875,0.9400999999999999
0.5038167938931297,6.519083969465649,2.8244274809160306,-0.452880859375,0.001220703125,-0.149658203125,0.9418
0.549618320610687,6.305343511450381,2.9770992366412212,-0.4560546875,0.00341796875,-0.154296875,0.9434999999999999
0.6259541984732825,6.259541984732825,3.1755725190839694,-0.4541015625,0.0009765625,-0.1552734375,0.9451999999999999
0.5190839694656488,5.9541984732824424,3.053435114503817,-0.455322265625,0.001708984375,-0.15478515625,0.9469
0.5801526717557252,5.862595419847328,2.900763358778626,-0.456298828125,0.00146484375,-0.154052734375,0.9486
0.7786259541984732,5.603053435114504,3.053435114503817,-0.460205078125,0.006591796875,-0.156982421875,0.9502999999999999
0.5343511450381679,5.541984732824427,3.1603053435114505,-0.459716796875,0.009765625,-0.14990234375,0.952
0.5648854961832062,5.32824427480916,3.404580152671756,-0.45849609375,0.006103515625,-0.15771484375,0.9537
0.5038167938931297,5.343511450381679,3.3435114503816794,-0.458740234375,0.006591796875,-0.160400390625,0.9553999999999999
0.4732824427480916,5.267175572519084,3.3435114503816794,-0.45703125,0.01220703125,-0.160888671875,0.9571
0.44274809160305345,5.1603053435114505,3.267175572519084,-0.46142578125,0.01220703125,-0.156494140625,0.9588
0.6717557251908397,5.114503816793893,3.312977099236641,-0.4609375,0.01025390625,-0.155517578125,0.9604999999999999
0.5648854961832062,5.00763358778626,3.114503816793893,-0.46337890625,0.008544921875,-0.15283203125,0.9621999999999999
0.4732824427480916,4.99236641221374,3.267175572519084,-0.461181640625,0.0107421875,-0.16064453125,0.9639
0.6106870229007634,5.0534351145038165,3.267175572519084,-0.46337890625,0.01025390625,-0.155029296875,0.9655999999999999
0.6412213740458015,4.9465648854961835,2.9770992366412212,-0.46044921875,0.00830078125,-0.15869140625,0.9672999999999999
0.6412213740458015,4.8396946564885495,2.7938931297709924,-0.46337890625,0.005859375,-0.160400390625,0.969
0.9312977099236641,4.717557251908397,2.9618320610687023,-0.45556640625,0.004638671875,-0.164794921875,0.9706999999999999
0.9770992366412213,4.854961832061068,2.717557251908397,-0.457763671875,0.00830078125,-0.16162109375,0.9723999999999999
0.8244274809160306,4.442748091603053,2.6564885496183206,-0.46484375,0.017822265625,-0.157958984375,0.9741
0.8091603053435115,4.458015267175573,2.50381679389313,-0.46142578125,0.0078125,-0.16015625,0.9758
0.7480916030534351,4.458015267175573,2.381679389312977,-0.46484375,0.00830078125,-0.160400390625,0.9774999999999999
0.9923664122137404,4.351145038167939,2.4122137404580153,-0.466064453125,0.010009765625,-0.157958984375,0.9792
1.083969465648855,4.183206106870229,2.16793893129771,-0.459716796875,0.0048828125,-0.1591796875,0.9809
1.1297709923664123,3.7557251908396947,1.8015267175572518,-0.45947265625,0.007568359375,-0.15576171875,0.9825999999999999
1.1603053435114503,3.648854961832061,1.9083969465648856,-0.46533203125,0.010009765625,-0.154052734375,0.9843
1.3893129770992367,3.6793893129770994,1.9694656488549618,-0.46484375,0.008544921875,-0.159423828125,0.986
1.3740458015267176,3.480916030534351,1.7709923664122138,-0.460693359375,0.01123046875,-0.1533203125,0.9876999999999999
1.4351145038167938,3.4656488549618323,1.450381679389313,-0.459228515625,0.01611328125,-0.15283203125,0.9894
1.3893129770992367,3.2213740458015265,1.3893129770992367,-0.465576171875,0.010498046875,-0.147216796875,0.9911
1.3587786259541985,3.2061068702290076,1.5419847328244274,-0.46533203125,0.006591796875,-0.16162109375,0.9927999999999999
1.6030534351145038,3.114503816793893,1.5877862595419847,-0.46240234375,0.008056640625,-0.160400390625,0.9944999999999999
1.6946564885496183,3.0381679389312977,1.3893129770992367,-0.46630859375,0.01123046875,-0.16748046875,0.9962
1.7404580152671756,2.9770992366412212,1.3435114503816794,-0.46630859375,0.014892578125,-0.15771484375,0.9978999999999999
1.786259541984733,2.8396946564885495,1.3893129770992367,-0.458740234375,0.01171875,-0.156982421875,0.9995999999999999
1.9083969465648856,2.900763358778626,1.465648854961832,-0.46142578125,0.013427734375,-0.170166015625,1.0012999999999999
1.9083969465648856,2.549618320610687,1.3893129770992367,-0.4658203125,0.013427734375,-0.15576171875,1.003
1.7404580152671756,2.6412213740458017,1.297709923664122,-0.46826171875,0.008544921875,-0.15380859375,1.0047
1.816793893129771,2.519083969465649,1.1145038167938932,-0.4609375,0.004638671875,-0.16015625,1.0064
1.7557251908396947,2.427480916030534,1.0381679389312977,-0.462890625,0.006103515625,-0.162109375,1.0081
1.9694656488549618,2.0916030534351147,0.8702290076335878,-0.464111328125,0.0048828125,-0.156982421875,1.0098
2.0,1.984732824427481,0.732824427480916,-0.45751953125,0.009521484375,-0.154541015625,1.0114999999999998
1.9083969465648856,1.8931297709923665,0.3969465648854962,-0.4599609375,0.0107421875,-0.15625,1.0131999999999999
1.9694656488549618,1.3740458015267176,0.4122137404580153,-0.4580078125,0.0048828125,-0.16552734375,1.0149
1.8931297709923665,1.2671755725190839,0.4732824427480916,-0.45947265625,0.01025390625,-0.1591796875,1.0166
2.0916030534351147,1.1908396946564885,0.549618320610687,-0.46142578125,0.0126953125,-0.156982421875,1.0183
2.2442748091603053,0.9465648854961832,0.22900763358778625,-0.46142578125,0.00634765625,-0.158935546875,1.02
1.984732824427481,0.8549618320610687,0.22900763358778625,-0.4599609375,0.01220703125,-0.164794921875,1.0217
2.213740458015267,0.7633587786259542,0.12213740458015267,-0.462158203125,0.0107421875,-0.162109375,1.0233999999999999
2.183206106870229,0.5648854961832062,0.16793893129770993,-0.4619140625,0.010009765625,-0.1611328125,1.0251
2.2595419847328246,0.4732824427480916,0.12213740458015267,-0.45947265625,0.01025390625,-0.154541015625,1.0268
2.2595419847328246,0.48854961832061067,0.061068702290076333,-0.466552734375,0.008544921875,-0.148193359375,1.0285
2.213740458015267,0.5190839694656488,0.061068702290076333,-0.460205078125,0.01220703125,-0.157470703125,1.0302
2.381679389312977,0.5801526717557252,-0.061068702290076333,-0.466064453125,0.010009765625,-0.147216796875,1.0319
2.2290076335877864,0.7633587786259542,-0.015267175572519083,-0.466552734375,0.00732421875,-0.152587890625,1.0335999999999999
2.1374045801526718,0.8396946564885496,0.0,-0.463623046875,0.0126953125,-0.15087890625,1.0352999999999999
1.984732824427481,0.8854961832061069,-0.13740458015267176,-0.4677734375,0.01123046875,-0.164306640625,1.037
2.0763358778625953,1.099236641221374,-0.0916030534351145,-0.46533203125,0.010009765625,-0.160400390625,1.0387
2.0916030534351147,0.9465648854961832,-0.22900763358778625,-0.463623046875,0.01025390625,-0.149658203125,1.0404
1.9083969465648856,0.8702290076335878,-0.42748091603053434,-0.4638671875,0.005126953125,-0.1474609375,1.0421
2.198473282442748,0.7633587786259542,-0.5343511450381679,-0.4609375,0.005615234375,-0.149658203125,1.0437999999999998
2.0763358778625953,0.6870229007633588,-0.6259541984732825,-0.45654296875,0.00732421875,-0.158935546875,1.0454999999999999
2.0916030534351147,0.6564885496183206,-0.7022900763358778,-0.46142578125,0.005859375,-0.16943359375,1.0472
2.045801526717557,0.3969465648854962,-0.732824427480916,-0.46142578125,0.0078125,-0.16162109375,1.0489
1.9694656488549618,0.21374045801526717,-0.5954198473282443,-0.456787109375,0.00341796875,-0.154296875,1.0506
2.0610687022900764,0.015267175572519083,-0.7480916030534351,-0.458984375,0.00927734375,-0.15478515625,1.0523
2.0763358778625953,-0.22900763358778625,-0.8091603053435115,-0.45947265625,0.0068359375,-0.15234375,1.054
2.1374045801526718,-0.2900763358778626,-0.7175572519083969,-0.45458984375,0.00439453125,-0.156494140625,1.0556999999999999
2.015267175572519,-0.48854961832061067,-1.0381679389312977,-0.462646484375,0.00341796875,-0.158935546875,1.0574
1.9083969465648856,-0.7022900763358778,-0.9465648854961832,-0.4541015625,0.00732421875,-0.1591796875,1.0591
2.2290076335877864,-0.6106870229007634,-0.8854961832061069,-0.453857421875,0.003173828125,-0.150390625,1.0608
1.984732824427481,-0.7480916030534351,-1.099236641221374,-0.45849609375,0.00390625,-0.16064453125,1.0625
2.3053435114503817,-0.8091603053435115,-1.0076335877862594,-0.453857421875,0.005126953125,-0.14990234375,1.0642
2.122137404580153,-0.9007633587786259,-1.0687022900763359,-0.45751953125,0.00732421875,-0.14697265625,1.0658999999999998
2.0763358778625953,-0.7786259541984732,-1.2366412213740459,-0.465087890625,0.004150390625,-0.148681640625,1.0675999999999999
2.122137404580153,-0.8549618320610687,-1.1297709923664123,-0.458984375,0.003662109375,-0.158447265625,1.0693
2.0763358778625953,-0.9465648854961832,-1.2366412213740459,-0.456787109375,0.005126953125,-0.149658203125,1.071
2.16793893129771,-0.8244274809160306,-1.5267175572519085,-0.459716796875,0.0029296875,-0.15673828125,1.0727
2.1374045801526718,-0.9312977099236641,-1.3435114503816794,-0.458251953125,0.00732421875,-0.155517578125,1.0744
1.9389312977099236,-1.1145038167938932,-1.4198473282442747,-0.46044921875,0.01025390625,-0.14892578125,1.0760999999999998
2.1526717557251906,-1.1297709923664123,-1.3587786259541985,-0.454833984375,0.008056640625,-0.148193359375,1.0777999999999999
2.0916030534351147,-1.0381679389312977,-1.1908396946564885,-0.464111328125,0.00439453125,-0.15087890625,1.0795
1.9389312977099236,-1.0687022900763359,-1.297709923664122,-0.460205078125,0.0078125,-0.159423828125,1.0812
2.198473282442748,-0.9465648854961832,-1.6488549618320612,-0.4677734375,0.0068359375,-0.1572265625,1.0829
2.1374045801526718,-0.9618320610687023,-1.2061068702290076,-0.4560546875,0.002685546875,-0.153076171875,1.0846
1.9694656488549618,-0.9770992366412213,-1.5267175572519085,-0.459228515625,0.010986328125,-0.148681640625,1.0863
2.1526717557251906,-1.1297709923664123,-1.5725190839694656,-0.463134765625,0.00830078125,-0.1474609375,1.0879999999999999
2.198473282442748,-0.7786259541984732,-1.5267175572519085,-0.463134765625,0.005615234375,-0.159423828125,1.0897
2.2595419847328246,-0.8091603053435115,-1.3282442748091603,-0.4697265625,0.00439453125,-0.157470703125,1.0914
2.2442748091603053,-0.6564885496183206,-1.4045801526717556,-0.472900390625,0.007568359375,-0.14404296875,1.0931
2.3053435114503817,-0.5343511450381679,-1.4809160305343512,-0.47021484375,0.0078125,-0.154052734375,1.0948
1.9236641221374047,-0.32061068702290074,-1.450381679389313,-0.46728515625,0.006591796875,-0.148193359375,1.0965
2.015267175572519,-0.16793893129770993,-1.3740458015267176,-0.470458984375,0.000732421875,-0.14990234375,1.0981999999999998
2.1526717557251906,0.21374045801526717,-1.1755725190839694,-0.4716796875,0.002685546875,-0.1484375,1.0998999999999999
2.1068702290076335,0.4580152671755725,-1.2213740458015268,-0.465576171875,0.005126953125,-0.154296875,1.1016
1.9541984732824427,0.6564885496183206,-1.5114503816793894,-0.474609375,0.004150390625,-0.155517578125,1.1033
2.122137404580153,1.0534351145038168,-1.2061068702290076,-0.46728515625,0.00439453125,-0.15576171875,1.105
2.0763358778625953,1.282442748091603,-1.1145038167938932,-0.463623046875,0.007080078125,-0.156982421875,1.1067
1.8625954198473282,1.2671755725190839,-1.0076335877862594,-0.46630859375,0.00732421875,-0.154052734375,1.1083999999999998
1.8473282442748091,1.633587786259542,-1.2671755725190839,-0.464111328125,0.008056640625,-0.1484375,1.1100999999999999
2.045801526717557,1.633587786259542,-1.1755725190839694,-0.45947265625,0.006103515625,-0.149169921875,1.1118
2.0916030534351147,1.7709923664122138,-1.1908396946564885,-0.46142578125,0.00537109375,-0.14794921875,1.1135
2.0,1.6488549618320612,-0.9770992366412213,-0.46435546875,0.0009765625,-0.156005859375,1.1152
1.8625954198473282,1.4045801526717556,-1.1297709923664123,-0.462646484375,-0.000244140625,-0.15478515625,1.1169
1.8625954198473282,1.3435114503816794,-1.0076335877862594,-0.459228515625,0.0009765625,-0.15234375,1.1186
1.9083969465648856,1.4351145038167938,-1.0534351145038168,-0.45849609375,0.004150390625,-0.149658203125,1.1202999999999999
1.8473282442748091,1.1908396946564885,-0.8244274809160306,-0.459228515625,0.00048828125,-0.145751953125,1.1219999999999999
1.7251908396946565,1.1450381679389312,-0.9618320610687023,-0.4599609375,0.00244140625,-0.146240234375,1.1237
2.045801526717557,1.1908396946564885,-0.5648854961832062,-0.462158203125,0.00341796875,-0.1474609375,1.1254
1.6793893129770991,1.1297709923664123,-0.8091603053435115,-0.45556640625,0.00390625,-0.14599609375,1.1271
1.6641221374045803,1.1908396946564885,-0.8702290076335878,-0.454345703125,0.001220703125,-0.146240234375,1.1288
1.6488549618320612,1.1603053435114503,-0.7175572519083969,-0.466552734375,0.010498046875,-0.152587890625,1.1304999999999998
1.633587786259542,1.1755725190839694,-0.5648854961832062,-0.45751953125,0.00830078125,-0.151123046875,1.1321999999999999
1.465648854961832,1.2213740458015268,-0.7786259541984732,-0.45947265625,0.012451171875,-0.14306640625,1.1339
1.465648854961832,1.3282442748091603,-0.8549618320610687,-0.4638671875,0.003662109375,-0.150146484375,1.1356
1.4045801526717556,1.297709923664122,-0.7786259541984732,-0.46533203125,0.00537109375,-0.154052734375,1.1373
1.4045801526717556,1.1755725190839694,-0.6412213740458015,-0.463134765625,0.006591796875,-0.153076171875,1.139
1.3282442748091603,1.2671755725190839,-0.9312977099236641,-0.466796875,0.00634765625,-0.14697265625,1.1407
1.4351145038167938,1.2671755725190839,-0.6717557251908397,-0.462158203125,0.001708984375,-0.14892578125,1.1423999999999999
1.4351145038167938,1.0381679389312977,-0.8244274809160306,-0.463134765625,0.0048828125,-0.1416015625,1.1441
1.5114503816793894,1.0534351145038168,-0.9007633587786259,-0.463134765625,0.004638671875,-0.15576171875,1.1458
1.297709923664122,1.0534351145038168,-0.8244274809160306,-0.46240234375,0.004638671875,-0.1533203125,1.1475
1.6793893129770991,1.1450381679389312,-0.8702290076335878,-0.468505859375,0.005859375,-0.15771484375,1.1492
1.4198473282442747,1.0687022900763359,-0.7786259541984732,-0.470458984375,0.001708984375,-0.1552734375,1.1509
1.3740458015267176,1.2671755725190839,-0.9618320610687023,-0.466552734375,0.003173828125,-0.150634765625,1.1525999999999998
1.6793893129770991,0.9618320610687023,-1.0229007633587786,-0.466552734375,0.005615234375,-0.151611328125,1.1542999999999999
1.3435114503816794,1.1145038167938932,-0.6106870229007634,-0.469970703125,0.0048828125,-0.145751953125,1.156
1.5114503816793894,1.0229007633587786,-0.9007633587786259,-0.47314453125,0.004638671875,-0.15185546875,1.1577
1.6793893129770991,1.1297709923664123,-0.9312977099236641,-0.47216796875,0.01220703125,-0.1552734375,1.1594
1.618320610687023,1.3129770992366412,-0.9465648854961832,-0.4677734375,0.00537109375,-0.150390625,1.1611
1.5419847328244274,1.5114503816793894,-0.9770992366412213,-0.468994140625,0.0048828125,-0.1552734375,1.1627999999999998
1.4198473282442747,1.633587786259542,-1.1297709923664123,-0.471435546875,0.005126953125,-0.150634765625,1.1644999999999999
1.786259541984733,1.633587786259542,-1.0076335877862594,-0.472412109375,0.005126953125,-0.155517578125,1.1662
1.6946564885496183,1.8015267175572518,-1.099236641221374,-0.47216796875,0.008544921875,-0.15576171875,1.1679
1.5877862595419847,1.984732824427481,-1.0381679389312977,-0.469970703125,0.00830078125,-0.154296875,1.1696
1.7099236641221374,1.9236641221374047,-1.2213740458015268,-0.4716796875,0.00634765625,-0.144287109375,1.1713
1.83206106870229,1.786259541984733,-1.1297709923664123,-0.467529296875,0.0048828125,-0.15380859375,1.173
1.5725190839694656,1.8778625954198473,-1.3282442748091603,-0.471435546875,0.01025390625,-0.157470703125,1.1746999999999999
1.5267175572519085,2.16793893129771,-1.0076335877862594,-0.4755859375,0.00634765625,-0.1484375,1.1764
1.7404580152671756,2.198473282442748,-1.0534351145038168,-0.47216796875,0.00732421875,-0.146484375,1.1781
1.816793893129771,2.4885496183206106,-0.9770992366412213,-0.472900390625,0.0048828125,-0.15234375,1.1798
1.7709923664122138,2.6106870229007635,-1.083969465648855,-0.468017578125,0.002685546875,-0.15673828125,1.1815
1.7099236641221374,2.6564885496183206,-1.0076335877862594,-0.469970703125,0.01025390625,-0.16015625,1.1832
1.6793893129770991,2.6717557251908395,-1.099236641221374,-0.466552734375,0.004150390625,-0.148193359375,1.1848999999999998
1.816793893129771,2.7786259541984735,-0.8854961832061069,-0.46630859375,0.00341796875,-0.15478515625,1.1865999999999999
1.5419847328244274,2.6564885496183206,-1.1145038167938932,-0.46826171875,0.00537109375,-0.150146484375,1.1883
1.8931297709923665,2.595419847328244,-1.0534351145038168,-0.468505859375,0.00732421875,-0.15185546875,1.19
1.633587786259542,2.595419847328244,-1.1145038167938932,-0.46337890625,0.00634765625,-0.144775390625,1.1917
1.8778625954198473,2.4732824427480917,-1.0534351145038168,-0.461669921875,0.00732421875,-0.146728515625,1.1934
1.618320610687023,2.4732824427480917,-1.2061068702290076,-0.46728515625,0.00732421875,-0.150146484375,1.1950999999999998
1.8015267175572518,2.3969465648854964,-1.0076335877862594,-0.466064453125,0.00537109375,-0.147705078125,1.1967999999999999
1.6793893129770991,2.3969465648854964,-1.0229007633587786,-0.47021484375,0.00146484375,-0.153564453125,1.1985
1.633587786259542,2.687022900763359,-1.0534351145038168,-0.468505859375,0.0078125,-0.152099609375,1.2002
1.8625954198473282,2.687022900763359,-0.9465648854961832,-0.466552734375,0.00634765625,-0.15185546875,1.2019
1.6946564885496183,2.5343511450381677,-0.5801526717557252,-0.47119140625,0.006591796875,-0.150634765625,1.2036
1.816793893129771,2.7938931297709924,-0.6564885496183206,-0.46728515625,0.009765625,-0.152587890625,1.2053
1.5725190839694656,2.7480916030534353,-0.6106870229007634,-0.466552734375,0.01123046875,-0.14990234375,1.2069999999999999
1.6641221374045803,2.8091603053435112,-0.6106870229007634,-0.46875,0.00390625,-0.146728515625,1.2086999999999999
1.7099236641221374,2.763358778625954,-0.5954198473282443,-0.468017578125,0.006103515625,-0.1533203125,1.2104
1.7099236641221374,2.8396946564885495,-0.6106870229007634,-0.4599609375,0.00927734375,-0.148193359375,1.2121
1.6946564885496183,2.900763358778626,-0.42748091603053434,-0.462890625,0.00244140625,-0.15234375,1.2138
1.7557251908396947,2.7786259541984735,-0.5954198473282443,-0.46728515625,0.007080078125,-0.1552734375,1.2155
1.5572519083969465,2.7480916030534353,-0.6412213740458015,-0.46728515625,0.003662109375,-0.157470703125,1.2171999999999998
1.7404580152671756,2.931297709923664,-0.732824427480916,-0.46044921875,0.007568359375,-0.154296875,1.2188999999999999
1.6488549618320612,2.687022900763359,-0.6717557251908397,-0.459716796875,0.00927734375,-0.14794921875,1.2206
1.6488549618320612,2.564885496183206,-0.8244274809160306,-0.456298828125,0.014404296875,-0.152099609375,1.2223
1.8625954198473282,2.595419847328244,-0.7480916030534351,-0.463134765625,0.00390625,-0.1494140625,1.224
1.6793893129770991,2.6564885496183206,-0.916030534351145,-0.466064453125,0.009765625,-0.150634765625,1.2257
1.83206106870229,2.4427480916030535,-1.0381679389312977,-0.462890625,0.010498046875,-0.1484375,1.2273999999999998
1.984732824427481,2.3206106870229006,-0.9465648854961832,-0.45947265625,0.00830078125,-0.1513671875,1.2290999999999999
1.7251908396946565,2.198473282442748,-1.1450381679389312,-0.470947265625,0.005126953125,-0.1552734375,1.2308
1.9389312977099236,2.3969465648854964,-1.251908396946565,-0.46875,0.00927734375,-0.158203125,1.2325
1.786259541984733,2.2442748091603053,-0.9618320610687023,-0.469970703125,0.01171875,-0.162841796875,1.2342
1.786259541984733,2.16793893129771,-1.2213740458015268,-0.4716796875,0.0048828125,-0.148193359375,1.2359
1.9236641221374047,2.1068702290076335,-1.1450381679389312,-0.46923828125,0.006591796875,-0.1533203125,1.2376
1.9389312977099236,2.3969465648854964,-1.2213740458015268,-0.470947265625,0.008056640625,-0.14990234375,1.2392999999999998
2.030534351145038,2.564885496183206,-1.2213740458015268,-0.4765625,0.00732421875,-0.15185546875,1.2409999999999999
1.8473282442748091,2.5801526717557253,-1.1908396946564885,-0.47314453125,0.007568359375,-0.1533203125,1.2427
1.7404580152671756,2.549618320610687,-0.7633587786259542,-0.47314453125,0.010498046875,-0.153564453125,1.2444
1.7709923664122138,2.6412213740458017,-1.0534351145038168,-0.47216796875,0.01025390625,-0.14794921875,1.2461
1.7099236641221374,2.931297709923664,-0.9007633587786259,-0.4697265625,0.010009765625,-0.15478515625,1.2478
1.8778625954198473,3.0076335877862594,-0.7786259541984732,-0.467529296875,0.010009765625,-0.14990234375,1.2494999999999998
1.984732824427481,3.068702290076336,-1.0534351145038168,-0.467041015625,0.00732421875,-0.159423828125,1.2511999999999999
2.0,3.2977099236641223,-1.251908396946565,-0.466552734375,0.00634765625,-0.158203125,1.2529
1.8778625954198473,3.3893129770992365,-1.0687022900763359,-0.470703125,0.007568359375,-0.160888671875,1.2546
1.9541984732824427,3.404580152671756,-1.2213740458015268,-0.4736328125,0.006103515625,-0.1611328125,1.2563
1.8778625954198473,3.572519083969466,-1.282442748091603,-0.46484375,0.00537109375,-0.15478515625,1.258
1.7557251908396947,3.6793893129770994,-1.3435114503816794,-0.468017578125,0.01123046875,-0.151123046875,1.2596999999999998
2.0610687022900764,3.66412213740458,-1.2213740458015268,-0.462646484375,0.009521484375,-0.154296875,1.2613999999999999
1.83206106870229,3.6030534351145036,-1.2366412213740459,-0.460205078125,0.0048828125,-0.1484375,1.2631
1.5114503816793894,3.5267175572519083,-1.1145038167938932,-0.461181640625,0.006103515625,-0.156494140625,1.2648
1.7251908396946565,3.618320610687023,-1.1908396946564885,-0.458984375,0.0078125,-0.160888671875,1.2665
1.786259541984733,3.4198473282442747,-1.1908396946564885,-0.45751953125,0.009765625,-0.15966796875,1.2682
1.9083969465648856,3.2061068702290076,-1.297709923664122,-0.46240234375,0.00439453125,-0.154296875,1.2699
1.8625954198473282,3.1908396946564888,-1.3129770992366412,-0.46044921875,0.010009765625,-0.157958984375,1.2715999999999998
1.4351145038167938,3.053435114503817,-1.251908396946565,-0.4638671875,0.010498046875,-0.147705078125,1.2732999999999999
1.8015267175572518,3.0076335877862594,-1.1450381679389312,-0.458984375,0.004638671875,-0.150390625,1.275
1.633587786259542,2.931297709923664,-1.1908396946564885,-0.46142578125,0.006591796875,-0.15380859375,1.2767
1.5419847328244274,3.0229007633587788,-1.083969465648855,-0.462158203125,0.005859375,-0.15576171875,1.2784
1.7404580152671756,2.946564885496183,-0.9618320610687023,-0.460693359375,0.00927734375,-0.159423828125,1.2801
1.7709923664122138,3.0076335877862594,-1.2061068702290076,-0.46337890625,0.0146484375,-0.16064453125,1.2817999999999998
1.7251908396946565,3.068702290076336,-1.1908396946564885,-0.462158203125,0.008056640625,-0.153076171875,1.2834999999999999
1.786259541984733,3.0839694656488548,-0.9923664122137404,-0.46533203125,0.01123046875,-0.150390625,1.2852
1.8473282442748091,2.9618320610687023,-1.0534351145038168,-0.462646484375,0.0107421875,-0.147705078125,1.2869
1.7557251908396947,3.0076335877862594,-1.2671755725190839,-0.460693359375,0.01416015625,-0.152099609375,1.2886
1.6030534351145038,2.9770992366412212,-1.099236641221374,-0.4609375,0.0146484375,-0.15673828125,1.2903
1.786259541984733,3.1603053435114505,-1.2213740458015268,-0.464599609375,0.008056640625,-0.148681640625,1.292
1.786259541984733,3.053435114503817,-1.099236641221374,-0.46826171875,0.009033203125,-0.15625,1.2936999999999999
1.7404580152671756,3.0839694656488548,-1.2213740458015268,-0.461669921875,0.01025390625,-0.1513671875,1.2953999999999999
1.6793893129770991,2.946564885496183,-1.1450381679389312,-0.460693359375,0.0048828125,-0.15380859375,1.2971
1.9541984732824427,2.9618320610687023,-1.297709923664122,-0.4619140625,0.006591796875,-0.1689453125,1.2988
1.7404580152671756,3.114503816793893,-1.1908396946564885,-0.45849609375,0.008056640625,-0.16064453125,1.3005
1.816793893129771,2.9160305343511452,-1.2366412213740459,-0.461181640625,0.010986328125,-0.15234375,1.3022
2.198473282442748,2.8396946564885495,-1.5572519083969465,-0.458740234375,0.007080078125,-0.15625,1.3038999999999998
2.0,2.8244274809160306,-1.5114503816793894,-0.45556640625,0.0068359375,-0.167236328125,1.3055999999999999
2.0,2.8244274809160306,-1.3435114503816794,-0.45947265625,0.009033203125,-0.158447265625,1.3073
1.8931297709923665,2.6106870229007635,-1.5725190839694656,-0.45947265625,0.010009765625,-0.1484375,1.309
1.984732824427481,2.50381679389313,-1.7709923664122138,-0.456787109375,0.011474609375,-0.16259765625,1.3107
1.984732824427481,2.4427480916030535,-1.6641221374045803,-0.459228515625,0.008056640625,-0.152099609375,1.3124
2.0763358778625953,2.2900763358778624,-1.633587786259542,-0.463623046875,0.00830078125,-0.154052734375,1.3140999999999998
2.3053435114503817,2.2442748091603053,-1.786259541984733,-0.460693359375,0.0107421875,-0.1533203125,1.3157999999999999
2.1068702290076335,2.2595419847328246,-1.8473282442748091,-0.457275390625,0.014892578125,-0.156494140625,1.3175
2.213740458015267,2.33587786259542,-1.5267175572519085,-0.458740234375,0.01123046875,-0.154541015625,1.3192
2.4122137404580153,2.366412213740458,-1.6641221374045803,-0.46142578125,0.012451171875,-0.1591796875,1.3209
2.4427480916030535,2.33587786259542,-1.6641221374045803,-0.45947265625,0.010009765625,-0.161865234375,1.3226
2.3053435114503817,2.2748091603053435,-1.9236641221374047,-0.457763671875,0.010986328125,-0.158935546875,1.3243
2.381679389312977,2.519083969465649,-1.7709923664122138,-0.462646484375,0.009765625,-0.152587890625,1.3259999999999998
2.4427480916030535,2.564885496183206,-1.8015267175572518,-0.46337890625,0.01171875,-0.154052734375,1.3276999999999999
2.5343511450381677,2.2748091603053435,-1.7557251908396947,-0.4619140625,0.012451171875,-0.151123046875,1.3294
2.7022900763358777,2.1068702290076335,-1.9236641221374047,-0.456787109375,0.009765625,-0.154541015625,1.3311
2.763358778625954,2.183206106870229,-2.0,-0.460205078125,0.0146484375,-0.156005859375,1.3328
2.732824427480916,2.0763358778625953,-1.9389312977099236,-0.460693359375,0.00927734375,-0.151123046875,1.3345
2.885496183206107,2.045801526717557,-1.984732824427481,-0.463623046875,0.00732421875,-0.1552734375,1.3361999999999998
3.0381679389312977,1.9541984732824427,-2.16793893129771,-0.460693359375,0.01123046875,-0.155029296875,1.3378999999999999
2.900763358778626,1.9694656488549618,-2.045801526717557,-0.464599609375,0.010986328125,-0.155029296875,1.3396
3.0076335877862594,1.9389312977099236,-1.9389312977099236,-0.458984375,0.0126953125,-0.1591796875,1.3413
3.1297709923664123,1.8473282442748091,-2.0763358778625953,-0.462890625,0.007080078125,-0.158447265625,1.343
2.9923664122137406,1.9083969465648856,-1.984732824427481,-0.464599609375,0.0126953125,-0.162109375,1.3447
3.068702290076336,2.015267175572519,-1.9389312977099236,-0.467529296875,0.01025390625,-0.161376953125,1.3463999999999998
3.114503816793893,2.045801526717557,-2.045801526717557,-0.4609375,0.01025390625,-0.166015625,1.3480999999999999
3.236641221374046,1.83206106870229,-2.0610687022900764,-0.45947265625,0.011474609375,-0.163330078125,1.3497999999999999
3.1603053435114505,1.8625954198473282,-1.8015267175572518,-0.4609375,0.010009765625,-0.16015625,1.3515
3.1908396946564888,1.83206106870229,-2.015267175572519,-0.45751953125,0.007568359375,-0.152587890625,1.3532
3.5267175572519083,1.83206106870229,-2.183206106870229,-0.460205078125,0.00537109375,-0.1591796875,1.3549
3.3587786259541983,1.7709923664122138,-2.045801526717557,-0.460205078125,0.006103515625,-0.163818359375,1.3566
3.2519083969465647,1.786259541984733,-1.9541984732824427,-0.465576171875,0.010009765625,-0.162841796875,1.3582999999999998
3.5572519083969465,1.7557251908396947,-2.1068702290076335,-0.46044921875,0.009033203125,-0.16064453125,1.3599999999999999
3.435114503816794,1.6030534351145038,-1.984732824427481,-0.463134765625,0.0029296875,-0.15673828125,1.3617
3.3435114503816794,1.7251908396946565,-1.816793893129771,-0.460693359375,0.007080078125,-0.151611328125,1.3634
3.7557251908396947,1.8015267175572518,-2.015267175572519,-0.462158203125,0.01171875,-0.151123046875,1.3651
3.8473282442748094,1.450381679389313,-1.984732824427481,-0.45751953125,0.0107421875,-0.159912109375,1.3668
3.7251908396946565,1.3282442748091603,-1.786259541984733,-0.45849609375,0.009765625,-0.162353515625,1.3684999999999998
3.8473282442748094,1.4809160305343512,-1.9083969465648856,-0.462646484375,0.009033203125,-0.154052734375,1.3701999999999999
3.83206106870229,1.4198473282442747,-1.7251908396946565,-0.457275390625,0.005126953125,-0.157470703125,1.3719
4.015267175572519,1.465648854961832,-1.8015267175572518,-0.4609375,0.004638671875,-0.161865234375,1.3736
3.8625954198473282,1.251908396946565,-1.8625954198473282,-0.461181640625,0.010986328125,-0.167724609375,1.3753
4.137404580152672,1.282442748091603,-1.8625954198473282,-0.457275390625,0.0107421875,-0.15625,1.377
4.061068702290076,1.0534351145038168,-1.83206106870229,-0.462890625,0.01171875,-0.158447265625,1.3786999999999998
4.244274809160306,1.1145038167938932,-2.030534351145038,-0.460693359375,0.00732421875,-0.15869140625,1.3803999999999998
4.122137404580153,1.2061068702290076,-1.8931297709923665,-0.459716796875,0.01220703125,-0.158447265625,1.3820999999999999
4.1679389312977095,1.0229007633587786,-2.030534351145038,-0.465087890625,0.01025390625,-0.15966796875,1.3838
4.290076335877862,0.9312977099236641,-1.9694656488549618,-0.4619140625,0.010498046875,-0.16357421875,1.3855
4.259541984732825,1.083969465648855,-1.8625954198473282,-0.458740234375,0.012451171875,-0.15625,1.3872
4.33587786259542,1.251908396946565,-1.7709923664122138,-0.4638671875,0.0029296875,-0.15478515625,1.3889
4.259541984732825,1.1603053435114503,-1.9389312977099236,-0.462646484375,0.010009765625,-0.15869140625,1.3905999999999998
4.412213740458015,1.0687022900763359,-1.7404580152671756,-0.46533203125,0.00439453125,-0.151611328125,1.3922999999999999
4.473282442748092,0.9007633587786259,-1.9083969465648856,-0.461181640625,0.0107421875,-0.16064453125,1.394
4.564885496183206,0.8854961832061069,-1.83206106870229,-0.4619140625,0.01123046875,-0.15771484375,1.3957
4.595419847328245,0.7480916030534351,-1.7709923664122138,-0.458251953125,0.011474609375,-0.158935546875,1.3974
4.641221374045801,0.7480916030534351,-1.6641221374045803,-0.460205078125,0.008544921875,-0.15966796875,1.3991
4.519083969465649,0.5801526717557252,-1.786259541984733,-0.461669921875,0.009521484375,-0.162353515625,1.4007999999999998
4.778625954198473,0.6717557251908397,-1.6793893129770991,-0.459716796875,0.0107421875,-0.169677734375,1.4024999999999999
4.717557251908397,0.5343511450381679,-1.8931297709923665,-0.461669921875,0.0107421875,-0.163818359375,1.4042
4.778625954198473,0.5648854961832062,-1.7099236641221374,-0.463134765625,0.005126953125,-0.16455078125,1.4059
4.763358778625954,0.7480916030534351,-1.816793893129771,-0.46533203125,0.0029296875,-0.16552734375,1.4076
5.022900763358779,0.7480916030534351,-1.9236641221374047,-0.461669921875,0.00732421875,-0.16357421875,1.4093
5.114503816793893,0.6870229007633588,-1.786259541984733,-0.46044921875,0.006591796875,-0.152099609375,1.411
4.977099236641221,0.732824427480916,-1.7251908396946565,-0.462890625,-0.001220703125,-0.153076171875,1.4126999999999998
5.0534351145038165,0.6412213740458015,-1.9083969465648856,-0.45849609375,0.01025390625,-0.15625,1.4143999999999999
5.038167938931298,0.5801526717557252,-1.7404580152671756,-0.459228515625,0.00537109375,-0.16064453125,1.4161
5.083969465648855,0.5190839694656488,-1.9541984732824427,-0.45849609375,0.002685546875,-0.157958984375,1.4178
5.190839694656488,0.3053435114503817,-1.7404580152671756,-0.463623046875,0.006591796875,-0.162109375,1.4195
5.404580152671755,0.2900763358778626,-1.9083969465648856,-0.463623046875,0.009521484375,-0.163818359375,1.4212
5.435114503816794,0.3053435114503817,-1.9236641221374047,-0.46044921875,0.0107421875,-0.1513671875,1.4228999999999998
5.450381679389313,0.2748091603053435,-1.816793893129771,-0.462158203125,0.009765625,-0.158935546875,1.4245999999999999
5.526717557251908,0.4122137404580153,-1.6030534351145038,-0.463134765625,0.0107421875,-0.164794921875,1.4263
5.4961832061068705,0.3053435114503817,-1.8778625954198473,-0.4580078125,0.009521484375,-0.1591796875,1.428
5.786259541984733,0.3816793893129771,-1.6641221374045803,-0.460205078125,0.009521484375,-0.158935546875,1.4297
5.877862595419847,0.3969465648854962,-1.633587786259542,-0.46484375,0.01220703125,-0.15185546875,1.4314
5.938931297709924,0.2595419847328244,-1.465648854961832,-0.464111328125,0.012939453125,-0.16064453125,1.4330999999999998
6.198473282442748,0.4732824427480916,-1.6488549618320612,-0.463623046875,0.013916015625,-0.161376953125,1.4347999999999999
6.290076335877862,0.4122137404580153,-1.3282442748091603,-0.46240234375,0.0166015625,-0.1591796875,1.4364999999999999
6.656488549618321,0.4732824427480916,-1.5114503816793894,-0.462158203125,0.014892578125,-0.15625,1.4382
6.931297709923665,0.3969465648854962,-1.3740458015267176,-0.46142578125,0.01220703125,-0.16015625,1.4399
6.854961832061068,0.48854961832061067,-1.3893129770992367,-0.461181640625,0.01708984375,-0.162841796875,1.4416
7.022900763358779,0.3511450381679389,-1.3893129770992367,-0.46728515625,0.012939453125,-0.164306640625,1.4433
7.312977099236641,0.48854961832061067,-1.5419847328244274,-0.46142578125,0.018798828125,-0.16650390625,1.4449999999999998
7.557251908396947,0.3053435114503817,-1.3740458015267176,-0.463623046875,0.019287109375,-0.154541015625,1.4466999999999999
7.740458015267175,0.0916030534351145,-1.3587786259541985,-0.45703125,0.018310546875,-0.1572265625,1.4484
7.9541984732824424,0.0,-1.083969465648855,-0.463623046875,0.012451171875,-0.1552734375,1.4501
8.183206106870228,0.12213740458015267,-1.1603053435114503,-0.4609375,0.010498046875,-0.156494140625,1.4518
8.396946564885496,0.061068702290076333,-1.0229007633587786,-0.461669921875,0.015380859375,-0.16748046875,1.4535
8.763358778625955,-0.04580152671755725,-0.9312977099236641,-0.466064453125,0.017578125,-0.160400390625,1.4551999999999998
8.961832061068701,0.030534351145038167,-0.8244274809160306,-0.46630859375,0.01708984375,-0.157958984375,1.4568999999999999
9.49618320610687,0.030534351145038167,-0.8396946564885496,-0.464599609375,0.02001953125,-0.154052734375,1.4586
9.48091603053435,0.0,-0.8396946564885496,-0.462158203125,0.020263671875,-0.158203125,1.4603
9.908396946564885,0.0916030534351145,-0.5954198473282443,-0.464599609375,0.02490234375,-0.1650390625,1.462
10.51908396946565,0.015267175572519083,-0.5648854961832062,-0.465087890625,0.0234375,-0.163330078125,1.4637
10.65648854961832,0.12213740458015267,-0.5343511450381679,-0.46533203125,0.0224609375,-0.161376953125,1.4653999999999998
11.206106870229007,0.07633587786259542,-0.4732824427480916,-0.458740234375,0.026123046875,-0.156005859375,1.4670999999999998
11.587786259541986,0.0916030534351145,-0.549618320610687,-0.457763671875,0.02294921875,-0.153076171875,1.4687999999999999
12.229007633587786,0.030534351145038167,-0.3969465648854962,-0.468994140625,0.027099609375,-0.158447265625,1.4705
12.549618320610687,0.04580152671755725,-0.4122137404580153,-0.461181640625,0.030029296875,-0.1669921875,1.4722
13.022900763358779,-0.0916030534351145,-0.4732824427480916,-0.462646484375,0.027587890625,-0.14990234375,1.4739
13.618320610687023,-0.1984732824427481,-0.5038167938931297,-0.459228515625,0.027099609375,-0.156005859375,1.4756
14.01526717557252,-0.183206106870229,-0.21374045801526717,-0.46484375,0.028564453125,-0.15478515625,1.4772999999999998
14.381679389312977,-0.13740458015267176,-0.24427480916030533,-0.464599609375,0.029052734375,-0.15576171875,1.4789999999999999
15.053435114503817,-0.366412213740458,-0.183206106870229,-0.46142578125,0.031005859375,-0.162841796875,1.4807
15.557251908396946,-0.5190839694656488,-0.030534351145038167,-0.46435546875,0.03466796875,-0.1611328125,1.4824
16.15267175572519,-0.5954198473282443,0.04580152671755725,-0.45947265625,0.033203125,-0.152099609375,1.4841
16.748091603053435,-0.732824427480916,0.0,-0.46240234375,0.03271484375,-0.152099609375,1.4858
17.328244274809162,-0.6412213740458015,0.24427480916030533,-0.460205078125,0.03515625,-0.152587890625,1.4874999999999998
17.908396946564885,-0.44274809160305345,0.42748091603053434,-0.463623046875,0.031982421875,-0.153564453125,1.4891999999999999
18.748091603053435,-0.6564885496183206,0.5343511450381679,-0.460205078125,0.03271484375,-0.160400390625,1.4909
19.267175572519083,-0.549618320610687,0.5954198473282443,-0.465576171875,0.036376953125,-0.1572265625,1.4926
19.938931297709924,-0.44274809160305345,0.732824427480916,-0.46826171875,0.04248046875,-0.1552734375,1.4943
20.83969465648855,-0.3816793893129771,0.8854961832061069,-0.463623046875,0.036865234375,-0.155517578125,1.496
21.541984732824428,-0.3511450381679389,1.0076335877862594,-0.46923828125,0.03955078125,-0.153564453125,1.4976999999999998
22.30534351145038,-0.4122137404580153,0.8244274809160306,-0.463623046875,0.043212890625,-0.148193359375,1.4993999999999998
23.00763358778626,-0.3053435114503817,1.0381679389312977,-0.46435546875,0.041748046875,-0.151123046875,1.5010999999999999
24.03053435114504,-0.13740458015267176,1.083969465648855,-0.467041015625,0.04443359375,-0.155517578125,1.5028
24.68702290076336,-0.1984732824427481,1.2366412213740459,-0.46044921875,0.043701171875,-0.1494140625,1.5045
25.541984732824428,-0.24427480916030533,1.1145038167938932,-0.4638671875,0.043212890625,-0.14453125,1.5062
26.412213740458014,-0.0916030534351145,1.3129770992366412,-0.463623046875,0.042236328125,-0.1435546875,1.5079
26.793893129770993,-0.0916030534351145,1.5267175572519085,-0.462890625,0.041748046875,-0.14990234375,1.5095999999999998
27.87786259541985,-0.183206106870229,1.5114503816793894,-0.4638671875,0.043212890625,-0.15087890625,1.5112999999999999
28.85496183206107,-0.2748091603053435,1.4351145038167938,-0.46728515625,0.040771484375,-0.152587890625,1.513
29.51145038167939,-0.32061068702290074,1.4045801526717556,-0.4658203125,0.042236328125,-0.1416015625,1.5147
30.595419847328245,-0.549618320610687,1.6030534351145038,-0.466552734375,0.049072265625,-0.144287109375,1.5164
31.297709923664122,-0.5801526717557252,1.5572519083969465,-0.4619140625,0.04931640625,-0.14892578125,1.5181
32.152671755725194,-0.5648854961832062,1.6488549618320612,-0.46484375,0.052001953125,-0.158935546875,1.5197999999999998
32.99236641221374,-0.6870229007633588,1.7404580152671756,-0.464599609375,0.04541015625,-0.143798828125,1.5214999999999999
33.908396946564885,-0.6259541984732825,1.786259541984733,-0.46875,0.04296875,-0.149169921875,1.5231999999999999
34.87022900763359,-0.5190839694656488,1.816793893129771,-0.46826171875,0.04541015625,-0.145751953125,1.5249
35.770992366412216,-0.3969465648854962,2.0610687022900764,-0.4716796875,0.0498046875,-0.14892578125,1.5266
36.44274809160305,-0.33587786259541985,2.213740458015267,-0.46630859375,0.04833984375,-0.152587890625,1.5283
37.31297709923664,-0.3053435114503817,2.0763358778625953,-0.46337890625,0.046630859375,-0.142333984375,1.5299999999999998
38.0,-0.10687022900763359,2.3206106870229006,-0.46875,0.046630859375,-0.15234375,1.5316999999999998
38.99236641221374,0.183206106870229,2.3206106870229006,-0.464111328125,0.050048828125,-0.153076171875,1.5333999999999999
39.86259541984733,0.32061068702290074,2.2595419847328246,-0.46142578125,0.04736328125,-0.139892578125,1.5351
40.61068702290076,0.48854961832061067,2.198473282442748,-0.4609375,0.054443359375,-0.1396484375,1.5368
41.38931297709924,0.42748091603053434,2.2900763358778624,-0.461669921875,0.052490234375,-0.1494140625,1.5385
42.534351145038165,0.2748091603053435,2.2595419847328246,-0.4619140625,0.048828125,-0.153564453125,1.5402
43.45038167938932,0.22900763358778625,2.2595419847328246,-0.464599609375,0.050048828125,-0.1513671875,1.5418999999999998
44.152671755725194,0.015267175572519083,1.8778625954198473,-0.452392578125,0.048583984375,-0.14599609375,1.5435999999999999
45.23664122137404,-0.07633587786259542,2.030534351145038,-0.454345703125,0.05224609375,-0.138671875,1.5453
46.213740458015266,-0.15267175572519084,1.7251908396946565,-0.456787109375,0.052490234375,-0.13671875,1.547
47.20610687022901,-0.4732824427480916,1.6488549618320612,-0.46044921875,0.049072265625,-0.14453125,1.5487
48.213740458015266,-0.5801526717557252,1.6641221374045803,-0.462890625,0.055419921875,-0.142822265625,1.5504
49.32824427480916,-0.6870229007633588,1.5877862595419847,-0.46435546875,0.054931640625,-0.145751953125,1.5520999999999998
50.35114503816794,-0.549618320610687,1.5877862595419847,-0.466552734375,0.0537109375,-0.140625,1.5537999999999998
51.51145038167939,-0.7938931297709924,1.5725190839694656,-0.463134765625,0.05908203125,-0.144287109375,1.5554999999999999
52.396946564885496,-0.732824427480916,1.633587786259542,-0.459716796875,0.054931640625,-0.14501953125,1.5572
53.45038167938932,-0.5190839694656488,1.786259541984733,-0.4599609375,0.056396484375,-0.145751953125,1.5589
54.656488549618324,-0.6412213740458015,1.7251908396946565,-0.462158203125,0.063720703125,-0.14208984375,1.5606
55.80152671755725,-0.5648854961832062,1.8625954198473282,-0.46484375,0.0546875,-0.142822265625,1.5623
56.74809160305343,-0.3969465648854962,1.8778625954198473,-0.468994140625,0.056396484375,-0.148681640625,1.5639999999999998
57.74045801526717,-0.2900763358778626,1.7099236641221374,-0.4580078125,0.059326171875,-0.1376953125,1.5656999999999999
58.58015267175573,-0.3969465648854962,1.8015267175572518,-0.45703125,0.053466796875,-0.145751953125,1.5674
60.045801526717554,-0.48854961832061067,2.030534351145038,-0.459228515625,0.0556640625,-0.147216796875,1.5691
60.62595419847328,-0.22900763358778625,1.8473282442748091,-0.459716796875,0.05712890625,-0.140625,1.5708
62.0763358778626,-0.4580152671755725,1.6793893129770991,-0.46240234375,0.052978515625,-0.15087890625,1.5725
62.94656488549618,-0.5801526717557252,1.6488549618320612,-0.462890625,0.0595703125,-0.149169921875,1.5741999999999998
63.847328244274806,-0.5648854961832062,1.6793893129770991,-0.4599609375,0.05615234375,-0.148681640625,1.5758999999999999
64.9618320610687,-0.7938931297709924,1.8931297709923665,-0.463623046875,0.055908203125,-0.1376953125,1.5776
66.06106870229007,-0.9007633587786259,2.0,-0.46630859375,0.05712890625,-0.1416015625,1.5793
66.97709923664122,-0.916030534351145,2.045801526717557,-0.466552734375,0.056396484375,-0.141357421875,1.581
68.07633587786259,-0.8244274809160306,2.0,-0.46337890625,0.057861328125,-0.146240234375,1.5827
69.1145038167939,-0.8244274809160306,2.366412213740458,-0.470947265625,0.058837890625,-0.13525390625,1.5843999999999998
70.3206106870229,-0.9465648854961832,2.4122137404580153,-0.47021484375,0.0576171875,-0.13330078125,1.5860999999999998
70.94656488549619,-0.9618320610687023,2.50381679389313,-0.469482421875,0.056884765625,-0.144775390625,1.5877999999999999
72.06106870229007,-0.8244274809160306,2.7938931297709924,-0.470458984375,0.059326171875,-0.140380859375,1.5895
73.14503816793894,-0.7786259541984732,3.0229007633587788,-0.471923828125,0.061767578125,-0.134521484375,1.5912
74.22900763358778,-0.5190839694656488,3.068702290076336,-0.46923828125,0.05908203125,-0.13720703125,1.5929
75.22137404580153,-0.12213740458015267,3.068702290076336,-0.469482421875,0.0576171875,-0.146484375,1.5946
76.2442748091603,0.15267175572519084,3.267175572519084,-0.466064453125,0.0595703125,-0.138916015625,1.5962999999999998
77.55725190839695,0.15267175572519084,3.2519083969465647,-0.463623046875,0.06396484375,-0.13525390625,1.5979999999999999
78.82442748091603,0.5648854961832062,3.1755725190839694,-0.457275390625,0.0654296875,-0.13671875,1.5997
79.93893129770993,0.6259541984732825,3.099236641221374,-0.4599609375,0.06591796875,-0.12939453125,1.6014
81.20610687022901,0.5801526717557252,3.114503816793893,-0.4609375,0.06689453125,-0.133544921875,1.6031
82.82442748091603,0.5190839694656488,2.931297709923664,-0.458740234375,0.0595703125,-0.142333984375,1.6048
84.07633587786259,0.4122137404580153,2.427480916030534,-0.45263671875,0.067626953125,-0.135009765625,1.6064999999999998
85.52671755725191,0.0916030534351145,2.366412213740458,-0.454833984375,0.071044921875,-0.13330078125,1.6081999999999999
87.06870229007633,-0.24427480916030533,2.1374045801526718,-0.458251953125,0.067626953125,-0.135986328125,1.6098999999999999
88.7175572519084,-0.48854961832061067,2.122137404580153,-0.458251953125,0.071533203125,-0.1376953125,1.6116
90.12213740458016,-0.7938931297709924,1.5572519083969465,-0.454833984375,0.07275390625,-0.146728515625,1.6133
91.69465648854961,-1.1603053435114503,1.4961832061068703,-0.45654296875,0.071533203125,-0.135009765625,1.615
93.09923664122137,-1.0687022900763359,1.3435114503816794,-0.45556640625,0.072509765625,-0.133056640625,1.6166999999999998
94.53435114503817,-1.297709923664122,1.3282442748091603,-0.461181640625,0.071533203125,-0.13818359375,1.6183999999999998
96.03053435114504,-1.6793893129770991,1.3282442748091603,-0.45458984375,0.0693359375,-0.135009765625,1.6200999999999999
97.17557251908397,-1.450381679389313,1.3740458015267176,-0.453857421875,0.0703125,-0.131591796875,1.6218
98.61068702290076,-1.5419847328244274,1.0534351145038168,-0.454833984375,0.0712890625,-0.13818359375,1.6235
99.95419847328245,-1.8473282442748091,1.3740458015267176,-0.45263671875,0.0703125,-0.125,1.6252
101.3587786259542,-1.6946564885496183,1.1145038167938932,-0.451904296875,0.06591796875,-0.138916015625,1.6269
102.70229007633588,-1.6641221374045803,1.1908396946564885,-0.4580078125,0.06689453125,-0.125,1.6285999999999998
103.55725190839695,-1.7404580152671756,1.251908396946565,-0.458984375,0.063232421875,-0.12744140625,1.6302999999999999
104.94656488549619,-2.0610687022900764,1.4198473282442747,-0.4560546875,0.063232421875,-0.128662109375,1.632
106.22900763358778,-2.2442748091603053,1.4198473282442747,-0.452880859375,0.056396484375,-0.1376953125,1.6337
107.54198473282443,-2.381679389312977,1.4961832061068703,-0.45849609375,0.06298828125,-0.138671875,1.6354
109.14503816793894,-2.4580152671755724,1.5725190839694656,-0.45361328125,0.060302734375,-0.127197265625,1.6371
110.13740458015268,-2.8244274809160306,1.6641221374045803,-0.4560546875,0.068115234375,-0.134765625,1.6387999999999998
111.64885496183206,-3.099236641221374,1.618320610687023,-0.455322265625,0.067138671875,-0.1240234375,1.6404999999999998
113.14503816793894,-3.5114503816793894,1.7709923664122138,-0.4560546875,0.06689453125,-0.132080078125,1.6421999999999999
114.53435114503817,-3.618320610687023,1.633587786259542,-0.45849609375,0.061279296875,-0.126953125,1.6439
115.92366412213741,-3.7404580152671754,1.984732824427481,-0.459228515625,0.06884765625,-0.1328125,1.6456
117.22137404580153,-4.061068702290076,2.1374045801526718,-0.455322265625,0.06640625,-0.1279296875,1.6473
118.59541984732824,-4.122137404580153,2.1068702290076335,-0.455322265625,0.06494140625,-0.123779296875,1.6489999999999998
120.0,-4.106870229007634,2.2290076335877864,-0.45703125,0.057373046875,-0.130859375,1.6506999999999998
121.12977099236642,-4.351145038167939,2.4732824427480917,-0.45458984375,0.06298828125,-0.124755859375,1.6523999999999999
122.50381679389314,-4.320610687022901,2.564885496183206,-0.4541015625,0.063232421875,-0.12939453125,1.6541
123.58778625954199,-4.473282442748092,2.6564885496183206,-0.460693359375,0.0576171875,-0.121337890625,1.6558
125.00763358778626,-4.8396946564885495,2.6717557251908395,-0.4619140625,0.0546875,-0.12353515625,1.6575
126.1526717557252,-5.038167938931298,2.9770992366412212,-0.460693359375,0.052978515625,-0.122802734375,1.6592
127.16030534351145,-5.221374045801527,2.900763358778626,-0.460205078125,0.05517578125,-0.125,1.6608999999999998
128.3206106870229,-5.114503816793893,3.3893129770992365,-0.462890625,0.05078125,-0.12109375,1.6625999999999999
129.40458015267177,-5.083969465648855,3.282442748091603,-0.46728515625,0.051513671875,-0.1220703125,1.6643
130.6412213740458,-4.824427480916031,3.83206106870229,-0.461181640625,0.053955078125,-0.119140625,1.666
131.66412213740458,-4.534351145038168,4.229007633587786,-0.47119140625,0.052490234375,-0.1259765625,1.6677
132.67175572519085,-4.106870229007634,4.427480916030534,-0.467041015625,0.052734375,-0.1298828125,1.6694
133.81679389312978,-3.9389312977099236,4.442748091603053,-0.463134765625,0.05029296875,-0.119140625,1.6710999999999998
134.77862595419847,-3.9083969465648853,4.809160305343512,-0.46142578125,0.04931640625,-0.120849609375,1.6727999999999998
135.93893129770993,-3.954198473282443,4.900763358778626,-0.4619140625,0.048828125,-0.123046875,1.6744999999999999
136.91603053435114,-4.091603053435114,5.175572519083969,-0.46142578125,0.0439453125,-0.133056640625,1.6762
137.84732824427482,-4.427480916030534,5.1603053435114505,-0.4638671875,0.045166015625,-0.1240234375,1.6779
138.4885496183206,-4.305343511450381,5.3893129770992365,-0.46240234375,0.037841796875,-0.125,1.6796
139.31297709923663,-4.396946564885496,5.435114503816794,-0.4609375,0.042724609375,-0.117919921875,1.6813
140.06106870229007,-4.519083969465649,5.450381679389313,-0.459716796875,0.035888671875,-0.119384765625,1.6829999999999998
140.76335877862596,-4.6106870229007635,5.465648854961832,-0.4609375,0.03564453125,-0.125,1.6846999999999999
141.3740458015267,-4.458015267175573,5.740458015267175,-0.459228515625,0.034423828125,-0.119873046875,1.6864
141.74045801526717,-4.5038167938931295,5.679389312977099,-0.461181640625,0.028076171875,-0.123046875,1.6881
142.3206106870229,-4.580152671755725,6.106870229007634,-0.458984375,0.02978515625,-0.116455078125,1.6898
142.82442748091603,-4.870229007633588,6.198473282442748,-0.463134765625,0.03271484375,-0.12060546875,1.6915
143.34351145038167,-5.068702290076335,6.488549618320611,-0.46240234375,0.02783203125,-0.123779296875,1.6931999999999998
143.66412213740458,-5.1603053435114505,6.595419847328245,-0.46337890625,0.02392578125,-0.119384765625,1.6948999999999999
144.3053435114504,-5.129770992366412,6.9465648854961835,-0.4638671875,0.02734375,-0.122314453125,1.6965999999999999
144.87022900763358,-5.099236641221374,7.236641221374046,-0.46630859375,0.02587890625,-0.12060546875,1.6983
145.2824427480916,-5.236641221374046,7.572519083969466,-0.4658203125,0.02294921875,-0.130126953125,1.7
145.86259541984734,-5.1603053435114505,7.4961832061068705,-0.46826171875,0.019287109375,-0.12646484375,1.7017
146.10687022900763,-5.114503816793893,7.908396946564886,-0.466064453125,0.0205078125,-0.1298828125,1.7033999999999998
146.6259541984733,-5.206106870229007,8.030534351145038,-0.466552734375,0.02197265625,-0.12451171875,1.7050999999999998
146.99236641221373,-5.0534351145038165,8.061068702290076,-0.467529296875,0.02490234375,-0.126953125,1.7067999999999999
147.31297709923663,-4.9465648854961835,7.893129770992366,-0.46240234375,0.02099609375,-0.1181640625,1.7085
147.81679389312978,-4.870229007633588,8.045801526717558,-0.4677734375,0.019775390625,-0.1279296875,1.7102
147.8320610687023,-4.854961832061068,8.0,-0.466552734375,0.0166015625,-0.125,1.7119
148.10687022900763,-4.595419847328245,7.908396946564886,-0.463623046875,0.017578125,-0.1279296875,1.7136
148.35114503816794,-4.6106870229007635,7.709923664122138,-0.456787109375,0.01123046875,-0.122802734375,1.7152999999999998
148.6412213740458,-4.473282442748092,7.862595419847328,-0.460693359375,0.0087890625,-0.126953125,1.7169999999999999
148.8091603053435,-4.33587786259542,7.694656488549619,-0.460205078125,0.011962890625,-0.12353515625,1.7187
149.14503816793894,-4.33587786259542,7.587786259541985,-0.460693359375,0.00830078125,-0.122802734375,1.7204
149.31297709923663,-4.366412213740458,7.465648854961832,-0.46533203125,0.0107421875,-0.1298828125,1.7221
149.49618320610688,-4.488549618320611,7.358778625954199,-0.4609375,0.00439453125,-0.12939453125,1.7238
149.48091603053436,-4.641221374045801,7.206106870229007,-0.4541015625,0.0068359375,-0.1220703125,1.7254999999999998
149.89312977099237,-4.732824427480916,7.206106870229007,-0.46142578125,0.007568359375,-0.12060546875,1.7271999999999998
149.87786259541986,-4.885496183206107,7.099236641221374,-0.45947265625,0.0048828125,-0.125732421875,1.7288999999999999
149.84732824427482,-5.190839694656488,7.083969465648855,-0.4580078125,0.006103515625,-0.1220703125,1.7306
149.75572519083968,-5.190839694656488,6.793893129770993,-0.462646484375,0.0009765625,-0.120849609375,1.7323
149.74045801526717,-5.221374045801527,6.732824427480916,-0.458251953125,-0.005859375,-0.1201171875,1.734
149.6030534351145,-5.343511450381679,6.67175572519084,-0.461669921875,0.006103515625,-0.11865234375,1.7356999999999998
149.34351145038167,-5.511450381679389,6.519083969465649,-0.456298828125,0.00439453125,-0.121826171875,1.7373999999999998
149.14503816793894,-5.4961832061068705,6.549618320610687,-0.45751953125,0.002197265625,-0.126220703125,1.7390999999999999
149.1908396946565,-5.236641221374046,6.396946564885496,-0.46142578125,-0.002197265625,-0.127197265625,1.7408
149.40458015267177,-5.4961832061068705,6.213740458015267,-0.46240234375,-0.003662109375,-0.11865234375,1.7425
149.206106870229,-5.511450381679389,5.984732824427481,-0.46435546875,-0.001708984375,-0.11865234375,1.7442
149.1145038167939,-5.603053435114504,5.801526717557252,-0.466796875,0.001220703125,-0.131103515625,1.7459
148.94656488549617,-5.541984732824427,5.7251908396946565,-0.467529296875,-0.002197265625,-0.126708984375,1.7475999999999998
149.05343511450383,-5.404580152671755,5.3893129770992365,-0.464599609375,-0.00390625,-0.123046875,1.7492999999999999
148.82442748091603,-5.3893129770992365,5.419847328244275,-0.4638671875,0.001708984375,-0.118896484375,1.751
148.54961832061068,-5.32824427480916,5.145038167938932,-0.4638671875,-0.00439453125,-0.127197265625,1.7527
148.3206106870229,-5.206106870229007,5.175572519083969,-0.461669921875,-0.005859375,-0.127197265625,1.7544
148.03053435114504,-5.374045801526718,4.885496183206107,-0.466064453125,-0.008056640625,-0.133056640625,1.7561
147.80152671755727,-5.0534351145038165,5.0534351145038165,-0.465087890625,-0.00830078125,-0.126953125,1.7577999999999998
147.46564885496184,-5.129770992366412,4.732824427480916,-0.46826171875,-0.0126953125,-0.130615234375,1.7594999999999998
147.2824427480916,-5.221374045801527,4.656488549618321,-0.468017578125,-0.012451171875,-0.12890625,1.7611999999999999
146.94656488549617,-5.129770992366412,4.519083969465649,-0.462158203125,-0.013671875,-0.130859375,1.7629
146.54961832061068,-5.145038167938932,4.473282442748092,-0.459716796875,-0.02001953125,-0.127197265625,1.7646
146.36641221374046,-5.038167938931298,4.2748091603053435,-0.46337890625,-0.014404296875,-0.12451171875,1.7663
146.12213740458014,-5.267175572519084,4.0458015267175576,-0.4599609375,-0.0126953125,-0.1259765625,1.7679999999999998
145.74045801526717,-5.4961832061068705,3.7557251908396947,-0.4619140625,-0.012939453125,-0.129150390625,1.7696999999999998
145.08396946564886,-5.267175572519084,3.801526717557252,-0.461181640625,-0.022705078125,-0.132080078125,1.7713999999999999
144.74809160305344,-5.3893129770992365,3.66412213740458,-0.463623046875,-0.023193359375,-0.123046875,1.7731
144.12213740458014,-5.404580152671755,3.5877862595419847,-0.462890625,-0.020751953125,-0.137451171875,1.7748
143.61832061068702,-5.480916030534351,3.4198473282442747,-0.46142578125,-0.02392578125,-0.13037109375,1.7765
143.26717557251908,-5.7251908396946565,3.3587786259541983,-0.464599609375,-0.022705078125,-0.130859375,1.7782
142.7175572519084,-5.526717557251908,3.1755725190839694,-0.463623046875,-0.020751953125,-0.127685546875,1.7798999999999998
142.12213740458014,-5.6183206106870225,3.2061068702290076,-0.464111328125,-0.020751953125,-0.132568359375,1.7815999999999999
141.26717557251908,-5.587786259541985,3.0229007633587788,-0.466552734375,-0.026611328125,-0.13525390625,1.7832999999999999
141.0229007633588,-5.633587786259542,3.053435114503817,-0.4638671875,-0.02392578125,-0.12939453125,1.785
140.3206106870229,-5.8320610687022905,3.053435114503817,-0.465576171875,-0.021240234375,-0.13037109375,1.7867
139.63358778625954,-5.633587786259542,2.8244274809160306,-0.470947265625,-0.02197265625,-0.140869140625,1.7884
139.17557251908397,-5.511450381679389,2.7786259541984735,-0.469970703125,-0.0185546875,-0.13232421875,1.7900999999999998
138.8854961832061,-5.587786259541985,2.6412213740458017,-0.46826171875,-0.017578125,-0.1357421875,1.7917999999999998
138.2290076335878,-5.3893129770992365,2.50381679389313,-0.4697265625,-0.026123046875,-0.1396484375,1.7934999999999999
137.87786259541986,-5.404580152671755,2.595419847328244,-0.465576171875,-0.02978515625,-0.139404296875,1.7952
137.48091603053436,-5.282442748091603,2.16793893129771,-0.468994140625,-0.015625,-0.132568359375,1.7969
137.0381679389313,-5.419847328244275,2.045801526717557,-0.46826171875,-0.020263671875,-0.130126953125,1.7986
136.4732824427481,-5.251908396946565,2.0916030534351147,-0.469482421875,-0.022705078125,-0.134521484375,1.8002999999999998
136.24427480916032,-5.282442748091603,1.786259541984733,-0.46826171875,-0.0185546875,-0.134521484375,1.8019999999999998
135.66412213740458,-5.251908396946565,1.6793893129770991,-0.46826171875,-0.02099609375,-0.135498046875,1.8036999999999999
135.00763358778627,-5.00763358778626,1.5267175572519085,-0.469482421875,-0.015625,-0.122802734375,1.8054
134.7175572519084,-5.068702290076335,1.2213740458015268,-0.467041015625,-0.017333984375,-0.138916015625,1.8071
