gyrox1,gyroy1,gyroz1,accelx1,accely1,accelz1,Time
0.6259541984732825,0.2900763358778626,-1.7557251908396947,-0.41162109375,0.04736328125,-0.33740234375,0.0
0.4580152671755725,0.2595419847328244,-1.6946564885496183,-0.415283203125,0.052978515625,-0.329833984375,0.0017
0.4122137404580153,0.5038167938931297,-1.7099236641221374,-0.41650390625,0.049560546875,-0.333251953125,0.0034
0.5648854961832062,0.3969465648854962,-1.5572519083969465,-0.416015625,0.042236328125,-0.327880859375,0.0050999999999999995
0.4580152671755725,0.3053435114503817,-1.5267175572519085,-0.415771484375,0.046142578125,-0.331787109375,0.0068
0.33587786259541985,0.2748091603053435,-1.4961832061068703,-0.417724609375,0.04248046875,-0.330078125,0.008499999999999999
0.3511450381679389,0.3816793893129771,-1.618320610687023,-0.419677734375,0.05126953125,-0.3359375,0.010199999999999999
0.32061068702290074,0.6717557251908397,-1.4809160305343512,-0.40869140625,0.044677734375,-0.340087890625,0.011899999999999999
0.21374045801526717,0.5648854961832062,-1.6946564885496183,-0.413818359375,0.044677734375,-0.329345703125,0.0136
0.2748091603053435,0.5801526717557252,-1.4045801526717556,-0.42041015625,0.04443359375,-0.3330078125,0.0153
0.24427480916030533,0.7480916030534351,-1.4351145038167938,-0.421875,0.047119140625,-0.330078125,0.016999999999999998
0.42748091603053434,0.7786259541984732,-1.4809160305343512,-0.414794921875,0.04833984375,-0.32763671875,0.018699999999999998
0.21374045801526717,0.7022900763358778,-1.297709923664122,-0.41455078125,0.0439453125,-0.328369140625,0.020399999999999998
0.16793893129770993,0.8702290076335878,-1.4961832061068703,-0.419677734375,0.046875,-0.3388671875,0.022099999999999998
0.030534351145038167,1.0687022900763359,-1.297709923664122,-0.419921875,0.04541015625,-0.339111328125,0.023799999999999998
0.04580152671755725,0.7938931297709924,-1.251908396946565,-0.41455078125,0.0478515625,-0.337890625,0.0255
-0.061068702290076333,0.8702290076335878,-1.3129770992366412,-0.41650390625,0.045166015625,-0.3408203125,0.0272
-0.0916030534351145,0.9618320610687023,-1.3435114503816794,-0.41748046875,0.048095703125,-0.33544921875,0.0289
0.15267175572519084,1.099236641221374,-1.297709923664122,-0.413330078125,0.044677734375,-0.332763671875,0.0306
0.15267175572519084,1.0229007633587786,-1.2671755725190839,-0.414306640625,0.048828125,-0.328857421875,0.032299999999999995
-0.04580152671755725,1.0534351145038168,-1.297709923664122,-0.42041015625,0.048828125,-0.33349609375,0.033999999999999996
0.015267175572519083,1.4961832061068703,-1.3435114503816794,-0.419677734375,0.04541015625,-0.33251953125,0.035699999999999996
-0.061068702290076333,1.3129770992366412,-1.4198473282442747,-0.419189453125,0.04638671875,-0.336669921875,0.037399999999999996
0.030534351145038167,1.2061068702290076,-1.282442748091603,-0.419677734375,0.04736328125,-0.339111328125,0.039099999999999996
0.12213740458015267,1.2366412213740459,-1.4809160305343512,-0.423583984375,0.047119140625,-0.3330078125,0.040799999999999996
0.12213740458015267,1.2671755725190839,-1.3740458015267176,-0.417236328125,0.05078125,-0.328857421875,0.042499999999999996
0.21374045801526717,1.4045801526717556,-1.4809160305343512,-0.4140625,0.04833984375,-0.33056640625,0.044199999999999996
-0.015267175572519083,1.4198473282442747,-1.5725190839694656,-0.41455078125,0.049560546875,-0.339111328125,0.045899999999999996
0.10687022900763359,1.3587786259541985,-1.5114503816793894,-0.418701171875,0.046630859375,-0.334228515625,0.047599999999999996
0.16793893129770993,1.5725190839694656,-1.4198473282442747,-0.414794921875,0.05517578125,-0.336181640625,0.0493
0.12213740458015267,1.6641221374045803,-1.3893129770992367,-0.418212890625,0.04833984375,-0.327880859375,0.051
-0.015267175572519083,1.6793893129770991,-1.633587786259542,-0.4169921875,0.0498046875,-0.3359375,0.0527
-0.061068702290076333,1.4351145038167938,-1.6030534351145038,-0.419189453125,0.052001953125,-0.340087890625,0.0544
0.0,1.4809160305343512,-1.6641221374045803,-0.414794921875,0.052734375,-0.3310546875,0.0561
0.44274809160305345,1.6488549618320612,-1.618320610687023,-0.41064453125,0.055419921875,-0.321044921875,0.0578
-0.183206106870229,1.5267175572519085,-1.5877862595419847,-0.4169921875,0.055908203125,-0.3232421875,0.0595
-0.030534351145038167,1.633587786259542,-1.4961832061068703,-0.4150390625,0.052490234375,-0.3359375,0.0612
0.3969465648854962,1.4045801526717556,-1.8015267175572518,-0.414306640625,0.05615234375,-0.3349609375,0.0629
0.3511450381679389,1.297709923664122,-1.8931297709923665,-0.413818359375,0.052001953125,-0.33203125,0.06459999999999999
0.3816793893129771,1.4351145038167938,-1.8015267175572518,-0.412841796875,0.056640625,-0.328125,0.0663
0.48854961832061067,1.4198473282442747,-1.7709923664122138,-0.408203125,0.05517578125,-0.332275390625,0.06799999999999999
0.6870229007633588,1.251908396946565,-1.618320610687023,-0.4169921875,0.046875,-0.339599609375,0.0697
0.32061068702290074,1.3282442748091603,-1.7404580152671756,-0.416748046875,0.049072265625,-0.3369140625,0.07139999999999999
0.48854961832061067,1.3587786259541985,-1.7709923664122138,-0.413330078125,0.050537109375,-0.3330078125,0.0731
0.5343511450381679,1.4351145038167938,-1.6030534351145038,-0.410888671875,0.050537109375,-0.34033203125,0.07479999999999999
0.6564885496183206,1.282442748091603,-1.9389312977099236,-0.410888671875,0.0478515625,-0.336669921875,0.0765
0.3511450381679389,1.4045801526717556,-1.7099236641221374,-0.411376953125,0.05078125,-0.331787109375,0.07819999999999999
0.4732824427480916,1.282442748091603,-1.5114503816793894,-0.415283203125,0.044677734375,-0.33642578125,0.0799
0.549618320610687,1.4351145038167938,-1.5267175572519085,-0.4169921875,0.04638671875,-0.33056640625,0.08159999999999999
0.48854961832061067,1.3587786259541985,-1.5572519083969465,-0.41357421875,0.04638671875,-0.334716796875,0.0833
0.3816793893129771,1.3740458015267176,-1.5725190839694656,-0.417236328125,0.04638671875,-0.329833984375,0.08499999999999999
0.5038167938931297,1.3282442748091603,-1.6641221374045803,-0.419677734375,0.04638671875,-0.330810546875,0.0867
0.5954198473282443,1.4351145038167938,-1.5419847328244274,-0.415283203125,0.049072265625,-0.3388671875,0.08839999999999999
0.5801526717557252,1.6641221374045803,-1.5267175572519085,-0.4130859375,0.05029296875,-0.330078125,0.0901
0.5038167938931297,1.6030534351145038,-1.450381679389313,-0.412109375,0.053955078125,-0.33154296875,0.09179999999999999
0.4580152671755725,1.450381679389313,-1.6946564885496183,-0.41259765625,0.05078125,-0.33642578125,0.0935
0.22900763358778625,1.633587786259542,-1.4198473282442747,-0.412841796875,0.048583984375,-0.3310546875,0.09519999999999999
0.3511450381679389,1.816793893129771,-1.5267175572519085,-0.413818359375,0.05029296875,-0.333251953125,0.0969
0.42748091603053434,1.618320610687023,-1.7404580152671756,-0.41845703125,0.048583984375,-0.339111328125,0.0986
0.5343511450381679,1.633587786259542,-1.633587786259542,-0.412109375,0.052490234375,-0.32763671875,0.1003
0.6564885496183206,1.7404580152671756,-1.3587786259541985,-0.4140625,0.04833984375,-0.33544921875,0.102
0.4732824427480916,1.4961832061068703,-1.5267175572519085,-0.41162109375,0.05078125,-0.340087890625,0.1037
0.4732824427480916,1.9236641221374047,-1.618320610687023,-0.422607421875,0.050537109375,-0.334716796875,0.1054
0.5190839694656488,1.8931297709923665,-1.5267175572519085,-0.4091796875,0.054931640625,-0.3369140625,0.1071
0.549618320610687,1.6030534351145038,-1.4809160305343512,-0.4130859375,0.051513671875,-0.333740234375,0.1088
0.5190839694656488,1.5877862595419847,-1.618320610687023,-0.41552734375,0.052001953125,-0.339599609375,0.11049999999999999
0.2595419847328244,1.6030534351145038,-1.5572519083969465,-0.412353515625,0.04931640625,-0.33056640625,0.1122
0.48854961832061067,1.7404580152671756,-1.5572519083969465,-0.413818359375,0.043212890625,-0.33203125,0.11389999999999999
0.4732824427480916,1.984732824427481,-1.5267175572519085,-0.410888671875,0.046875,-0.333251953125,0.1156
0.5954198473282443,1.6641221374045803,-1.786259541984733,-0.4140625,0.05224609375,-0.33740234375,0.11729999999999999
0.7480916030534351,1.83206106870229,-1.6030534351145038,-0.416748046875,0.052490234375,-0.322021484375,0.119
0.6717557251908397,1.8778625954198473,-1.9694656488549618,-0.4169921875,0.050537109375,-0.33642578125,0.12069999999999999
0.5648854961832062,1.786259541984733,-1.7251908396946565,-0.41650390625,0.05126953125,-0.341796875,0.1224
0.6259541984732825,1.9541984732824427,-1.6641221374045803,-0.414794921875,0.052001953125,-0.336669921875,0.12409999999999999
0.7480916030534351,2.0,-1.618320610687023,-0.420166015625,0.051025390625,-0.3369140625,0.1258
0.7938931297709924,1.8473282442748091,-1.618320610687023,-0.419921875,0.050048828125,-0.337646484375,0.1275
0.7786259541984732,1.9083969465648856,-1.6030534351145038,-0.413330078125,0.050048828125,-0.3369140625,0.12919999999999998
1.083969465648855,1.9389312977099236,-1.7251908396946565,-0.414306640625,0.052490234375,-0.332763671875,0.1309
0.9923664122137404,1.9083969465648856,-1.6793893129770991,-0.412109375,0.055419921875,-0.34033203125,0.1326
0.9923664122137404,2.1068702290076335,-1.6946564885496183,-0.4140625,0.052490234375,-0.33056640625,0.1343
1.0076335877862594,1.816793893129771,-1.6488549618320612,-0.41259765625,0.05517578125,-0.3359375,0.13599999999999998
1.1908396946564885,1.9694656488549618,-1.618320610687023,-0.4130859375,0.051513671875,-0.3408203125,0.1377
1.1603053435114503,2.1068702290076335,-1.5419847328244274,-0.41259765625,0.050537109375,-0.335693359375,0.1394
1.1755725190839694,1.8473282442748091,-1.6030534351145038,-0.410400390625,0.050537109375,-0.334716796875,0.1411
1.1908396946564885,1.8778625954198473,-1.633587786259542,-0.40869140625,0.04931640625,-0.337646484375,0.14279999999999998
0.9618320610687023,1.9389312977099236,-1.8778625954198473,-0.409423828125,0.052734375,-0.332275390625,0.1445
1.1450381679389312,1.7709923664122138,-1.7404580152671756,-0.412109375,0.05078125,-0.3271484375,0.1462
1.282442748091603,1.8931297709923665,-1.6946564885496183,-0.4140625,0.05029296875,-0.337646484375,0.1479
1.0687022900763359,1.6641221374045803,-1.5725190839694656,-0.408935546875,0.050537109375,-0.334228515625,0.14959999999999998
1.2213740458015268,1.5877862595419847,-1.7557251908396947,-0.407958984375,0.052490234375,-0.338134765625,0.1513
1.5419847328244274,1.4961832061068703,-1.7099236641221374,-0.40380859375,0.04931640625,-0.33740234375,0.153
1.3893129770992367,1.5572519083969465,-1.6488549618320612,-0.409912109375,0.048095703125,-0.333984375,0.1547
1.251908396946565,1.6488549618320612,-1.6946564885496183,-0.414306640625,0.05126953125,-0.33203125,0.15639999999999998
1.282442748091603,1.6793893129770991,-1.7251908396946565,-0.408935546875,0.05126953125,-0.33935546875,0.1581
1.282442748091603,1.5267175572519085,-1.6030534351145038,-0.410400390625,0.053466796875,-0.3427734375,0.1598
1.4961832061068703,1.4351145038167938,-1.6946564885496183,-0.41064453125,0.04833984375,-0.3359375,0.1615
1.3587786259541985,1.4809160305343512,-1.7404580152671756,-0.411376953125,0.04833984375,-0.337158203125,0.16319999999999998
1.1908396946564885,1.3435114503816794,-1.8473282442748091,-0.412353515625,0.052490234375,-0.33642578125,0.1649
1.3282442748091603,1.2061068702290076,-1.5877862595419847,-0.403564453125,0.041015625,-0.331298828125,0.1666
1.251908396946565,1.1755725190839694,-1.6641221374045803,-0.409912109375,0.0537109375,-0.32958984375,0.16829999999999998
1.3282442748091603,1.1145038167938932,-1.7557251908396947,-0.40673828125,0.046630859375,-0.335205078125,0.16999999999999998
1.4809160305343512,1.1908396946564885,-1.6946564885496183,-0.408935546875,0.04638671875,-0.33251953125,0.1717
1.3282442748091603,0.9465648854961832,-1.7404580152671756,-0.4091796875,0.047119140625,-0.33740234375,0.1734
1.3740458015267176,0.916030534351145,-1.7099236641221374,-0.4091796875,0.049072265625,-0.33251953125,0.17509999999999998
1.4809160305343512,0.8854961832061069,-1.786259541984733,-0.4130859375,0.04833984375,-0.340087890625,0.17679999999999998
1.2061068702290076,0.7175572519083969,-1.83206106870229,-0.4150390625,0.053466796875,-0.3359375,0.1785
1.3282442748091603,0.9770992366412213,-1.8625954198473282,-0.41064453125,0.047119140625,-0.339599609375,0.1802
1.2061068702290076,1.0229007633587786,-1.8625954198473282,-0.41259765625,0.0517578125,-0.332763671875,0.18189999999999998
1.465648854961832,0.8244274809160306,-1.7557251908396947,-0.40966796875,0.049560546875,-0.332275390625,0.18359999999999999
1.3129770992366412,0.6259541984732825,-1.4961832061068703,-0.41259765625,0.046142578125,-0.337890625,0.1853
1.3282442748091603,0.7175572519083969,-1.5725190839694656,-0.412353515625,0.0478515625,-0.3291015625,0.187
1.465648854961832,0.6259541984732825,-1.6793893129770991,-0.4130859375,0.0419921875,-0.33642578125,0.18869999999999998
1.251908396946565,0.7022900763358778,-1.5572519083969465,-0.412353515625,0.046142578125,-0.333740234375,0.19039999999999999
1.1908396946564885,0.7480916030534351,-1.5267175572519085,-0.4130859375,0.046142578125,-0.33740234375,0.1921
1.1908396946564885,0.8244274809160306,-1.6793893129770991,-0.412109375,0.048095703125,-0.333740234375,0.1938
0.8702290076335878,0.9007633587786259,-1.465648854961832,-0.420166015625,0.05126953125,-0.333740234375,0.19549999999999998
1.1145038167938932,0.6717557251908397,-1.6946564885496183,-0.407958984375,0.045166015625,-0.333984375,0.1972
1.2366412213740459,0.732824427480916,-1.618320610687023,-0.412841796875,0.04345703125,-0.336669921875,0.1989
1.099236641221374,0.8702290076335878,-1.7251908396946565,-0.4111328125,0.05029296875,-0.327880859375,0.2006
1.3435114503816794,0.8854961832061069,-1.5267175572519085,-0.410888671875,0.045166015625,-0.3369140625,0.20229999999999998
0.9923664122137404,0.9312977099236641,-1.6030534351145038,-0.41259765625,0.043701171875,-0.3330078125,0.204
1.0687022900763359,0.9007633587786259,-1.3893129770992367,-0.4140625,0.04296875,-0.33251953125,0.2057
0.9312977099236641,0.8702290076335878,-1.6946564885496183,-0.416015625,0.0498046875,-0.3359375,0.2074
1.0381679389312977,1.0229007633587786,-1.6488549618320612,-0.411376953125,0.046875,-0.337158203125,0.20909999999999998
1.1297709923664123,0.9923664122137404,-1.5877862595419847,-0.4130859375,0.043701171875,-0.32861328125,0.2108
0.8702290076335878,1.1145038167938932,-1.5419847328244274,-0.4150390625,0.042236328125,-0.32666015625,0.2125
0.9770992366412213,1.1450381679389312,-1.5877862595419847,-0.4189453125,0.042236328125,-0.330078125,0.2142
1.0076335877862594,1.251908396946565,-1.4045801526717556,-0.4140625,0.0478515625,-0.332275390625,0.21589999999999998
0.916030534351145,1.3893129770992367,-1.633587786259542,-0.4169921875,0.042236328125,-0.329345703125,0.2176
0.9465648854961832,0.9312977099236641,-1.7709923664122138,-0.41259765625,0.047607421875,-0.332275390625,0.2193
0.916030534351145,1.1908396946564885,-1.450381679389313,-0.41796875,0.048095703125,-0.3369140625,0.22099999999999997
1.0076335877862594,1.1908396946564885,-1.3129770992366412,-0.4150390625,0.04345703125,-0.335693359375,0.22269999999999998
0.6106870229007634,1.3129770992366412,-1.5725190839694656,-0.413330078125,0.048828125,-0.33447265625,0.2244
0.7022900763358778,1.4045801526717556,-1.6641221374045803,-0.41015625,0.0478515625,-0.329345703125,0.2261
0.8244274809160306,1.3740458015267176,-1.8778625954198473,-0.4150390625,0.052001953125,-0.3359375,0.22779999999999997
0.8396946564885496,1.5572519083969465,-1.7404580152671756,-0.41357421875,0.04345703125,-0.339111328125,0.22949999999999998
0.8244274809160306,1.6030534351145038,-1.816793893129771,-0.410888671875,0.044677734375,-0.34033203125,0.2312
0.7022900763358778,1.5267175572519085,-1.5877862595419847,-0.41259765625,0.045654296875,-0.340087890625,0.2329
0.7633587786259542,1.3893129770992367,-1.633587786259542,-0.416748046875,0.042236328125,-0.336181640625,0.23459999999999998
0.5343511450381679,1.5877862595419847,-1.465648854961832,-0.408935546875,0.05029296875,-0.327880859375,0.23629999999999998
0.6106870229007634,1.5572519083969465,-1.6793893129770991,-0.411376953125,0.051025390625,-0.334716796875,0.238
0.7480916030534351,1.4198473282442747,-1.6488549618320612,-0.41015625,0.04931640625,-0.33837890625,0.2397
0.6259541984732825,1.5725190839694656,-1.7251908396946565,-0.416259765625,0.048095703125,-0.337646484375,0.24139999999999998
0.732824427480916,1.5267175572519085,-1.6488549618320612,-0.412353515625,0.048095703125,-0.336181640625,0.24309999999999998
0.7022900763358778,1.4809160305343512,-1.7709923664122138,-0.41259765625,0.048583984375,-0.33154296875,0.2448
0.5801526717557252,1.465648854961832,-1.7404580152671756,-0.4140625,0.048583984375,-0.330078125,0.2465
0.2900763358778626,1.465648854961832,-2.0,-0.41552734375,0.042236328125,-0.3369140625,0.24819999999999998
0.366412213740458,1.3740458015267176,-1.7404580152671756,-0.412109375,0.048583984375,-0.338134765625,0.24989999999999998
0.48854961832061067,1.282442748091603,-1.816793893129771,-0.412353515625,0.05126953125,-0.335205078125,0.2516
0.5038167938931297,1.5114503816793894,-1.8473282442748091,-0.411865234375,0.04833984375,-0.33544921875,0.25329999999999997
0.44274809160305345,1.4351145038167938,-1.83206106870229,-0.410400390625,0.048583984375,-0.335205078125,0.255
0.44274809160305345,1.297709923664122,-1.7404580152671756,-0.414306640625,0.048095703125,-0.33837890625,0.2567
0.6412213740458015,1.4351145038167938,-1.8625954198473282,-0.413818359375,0.043701171875,-0.338623046875,0.25839999999999996
0.5954198473282443,1.3740458015267176,-1.9083969465648856,-0.4130859375,0.045654296875,-0.3427734375,0.2601
0.6412213740458015,1.3893129770992367,-2.015267175572519,-0.411865234375,0.04931640625,-0.339599609375,0.2618
0.4122137404580153,1.297709923664122,-1.6793893129770991,-0.414794921875,0.04296875,-0.333740234375,0.2635
0.22900763358778625,1.4198473282442747,-2.0,-0.412353515625,0.051513671875,-0.338623046875,0.2652
0.48854961832061067,1.2213740458015268,-1.8473282442748091,-0.4150390625,0.05078125,-0.336181640625,0.26689999999999997
0.549618320610687,1.251908396946565,-1.9541984732824427,-0.40966796875,0.04833984375,-0.33544921875,0.2686
0.42748091603053434,1.2213740458015268,-1.816793893129771,-0.41162109375,0.0478515625,-0.33642578125,0.2703
0.4122137404580153,1.3129770992366412,-2.015267175572519,-0.411865234375,0.046875,-0.341796875,0.27199999999999996
0.33587786259541985,1.4045801526717556,-1.8625954198473282,-0.416259765625,0.04931640625,-0.33837890625,0.2737
0.44274809160305345,1.251908396946565,-1.8931297709923665,-0.415771484375,0.046142578125,-0.340576171875,0.2754
0.33587786259541985,1.2366412213740459,-1.8931297709923665,-0.414306640625,0.05078125,-0.3408203125,0.27709999999999996
0.32061068702290074,1.4198473282442747,-2.030534351145038,-0.4130859375,0.039306640625,-0.336669921875,0.2788
0.44274809160305345,1.3740458015267176,-1.9389312977099236,-0.415283203125,0.047119140625,-0.339111328125,0.28049999999999997
0.24427480916030533,1.2366412213740459,-1.984732824427481,-0.416748046875,0.046875,-0.338134765625,0.2822
0.2595419847328244,1.4351145038167938,-2.0610687022900764,-0.411376953125,0.05029296875,-0.339111328125,0.2839
0.3511450381679389,1.3587786259541985,-2.0610687022900764,-0.40869140625,0.046142578125,-0.3369140625,0.28559999999999997
0.1984732824427481,1.4045801526717556,-2.0,-0.418212890625,0.046142578125,-0.326416015625,0.2873
-0.12213740458015267,1.4809160305343512,-2.015267175572519,-0.41650390625,0.0419921875,-0.33642578125,0.289
0.061068702290076333,1.3435114503816794,-2.1068702290076335,-0.41796875,0.047119140625,-0.34130859375,0.29069999999999996
0.15267175572519084,1.2671755725190839,-1.83206106870229,-0.4150390625,0.044921875,-0.33251953125,0.2924
0.0916030534351145,1.3282442748091603,-2.0610687022900764,-0.412353515625,0.0478515625,-0.337890625,0.2941
0.22900763358778625,1.3740458015267176,-2.1068702290076335,-0.415283203125,0.04638671875,-0.339599609375,0.2958
-0.07633587786259542,1.4961832061068703,-1.9389312977099236,-0.41015625,0.0439453125,-0.334228515625,0.2975
0.0916030534351145,1.3587786259541985,-2.015267175572519,-0.413818359375,0.045654296875,-0.3359375,0.29919999999999997
0.0,1.3129770992366412,-2.2442748091603053,-0.41748046875,0.04833984375,-0.33251953125,0.3009
-0.13740458015267176,1.3282442748091603,-2.1068702290076335,-0.41796875,0.052734375,-0.341552734375,0.3026
0.04580152671755725,1.4198473282442747,-2.1068702290076335,-0.41845703125,0.046630859375,-0.34130859375,0.30429999999999996
0.04580152671755725,1.3740458015267176,-1.9694656488549618,-0.4169921875,0.048828125,-0.33740234375,0.306
0.13740458015267176,1.3740458015267176,-1.9694656488549618,-0.412353515625,0.052734375,-0.33203125,0.3077
-0.030534351145038167,1.4351145038167938,-2.183206106870229,-0.4140625,0.052490234375,-0.333984375,0.3094
-0.030534351145038167,1.4351145038167938,-2.2748091603053435,-0.416748046875,0.048583984375,-0.337158203125,0.3111
0.04580152671755725,1.465648854961832,-2.0610687022900764,-0.416015625,0.052734375,-0.32763671875,0.31279999999999997
0.015267175572519083,1.5877862595419847,-1.8931297709923665,-0.411865234375,0.046630859375,-0.3349609375,0.3145
-0.0916030534351145,1.450381679389313,-2.0916030534351147,-0.413330078125,0.048828125,-0.34423828125,0.3162
-0.030534351145038167,1.3282442748091603,-2.213740458015267,-0.411865234375,0.049560546875,-0.33349609375,0.31789999999999996
-0.15267175572519084,1.3435114503816794,-2.213740458015267,-0.418212890625,0.0517578125,-0.332275390625,0.3196
0.04580152671755725,1.5877862595419847,-2.1068702290076335,-0.416748046875,0.04931640625,-0.33935546875,0.3213
0.10687022900763359,1.4961832061068703,-1.8778625954198473,-0.416748046875,0.049072265625,-0.33154296875,0.323
0.07633587786259542,1.3282442748091603,-2.198473282442748,-0.41455078125,0.049072265625,-0.340087890625,0.3247
0.061068702290076333,1.618320610687023,-1.984732824427481,-0.41259765625,0.050048828125,-0.3349609375,0.32639999999999997
0.12213740458015267,1.450381679389313,-2.122137404580153,-0.41259765625,0.049560546875,-0.33447265625,0.3281
-0.030534351145038167,1.3435114503816794,-1.8931297709923665,-0.417236328125,0.04736328125,-0.333740234375,0.3298
-0.04580152671755725,1.297709923664122,-2.030534351145038,-0.411376953125,0.04443359375,-0.3388671875,0.33149999999999996
0.22900763358778625,1.4045801526717556,-2.030534351145038,-0.4130859375,0.052001953125,-0.336669921875,0.3332
0.44274809160305345,1.6488549618320612,-2.0,-0.411376953125,0.05078125,-0.334716796875,0.3349
0.15267175572519084,1.4961832061068703,-1.8473282442748091,-0.419677734375,0.051513671875,-0.3359375,0.33659999999999995
0.32061068702290074,1.3740458015267176,-2.0,-0.41650390625,0.049072265625,-0.339111328125,0.3383
0.33587786259541985,1.6793893129770991,-1.9083969465648856,-0.418701171875,0.052734375,-0.32861328125,0.33999999999999997
0.366412213740458,1.450381679389313,-1.9541984732824427,-0.412109375,0.05224609375,-0.33935546875,0.3417
0.5190839694656488,1.3740458015267176,-1.8625954198473282,-0.416015625,0.048095703125,-0.34228515625,0.3434
0.5343511450381679,1.5267175572519085,-2.0,-0.416259765625,0.048828125,-0.341552734375,0.34509999999999996
0.4732824427480916,1.7251908396946565,-1.8015267175572518,-0.415771484375,0.053466796875,-0.339111328125,0.3468
0.549618320610687,1.8015267175572518,-1.984732824427481,-0.41015625,0.04931640625,-0.33935546875,0.3485
0.6564885496183206,1.5267175572519085,-1.8625954198473282,-0.410888671875,0.050537109375,-0.340087890625,0.35019999999999996
0.6106870229007634,1.4198473282442747,-1.8778625954198473,-0.408935546875,0.04736328125,-0.335205078125,0.3519
0.6564885496183206,1.3893129770992367,-1.6793893129770991,-0.416259765625,0.047119140625,-0.337890625,0.35359999999999997
0.7022900763358778,1.633587786259542,-1.8778625954198473,-0.412841796875,0.052490234375,-0.337646484375,0.3553
0.916030534351145,1.6030534351145038,-1.9541984732824427,-0.41064453125,0.050048828125,-0.33203125,0.357
0.6106870229007634,1.3893129770992367,-1.83206106870229,-0.4140625,0.053466796875,-0.33349609375,0.35869999999999996
0.5190839694656488,1.5114503816793894,-1.6946564885496183,-0.41552734375,0.054443359375,-0.34130859375,0.3604
0.8396946564885496,1.465648854961832,-1.618320610687023,-0.414306640625,0.0556640625,-0.338623046875,0.3621
0.8854961832061069,1.3587786259541985,-1.6488549618320612,-0.4111328125,0.052734375,-0.33984375,0.36379999999999996
0.7786259541984732,1.3893129770992367,-1.633587786259542,-0.408935546875,0.04443359375,-0.336181640625,0.3655
0.7938931297709924,1.5725190839694656,-1.618320610687023,-0.41064453125,0.054931640625,-0.34130859375,0.36719999999999997
0.8244274809160306,1.4809160305343512,-1.5877862595419847,-0.411376953125,0.053466796875,-0.33056640625,0.3689
0.7633587786259542,1.3587786259541985,-1.6793893129770991,-0.416259765625,0.05126953125,-0.338134765625,0.3706
1.1755725190839694,1.3587786259541985,-1.83206106870229,-0.409423828125,0.049072265625,-0.332275390625,0.37229999999999996
0.8396946564885496,1.465648854961832,-1.618320610687023,-0.41357421875,0.044921875,-0.3330078125,0.374
0.9007633587786259,1.2671755725190839,-1.8625954198473282,-0.411376953125,0.05126953125,-0.3388671875,0.3757
0.8091603053435115,1.297709923664122,-1.5572519083969465,-0.412841796875,0.048095703125,-0.343017578125,0.37739999999999996
0.9007633587786259,1.2671755725190839,-1.7099236641221374,-0.414306640625,0.045654296875,-0.33544921875,0.3791
1.0534351145038168,1.282442748091603,-1.786259541984733,-0.411865234375,0.0537109375,-0.34130859375,0.38079999999999997
0.9923664122137404,1.3282442748091603,-1.786259541984733,-0.413330078125,0.044921875,-0.32958984375,0.38249999999999995
1.099236641221374,1.297709923664122,-1.5725190839694656,-0.41015625,0.04541015625,-0.34326171875,0.3842
1.0687022900763359,1.2213740458015268,-1.7404580152671756,-0.41162109375,0.046142578125,-0.341796875,0.38589999999999997
1.0076335877862594,1.2366412213740459,-1.8015267175572518,-0.416748046875,0.052734375,-0.342529296875,0.3876
0.9465648854961832,1.2061068702290076,-1.8931297709923665,-0.414306640625,0.04443359375,-0.338134765625,0.3893
1.0534351145038168,1.1603053435114503,-1.7404580152671756,-0.41259765625,0.0439453125,-0.3359375,0.39099999999999996
0.9465648854961832,1.297709923664122,-1.6793893129770991,-0.408935546875,0.0478515625,-0.342041015625,0.3927
0.8396946564885496,1.0534351145038168,-1.786259541984733,-0.4130859375,0.044921875,-0.338134765625,0.3944
0.7633587786259542,1.0381679389312977,-1.8473282442748091,-0.410888671875,0.045166015625,-0.330810546875,0.39609999999999995
0.916030534351145,1.465648854961832,-1.6946564885496183,-0.411865234375,0.04443359375,-0.3388671875,0.3978
0.8854961832061069,1.083969465648855,-1.8473282442748091,-0.41259765625,0.046875,-0.33349609375,0.39949999999999997
0.9618320610687023,1.0229007633587786,-1.8778625954198473,-0.4130859375,0.049072265625,-0.338623046875,0.4012
0.6564885496183206,1.1145038167938932,-1.9389312977099236,-0.41552734375,0.04150390625,-0.34130859375,0.4029
0.732824427480916,1.1450381679389312,-1.9694656488549618,-0.4111328125,0.04931640625,-0.342529296875,0.40459999999999996
0.7633587786259542,1.1450381679389312,-1.8931297709923665,-0.41455078125,0.044677734375,-0.34326171875,0.4063
0.6870229007633588,1.0687022900763359,-1.8931297709923665,-0.41455078125,0.046142578125,-0.33544921875,0.408
0.5038167938931297,1.0687022900763359,-1.9389312977099236,-0.41845703125,0.046875,-0.330322265625,0.40969999999999995
0.6106870229007634,1.1908396946564885,-2.1526717557251906,-0.409912109375,0.044189453125,-0.3330078125,0.4114
0.2595419847328244,1.1450381679389312,-1.8625954198473282,-0.4130859375,0.03759765625,-0.330810546875,0.41309999999999997
0.4580152671755725,1.282442748091603,-2.045801526717557,-0.414794921875,0.044189453125,-0.335693359375,0.4148
0.4580152671755725,1.083969465648855,-2.0763358778625953,-0.4091796875,0.040283203125,-0.337646484375,0.4165
0.12213740458015267,1.2061068702290076,-1.9389312977099236,-0.416259765625,0.0439453125,-0.33935546875,0.41819999999999996
0.2748091603053435,1.1908396946564885,-2.16793893129771,-0.416259765625,0.045654296875,-0.3310546875,0.4199
0.10687022900763359,1.2213740458015268,-2.1526717557251906,-0.412353515625,0.044189453125,-0.331298828125,0.4216
0.12213740458015267,1.0076335877862594,-2.0916030534351147,-0.409423828125,0.046875,-0.34033203125,0.42329999999999995
0.04580152671755725,1.282442748091603,-2.3206106870229006,-0.411865234375,0.046142578125,-0.34423828125,0.425
-0.04580152671755725,1.099236641221374,-2.0610687022900764,-0.41455078125,0.0390625,-0.333740234375,0.42669999999999997
-0.0916030534351145,1.1755725190839694,-2.2748091603053435,-0.41015625,0.046875,-0.33935546875,0.4284
-0.2748091603053435,1.1297709923664123,-2.2595419847328246,-0.410400390625,0.045166015625,-0.32958984375,0.4301
-0.2595419847328244,1.251908396946565,-2.519083969465649,-0.4150390625,0.044921875,-0.339111328125,0.43179999999999996
-0.12213740458015267,1.2213740458015268,-2.366412213740458,-0.409912109375,0.043701171875,-0.33447265625,0.4335
-0.22900763358778625,1.2061068702290076,-2.33587786259542,-0.413330078125,0.044677734375,-0.337646484375,0.4352
-0.183206106870229,1.0229007633587786,-2.16793893129771,-0.41357421875,0.048583984375,-0.338623046875,0.43689999999999996
-0.22900763358778625,1.1755725190839694,-2.351145038167939,-0.41259765625,0.044921875,-0.338134765625,0.4386
-0.2900763358778626,1.0381679389312977,-2.16793893129771,-0.412353515625,0.043212890625,-0.3349609375,0.44029999999999997
-0.2595419847328244,1.0229007633587786,-2.4732824427480917,-0.415771484375,0.04541015625,-0.328125,0.44199999999999995
-0.5190839694656488,1.1755725190839694,-2.2595419847328246,-0.41259765625,0.046142578125,-0.33740234375,0.4437
-0.366412213740458,0.9770992366412213,-2.2290076335877864,-0.411865234375,0.046142578125,-0.33056640625,0.44539999999999996
-0.33587786259541985,1.0381679389312977,-2.1526717557251906,-0.4150390625,0.0478515625,-0.341796875,0.4471
-0.5038167938931297,1.1603053435114503,-2.3969465648854964,-0.41259765625,0.047607421875,-0.33642578125,0.4488
-0.4122137404580153,1.2213740458015268,-2.2748091603053435,-0.41064453125,0.050537109375,-0.334716796875,0.45049999999999996
-0.2900763358778626,1.0076335877862594,-2.3969465648854964,-0.41455078125,0.047119140625,-0.341064453125,0.4522
-0.33587786259541985,1.1755725190839694,-2.33587786259542,-0.4091796875,0.052978515625,-0.328369140625,0.45389999999999997
-0.22900763358778625,1.0381679389312977,-2.50381679389313,-0.407470703125,0.048583984375,-0.3271484375,0.45559999999999995
-0.4732824427480916,1.1450381679389312,-2.2900763358778624,-0.410400390625,0.044921875,-0.337646484375,0.4573
-0.10687022900763359,0.916030534351145,-2.213740458015267,-0.41064453125,0.05029296875,-0.33349609375,0.45899999999999996
-0.3511450381679389,0.6717557251908397,-2.351145038167939,-0.4130859375,0.049072265625,-0.333251953125,0.4607
-0.48854961832061067,0.9923664122137404,-2.3053435114503817,-0.411865234375,0.05078125,-0.339111328125,0.4624
-0.2748091603053435,1.099236641221374,-2.2442748091603053,-0.412841796875,0.05126953125,-0.339111328125,0.46409999999999996
-0.21374045801526717,0.916030534351145,-2.1374045801526718,-0.413330078125,0.044189453125,-0.337158203125,0.4658
-0.2748091603053435,1.0076335877862594,-2.0916030534351147,-0.41748046875,0.04736328125,-0.33154296875,0.46749999999999997
-0.13740458015267176,1.1145038167938932,-2.549618320610687,-0.416015625,0.04833984375,-0.3291015625,0.46919999999999995
-0.015267175572519083,0.9923664122137404,-2.2290076335877864,-0.41259765625,0.05126953125,-0.3369140625,0.4709
-0.04580152671755725,1.0076335877862594,-2.198473282442748,-0.413818359375,0.04638671875,-0.3310546875,0.47259999999999996
-0.061068702290076333,0.9923664122137404,-2.381679389312977,-0.4091796875,0.0498046875,-0.333984375,0.4743
0.12213740458015267,0.6870229007633588,-2.2442748091603053,-0.419189453125,0.048828125,-0.330322265625,0.476
0.030534351145038167,1.0534351145038168,-2.122137404580153,-0.414306640625,0.05126953125,-0.33935546875,0.47769999999999996
-0.030534351145038167,1.1755725190839694,-2.351145038167939,-0.41015625,0.050537109375,-0.342041015625,0.4794
0.4580152671755725,0.8702290076335878,-2.16793893129771,-0.41650390625,0.0576171875,-0.3427734375,0.48109999999999997
0.2748091603053435,0.9007633587786259,-2.3053435114503817,-0.4111328125,0.046875,-0.33544921875,0.48279999999999995
0.22900763358778625,0.7633587786259542,-2.183206106870229,-0.4130859375,0.04638671875,-0.339111328125,0.4845
0.3511450381679389,0.6717557251908397,-2.0763358778625953,-0.4130859375,0.052978515625,-0.339599609375,0.48619999999999997
0.33587786259541985,0.732824427480916,-1.9694656488549618,-0.409912109375,0.048828125,-0.334716796875,0.4879
0.5801526717557252,0.6564885496183206,-2.2748091603053435,-0.4150390625,0.04736328125,-0.33349609375,0.4896
0.5038167938931297,0.6412213740458015,-2.1374045801526718,-0.4130859375,0.05078125,-0.33837890625,0.49129999999999996
0.48854961832061067,0.5190839694656488,-1.9236641221374047,-0.40966796875,0.04931640625,-0.33642578125,0.493
0.6106870229007634,0.4580152671755725,-1.816793893129771,-0.41064453125,0.04833984375,-0.336181640625,0.4947
0.8244274809160306,0.6259541984732825,-1.984732824427481,-0.413818359375,0.04638671875,-0.334716796875,0.49639999999999995
0.6717557251908397,0.5343511450381679,-1.984732824427481,-0.412109375,0.049560546875,-0.330322265625,0.4981
0.6870229007633588,0.4122137404580153,-1.8625954198473282,-0.415771484375,0.04541015625,-0.337890625,0.49979999999999997
0.6106870229007634,0.366412213740458,-1.7251908396946565,-0.408447265625,0.047119140625,-0.328125,0.5015
0.9465648854961832,0.2900763358778626,-1.6793893129770991,-0.414794921875,0.04736328125,-0.34228515625,0.5032
0.9007633587786259,0.24427480916030533,-1.6488549618320612,-0.408447265625,0.0439453125,-0.336181640625,0.5049
0.8549618320610687,0.22900763358778625,-1.5725190839694656,-0.41162109375,0.04833984375,-0.333251953125,0.5065999999999999
0.9007633587786259,0.13740458015267176,-1.7709923664122138,-0.411376953125,0.04296875,-0.333740234375,0.5083
0.8549618320610687,0.2595419847328244,-1.6030534351145038,-0.412841796875,0.052001953125,-0.327880859375,0.51
0.6259541984732825,0.22900763358778625,-1.5267175572519085,-0.4140625,0.045654296875,-0.328369140625,0.5116999999999999
0.8396946564885496,0.22900763358778625,-1.6641221374045803,-0.411865234375,0.04736328125,-0.33984375,0.5134
0.8702290076335878,0.2748091603053435,-1.5572519083969465,-0.411865234375,0.046630859375,-0.3388671875,0.5151
0.7938931297709924,0.21374045801526717,-1.3282442748091603,-0.4111328125,0.047119140625,-0.328125,0.5167999999999999
0.7633587786259542,0.2900763358778626,-1.4198473282442747,-0.411376953125,0.0537109375,-0.327880859375,0.5185
0.7786259541984732,0.07633587786259542,-1.4045801526717556,-0.41748046875,0.04248046875,-0.332763671875,0.5202
0.8854961832061069,0.0916030534351145,-1.4045801526717556,-0.412841796875,0.044189453125,-0.33447265625,0.5218999999999999
0.8854961832061069,0.3511450381679389,-1.5877862595419847,-0.416748046875,0.045166015625,-0.332275390625,0.5236
0.7633587786259542,0.32061068702290074,-1.4198473282442747,-0.41357421875,0.044189453125,-0.330810546875,0.5253
0.8396946564885496,0.3969465648854962,-1.6793893129770991,-0.41552734375,0.0478515625,-0.34326171875,0.527
0.7786259541984732,0.366412213740458,-1.5877862595419847,-0.416015625,0.049072265625,-0.336181640625,0.5287
0.6259541984732825,0.366412213740458,-1.3893129770992367,-0.42333984375,0.04248046875,-0.3388671875,0.5304
0.6870229007633588,0.6106870229007634,-1.8015267175572518,-0.413330078125,0.054931640625,-0.33154296875,0.5321
0.6870229007633588,0.4732824427480916,-1.633587786259542,-0.410400390625,0.050537109375,-0.33642578125,0.5337999999999999
0.6717557251908397,0.5038167938931297,-1.7404580152671756,-0.416015625,0.0517578125,-0.324951171875,0.5355
0.5954198473282443,0.4732824427480916,-1.618320610687023,-0.4140625,0.046630859375,-0.339599609375,0.5372
0.44274809160305345,0.8091603053435115,-1.6030534351145038,-0.413330078125,0.05126953125,-0.3369140625,0.5388999999999999
0.7786259541984732,0.6259541984732825,-1.6793893129770991,-0.41748046875,0.048828125,-0.33984375,0.5406
0.6412213740458015,0.5343511450381679,-1.9389312977099236,-0.416015625,0.0439453125,-0.3291015625,0.5423
0.6106870229007634,0.8244274809160306,-1.7251908396946565,-0.417724609375,0.046875,-0.329345703125,0.5439999999999999
0.7175572519083969,0.732824427480916,-1.8931297709923665,-0.4169921875,0.05419921875,-0.33154296875,0.5457
0.7022900763358778,0.732824427480916,-2.045801526717557,-0.415283203125,0.052734375,-0.34228515625,0.5474
0.7480916030534351,0.5954198473282443,-2.198473282442748,-0.4189453125,0.0498046875,-0.342529296875,0.5490999999999999
0.8396946564885496,0.6717557251908397,-2.122137404580153,-0.422119140625,0.0498046875,-0.34130859375,0.5508
0.6717557251908397,0.6564885496183206,-2.2442748091603053,-0.413818359375,0.049072265625,-0.340087890625,0.5525
0.9618320610687023,0.732824427480916,-2.3206106870229006,-0.41650390625,0.049072265625,-0.3359375,0.5541999999999999
1.0076335877862594,0.549618320610687,-2.7022900763358777,-0.411865234375,0.052978515625,-0.335205078125,0.5559
1.0229007633587786,0.7938931297709924,-2.6412213740458017,-0.411376953125,0.05126953125,-0.33642578125,0.5576
0.9312977099236641,0.6870229007633588,-2.564885496183206,-0.4140625,0.050048828125,-0.344970703125,0.5593
1.0381679389312977,0.4732824427480916,-2.687022900763359,-0.411865234375,0.052734375,-0.33642578125,0.5609999999999999
1.3893129770992367,0.6106870229007634,-2.732824427480916,-0.41162109375,0.045166015625,-0.33935546875,0.5627
1.1908396946564885,0.42748091603053434,-2.6106870229007635,-0.4150390625,0.047607421875,-0.34228515625,0.5644
1.2671755725190839,0.5038167938931297,-2.8244274809160306,-0.416259765625,0.0517578125,-0.34228515625,0.5660999999999999
1.4198473282442747,0.6412213740458015,-2.946564885496183,-0.414306640625,0.050048828125,-0.3359375,0.5678
1.4045801526717556,0.4732824427480916,-2.885496183206107,-0.417724609375,0.05126953125,-0.328125,0.5695
1.3587786259541985,0.1984732824427481,-2.7480916030534353,-0.415771484375,0.051513671875,-0.3359375,0.5711999999999999
1.4351145038167938,0.4580152671755725,-2.8396946564885495,-0.412109375,0.052490234375,-0.3349609375,0.5729
1.3740458015267176,0.48854961832061067,-2.687022900763359,-0.407958984375,0.046875,-0.34130859375,0.5746
1.6641221374045803,0.2900763358778626,-2.7480916030534353,-0.416748046875,0.04833984375,-0.33837890625,0.5762999999999999
1.5419847328244274,0.366412213740458,-2.687022900763359,-0.409423828125,0.0439453125,-0.3330078125,0.578
1.2213740458015268,0.4732824427480916,-2.6259541984732824,-0.414306640625,0.04248046875,-0.33251953125,0.5797
1.4045801526717556,0.1984732824427481,-2.564885496183206,-0.414794921875,0.04150390625,-0.336181640625,0.5813999999999999
1.5267175572519085,0.21374045801526717,-2.519083969465649,-0.414794921875,0.04345703125,-0.33544921875,0.5831
1.4198473282442747,0.32061068702290074,-2.4885496183206106,-0.413330078125,0.0458984375,-0.3359375,0.5848
1.297709923664122,0.21374045801526717,-2.4122137404580153,-0.41552734375,0.04296875,-0.341796875,0.5865
1.3740458015267176,0.3053435114503817,-2.3053435114503817,-0.411865234375,0.047119140625,-0.33251953125,0.5882
1.3740458015267176,0.22900763358778625,-2.3053435114503817,-0.41162109375,0.03857421875,-0.329833984375,0.5899
1.282442748091603,0.061068702290076333,-2.381679389312977,-0.413818359375,0.046875,-0.3388671875,0.5916
1.0229007633587786,0.13740458015267176,-2.213740458015267,-0.41552734375,0.039794921875,-0.326416015625,0.5932999999999999
1.3129770992366412,0.13740458015267176,-2.0,-0.412841796875,0.040771484375,-0.33056640625,0.595
1.1603053435114503,0.22900763358778625,-2.1526717557251906,-0.4140625,0.037109375,-0.335205078125,0.5967
1.0076335877862594,0.2595419847328244,-2.3206106870229006,-0.41845703125,0.045654296875,-0.331787109375,0.5983999999999999
1.2671755725190839,0.061068702290076333,-2.0916030534351147,-0.412353515625,0.048583984375,-0.33740234375,0.6001
1.3282442748091603,0.04580152671755725,-1.9541984732824427,-0.414794921875,0.044677734375,-0.331787109375,0.6018
1.1755725190839694,0.07633587786259542,-2.0763358778625953,-0.41650390625,0.04296875,-0.3310546875,0.6034999999999999
0.9770992366412213,0.24427480916030533,-1.9236641221374047,-0.4130859375,0.046142578125,-0.3359375,0.6052
0.916030534351145,0.32061068702290074,-1.8625954198473282,-0.414306640625,0.0419921875,-0.33642578125,0.6069
1.2213740458015268,0.24427480916030533,-2.0610687022900764,-0.41748046875,0.040283203125,-0.3369140625,0.6085999999999999
1.083969465648855,0.1984732824427481,-1.984732824427481,-0.4130859375,0.043212890625,-0.33447265625,0.6103
1.1908396946564885,0.07633587786259542,-1.9541984732824427,-0.417724609375,0.043212890625,-0.323974609375,0.612
0.7938931297709924,0.16793893129770993,-2.015267175572519,-0.413330078125,0.046142578125,-0.3369140625,0.6136999999999999
0.6870229007633588,0.3511450381679389,-1.8015267175572518,-0.41552734375,0.044677734375,-0.33203125,0.6154
0.9923664122137404,0.21374045801526717,-1.6946564885496183,-0.413330078125,0.040771484375,-0.332763671875,0.6171
0.8549618320610687,0.366412213740458,-1.7404580152671756,-0.414306640625,0.03955078125,-0.3310546875,0.6188
0.6259541984732825,0.21374045801526717,-1.8625954198473282,-0.412841796875,0.041748046875,-0.332275390625,0.6204999999999999
0.6564885496183206,0.24427480916030533,-1.9389312977099236,-0.412353515625,0.04443359375,-0.326416015625,0.6222
1.0381679389312977,0.2595419847328244,-2.030534351145038,-0.4091796875,0.04443359375,-0.3369140625,0.6239
1.0229007633587786,0.2748091603053435,-1.9541984732824427,-0.41455078125,0.043212890625,-0.3349609375,0.6255999999999999
0.9618320610687023,0.33587786259541985,-2.045801526717557,-0.42041015625,0.04443359375,-0.3349609375,0.6273
0.6717557251908397,0.3053435114503817,-1.7557251908396947,-0.41162109375,0.050537109375,-0.337158203125,0.629
0.7938931297709924,0.44274809160305345,-1.7099236641221374,-0.415771484375,0.044189453125,-0.327392578125,0.6306999999999999
0.8549618320610687,0.13740458015267176,-1.8778625954198473,-0.415283203125,0.049560546875,-0.33349609375,0.6324
0.8091603053435115,0.3816793893129771,-1.8931297709923665,-0.41650390625,0.0478515625,-0.332763671875,0.6341
0.9618320610687023,0.5954198473282443,-1.8931297709923665,-0.414306640625,0.0419921875,-0.3291015625,0.6357999999999999
1.1145038167938932,0.33587786259541985,-1.9236641221374047,-0.4169921875,0.04541015625,-0.3310546875,0.6375
0.8396946564885496,0.42748091603053434,-1.9083969465648856,-0.411865234375,0.04736328125,-0.331298828125,0.6392
0.8396946564885496,0.2748091603053435,-1.984732824427481,-0.41259765625,0.045166015625,-0.327392578125,0.6408999999999999
1.0381679389312977,0.2595419847328244,-1.9083969465648856,-0.41162109375,0.049072265625,-0.34033203125,0.6426
1.0381679389312977,0.0916030534351145,-1.8473282442748091,-0.415771484375,0.048828125,-0.334228515625,0.6443
1.2366412213740459,0.13740458015267176,-1.9083969465648856,-0.416015625,0.047119140625,-0.33203125,0.646
1.2213740458015268,0.366412213740458,-1.9236641221374047,-0.4130859375,0.048583984375,-0.332763671875,0.6476999999999999
1.1297709923664123,0.42748091603053434,-2.045801526717557,-0.407958984375,0.047119140625,-0.34130859375,0.6494
1.0076335877862594,0.48854961832061067,-2.1526717557251906,-0.409912109375,0.049560546875,-0.334228515625,0.6511
1.0534351145038168,0.2748091603053435,-2.122137404580153,-0.415771484375,0.043701171875,-0.331298828125,0.6527999999999999
1.099236641221374,0.3816793893129771,-2.0,-0.41064453125,0.046630859375,-0.336181640625,0.6545
1.099236641221374,0.2748091603053435,-2.33587786259542,-0.415771484375,0.040771484375,-0.330078125,0.6562
1.2213740458015268,0.366412213740458,-2.1526717557251906,-0.417724609375,0.045654296875,-0.330322265625,0.6578999999999999
1.099236641221374,0.3053435114503817,-2.2442748091603053,-0.416748046875,0.041259765625,-0.336181640625,0.6596
0.8854961832061069,0.22900763358778625,-2.2748091603053435,-0.415771484375,0.043212890625,-0.333984375,0.6613
1.251908396946565,0.030534351145038167,-2.0763358778625953,-0.414794921875,0.0419921875,-0.332763671875,0.6629999999999999
0.9770992366412213,-0.0916030534351145,-2.122137404580153,-0.410888671875,0.042236328125,-0.342529296875,0.6647
0.8549618320610687,0.1984732824427481,-2.198473282442748,-0.411865234375,0.04296875,-0.3408203125,0.6664
1.099236641221374,0.21374045801526717,-2.122137404580153,-0.409912109375,0.047607421875,-0.33935546875,0.6680999999999999
1.1145038167938932,0.13740458015267176,-2.1526717557251906,-0.41259765625,0.042236328125,-0.34130859375,0.6698
0.8854961832061069,0.13740458015267176,-2.122137404580153,-0.41650390625,0.043212890625,-0.34033203125,0.6715
0.6870229007633588,-0.061068702290076333,-2.2442748091603053,-0.411376953125,0.0439453125,-0.332275390625,0.6731999999999999
0.7938931297709924,-0.183206106870229,-2.16793893129771,-0.41015625,0.04443359375,-0.33056640625,0.6748999999999999
0.8549618320610687,-0.04580152671755725,-2.33587786259542,-0.413818359375,0.046875,-0.33056640625,0.6766
0.8091603053435115,-0.061068702290076333,-2.1526717557251906,-0.41748046875,0.04150390625,-0.33544921875,0.6783
0.9465648854961832,-0.183206106870229,-2.1374045801526718,-0.419189453125,0.038818359375,-0.33447265625,0.6799999999999999
0.6106870229007634,-0.1984732824427481,-1.9083969465648856,-0.41796875,0.042236328125,-0.339599609375,0.6817
0.7022900763358778,-0.1984732824427481,-2.3053435114503817,-0.41162109375,0.040771484375,-0.329345703125,0.6834
0.7786259541984732,-0.2900763358778626,-2.015267175572519,-0.41748046875,0.04345703125,-0.327880859375,0.6850999999999999
0.7480916030534351,-0.549618320610687,-2.0916030534351147,-0.417236328125,0.047119140625,-0.330810546875,0.6868
0.6870229007633588,-0.4122137404580153,-1.9083969465648856,-0.41650390625,0.0439453125,-0.33447265625,0.6885
0.8396946564885496,-0.48854961832061067,-2.0,-0.418212890625,0.043212890625,-0.33837890625,0.6901999999999999
0.7633587786259542,-0.44274809160305345,-1.9541984732824427,-0.413818359375,0.04296875,-0.3291015625,0.6919
0.6564885496183206,-0.6717557251908397,-2.045801526717557,-0.416015625,0.041015625,-0.334228515625,0.6936
0.5954198473282443,-0.6412213740458015,-1.83206106870229,-0.412109375,0.04345703125,-0.327880859375,0.6952999999999999
0.6412213740458015,-0.5648854961832062,-1.984732824427481,-0.418212890625,0.048095703125,-0.332763671875,0.697
0.6412213740458015,-0.4580152671755725,-1.9083969465648856,-0.41552734375,0.0380859375,-0.333740234375,0.6987
0.549618320610687,-0.5343511450381679,-2.1374045801526718,-0.41455078125,0.041259765625,-0.32763671875,0.7003999999999999
0.5954198473282443,-0.6106870229007634,-1.816793893129771,-0.41943359375,0.0390625,-0.333740234375,0.7021
0.6259541984732825,-0.549618320610687,-1.8931297709923665,-0.415771484375,0.0419921875,-0.33154296875,0.7038
0.48854961832061067,-0.8091603053435115,-1.8015267175572518,-0.417236328125,0.04345703125,-0.333740234375,0.7055
0.5648854961832062,-0.3969465648854962,-1.9083969465648856,-0.414794921875,0.046875,-0.330810546875,0.7071999999999999
0.33587786259541985,-0.549618320610687,-1.9083969465648856,-0.416259765625,0.04248046875,-0.3349609375,0.7089
0.3969465648854962,-0.5801526717557252,-1.633587786259542,-0.413330078125,0.0419921875,-0.330810546875,0.7106
0.33587786259541985,-0.549618320610687,-1.8778625954198473,-0.41796875,0.04052734375,-0.328369140625,0.7122999999999999
0.4122137404580153,-0.7175572519083969,-1.7404580152671756,-0.415771484375,0.042724609375,-0.32666015625,0.714
0.6259541984732825,-0.3816793893129771,-1.8931297709923665,-0.421875,0.036865234375,-0.32421875,0.7157
0.4122137404580153,-0.3969465648854962,-1.9541984732824427,-0.419677734375,0.039794921875,-0.32958984375,0.7173999999999999
0.13740458015267176,-0.33587786259541985,-1.7251908396946565,-0.41455078125,0.04296875,-0.3330078125,0.7191
0.42748091603053434,-0.366412213740458,-1.8015267175572518,-0.41748046875,0.048095703125,-0.322021484375,0.7208
0.366412213740458,-0.32061068702290074,-1.6641221374045803,-0.42138671875,0.037353515625,-0.33154296875,0.7224999999999999
0.2900763358778626,-0.2595419847328244,-1.633587786259542,-0.4208984375,0.035888671875,-0.333251953125,0.7242
0.48854961832061067,-0.22900763358778625,-1.8778625954198473,-0.42041015625,0.04248046875,-0.32373046875,0.7259
0.3969465648854962,-0.24427480916030533,-1.7404580152671756,-0.422607421875,0.044921875,-0.332763671875,0.7275999999999999
0.10687022900763359,-0.07633587786259542,-1.9083969465648856,-0.4189453125,0.046142578125,-0.330078125,0.7293
0.16793893129770993,0.030534351145038167,-1.786259541984733,-0.42236328125,0.044677734375,-0.334716796875,0.731
0.22900763358778625,0.0916030534351145,-1.8778625954198473,-0.42333984375,0.03955078125,-0.33251953125,0.7326999999999999
0.366412213740458,-0.030534351145038167,-1.83206106870229,-0.419189453125,0.04248046875,-0.33251953125,0.7343999999999999
0.2900763358778626,0.16793893129770993,-1.8015267175572518,-0.420166015625,0.044189453125,-0.329345703125,0.7361
0.0,0.3053435114503817,-1.8473282442748091,-0.421875,0.044189453125,-0.32666015625,0.7378
-0.04580152671755725,0.48854961832061067,-1.8015267175572518,-0.421142578125,0.040283203125,-0.33349609375,0.7394999999999999
0.07633587786259542,0.44274809160305345,-1.8015267175572518,-0.423095703125,0.039306640625,-0.330078125,0.7412
0.07633587786259542,0.2900763358778626,-2.030534351145038,-0.41943359375,0.046142578125,-0.33154296875,0.7429
0.13740458015267176,0.4732824427480916,-2.16793893129771,-0.419189453125,0.045654296875,-0.325439453125,0.7445999999999999
0.21374045801526717,0.5954198473282443,-1.816793893129771,-0.425048828125,0.04345703125,-0.327880859375,0.7463
-0.015267175572519083,0.5038167938931297,-1.984732824427481,-0.422119140625,0.037353515625,-0.33251953125,0.748
0.12213740458015267,0.5801526717557252,-2.0916030534351147,-0.423828125,0.04248046875,-0.3310546875,0.7496999999999999
0.0916030534351145,0.6717557251908397,-1.9236641221374047,-0.41796875,0.044677734375,-0.328369140625,0.7514
-0.10687022900763359,0.8091603053435115,-1.9541984732824427,-0.416748046875,0.04248046875,-0.3271484375,0.7531
-0.2900763358778626,0.7938931297709924,-1.9236641221374047,-0.41943359375,0.042724609375,-0.3369140625,0.7547999999999999
-0.2900763358778626,0.5954198473282443,-1.9236641221374047,-0.41748046875,0.04052734375,-0.33251953125,0.7565
-0.2595419847328244,0.5343511450381679,-1.984732824427481,-0.421142578125,0.04150390625,-0.3330078125,0.7582
-0.2748091603053435,0.5954198473282443,-1.984732824427481,-0.4140625,0.041015625,-0.33544921875,0.7598999999999999
-0.366412213740458,0.7633587786259542,-1.9541984732824427,-0.41943359375,0.0400390625,-0.34375,0.7615999999999999
-0.6106870229007634,0.6717557251908397,-1.7557251908396947,-0.428955078125,0.04443359375,-0.3408203125,0.7633
-0.6717557251908397,0.732824427480916,-1.83206106870229,-0.418212890625,0.04296875,-0.333740234375,0.7649999999999999
-0.5801526717557252,0.7786259541984732,-2.213740458015267,-0.422119140625,0.0419921875,-0.3359375,0.7666999999999999
-0.7022900763358778,0.8244274809160306,-1.9694656488549618,-0.413818359375,0.038818359375,-0.329833984375,0.7684
-0.9465648854961832,0.8244274809160306,-2.0,-0.417724609375,0.042236328125,-0.332275390625,0.7701
-0.8854961832061069,0.8702290076335878,-1.8931297709923665,-0.420166015625,0.041015625,-0.344970703125,0.7717999999999999
-1.0229007633587786,0.8702290076335878,-2.0,-0.418701171875,0.04345703125,-0.336181640625,0.7735
-0.8854961832061069,0.8854961832061069,-1.9236641221374047,-0.4169921875,0.044677734375,-0.33203125,0.7752
-1.1755725190839694,0.8702290076335878,-2.1374045801526718,-0.417236328125,0.042724609375,-0.3310546875,0.7768999999999999
-1.099236641221374,0.8702290076335878,-1.9389312977099236,-0.421142578125,0.040771484375,-0.3291015625,0.7786
-1.1297709923664123,0.9007633587786259,-2.1526717557251906,-0.4189453125,0.039794921875,-0.33056640625,0.7803
-1.3129770992366412,1.0687022900763359,-2.0763358778625953,-0.420654296875,0.041748046875,-0.334716796875,0.7819999999999999
-1.083969465648855,0.916030534351145,-2.1068702290076335,-0.4130859375,0.045166015625,-0.336669921875,0.7837
-1.297709923664122,0.8854961832061069,-2.1068702290076335,-0.417236328125,0.0439453125,-0.336181640625,0.7854
-1.2213740458015268,0.8549618320610687,-2.183206106870229,-0.42041015625,0.05029296875,-0.328857421875,0.7870999999999999
-1.4198473282442747,0.9618320610687023,-2.33587786259542,-0.42333984375,0.046875,-0.325439453125,0.7888
-1.3587786259541985,0.9923664122137404,-2.2900763358778624,-0.4208984375,0.044677734375,-0.326416015625,0.7905
-1.2213740458015268,1.1145038167938932,-2.2290076335877864,-0.42529296875,0.048583984375,-0.32763671875,0.7921999999999999
-1.4809160305343512,0.9770992366412213,-2.351145038167939,-0.415283203125,0.044189453125,-0.329833984375,0.7938999999999999
-1.297709923664122,1.2671755725190839,-2.2900763358778624,-0.4208984375,0.047119140625,-0.337158203125,0.7956
-1.251908396946565,1.4198473282442747,-2.3969465648854964,-0.425537109375,0.04345703125,-0.33154296875,0.7973
-1.2213740458015268,1.297709923664122,-2.351145038167939,-0.42333984375,0.04296875,-0.32958984375,0.7989999999999999
-1.4351145038167938,1.4198473282442747,-2.4732824427480917,-0.423583984375,0.047607421875,-0.3349609375,0.8007
-1.3282442748091603,1.5267175572519085,-2.5343511450381677,-0.420166015625,0.04638671875,-0.323486328125,0.8024
-1.3587786259541985,1.633587786259542,-2.4122137404580153,-0.422119140625,0.048095703125,-0.33544921875,0.8040999999999999
-1.2366412213740459,1.6030534351145038,-2.4580152671755724,-0.422607421875,0.04736328125,-0.33544921875,0.8058
-1.1755725190839694,1.6030534351145038,-2.6564885496183206,-0.417724609375,0.045654296875,-0.331298828125,0.8075
-1.282442748091603,1.7251908396946565,-2.549618320610687,-0.42138671875,0.045654296875,-0.327392578125,0.8091999999999999
-1.297709923664122,1.8778625954198473,-2.595419847328244,-0.419189453125,0.045654296875,-0.3330078125,0.8109
-1.2366412213740459,2.0763358778625953,-2.595419847328244,-0.416748046875,0.044189453125,-0.329833984375,0.8126
-1.2671755725190839,1.9083969465648856,-2.900763358778626,-0.4169921875,0.045654296875,-0.333251953125,0.8142999999999999
-1.083969465648855,1.9389312977099236,-2.6412213740458017,-0.417236328125,0.04931640625,-0.33447265625,0.816
-1.2213740458015268,1.9694656488549618,-2.854961832061069,-0.42333984375,0.04833984375,-0.32470703125,0.8177
-1.3129770992366412,1.9541984732824427,-2.9160305343511452,-0.41845703125,0.050048828125,-0.32958984375,0.8193999999999999
-1.0381679389312977,1.9541984732824427,-2.6259541984732824,-0.422607421875,0.051513671875,-0.326171875,0.8210999999999999
-1.0229007633587786,2.1374045801526718,-2.6106870229007635,-0.41748046875,0.04150390625,-0.33642578125,0.8228
-1.1603053435114503,2.3206106870229006,-2.931297709923664,-0.41796875,0.04150390625,-0.331787109375,0.8244999999999999
-1.2671755725190839,2.33587786259542,-2.763358778625954,-0.421630859375,0.04541015625,-0.33349609375,0.8261999999999999
-1.2213740458015268,2.1374045801526718,-2.717557251908397,-0.417236328125,0.044677734375,-0.3310546875,0.8279
-1.3435114503816794,2.1374045801526718,-2.687022900763359,-0.41943359375,0.04931640625,-0.33935546875,0.8296
-1.297709923664122,2.3206106870229006,-2.8244274809160306,-0.419189453125,0.045654296875,-0.336669921875,0.8312999999999999
-1.5267175572519085,2.198473282442748,-2.8244274809160306,-0.4140625,0.040283203125,-0.334716796875,0.833
-1.4351145038167938,2.33587786259542,-2.8244274809160306,-0.411376953125,0.048583984375,-0.3369140625,0.8347
-1.1755725190839694,2.2595419847328246,-2.763358778625954,-0.417236328125,0.051513671875,-0.338134765625,0.8363999999999999
-1.3587786259541985,2.0916030534351147,-2.854961832061069,-0.41650390625,0.0439453125,-0.3310546875,0.8381
-1.6030534351145038,2.213740458015267,-2.9923664122137406,-0.411865234375,0.0439453125,-0.327392578125,0.8398
-1.450381679389313,2.2900763358778624,-2.946564885496183,-0.417236328125,0.04296875,-0.33447265625,0.8414999999999999
-1.4961832061068703,2.1068702290076335,-2.854961832061069,-0.414306640625,0.04736328125,-0.3349609375,0.8432
-1.8625954198473282,2.1068702290076335,-2.9923664122137406,-0.419921875,0.04833984375,-0.329833984375,0.8449
-1.816793893129771,2.0610687022900764,-2.8396946564885495,-0.418701171875,0.047119140625,-0.3349609375,0.8465999999999999
-1.8015267175572518,2.1374045801526718,-2.9923664122137406,-0.4169921875,0.046630859375,-0.3291015625,0.8482999999999999
-1.9389312977099236,2.122137404580153,-2.8396946564885495,-0.413818359375,0.04443359375,-0.328125,0.85
-1.7404580152671756,2.0763358778625953,-2.9618320610687023,-0.41796875,0.0439453125,-0.3349609375,0.8516999999999999
-1.5572519083969465,2.1526717557251906,-2.8091603053435112,-0.41455078125,0.0400390625,-0.326416015625,0.8533999999999999
-1.7251908396946565,2.1068702290076335,-3.0381679389312977,-0.416748046875,0.045654296875,-0.3310546875,0.8551
-1.8931297709923665,2.0610687022900764,-3.2519083969465647,-0.419189453125,0.044189453125,-0.33251953125,0.8568
-1.9083969465648856,2.1068702290076335,-3.0076335877862594,-0.415283203125,0.043701171875,-0.32958984375,0.8584999999999999
-1.9541984732824427,2.0916030534351147,-3.114503816793893,-0.417236328125,0.043212890625,-0.326904296875,0.8602
-1.6641221374045803,2.2442748091603053,-3.1603053435114505,-0.412353515625,0.048583984375,-0.335693359375,0.8619
-1.8931297709923665,2.381679389312977,-3.312977099236641,-0.41259765625,0.04638671875,-0.330810546875,0.8635999999999999
-1.83206106870229,2.015267175572519,-3.236641221374046,-0.41748046875,0.049072265625,-0.329833984375,0.8653
-1.6641221374045803,2.2290076335877864,-3.1603053435114505,-0.4140625,0.046630859375,-0.3369140625,0.867
-1.8473282442748091,2.2442748091603053,-3.2061068702290076,-0.412109375,0.048095703125,-0.326904296875,0.8686999999999999
-1.8015267175572518,2.33587786259542,-3.2213740458015265,-0.4130859375,0.048828125,-0.329345703125,0.8704
-1.984732824427481,2.198473282442748,-3.1755725190839694,-0.413330078125,0.048828125,-0.32177734375,0.8721
-1.786259541984733,2.2290076335877864,-3.267175572519084,-0.41552734375,0.056396484375,-0.333740234375,0.8737999999999999
-1.8473282442748091,2.2748091603053435,-3.2213740458015265,-0.415771484375,0.05078125,-0.329345703125,0.8755
-1.816793893129771,2.2442748091603053,-3.267175572519084,-0.41357421875,0.044189453125,-0.333740234375,0.8772
-1.6641221374045803,2.33587786259542,-3.0839694656488548,-0.417236328125,0.0458984375,-0.336669921875,0.8788999999999999
-1.7099236641221374,2.3206106870229006,-3.267175572519084,-0.414306640625,0.0439453125,-0.329345703125,0.8805999999999999
-1.7251908396946565,2.351145038167939,-3.1603053435114505,-0.41552734375,0.046630859375,-0.334228515625,0.8823
-1.7251908396946565,2.381679389312977,-3.1603053435114505,-0.414306640625,0.050048828125,-0.33740234375,0.8839999999999999
-1.7709923664122138,2.381679389312977,-3.2061068702290076,-0.410888671875,0.04833984375,-0.33642578125,0.8856999999999999
-1.5114503816793894,2.3053435114503817,-3.1908396946564888,-0.415771484375,0.044677734375,-0.3310546875,0.8874
-1.5572519083969465,2.351145038167939,-3.1755725190839694,-0.413330078125,0.046875,-0.32763671875,0.8891
-1.618320610687023,2.6106870229007635,-3.3435114503816794,-0.41259765625,0.04638671875,-0.326904296875,0.8907999999999999
-1.6030534351145038,2.4580152671755724,-3.1603053435114505,-0.409912109375,0.04833984375,-0.32275390625,0.8925
-1.633587786259542,2.519083969465649,-3.2519083969465647,-0.41796875,0.045166015625,-0.33154296875,0.8942
-1.6793893129770991,2.427480916030534,-3.282442748091603,-0.4150390625,0.044189453125,-0.33349609375,0.8958999999999999
-1.4045801526717556,2.595419847328244,-3.404580152671756,-0.41064453125,0.049072265625,-0.33251953125,0.8976
-1.3282442748091603,2.5801526717557253,-3.236641221374046,-0.41748046875,0.0537109375,-0.334228515625,0.8993
-1.6030534351145038,2.6106870229007635,-3.435114503816794,-0.411376953125,0.050537109375,-0.335205078125,0.9009999999999999
-1.5877862595419847,2.4580152671755724,-3.3282442748091605,-0.414794921875,0.045166015625,-0.3310546875,0.9027
-1.5267175572519085,2.6259541984732824,-3.312977099236641,-0.416748046875,0.03955078125,-0.3388671875,0.9044
-1.4045801526717556,2.7786259541984735,-3.2977099236641223,-0.415283203125,0.048583984375,-0.329833984375,0.9060999999999999
-1.3893129770992367,2.732824427480916,-3.312977099236641,-0.413330078125,0.04296875,-0.33837890625,0.9077999999999999
-1.465648854961832,2.4580152671755724,-3.282442748091603,-0.417724609375,0.047119140625,-0.33251953125,0.9095
-1.5725190839694656,2.717557251908397,-3.633587786259542,-0.41748046875,0.04541015625,-0.3310546875,0.9111999999999999
-1.5419847328244274,2.8244274809160306,-3.3282442748091605,-0.417724609375,0.046875,-0.326904296875,0.9128999999999999
-1.5419847328244274,2.6564885496183206,-3.4656488549618323,-0.416015625,0.04736328125,-0.32763671875,0.9146
-1.5877862595419847,2.717557251908397,-3.2519083969465647,-0.4140625,0.047119140625,-0.3291015625,0.9163
-1.5267175572519085,2.7786259541984735,-3.404580152671756,-0.410888671875,0.0439453125,-0.336669921875,0.9179999999999999
-1.450381679389313,2.5343511450381677,-3.282442748091603,-0.412841796875,0.04345703125,-0.337646484375,0.9197
-1.5114503816793894,2.5801526717557253,-3.3740458015267176,-0.412353515625,0.045166015625,-0.330078125,0.9214
-1.5267175572519085,2.5801526717557253,-3.2519083969465647,-0.41552734375,0.04345703125,-0.334716796875,0.9230999999999999
-1.465648854961832,2.8091603053435112,-3.3893129770992365,-0.417236328125,0.044189453125,-0.32861328125,0.9248
-1.3893129770992367,2.7022900763358777,-3.312977099236641,-0.411865234375,0.05126953125,-0.333251953125,0.9265
-1.251908396946565,2.4427480916030535,-3.282442748091603,-0.412353515625,0.049072265625,-0.334228515625,0.9281999999999999
-1.1908396946564885,2.5801526717557253,-3.3740458015267176,-0.412841796875,0.042724609375,-0.3369140625,0.9299
-1.4351145038167938,2.4732824427480917,-3.5267175572519083,-0.417236328125,0.046875,-0.33837890625,0.9316
-1.3740458015267176,2.1068702290076335,-3.282442748091603,-0.4130859375,0.044921875,-0.339599609375,0.9332999999999999
-1.4045801526717556,2.2595419847328246,-3.3740458015267176,-0.412109375,0.043701171875,-0.3369140625,0.9349999999999999
-1.2213740458015268,2.6106870229007635,-3.236641221374046,-0.414794921875,0.05078125,-0.335205078125,0.9367
-1.3587786259541985,2.3206106870229006,-3.1755725190839694,-0.414306640625,0.048583984375,-0.329833984375,0.9383999999999999
-1.3435114503816794,2.2290076335877864,-3.2213740458015265,-0.415771484375,0.045654296875,-0.341796875,0.9400999999999999
-1.4351145038167938,2.3053435114503817,-3.3740458015267176,-0.414306640625,0.051025390625,-0.330078125,0.9418
-1.0076335877862594,2.213740458015267,-3.114503816793893,-0.41162109375,0.0419921875,-0.331787109375,0.9434999999999999
-1.2671755725190839,2.015267175572519,-3.099236641221374,-0.41552734375,0.044677734375,-0.33642578125,0.9451999999999999
-1.3282442748091603,2.122137404580153,-3.053435114503817,-0.41455078125,0.05078125,-0.334716796875,0.9469
-1.1755725190839694,2.1526717557251906,-3.068702290076336,-0.4091796875,0.050048828125,-0.336669921875,0.9486
-1.1450381679389312,2.030534351145038,-2.9770992366412212,-0.411376953125,0.04248046875,-0.33154296875,0.9502999999999999
-1.1908396946564885,1.83206106870229,-2.9923664122137406,-0.4189453125,0.046630859375,-0.332275390625,0.952
-1.1755725190839694,1.8015267175572518,-2.885496183206107,-0.411865234375,0.041259765625,-0.33203125,0.9537
-0.9770992366412213,1.786259541984733,-2.931297709923664,-0.413330078125,0.0439453125,-0.33251953125,0.9553999999999999
-0.9465648854961832,1.816793893129771,-2.900763358778626,-0.413330078125,0.044189453125,-0.33544921875,0.9571
-0.8244274809160306,1.8015267175572518,-2.9770992366412212,-0.408935546875,0.045654296875,-0.33740234375,0.9588
-0.8702290076335878,1.633587786259542,-2.7022900763358777,-0.416015625,0.0478515625,-0.328369140625,0.9604999999999999
-0.7938931297709924,1.5877862595419847,-2.687022900763359,-0.4150390625,0.050048828125,-0.333984375,0.9621999999999999
-0.5954198473282443,1.5267175572519085,-2.763358778625954,-0.41162109375,0.050048828125,-0.337890625,0.9639
-0.916030534351145,1.4809160305343512,-2.732824427480916,-0.411865234375,0.05322265625,-0.332763671875,0.9655999999999999
-0.8549618320610687,1.282442748091603,-2.519083969465649,-0.41064453125,0.050537109375,-0.332763671875,0.9672999999999999
-0.732824427480916,1.251908396946565,-2.4885496183206106,-0.409912109375,0.050537109375,-0.333251953125,0.969
-0.7022900763358778,1.2213740458015268,-2.7786259541984735,-0.4130859375,0.049072265625,-0.33642578125,0.9706999999999999
-0.5190839694656488,1.2213740458015268,-2.519083969465649,-0.411865234375,0.0498046875,-0.32080078125,0.9723999999999999
-0.5801526717557252,1.297709923664122,-2.50381679389313,-0.414794921875,0.050048828125,-0.333740234375,0.9741
-0.2748091603053435,1.3435114503816794,-2.6106870229007635,-0.411865234375,0.05078125,-0.329345703125,0.9758
-0.13740458015267176,1.1145038167938932,-2.3969465648854964,-0.41162109375,0.04736328125,-0.333740234375,0.9774999999999999
-0.3053435114503817,1.0687022900763359,-2.2442748091603053,-0.41552734375,0.051513671875,-0.3369140625,0.9792
-0.1984732824427481,0.9007633587786259,-2.33587786259542,-0.4169921875,0.054443359375,-0.34033203125,0.9809
-0.07633587786259542,1.083969465648855,-2.2748091603053435,-0.416015625,0.047607421875,-0.330322265625,0.9825999999999999
0.15267175572519084,0.9312977099236641,-2.3969465648854964,-0.412109375,0.052490234375,-0.3359375,0.9843
0.1984732824427481,0.7022900763358778,-2.2748091603053435,-0.4189453125,0.0517578125,-0.32958984375,0.986
0.24427480916030533,0.8549618320610687,-2.3969465648854964,-0.41552734375,0.052001953125,-0.336669921875,0.9876999999999999
0.3053435114503817,0.916030534351145,-2.183206106870229,-0.41845703125,0.045654296875,-0.337890625,0.9894
0.3053435114503817,0.6870229007633588,-2.183206106870229,-0.412841796875,0.04541015625,-0.326904296875,0.9911
0.7175572519083969,0.916030534351145,-1.984732824427481,-0.416015625,0.04833984375,-0.3291015625,0.9927999999999999
0.6870229007633588,0.7175572519083969,-2.1526717557251906,-0.41650390625,0.05224609375,-0.332275390625,0.9944999999999999
0.7786259541984732,0.7022900763358778,-1.9541984732824427,-0.414306640625,0.048583984375,-0.33203125,0.9962
1.0534351145038168,0.9770992366412213,-2.0610687022900764,-0.414306640625,0.052978515625,-0.33056640625,0.9978999999999999
0.9618320610687023,0.6564885496183206,-1.9541984732824427,-0.420166015625,0.047607421875,-0.330078125,0.9995999999999999
0.9465648854961832,0.8702290076335878,-1.9083969465648856,-0.417724609375,0.052734375,-0.333740234375,1.0012999999999999
0.9618320610687023,0.7633587786259542,-1.7251908396946565,-0.42041015625,0.043212890625,-0.3310546875,1.003
1.099236641221374,0.8091603053435115,-1.7709923664122138,-0.419677734375,0.045166015625,-0.3310546875,1.0047
1.2671755725190839,0.9618320610687023,-1.6641221374045803,-0.41845703125,0.046630859375,-0.326904296875,1.0064
1.1908396946564885,1.0229007633587786,-1.618320610687023,-0.417236328125,0.0439453125,-0.33837890625,1.0081
1.0076335877862594,0.8091603053435115,-1.5267175572519085,-0.416259765625,0.043701171875,-0.3359375,1.0098
1.450381679389313,1.0534351145038168,-1.5725190839694656,-0.4169921875,0.05078125,-0.3359375,1.0114999999999998
1.450381679389313,0.9770992366412213,-1.4809160305343512,-0.421142578125,0.048828125,-0.326904296875,1.0131999999999999
1.3282442748091603,1.0229007633587786,-1.5572519083969465,-0.417236328125,0.04931640625,-0.33251953125,1.0149
1.465648854961832,1.0076335877862594,-1.3129770992366412,-0.416259765625,0.048828125,-0.334716796875,1.0166
1.5877862595419847,0.9465648854961832,-1.4809160305343512,-0.41845703125,0.04541015625,-0.324462890625,1.0183
1.786259541984733,0.9007633587786259,-1.1755725190839694,-0.4169921875,0.040283203125,-0.32861328125,1.02
1.7557251908396947,1.1450381679389312,-1.251908396946565,-0.414794921875,0.0439453125,-0.33251953125,1.0217
1.7099236641221374,1.251908396946565,-1.1297709923664123,-0.419189453125,0.04638671875,-0.3310546875,1.0233999999999999
1.8473282442748091,1.3129770992366412,-1.297709923664122,-0.416748046875,0.0439453125,-0.32958984375,1.0251
1.786259541984733,1.1450381679389312,-1.1603053435114503,-0.421630859375,0.050537109375,-0.328125,1.0268
2.0610687022900764,1.251908396946565,-1.1908396946564885,-0.41748046875,0.05078125,-0.335205078125,1.0285
1.9541984732824427,1.3587786259541985,-0.9770992366412213,-0.416015625,0.048583984375,-0.3271484375,1.0302
1.8625954198473282,1.3435114503816794,-1.1908396946564885,-0.420654296875,0.048095703125,-0.332275390625,1.0319
2.015267175572519,1.4045801526717556,-1.0076335877862594,-0.41943359375,0.05029296875,-0.337646484375,1.0335999999999999
2.16793893129771,1.297709923664122,-1.251908396946565,-0.415283203125,0.0478515625,-0.3359375,1.0352999999999999
2.0916030534351147,1.3893129770992367,-1.1450381679389312,-0.4189453125,0.048583984375,-0.3349609375,1.037
1.9389312977099236,1.282442748091603,-1.251908396946565,-0.414794921875,0.045654296875,-0.34326171875,1.0387
2.16793893129771,1.4961832061068703,-0.9618320610687023,-0.419189453125,0.044921875,-0.337890625,1.0404
2.2595419847328246,1.3129770992366412,-1.297709923664122,-0.413818359375,0.05029296875,-0.330322265625,1.0421
2.33587786259542,0.9770992366412213,-1.1145038167938932,-0.417724609375,0.04541015625,-0.339111328125,1.0437999999999998
2.6259541984732824,1.2213740458015268,-1.0076335877862594,-0.4140625,0.05224609375,-0.338134765625,1.0454999999999999
2.50381679389313,1.297709923664122,-1.1145038167938932,-0.419677734375,0.051025390625,-0.327392578125,1.0472
2.595419847328244,1.1755725190839694,-1.0687022900763359,-0.412109375,0.046142578125,-0.33154296875,1.0489
2.549618320610687,0.9618320610687023,-0.9618320610687023,-0.418212890625,0.047119140625,-0.3310546875,1.0506
2.351145038167939,1.1145038167938932,-1.099236641221374,-0.4169921875,0.046630859375,-0.330810546875,1.0523
2.6412213740458017,1.2366412213740459,-0.9312977099236641,-0.417236328125,0.048583984375,-0.33203125,1.054
2.8091603053435112,1.1450381679389312,-1.0534351145038168,-0.416259765625,0.045654296875,-0.338623046875,1.0556999999999999
2.8091603053435112,1.0687022900763359,-0.9923664122137404,-0.41357421875,0.04833984375,-0.3359375,1.0574
2.519083969465649,1.1297709923664123,-1.1755725190839694,-0.413818359375,0.042724609375,-0.3359375,1.0591
2.8396946564885495,1.282442748091603,-0.9465648854961832,-0.415283203125,0.044189453125,-0.330078125,1.0608
2.7938931297709924,1.099236641221374,-0.9465648854961832,-0.416748046875,0.044677734375,-0.34033203125,1.0625
2.9923664122137406,1.1145038167938932,-0.8396946564885496,-0.40966796875,0.044189453125,-0.339111328125,1.0642
2.8244274809160306,1.0687022900763359,-0.9770992366412213,-0.418212890625,0.0439453125,-0.336669921875,1.0658999999999998
2.931297709923664,0.9923664122137404,-0.9007633587786259,-0.413330078125,0.046875,-0.33837890625,1.0675999999999999
2.885496183206107,0.9618320610687023,-1.083969465648855,-0.41455078125,0.050537109375,-0.34228515625,1.0693
3.145038167938931,0.9618320610687023,-1.0381679389312977,-0.41357421875,0.04931640625,-0.33544921875,1.071
3.2977099236641223,1.1145038167938932,-1.1145038167938932,-0.41748046875,0.04833984375,-0.339599609375,1.0727
3.114503816793893,0.8702290076335878,-0.9007633587786259,-0.4130859375,0.04296875,-0.330078125,1.0744
3.282442748091603,0.916030534351145,-1.0534351145038168,-0.412109375,0.041748046875,-0.332763671875,1.0760999999999998
3.114503816793893,0.9923664122137404,-1.1145038167938932,-0.41552734375,0.0478515625,-0.331787109375,1.0777999999999999
3.1603053435114505,0.8091603053435115,-0.9312977099236641,-0.4140625,0.04833984375,-0.337890625,1.0795
3.5267175572519083,0.7633587786259542,-0.916030534351145,-0.41162109375,0.047607421875,-0.33251953125,1.0812
3.3587786259541983,0.8702290076335878,-0.7938931297709924,-0.416259765625,0.049560546875,-0.332763671875,1.0829
3.3587786259541983,0.8702290076335878,-0.8549618320610687,-0.416015625,0.0458984375,-0.33935546875,1.0846
3.2061068702290076,0.9312977099236641,-0.9465648854961832,-0.414794921875,0.050048828125,-0.335693359375,1.0863
3.49618320610687,1.0076335877862594,-0.9312977099236641,-0.410400390625,0.04638671875,-0.333740234375,1.0879999999999999
3.5114503816793894,0.8702290076335878,-0.8396946564885496,-0.412353515625,0.044921875,-0.3388671875,1.0897
3.3587786259541983,0.9923664122137404,-0.8549618320610687,-0.413818359375,0.046630859375,-0.332763671875,1.0914
3.435114503816794,1.0229007633587786,-0.7480916030534351,-0.412353515625,0.0419921875,-0.330810546875,1.0931
3.480916030534351,0.9770992366412213,-0.8549618320610687,-0.41943359375,0.04443359375,-0.335205078125,1.0948
3.4198473282442747,0.9465648854961832,-0.7480916030534351,-0.417236328125,0.0419921875,-0.332763671875,1.0965
3.450381679389313,0.9618320610687023,-0.7175572519083969,-0.416748046875,0.041748046875,-0.340087890625,1.0981999999999998
3.3893129770992365,0.9312977099236641,-0.7175572519083969,-0.4130859375,0.042724609375,-0.331787109375,1.0998999999999999
3.5419847328244276,0.8244274809160306,-1.0076335877862594,-0.414306640625,0.043701171875,-0.330810546875,1.1016
3.5877862595419847,1.0229007633587786,-0.7786259541984732,-0.415771484375,0.040771484375,-0.338134765625,1.1033
3.572519083969466,0.9465648854961832,-0.732824427480916,-0.417724609375,0.043212890625,-0.333251953125,1.105
3.3587786259541983,1.0229007633587786,-0.7022900763358778,-0.41259765625,0.044921875,-0.3359375,1.1067
3.3740458015267176,1.2213740458015268,-0.7786259541984732,-0.414794921875,0.047119140625,-0.33203125,1.1083999999999998
3.3435114503816794,1.2061068702290076,-0.732824427480916,-0.41796875,0.04443359375,-0.3359375,1.1100999999999999
3.404580152671756,1.0076335877862594,-0.9618320610687023,-0.41748046875,0.03857421875,-0.333251953125,1.1118
3.4198473282442747,1.0229007633587786,-0.5954198473282443,-0.41552734375,0.050537109375,-0.332763671875,1.1135
3.450381679389313,0.916030534351145,-0.6106870229007634,-0.41845703125,0.0439453125,-0.335205078125,1.1152
3.3893129770992365,0.9923664122137404,-0.366412213740458,-0.419677734375,0.04248046875,-0.338623046875,1.1169
3.6946564885496183,0.9923664122137404,-0.8396946564885496,-0.41552734375,0.042236328125,-0.327392578125,1.1186
3.572519083969466,1.1450381679389312,-0.8244274809160306,-0.418701171875,0.042724609375,-0.339111328125,1.1202999999999999
3.49618320610687,1.0534351145038168,-0.5190839694656488,-0.413330078125,0.043701171875,-0.330078125,1.1219999999999999
3.435114503816794,0.9465648854961832,-0.6259541984732825,-0.4169921875,0.037353515625,-0.330322265625,1.1237
3.4198473282442747,0.916030534351145,-0.8549618320610687,-0.41552734375,0.03955078125,-0.33935546875,1.1254
3.5877862595419847,0.9618320610687023,-0.6106870229007634,-0.4130859375,0.042236328125,-0.339111328125,1.1271
3.3740458015267176,0.9618320610687023,-0.732824427480916,-0.408935546875,0.0419921875,-0.334716796875,1.1288
3.282442748091603,0.8396946564885496,-0.5954198473282443,-0.414306640625,0.039794921875,-0.339599609375,1.1304999999999998
3.404580152671756,1.1297709923664123,-0.7480916030534351,-0.4150390625,0.040283203125,-0.3369140625,1.1321999999999999
3.3740458015267176,1.1450381679389312,-0.6259541984732825,-0.416259765625,0.042724609375,-0.327880859375,1.1339
3.450381679389313,1.1755725190839694,-0.6870229007633588,-0.415771484375,0.0400390625,-0.3369140625,1.1356
3.068702290076336,1.099236641221374,-0.9007633587786259,-0.41455078125,0.044921875,-0.341064453125,1.1373
3.236641221374046,0.8854961832061069,-0.7938931297709924,-0.420654296875,0.041259765625,-0.332763671875,1.139
3.3740458015267176,1.0229007633587786,-0.5954198473282443,-0.414306640625,0.041748046875,-0.3408203125,1.1407
3.312977099236641,0.9465648854961832,-0.6259541984732825,-0.41748046875,0.035400390625,-0.34033203125,1.1423999999999999
3.1603053435114505,1.0076335877862594,-0.6870229007633588,-0.413818359375,0.04052734375,-0.33935546875,1.1441
3.1755725190839694,0.8244274809160306,-0.7786259541984732,-0.41943359375,0.04052734375,-0.34521484375,1.1458
3.267175572519084,0.9465648854961832,-0.4580152671755725,-0.415283203125,0.037109375,-0.333740234375,1.1475
2.900763358778626,1.282442748091603,-0.6870229007633588,-0.412109375,0.044677734375,-0.335693359375,1.1492
3.053435114503817,0.9618320610687023,-0.4122137404580153,-0.412353515625,0.041259765625,-0.33544921875,1.1509
3.145038167938931,0.8549618320610687,-0.5954198473282443,-0.420166015625,0.04052734375,-0.33837890625,1.1525999999999998
3.068702290076336,0.8854961832061069,-0.3053435114503817,-0.417724609375,0.0400390625,-0.33349609375,1.1542999999999999
2.900763358778626,0.9770992366412213,-0.3816793893129771,-0.4208984375,0.03955078125,-0.333251953125,1.156
2.6564885496183206,1.099236641221374,-0.4732824427480916,-0.4189453125,0.038330078125,-0.343017578125,1.1577
2.763358778625954,1.1755725190839694,-0.44274809160305345,-0.4189453125,0.0361328125,-0.337158203125,1.1594
2.763358778625954,1.1603053435114503,-0.4122137404580153,-0.417724609375,0.036865234375,-0.339111328125,1.1611
2.5801526717557253,1.2213740458015268,-0.3969465648854962,-0.419677734375,0.0390625,-0.336181640625,1.1627999999999998
2.6259541984732824,1.1450381679389312,-0.10687022900763359,-0.417724609375,0.04541015625,-0.342041015625,1.1644999999999999
2.7480916030534353,1.083969465648855,-0.3816793893129771,-0.4169921875,0.04248046875,-0.33447265625,1.1662
2.519083969465649,1.3282442748091603,-0.33587786259541985,-0.4189453125,0.041015625,-0.333740234375,1.1679
2.33587786259542,1.3740458015267176,-0.5801526717557252,-0.417724609375,0.04052734375,-0.331787109375,1.1696
2.2748091603053435,1.4809160305343512,-0.366412213740458,-0.412841796875,0.041259765625,-0.330078125,1.1713
2.3206106870229006,1.5267175572519085,-0.3511450381679389,-0.41796875,0.040771484375,-0.34228515625,1.173
2.122137404580153,1.465648854961832,-0.44274809160305345,-0.4189453125,0.04541015625,-0.328125,1.1746999999999999
2.213740458015267,1.3893129770992367,-0.1984732824427481,-0.41259765625,0.04443359375,-0.325439453125,1.1764
2.2442748091603053,1.5572519083969465,-0.24427480916030533,-0.414794921875,0.03466796875,-0.33349609375,1.1781
2.122137404580153,1.450381679389313,-0.549618320610687,-0.414794921875,0.038330078125,-0.333984375,1.1798
2.0,1.5114503816793894,-0.366412213740458,-0.413818359375,0.04150390625,-0.34033203125,1.1815
2.0,1.7404580152671756,-0.42748091603053434,-0.412109375,0.04345703125,-0.3408203125,1.1832
1.984732824427481,1.7251908396946565,-0.6106870229007634,-0.41552734375,0.043212890625,-0.337646484375,1.1848999999999998
1.9083969465648856,1.7557251908396947,-0.2748091603053435,-0.412353515625,0.043212890625,-0.34228515625,1.1865999999999999
1.6946564885496183,1.5877862595419847,-0.4580152671755725,-0.409912109375,0.0419921875,-0.339111328125,1.1883
1.7557251908396947,1.5725190839694656,-0.5343511450381679,-0.4150390625,0.040771484375,-0.33935546875,1.19
1.633587786259542,1.5114503816793894,-0.3816793893129771,-0.41064453125,0.04248046875,-0.34912109375,1.1917
1.5114503816793894,1.6641221374045803,-0.5038167938931297,-0.41162109375,0.038818359375,-0.33544921875,1.1934
1.5419847328244274,1.5267175572519085,-0.44274809160305345,-0.412109375,0.045654296875,-0.331298828125,1.1950999999999998
1.5725190839694656,1.5114503816793894,-0.32061068702290074,-0.416259765625,0.039794921875,-0.345458984375,1.1967999999999999
1.3893129770992367,1.4961832061068703,-0.4580152671755725,-0.4111328125,0.043701171875,-0.337646484375,1.1985
1.5419847328244274,1.3893129770992367,-0.4732824427480916,-0.411865234375,0.042236328125,-0.34228515625,1.2002
1.3435114503816794,1.5267175572519085,-0.5343511450381679,-0.413330078125,0.04638671875,-0.351318359375,1.2019
1.6030534351145038,1.4809160305343512,-0.3511450381679389,-0.40380859375,0.04638671875,-0.3369140625,1.2036
1.3587786259541985,1.4809160305343512,-0.6106870229007634,-0.40625,0.0458984375,-0.328857421875,1.2053
1.1603053435114503,1.3435114503816794,-0.5190839694656488,-0.404296875,0.0419921875,-0.32861328125,1.2069999999999999
1.297709923664122,1.4198473282442747,-0.5801526717557252,-0.408447265625,0.050048828125,-0.335205078125,1.2086999999999999
1.4961832061068703,1.3129770992366412,-0.6259541984732825,-0.409912109375,0.05078125,-0.33154296875,1.2104
1.0229007633587786,1.2213740458015268,-0.7022900763358778,-0.407958984375,0.041015625,-0.342041015625,1.2121
1.1145038167938932,1.1603053435114503,-0.5038167938931297,-0.407470703125,0.04296875,-0.338623046875,1.2138
1.251908396946565,1.1603053435114503,-0.7786259541984732,-0.412353515625,0.0458984375,-0.33544921875,1.2155
1.1145038167938932,0.9618320610687023,-0.5954198473282443,-0.41015625,0.047119140625,-0.33740234375,1.2171999999999998
1.2366412213740459,1.1145038167938932,-0.7175572519083969,-0.409912109375,0.0517578125,-0.33984375,1.2188999999999999
0.9007633587786259,1.0687022900763359,-1.1297709923664123,-0.4091796875,0.045654296875,-0.3359375,1.2206
0.8854961832061069,0.9618320610687023,-1.0076335877862594,-0.40625,0.044921875,-0.331787109375,1.2223
1.1450381679389312,1.0687022900763359,-0.8702290076335878,-0.41064453125,0.0498046875,-0.34521484375,1.224
0.8702290076335878,1.0229007633587786,-1.2061068702290076,-0.40673828125,0.048828125,-0.3291015625,1.2257
0.8244274809160306,0.8702290076335878,-1.2366412213740459,-0.408447265625,0.04541015625,-0.33544921875,1.2273999999999998
0.9312977099236641,1.0229007633587786,-1.3282442748091603,-0.410888671875,0.044921875,-0.339599609375,1.2290999999999999
0.7786259541984732,0.8702290076335878,-1.6030534351145038,-0.406494140625,0.048095703125,-0.335205078125,1.2308
0.6412213740458015,0.8244274809160306,-1.465648854961832,-0.407958984375,0.047607421875,-0.342529296875,1.2325
0.732824427480916,1.0076335877862594,-1.3740458015267176,-0.4140625,0.04736328125,-0.346435546875,1.2342
0.6717557251908397,0.8854961832061069,-1.633587786259542,-0.4150390625,0.048583984375,-0.34619140625,1.2359
0.7022900763358778,0.8702290076335878,-1.7709923664122138,-0.407470703125,0.050048828125,-0.347900390625,1.2376
0.7938931297709924,0.7480916030534351,-1.8778625954198473,-0.408447265625,0.0498046875,-0.33837890625,1.2392999999999998
0.7786259541984732,1.0076335877862594,-1.8015267175572518,-0.40869140625,0.047607421875,-0.338134765625,1.2409999999999999
0.9465648854961832,0.8854961832061069,-1.9389312977099236,-0.41259765625,0.0478515625,-0.337646484375,1.2427
0.9312977099236641,0.7175572519083969,-1.816793893129771,-0.4150390625,0.050048828125,-0.3349609375,1.2444
0.9618320610687023,0.7938931297709924,-2.2442748091603053,-0.41064453125,0.048095703125,-0.339599609375,1.2461
0.9007633587786259,0.916030534351145,-2.2900763358778624,-0.41650390625,0.04541015625,-0.339111328125,1.2478
1.1603053435114503,0.6412213740458015,-2.3969465648854964,-0.412353515625,0.049560546875,-0.339599609375,1.2494999999999998
1.0381679389312977,0.6412213740458015,-2.4580152671755724,-0.408935546875,0.049072265625,-0.3388671875,1.2511999999999999
1.1297709923664123,0.5190839694656488,-2.6717557251908395,-0.41259765625,0.045166015625,-0.339599609375,1.2529
1.0076335877862594,0.549618320610687,-2.6564885496183206,-0.40673828125,0.0517578125,-0.341796875,1.2546
1.4351145038167938,0.44274809160305345,-2.9770992366412212,-0.40869140625,0.04541015625,-0.331298828125,1.2563
1.3893129770992367,0.44274809160305345,-2.885496183206107,-0.41064453125,0.0478515625,-0.3408203125,1.258
1.2213740458015268,0.3511450381679389,-3.0381679389312977,-0.412109375,0.045166015625,-0.332763671875,1.2596999999999998
1.3893129770992367,0.4122137404580153,-3.1297709923664123,-0.4130859375,0.049072265625,-0.33251953125,1.2613999999999999
1.3129770992366412,0.2900763358778626,-3.282442748091603,-0.41015625,0.04541015625,-0.3427734375,1.2631
1.2366412213740459,0.5801526717557252,-3.0076335877862594,-0.417236328125,0.04345703125,-0.340087890625,1.2648
1.3129770992366412,0.24427480916030533,-3.282442748091603,-0.414794921875,0.045166015625,-0.341064453125,1.2665
1.3435114503816794,0.15267175572519084,-3.099236641221374,-0.406982421875,0.04345703125,-0.33642578125,1.2682
1.297709923664122,0.24427480916030533,-3.3740458015267176,-0.409912109375,0.044677734375,-0.339111328125,1.2699
1.3740458015267176,0.15267175572519084,-3.312977099236641,-0.41357421875,0.042236328125,-0.342041015625,1.2715999999999998
1.3282442748091603,0.33587786259541985,-3.480916030534351,-0.41455078125,0.04345703125,-0.338623046875,1.2732999999999999
1.1908396946564885,0.24427480916030533,-3.1603053435114505,-0.414306640625,0.0439453125,-0.332275390625,1.275
1.1755725190839694,0.12213740458015267,-3.2213740458015265,-0.414306640625,0.0390625,-0.33642578125,1.2767
1.1145038167938932,0.030534351145038167,-3.1603053435114505,-0.41015625,0.041015625,-0.3359375,1.2784
1.0076335877862594,0.061068702290076333,-3.2977099236641223,-0.41845703125,0.03857421875,-0.336181640625,1.2801
0.9312977099236641,0.10687022900763359,-3.099236641221374,-0.412353515625,0.0380859375,-0.34033203125,1.2817999999999998
0.8702290076335878,0.13740458015267176,-3.236641221374046,-0.41455078125,0.037353515625,-0.340576171875,1.2834999999999999
0.732824427480916,-0.015267175572519083,-3.0839694656488548,-0.410400390625,0.03759765625,-0.332275390625,1.2852
0.7022900763358778,-0.183206106870229,-2.9770992366412212,-0.40869140625,0.038818359375,-0.338134765625,1.2869
0.5343511450381679,0.04580152671755725,-3.2061068702290076,-0.41259765625,0.038818359375,-0.340576171875,1.2886
0.32061068702290074,-0.061068702290076333,-2.9923664122137406,-0.411376953125,0.03662109375,-0.33447265625,1.2903
0.12213740458015267,-0.15267175572519084,-3.068702290076336,-0.413818359375,0.035400390625,-0.337646484375,1.292
0.3969465648854962,-0.16793893129770993,-2.931297709923664,-0.4130859375,0.0322265625,-0.32861328125,1.2936999999999999
0.0,-0.015267175572519083,-2.854961832061069,-0.405517578125,0.041748046875,-0.336669921875,1.2953999999999999
0.1984732824427481,-0.10687022900763359,-3.053435114503817,-0.41552734375,0.038330078125,-0.334716796875,1.2971
-0.0916030534351145,-0.0916030534351145,-2.8396946564885495,-0.41259765625,0.034912109375,-0.33447265625,1.2988
-0.3053435114503817,-0.10687022900763359,-3.0076335877862594,-0.41162109375,0.03369140625,-0.337646484375,1.3005
-0.1984732824427481,-0.10687022900763359,-3.0381679389312977,-0.413330078125,0.039794921875,-0.33154296875,1.3022
-0.4122137404580153,-0.183206106870229,-3.0839694656488548,-0.41796875,0.03515625,-0.326416015625,1.3038999999999998
-0.5343511450381679,-0.22900763358778625,-3.114503816793893,-0.41552734375,0.03857421875,-0.3359375,1.3055999999999999
-0.4580152671755725,-0.1984732824427481,-3.068702290076336,-0.413818359375,0.03515625,-0.335205078125,1.3073
-0.5038167938931297,-0.24427480916030533,-2.931297709923664,-0.408447265625,0.035400390625,-0.338623046875,1.309
-0.6717557251908397,-0.24427480916030533,-3.099236641221374,-0.411865234375,0.040771484375,-0.339111328125,1.3107
-0.6870229007633588,-0.12213740458015267,-3.145038167938931,-0.414794921875,0.0419921875,-0.333984375,1.3124
-0.7786259541984732,-0.10687022900763359,-3.053435114503817,-0.412841796875,0.0390625,-0.3349609375,1.3140999999999998
-0.8702290076335878,-0.22900763358778625,-3.2977099236641223,-0.412109375,0.0419921875,-0.32958984375,1.3157999999999999
-0.7633587786259542,-0.13740458015267176,-3.114503816793893,-0.411865234375,0.038818359375,-0.329345703125,1.3175
-0.8702290076335878,0.061068702290076333,-3.1755725190839694,-0.412841796875,0.046142578125,-0.329345703125,1.3192
-0.9618320610687023,-0.07633587786259542,-3.145038167938931,-0.412841796875,0.040771484375,-0.335693359375,1.3209
-0.9465648854961832,-0.015267175572519083,-3.2977099236641223,-0.411376953125,0.041259765625,-0.337890625,1.3226
-0.7938931297709924,0.04580152671755725,-3.450381679389313,-0.417236328125,0.034912109375,-0.341796875,1.3243
-0.916030534351145,-0.1984732824427481,-3.404580152671756,-0.4169921875,0.0419921875,-0.32958984375,1.3259999999999998
-1.0687022900763359,0.04580152671755725,-3.5419847328244276,-0.41650390625,0.04345703125,-0.33154296875,1.3276999999999999
-0.8549618320610687,0.2748091603053435,-3.5267175572519083,-0.415771484375,0.041748046875,-0.3408203125,1.3294
-0.916030534351145,0.2900763358778626,-3.450381679389313,-0.4150390625,0.044921875,-0.337646484375,1.3311
-0.8244274809160306,0.13740458015267176,-3.648854961832061,-0.415283203125,0.03857421875,-0.328125,1.3328
-0.8396946564885496,0.2748091603053435,-3.6030534351145036,-0.41748046875,0.0380859375,-0.3310546875,1.3345
-0.8549618320610687,0.3053435114503817,-3.5267175572519083,-0.41552734375,0.041015625,-0.3349609375,1.3361999999999998
-0.8244274809160306,0.3969465648854962,-3.3893129770992365,-0.415771484375,0.042724609375,-0.330322265625,1.3378999999999999
-0.7938931297709924,0.549618320610687,-3.5572519083969465,-0.4169921875,0.0439453125,-0.338134765625,1.3396
-0.9312977099236641,0.5648854961832062,-3.5877862595419847,-0.4150390625,0.041748046875,-0.332275390625,1.3413
-1.0229007633587786,0.5038167938931297,-3.572519083969466,-0.416015625,0.0439453125,-0.3359375,1.343
-0.8244274809160306,0.7022900763358778,-3.633587786259542,-0.42041015625,0.0400390625,-0.330810546875,1.3447
-0.8396946564885496,0.7633587786259542,-3.786259541984733,-0.416015625,0.041259765625,-0.334716796875,1.3463999999999998
-0.8702290076335878,0.5954198473282443,-3.6030534351145036,-0.416015625,0.0380859375,-0.334228515625,1.3480999999999999
-1.1145038167938932,0.5190839694656488,-3.7404580152671754,-0.4130859375,0.038818359375,-0.33056640625,1.3497999999999999
-0.9007633587786259,0.7175572519083969,-3.633587786259542,-0.417724609375,0.042236328125,-0.338134765625,1.3515
-0.8549618320610687,0.8396946564885496,-3.801526717557252,-0.41552734375,0.04248046875,-0.32763671875,1.3532
-1.1450381679389312,0.7786259541984732,-3.786259541984733,-0.409912109375,0.041748046875,-0.335205078125,1.3549
-1.0381679389312977,0.6870229007633588,-3.7709923664122136,-0.4130859375,0.045166015625,-0.339599609375,1.3566
-1.3129770992366412,0.732824427480916,-3.7251908396946565,-0.419677734375,0.039794921875,-0.3310546875,1.3582999999999998
-1.2366412213740459,0.9007633587786259,-3.9389312977099236,-0.4140625,0.041015625,-0.3369140625,1.3599999999999999
-0.9770992366412213,0.6870229007633588,-3.9083969465648853,-0.41845703125,0.03857421875,-0.341552734375,1.3617
-1.083969465648855,0.8549618320610687,-4.137404580152672,-0.418212890625,0.041015625,-0.3251953125,1.3634
-1.282442748091603,0.8854961832061069,-4.0,-0.4140625,0.03857421875,-0.33642578125,1.3651
-1.3893129770992367,0.7938931297709924,-4.213740458015267,-0.419189453125,0.042236328125,-0.340087890625,1.3668
-1.3282442748091603,0.7175572519083969,-4.0,-0.416015625,0.04345703125,-0.330322265625,1.3684999999999998
-1.2061068702290076,0.8091603053435115,-4.198473282442748,-0.415771484375,0.043701171875,-0.333740234375,1.3701999999999999
-1.3893129770992367,0.732824427480916,-4.106870229007634,-0.4208984375,0.037353515625,-0.327880859375,1.3719
-1.3282442748091603,0.6412213740458015,-4.137404580152672,-0.419189453125,0.0400390625,-0.332275390625,1.3736
-1.3587786259541985,0.8854961832061069,-3.816793893129771,-0.416259765625,0.039794921875,-0.3369140625,1.3753
-1.450381679389313,0.7633587786259542,-4.091603053435114,-0.413330078125,0.037841796875,-0.325439453125,1.377
-1.450381679389313,0.8091603053435115,-3.9236641221374047,-0.41748046875,0.036376953125,-0.322998046875,1.3786999999999998
-1.618320610687023,0.8091603053435115,-4.213740458015267,-0.416259765625,0.0400390625,-0.331787109375,1.3803999999999998
-1.5877862595419847,0.9312977099236641,-4.137404580152672,-0.4189453125,0.04052734375,-0.3271484375,1.3820999999999999
-1.786259541984733,0.8244274809160306,-4.1679389312977095,-0.41552734375,0.039306640625,-0.330810546875,1.3838
-1.5572519083969465,0.8549618320610687,-4.076335877862595,-0.41748046875,0.03564453125,-0.337646484375,1.3855
-1.6030534351145038,0.5801526717557252,-4.030534351145038,-0.419921875,0.039794921875,-0.342529296875,1.3872
-1.7709923664122138,0.8091603053435115,-4.0,-0.418212890625,0.038330078125,-0.3388671875,1.3889
-1.8015267175572518,0.5648854961832062,-3.984732824427481,-0.4189453125,0.0390625,-0.3349609375,1.3905999999999998
-1.7251908396946565,0.7175572519083969,-3.984732824427481,-0.418212890625,0.039794921875,-0.3349609375,1.3922999999999999
-1.6641221374045803,0.6412213740458015,-4.0,-0.421875,0.042724609375,-0.3271484375,1.394
-1.5725190839694656,0.8549618320610687,-3.984732824427481,-0.41943359375,0.0400390625,-0.33203125,1.3957
-1.816793893129771,0.8549618320610687,-4.015267175572519,-0.420166015625,0.036865234375,-0.332763671875,1.3974
-1.7251908396946565,0.7938931297709924,-3.954198473282443,-0.42236328125,0.03857421875,-0.3310546875,1.3991
-1.83206106870229,0.8091603053435115,-3.9083969465648853,-0.421630859375,0.039306640625,-0.332275390625,1.4007999999999998
-1.6946564885496183,1.0076335877862594,-3.8931297709923665,-0.423828125,0.040771484375,-0.328857421875,1.4024999999999999
-1.9541984732824427,0.7938931297709924,-4.030534351145038,-0.42138671875,0.04443359375,-0.3251953125,1.4042
-1.786259541984733,1.0076335877862594,-3.984732824427481,-0.421142578125,0.04443359375,-0.32763671875,1.4059
-1.7709923664122138,0.7938931297709924,-3.8931297709923665,-0.415771484375,0.0400390625,-0.3349609375,1.4076
-1.9389312977099236,0.9465648854961832,-3.786259541984733,-0.415283203125,0.039794921875,-0.3271484375,1.4093
-1.7099236641221374,1.0076335877862594,-3.9389312977099236,-0.41650390625,0.042236328125,-0.3310546875,1.411
-1.83206106870229,0.8549618320610687,-3.6793893129770994,-0.41943359375,0.0419921875,-0.3330078125,1.4126999999999998
-1.83206106870229,1.0381679389312977,-3.66412213740458,-0.41748046875,0.0400390625,-0.332763671875,1.4143999999999999
-1.786259541984733,1.083969465648855,-3.816793893129771,-0.420654296875,0.038818359375,-0.333251953125,1.4161
-1.3740458015267176,1.099236641221374,-3.7557251908396947,-0.421875,0.037353515625,-0.331787109375,1.4178
-1.5572519083969465,1.0534351145038168,-3.7251908396946565,-0.423095703125,0.040771484375,-0.336669921875,1.4195
-1.7709923664122138,1.083969465648855,-3.633587786259542,-0.426025390625,0.0419921875,-0.327392578125,1.4212
-1.5725190839694656,1.2671755725190839,-3.6793893129770994,-0.425537109375,0.04248046875,-0.33935546875,1.4228999999999998
-1.633587786259542,1.0687022900763359,-3.7099236641221376,-0.42333984375,0.042236328125,-0.33154296875,1.4245999999999999
-1.5267175572519085,1.282442748091603,-3.5877862595419847,-0.4189453125,0.037841796875,-0.33642578125,1.4263
-1.4351145038167938,1.2061068702290076,-3.786259541984733,-0.41650390625,0.041259765625,-0.327392578125,1.428
-1.2366412213740459,1.3282442748091603,-3.435114503816794,-0.422119140625,0.042724609375,-0.328125,1.4297
-1.3282442748091603,1.450381679389313,-3.572519083969466,-0.423583984375,0.04052734375,-0.328857421875,1.4314
-1.251908396946565,1.4198473282442747,-3.618320610687023,-0.41943359375,0.0478515625,-0.330322265625,1.4330999999999998
-1.251908396946565,1.4961832061068703,-3.4198473282442747,-0.42236328125,0.041748046875,-0.332275390625,1.4347999999999999
-1.282442748091603,1.7709923664122138,-3.618320610687023,-0.41796875,0.04052734375,-0.336669921875,1.4364999999999999
-1.297709923664122,1.618320610687023,-3.5267175572519083,-0.41943359375,0.041748046875,-0.32861328125,1.4382
-0.9618320610687023,1.6030534351145038,-3.5877862595419847,-0.41796875,0.0458984375,-0.33154296875,1.4399
-0.9923664122137404,1.7099236641221374,-3.5114503816793894,-0.416015625,0.046630859375,-0.33642578125,1.4416
-0.9007633587786259,1.7557251908396947,-3.435114503816794,-0.419921875,0.043701171875,-0.328369140625,1.4433
-0.7480916030534351,1.8015267175572518,-3.480916030534351,-0.421630859375,0.040283203125,-0.3271484375,1.4449999999999998
-0.9312977099236641,1.8015267175572518,-3.236641221374046,-0.41357421875,0.04248046875,-0.32373046875,1.4466999999999999
-0.9770992366412213,1.6488549618320612,-3.312977099236641,-0.4169921875,0.044189453125,-0.331298828125,1.4484
-0.6412213740458015,1.6641221374045803,-3.236641221374046,-0.41943359375,0.045654296875,-0.32373046875,1.4501
-0.6870229007633588,1.7251908396946565,-3.404580152671756,-0.41748046875,0.042724609375,-0.330322265625,1.4518
-0.7480916030534351,1.6488549618320612,-3.450381679389313,-0.415771484375,0.045166015625,-0.3330078125,1.4535
-0.6717557251908397,2.030534351145038,-3.145038167938931,-0.421630859375,0.043701171875,-0.32861328125,1.4551999999999998
-0.5954198473282443,1.633587786259542,-3.114503816793893,-0.420166015625,0.040771484375,-0.334716796875,1.4568999999999999
-0.5801526717557252,1.6641221374045803,-3.0381679389312977,-0.418212890625,0.042724609375,-0.330322265625,1.4586
-0.5343511450381679,1.7557251908396947,-2.854961832061069,-0.414794921875,0.03955078125,-0.324462890625,1.4603
-0.6870229007633588,1.9694656488549618,-2.9618320610687023,-0.41748046875,0.039794921875,-0.324462890625,1.462
-0.549618320610687,1.7099236641221374,-3.0839694656488548,-0.417724609375,0.040283203125,-0.325439453125,1.4637
-0.5190839694656488,1.9083969465648856,-2.8244274809160306,-0.41552734375,0.039794921875,-0.333984375,1.4653999999999998
-0.44274809160305345,1.6030534351145038,-2.7022900763358777,-0.41796875,0.04541015625,-0.333740234375,1.4670999999999998
-0.366412213740458,1.5572519083969465,-2.7786259541984735,-0.41455078125,0.04833984375,-0.335205078125,1.4687999999999999
-0.13740458015267176,1.7404580152671756,-2.7786259541984735,-0.41650390625,0.039794921875,-0.333984375,1.4705
-0.183206106870229,1.7709923664122138,-2.564885496183206,-0.408935546875,0.045654296875,-0.327880859375,1.4722
-0.24427480916030533,1.633587786259542,-2.717557251908397,-0.41259765625,0.041015625,-0.326904296875,1.4739
-0.21374045801526717,1.6793893129770991,-2.5343511450381677,-0.41552734375,0.04345703125,-0.328857421875,1.4756
-0.015267175572519083,1.618320610687023,-2.5801526717557253,-0.4140625,0.038818359375,-0.330322265625,1.4772999999999998
-0.12213740458015267,1.4961832061068703,-2.4885496183206106,-0.4140625,0.038818359375,-0.33544921875,1.4789999999999999
-0.061068702290076333,1.6488549618320612,-2.7022900763358777,-0.4189453125,0.041259765625,-0.332275390625,1.4807
0.12213740458015267,1.6793893129770991,-2.6564885496183206,-0.414306640625,0.04345703125,-0.338623046875,1.4824
0.15267175572519084,1.465648854961832,-2.717557251908397,-0.41748046875,0.047119140625,-0.335693359375,1.4841
0.24427480916030533,1.5877862595419847,-2.3053435114503817,-0.41748046875,0.044677734375,-0.33056640625,1.4858
0.22900763358778625,1.6488549618320612,-2.564885496183206,-0.414306640625,0.041748046875,-0.335693359375,1.4874999999999998
0.10687022900763359,1.5725190839694656,-2.366412213740458,-0.41748046875,0.04638671875,-0.33056640625,1.4891999999999999
0.42748091603053434,1.1603053435114503,-2.4885496183206106,-0.4189453125,0.0439453125,-0.32861328125,1.4909
0.5801526717557252,1.4045801526717556,-2.5343511450381677,-0.41748046875,0.05322265625,-0.325927734375,1.4926
0.5954198473282443,1.618320610687023,-2.595419847328244,-0.413818359375,0.0419921875,-0.328857421875,1.4943
0.7938931297709924,1.4198473282442747,-2.5343511450381677,-0.4150390625,0.042236328125,-0.333740234375,1.496
0.732824427480916,1.3740458015267176,-2.3206106870229006,-0.415771484375,0.042236328125,-0.332763671875,1.4976999999999998
1.1450381679389312,1.5877862595419847,-2.2900763358778624,-0.4130859375,0.04931640625,-0.33349609375,1.4993999999999998
0.7938931297709924,1.4809160305343512,-2.381679389312977,-0.41748046875,0.049072265625,-0.330322265625,1.5010999999999999
1.2061068702290076,1.4351145038167938,-2.351145038167939,-0.4189453125,0.041015625,-0.330078125,1.5028
1.2366412213740459,1.5419847328244274,-2.519083969465649,-0.414306640625,0.041748046875,-0.332763671875,1.5045
1.3129770992366412,1.450381679389313,-2.213740458015267,-0.41650390625,0.046142578125,-0.332275390625,1.5062
1.3435114503816794,1.4809160305343512,-2.1068702290076335,-0.413330078125,0.044921875,-0.329833984375,1.5079
1.5572519083969465,1.4961832061068703,-2.183206106870229,-0.41552734375,0.044189453125,-0.32666015625,1.5095999999999998
1.633587786259542,1.2213740458015268,-2.3206106870229006,-0.4130859375,0.040771484375,-0.330810546875,1.5112999999999999
1.5725190839694656,1.5877862595419847,-1.7557251908396947,-0.4169921875,0.03955078125,-0.329345703125,1.513
1.6793893129770991,1.7099236641221374,-1.8778625954198473,-0.41845703125,0.047119140625,-0.33544921875,1.5147
2.015267175572519,1.3893129770992367,-1.9083969465648856,-0.4130859375,0.049072265625,-0.336669921875,1.5164
1.8778625954198473,1.282442748091603,-2.0,-0.417724609375,0.04248046875,-0.33837890625,1.5181
1.984732824427481,1.6030534351145038,-1.7709923664122138,-0.41845703125,0.042724609375,-0.32373046875,1.5197999999999998
2.1526717557251906,1.2061068702290076,-1.8473282442748091,-0.4130859375,0.037353515625,-0.331298828125,1.5214999999999999
2.16793893129771,1.3282442748091603,-1.7709923664122138,-0.41357421875,0.042236328125,-0.33056640625,1.5231999999999999
2.122137404580153,1.3587786259541985,-1.786259541984733,-0.41015625,0.041259765625,-0.33740234375,1.5249
2.16793893129771,1.1755725190839694,-1.6030534351145038,-0.41259765625,0.046142578125,-0.334228515625,1.5266
2.122137404580153,1.2671755725190839,-1.5267175572519085,-0.4140625,0.04345703125,-0.33740234375,1.5283
2.4122137404580153,1.1145038167938932,-1.6793893129770991,-0.4150390625,0.042236328125,-0.335693359375,1.5299999999999998
2.4580152671755724,1.1603053435114503,-1.5114503816793894,-0.409912109375,0.038818359375,-0.333984375,1.5316999999999998
2.381679389312977,1.1755725190839694,-1.3893129770992367,-0.412353515625,0.0439453125,-0.330810546875,1.5333999999999999
2.33587786259542,1.0229007633587786,-1.5877862595419847,-0.414794921875,0.0380859375,-0.33203125,1.5351
2.50381679389313,0.9618320610687023,-1.3893129770992367,-0.4140625,0.041748046875,-0.32861328125,1.5368
2.3969465648854964,1.0381679389312977,-1.4351145038167938,-0.408447265625,0.036865234375,-0.343505859375,1.5385
2.366412213740458,0.9923664122137404,-1.3282442748091603,-0.4189453125,0.040771484375,-0.338623046875,1.5402
2.4427480916030535,0.9465648854961832,-1.0687022900763359,-0.41357421875,0.039794921875,-0.331787109375,1.5418999999999998
2.6412213740458017,0.9770992366412213,-1.3435114503816794,-0.409912109375,0.04296875,-0.3251953125,1.5435999999999999
2.687022900763359,0.7786259541984732,-1.3435114503816794,-0.407958984375,0.040771484375,-0.3291015625,1.5453
2.549618320610687,0.6717557251908397,-1.1450381679389312,-0.411865234375,0.040771484375,-0.33056640625,1.547
2.6106870229007635,0.6259541984732825,-1.1755725190839694,-0.4111328125,0.040283203125,-0.347900390625,1.5487
2.6412213740458017,0.549618320610687,-1.2671755725190839,-0.40625,0.0380859375,-0.329345703125,1.5504
2.7938931297709924,0.5648854961832062,-1.1297709923664123,-0.40771484375,0.041015625,-0.33251953125,1.5520999999999998
2.5343511450381677,0.5648854961832062,-0.9007633587786259,-0.41064453125,0.039794921875,-0.332275390625,1.5537999999999998
2.595419847328244,0.2900763358778626,-1.0229007633587786,-0.407470703125,0.043212890625,-0.331298828125,1.5554999999999999
2.7786259541984735,0.2900763358778626,-1.1908396946564885,-0.40771484375,0.041748046875,-0.32568359375,1.5572
2.7022900763358777,0.015267175572519083,-1.099236641221374,-0.414306640625,0.045166015625,-0.3310546875,1.5589
2.717557251908397,0.2900763358778626,-1.1145038167938932,-0.4111328125,0.040771484375,-0.33251953125,1.5606
2.885496183206107,0.061068702290076333,-1.1755725190839694,-0.414794921875,0.04150390625,-0.32958984375,1.5623
2.717557251908397,-0.061068702290076333,-1.0076335877862594,-0.411865234375,0.037353515625,-0.321533203125,1.5639999999999998
2.6717557251908395,-0.061068702290076333,-1.083969465648855,-0.409912109375,0.0419921875,-0.3330078125,1.5656999999999999
2.7022900763358777,-0.10687022900763359,-1.0229007633587786,-0.411865234375,0.045654296875,-0.3291015625,1.5674
2.6717557251908395,-0.15267175572519084,-0.9312977099236641,-0.410888671875,0.041015625,-0.33056640625,1.5691
2.946564885496183,-0.12213740458015267,-0.8091603053435115,-0.404541015625,0.043212890625,-0.330078125,1.5708
2.900763358778626,-0.4580152671755725,-0.7633587786259542,-0.409912109375,0.0390625,-0.33349609375,1.5725
3.0229007633587788,-0.4732824427480916,-0.9770992366412213,-0.408203125,0.042236328125,-0.331787109375,1.5741999999999998
3.1603053435114505,-0.5038167938931297,-1.0687022900763359,-0.4111328125,0.039306640625,-0.3271484375,1.5758999999999999
3.2061068702290076,-0.6106870229007634,-1.0381679389312977,-0.4072265625,0.04443359375,-0.335205078125,1.5776
3.2213740458015265,-0.6870229007633588,-0.916030534351145,-0.4052734375,0.04541015625,-0.338134765625,1.5793
3.2213740458015265,-0.732824427480916,-1.083969465648855,-0.40771484375,0.044189453125,-0.331787109375,1.581
3.2519083969465647,-0.916030534351145,-1.0534351145038168,-0.404541015625,0.04248046875,-0.33203125,1.5827
3.3587786259541983,-0.7786259541984732,-1.3129770992366412,-0.4130859375,0.042236328125,-0.33349609375,1.5843999999999998
3.5114503816793894,-0.9923664122137404,-1.251908396946565,-0.410400390625,0.04638671875,-0.341552734375,1.5860999999999998
3.572519083969466,-0.9923664122137404,-1.1450381679389312,-0.409912109375,0.042724609375,-0.329345703125,1.5877999999999999
3.450381679389313,-1.1297709923664123,-0.9312977099236641,-0.412109375,0.046875,-0.32421875,1.5895
3.618320610687023,-1.1450381679389312,-1.3587786259541985,-0.41357421875,0.040283203125,-0.32470703125,1.5912
3.7251908396946565,-1.2213740458015268,-1.3129770992366412,-0.406494140625,0.04345703125,-0.32861328125,1.5929
3.5114503816793894,-1.633587786259542,-1.297709923664122,-0.413818359375,0.043701171875,-0.326904296875,1.5946
3.648854961832061,-1.6946564885496183,-1.3435114503816794,-0.4111328125,0.040283203125,-0.32958984375,1.5962999999999998
3.9236641221374047,-1.7557251908396947,-1.4045801526717556,-0.4130859375,0.044189453125,-0.33935546875,1.5979999999999999
3.6793893129770994,-1.7099236641221374,-1.4198473282442747,-0.40966796875,0.04248046875,-0.334228515625,1.5997
3.83206106870229,-1.6946564885496183,-1.5877862595419847,-0.41162109375,0.046142578125,-0.327880859375,1.6014
3.8931297709923665,-2.1068702290076335,-1.4809160305343512,-0.41259765625,0.047607421875,-0.331298828125,1.6031
3.8931297709923665,-1.9389312977099236,-1.6946564885496183,-0.413330078125,0.041748046875,-0.327392578125,1.6048
3.83206106870229,-2.0,-1.3587786259541985,-0.411376953125,0.043212890625,-0.32373046875,1.6064999999999998
3.954198473282443,-2.015267175572519,-1.6488549618320612,-0.4140625,0.04150390625,-0.324951171875,1.6081999999999999
4.0458015267175576,-2.50381679389313,-1.633587786259542,-0.416259765625,0.037353515625,-0.338134765625,1.6098999999999999
3.801526717557252,-2.4122137404580153,-1.7251908396946565,-0.419189453125,0.03857421875,-0.338134765625,1.6116
3.9236641221374047,-2.366412213740458,-1.6641221374045803,-0.412353515625,0.0439453125,-0.338623046875,1.6133
4.061068702290076,-2.427480916030534,-1.5572519083969465,-0.416748046875,0.037841796875,-0.337646484375,1.615
4.015267175572519,-2.351145038167939,-1.6488549618320612,-0.418212890625,0.035400390625,-0.326171875,1.6166999999999998
3.6946564885496183,-2.717557251908397,-1.7251908396946565,-0.416015625,0.037353515625,-0.328369140625,1.6183999999999998
3.6946564885496183,-2.2748091603053435,-1.6946564885496183,-0.4189453125,0.0361328125,-0.329345703125,1.6200999999999999
3.6946564885496183,-2.1526717557251906,-1.7557251908396947,-0.420654296875,0.040283203125,-0.3310546875,1.6218
3.6793893129770994,-2.381679389312977,-1.5267175572519085,-0.41748046875,0.03515625,-0.330810546875,1.6235
3.236641221374046,-2.3053435114503817,-1.9083969465648856,-0.41845703125,0.03271484375,-0.3271484375,1.6252
3.3587786259541983,-2.2595419847328246,-1.6641221374045803,-0.41357421875,0.03271484375,-0.32958984375,1.6269
3.282442748091603,-2.2748091603053435,-1.6946564885496183,-0.413330078125,0.03076171875,-0.32470703125,1.6285999999999998
3.2213740458015265,-2.2748091603053435,-1.816793893129771,-0.415771484375,0.032470703125,-0.324462890625,1.6302999999999999
3.236641221374046,-2.1526717557251906,-1.7709923664122138,-0.418212890625,0.034912109375,-0.3203125,1.632
2.8702290076335877,-2.381679389312977,-1.7251908396946565,-0.4208984375,0.035400390625,-0.321533203125,1.6337
3.145038167938931,-2.213740458015267,-1.8931297709923665,-0.42236328125,0.035888671875,-0.32373046875,1.6354
2.946564885496183,-2.2748091603053435,-1.8473282442748091,-0.42626953125,0.033203125,-0.334228515625,1.6371
2.687022900763359,-2.045801526717557,-1.6488549618320612,-0.420654296875,0.03564453125,-0.32470703125,1.6387999999999998
2.7938931297709924,-2.030534351145038,-1.8931297709923665,-0.420166015625,0.0390625,-0.331298828125,1.6404999999999998
2.5343511450381677,-2.183206106870229,-2.1068702290076335,-0.42041015625,0.03515625,-0.328125,1.6421999999999999
2.4427480916030535,-2.183206106870229,-1.618320610687023,-0.417236328125,0.037841796875,-0.330322265625,1.6439
2.2595419847328246,-2.0610687022900764,-1.7404580152671756,-0.4208984375,0.034912109375,-0.331298828125,1.6456
2.2900763358778624,-1.9236641221374047,-1.984732824427481,-0.421630859375,0.032470703125,-0.330078125,1.6473
2.198473282442748,-1.83206106870229,-1.9694656488549618,-0.420166015625,0.033935546875,-0.32421875,1.6489999999999998
2.1068702290076335,-1.8473282442748091,-1.9083969465648856,-0.4189453125,0.036376953125,-0.326904296875,1.6506999999999998
2.213740458015267,-1.7557251908396947,-1.9236641221374047,-0.415771484375,0.0361328125,-0.32568359375,1.6523999999999999
1.9083969465648856,-1.816793893129771,-2.015267175572519,-0.421875,0.0322265625,-0.32421875,1.6541
1.7099236641221374,-1.7099236641221374,-2.1068702290076335,-0.41650390625,0.035888671875,-0.330078125,1.6558
2.015267175572519,-1.4045801526717556,-2.030534351145038,-0.41845703125,0.033447265625,-0.327392578125,1.6575
1.5419847328244274,-1.4809160305343512,-2.0916030534351147,-0.423583984375,0.0390625,-0.32958984375,1.6592
1.5725190839694656,-1.450381679389313,-2.198473282442748,-0.4228515625,0.03173828125,-0.32666015625,1.6608999999999998
1.5419847328244274,-1.2366412213740459,-2.2748091603053435,-0.421875,0.03857421875,-0.330078125,1.6625999999999999
1.450381679389313,-1.4045801526717556,-2.3206106870229006,-0.421630859375,0.037353515625,-0.32763671875,1.6643
1.6641221374045803,-1.6488549618320612,-2.427480916030534,-0.42431640625,0.03515625,-0.33740234375,1.666
1.5114503816793894,-1.5572519083969465,-2.351145038167939,-0.422119140625,0.03955078125,-0.32373046875,1.6677
1.450381679389313,-1.4198473282442747,-2.427480916030534,-0.419921875,0.034912109375,-0.326904296875,1.6694
1.3740458015267176,-1.2061068702290076,-2.3969465648854964,-0.419921875,0.033935546875,-0.33056640625,1.6710999999999998
1.5114503816793894,-1.3435114503816794,-2.4122137404580153,-0.420654296875,0.037353515625,-0.326904296875,1.6727999999999998
1.3740458015267176,-1.5114503816793894,-2.595419847328244,-0.42041015625,0.041015625,-0.323974609375,1.6744999999999999
1.2366412213740459,-1.5725190839694656,-2.427480916030534,-0.423583984375,0.03857421875,-0.319091796875,1.6762
1.4045801526717556,-1.1297709923664123,-2.6564885496183206,-0.423583984375,0.031982421875,-0.3330078125,1.6779
1.2061068702290076,-1.1908396946564885,-2.549618320610687,-0.422607421875,0.02880859375,-0.331787109375,1.6796
1.099236641221374,-1.3129770992366412,-2.4427480916030535,-0.42822265625,0.03515625,-0.32275390625,1.6813
1.0687022900763359,-1.2671755725190839,-2.6412213740458017,-0.420166015625,0.042236328125,-0.3203125,1.6829999999999998
1.0381679389312977,-1.297709923664122,-2.763358778625954,-0.427490234375,0.03955078125,-0.32568359375,1.6846999999999999
1.1297709923664123,-0.9312977099236641,-2.7022900763358777,-0.423583984375,0.03759765625,-0.31591796875,1.6864
1.1450381679389312,-1.0229007633587786,-2.7480916030534353,-0.42578125,0.0390625,-0.322265625,1.6881
1.2366412213740459,-0.916030534351145,-2.6564885496183206,-0.42578125,0.0302734375,-0.322998046875,1.6898
0.8396946564885496,-0.732824427480916,-2.900763358778626,-0.424560546875,0.03955078125,-0.321044921875,1.6915
0.7938931297709924,-0.7175572519083969,-2.6717557251908395,-0.424072265625,0.0361328125,-0.33154296875,1.6931999999999998
1.1603053435114503,-0.8854961832061069,-2.6259541984732824,-0.426513671875,0.033935546875,-0.32080078125,1.6948999999999999
0.9007633587786259,-0.6106870229007634,-2.854961832061069,-0.428466796875,0.036865234375,-0.32958984375,1.6965999999999999
1.1297709923664123,-0.3969465648854962,-2.8244274809160306,-0.4248046875,0.039794921875,-0.323486328125,1.6983
1.1908396946564885,-0.4122137404580153,-2.8091603053435112,-0.4287109375,0.03369140625,-0.325927734375,1.7
1.297709923664122,-0.3511450381679389,-2.9160305343511452,-0.42822265625,0.038330078125,-0.32275390625,1.7017
1.0687022900763359,-0.2900763358778626,-2.8091603053435112,-0.425048828125,0.033447265625,-0.314453125,1.7033999999999998
1.0687022900763359,0.015267175572519083,-2.7938931297709924,-0.42333984375,0.037109375,-0.320068359375,1.7050999999999998
1.2061068702290076,0.07633587786259542,-2.717557251908397,-0.426025390625,0.035400390625,-0.32861328125,1.7067999999999999
1.0381679389312977,-0.0916030534351145,-2.7022900763358777,-0.421630859375,0.040283203125,-0.324951171875,1.7085
1.1145038167938932,0.13740458015267176,-2.6564885496183206,-0.433837890625,0.03857421875,-0.327392578125,1.7102
1.1145038167938932,0.1984732824427481,-2.8091603053435112,-0.4296875,0.03759765625,-0.3212890625,1.7119
0.9923664122137404,0.3053435114503817,-2.7480916030534353,-0.4287109375,0.032958984375,-0.334716796875,1.7136
1.1297709923664123,0.24427480916030533,-2.8091603053435112,-0.427490234375,0.03369140625,-0.324462890625,1.7152999999999998
1.282442748091603,0.4580152671755725,-2.7480916030534353,-0.42578125,0.041748046875,-0.322509765625,1.7169999999999999
1.2061068702290076,0.5801526717557252,-2.885496183206107,-0.421142578125,0.039794921875,-0.323974609375,1.7187
1.0229007633587786,0.4580152671755725,-2.687022900763359,-0.429931640625,0.034423828125,-0.3193359375,1.7204
1.1145038167938932,0.4732824427480916,-2.717557251908397,-0.422607421875,0.03759765625,-0.32666015625,1.7221
1.3129770992366412,0.5648854961832062,-2.33587786259542,-0.426513671875,0.041259765625,-0.333740234375,1.7238
1.3893129770992367,0.732824427480916,-2.4885496183206106,-0.426513671875,0.03515625,-0.326904296875,1.7254999999999998
1.2061068702290076,0.6259541984732825,-2.50381679389313,-0.427978515625,0.036376953125,-0.328369140625,1.7271999999999998
1.1908396946564885,0.732824427480916,-2.4732824427480917,-0.42626953125,0.033203125,-0.322998046875,1.7288999999999999
1.3129770992366412,0.8396946564885496,-2.33587786259542,-0.42626953125,0.035888671875,-0.32763671875,1.7306
1.099236641221374,0.8091603053435115,-2.50381679389313,-0.422607421875,0.0419921875,-0.325439453125,1.7323
1.1755725190839694,0.8091603053435115,-2.33587786259542,-0.420166015625,0.041748046875,-0.32373046875,1.734
1.6030534351145038,1.099236641221374,-2.351145038167939,-0.422607421875,0.039794921875,-0.32080078125,1.7356999999999998
1.4961832061068703,0.9618320610687023,-2.3206106870229006,-0.41943359375,0.03955078125,-0.328369140625,1.7373999999999998
1.4351145038167938,1.1297709923664123,-2.1526717557251906,-0.424072265625,0.03857421875,-0.3232421875,1.7390999999999999
1.1145038167938932,1.3435114503816794,-2.0763358778625953,-0.426513671875,0.03466796875,-0.32763671875,1.7408
1.3435114503816794,1.0229007633587786,-1.9389312977099236,-0.423828125,0.031494140625,-0.332275390625,1.7425
1.3587786259541985,1.1145038167938932,-2.0763358778625953,-0.423095703125,0.0400390625,-0.31787109375,1.7442
1.251908396946565,1.3435114503816794,-2.030534351145038,-0.422607421875,0.039306640625,-0.32958984375,1.7459
1.297709923664122,1.1297709923664123,-1.8931297709923665,-0.423583984375,0.0400390625,-0.332275390625,1.7475999999999998
1.4045801526717556,1.1755725190839694,-1.9236641221374047,-0.423828125,0.038330078125,-0.330322265625,1.7492999999999999
1.5877862595419847,1.1145038167938932,-1.6946564885496183,-0.422119140625,0.034423828125,-0.32861328125,1.751
1.5572519083969465,1.3893129770992367,-1.7099236641221374,-0.421875,0.03271484375,-0.330810546875,1.7527
1.4809160305343512,1.2671755725190839,-1.5114503816793894,-0.424072265625,0.0419921875,-0.334228515625,1.7544
1.618320610687023,1.4351145038167938,-1.5267175572519085,-0.422119140625,0.033203125,-0.32470703125,1.7561
1.5419847328244274,1.465648854961832,-1.633587786259542,-0.4228515625,0.032958984375,-0.323486328125,1.7577999999999998
1.5114503816793894,1.4351145038167938,-1.633587786259542,-0.425537109375,0.03955078125,-0.326171875,1.7594999999999998
1.633587786259542,1.7557251908396947,-1.5114503816793894,-0.42919921875,0.03955078125,-0.329833984375,1.7611999999999999
1.5267175572519085,1.816793893129771,-1.7099236641221374,-0.419921875,0.041259765625,-0.3310546875,1.7629
1.5114503816793894,1.7404580152671756,-1.4198473282442747,-0.421875,0.036865234375,-0.329345703125,1.7646
1.3587786259541985,1.7251908396946565,-1.3893129770992367,-0.41943359375,0.037841796875,-0.33056640625,1.7663
1.4809160305343512,1.6641221374045803,-1.297709923664122,-0.421875,0.031005859375,-0.334716796875,1.7679999999999998
1.450381679389313,1.6488549618320612,-1.3587786259541985,-0.42431640625,0.0380859375,-0.331787109375,1.7696999999999998
1.3587786259541985,1.83206106870229,-1.3587786259541985,-0.422607421875,0.039794921875,-0.3330078125,1.7713999999999999
1.4351145038167938,1.8778625954198473,-1.3435114503816794,-0.422607421875,0.0322265625,-0.329345703125,1.7731
1.3587786259541985,1.9083969465648856,-1.2213740458015268,-0.429443359375,0.032958984375,-0.326904296875,1.7748
1.0381679389312977,1.9389312977099236,-1.1297709923664123,-0.419921875,0.037353515625,-0.322509765625,1.7765
1.3282442748091603,1.9694656488549618,-1.1908396946564885,-0.41796875,0.037109375,-0.3291015625,1.7782
1.1603053435114503,2.045801526717557,-1.0687022900763359,-0.422119140625,0.036865234375,-0.34033203125,1.7798999999999998
1.1297709923664123,2.183206106870229,-1.2366412213740459,-0.42236328125,0.02978515625,-0.329345703125,1.7815999999999999
1.1145038167938932,1.8625954198473282,-1.1450381679389312,-0.421630859375,0.029296875,-0.33154296875,1.7832999999999999
0.9923664122137404,2.030534351145038,-1.0534351145038168,-0.41796875,0.0302734375,-0.332275390625,1.785
0.9770992366412213,1.8931297709923665,-1.1145038167938932,-0.42236328125,0.034423828125,-0.33251953125,1.7867
0.8702290076335878,2.1526717557251906,-1.1145038167938932,-0.423095703125,0.026611328125,-0.334228515625,1.7884
0.8854961832061069,2.1068702290076335,-1.282442748091603,-0.419677734375,0.035400390625,-0.33154296875,1.7900999999999998
0.8091603053435115,1.8473282442748091,-1.099236641221374,-0.41552734375,0.036376953125,-0.332763671875,1.7917999999999998
0.9007633587786259,2.0916030534351147,-1.2671755725190839,-0.421142578125,0.03271484375,-0.3349609375,1.7934999999999999
0.8091603053435115,2.381679389312977,-1.3740458015267176,-0.427001953125,0.034912109375,-0.33349609375,1.7952
0.6717557251908397,2.16793893129771,-1.297709923664122,-0.42041015625,0.036865234375,-0.327880859375,1.7969
0.7022900763358778,2.0763358778625953,-1.4045801526717556,-0.4169921875,0.036376953125,-0.318359375,1.7986
