gyrox1,gyroy1,gyroz1,accelx1,accely1,accelz1,Time
1.1603053435114503,0.8854961832061069,-1.282442748091603,-0.43994140625,0.02001953125,-0.2734375,0.0
1.3893129770992367,0.9770992366412213,-1.3740458015267176,-0.44189453125,0.015380859375,-0.277587890625,0.0017
1.5877862595419847,0.9312977099236641,-1.3435114503816794,-0.439453125,0.01708984375,-0.2763671875,0.0034
1.2213740458015268,0.7786259541984732,-1.3893129770992367,-0.43603515625,0.0185546875,-0.270263671875,0.0050999999999999995
1.5572519083969465,0.9618320610687023,-1.3893129770992367,-0.44189453125,0.024169921875,-0.27294921875,0.0068
1.5419847328244274,0.8702290076335878,-1.4198473282442747,-0.439208984375,0.0224609375,-0.268798828125,0.008499999999999999
1.2671755725190839,0.9465648854961832,-1.3282442748091603,-0.440185546875,0.01611328125,-0.270751953125,0.010199999999999999
1.3893129770992367,0.916030534351145,-1.251908396946565,-0.435302734375,0.019287109375,-0.27685546875,0.011899999999999999
1.3282442748091603,0.8244274809160306,-1.3893129770992367,-0.437744140625,0.01513671875,-0.2724609375,0.0136
1.4961832061068703,0.7938931297709924,-1.4351145038167938,-0.440185546875,0.0205078125,-0.27587890625,0.0153
1.2671755725190839,0.9465648854961832,-1.633587786259542,-0.435791015625,0.023681640625,-0.27587890625,0.016999999999999998
1.618320610687023,1.0229007633587786,-1.450381679389313,-0.4384765625,0.0126953125,-0.27587890625,0.018699999999999998
1.3129770992366412,0.7633587786259542,-1.3587786259541985,-0.438720703125,0.017822265625,-0.274169921875,0.020399999999999998
1.2213740458015268,0.8702290076335878,-1.4961832061068703,-0.434814453125,0.01806640625,-0.277099609375,0.022099999999999998
1.465648854961832,0.7938931297709924,-1.450381679389313,-0.431396484375,0.0185546875,-0.271240234375,0.023799999999999998
1.5114503816793894,0.6870229007633588,-1.2366412213740459,-0.43701171875,0.017333984375,-0.27685546875,0.0255
1.7099236641221374,0.8244274809160306,-1.4809160305343512,-0.439453125,0.016845703125,-0.272705078125,0.0272
1.5877862595419847,0.7480916030534351,-1.5419847328244274,-0.438232421875,0.017333984375,-0.274169921875,0.0289
1.5267175572519085,0.7175572519083969,-1.3282442748091603,-0.4365234375,0.016357421875,-0.27783203125,0.0306
1.5877862595419847,0.6717557251908397,-1.6030534351145038,-0.441162109375,0.01708984375,-0.275390625,0.032299999999999995
1.4198473282442747,0.6106870229007634,-1.4045801526717556,-0.433349609375,0.01708984375,-0.271484375,0.033999999999999996
1.5267175572519085,0.6870229007633588,-1.465648854961832,-0.43212890625,0.0146484375,-0.263916015625,0.035699999999999996
1.6488549618320612,0.5801526717557252,-1.3893129770992367,-0.43603515625,0.014892578125,-0.265625,0.037399999999999996
1.5877862595419847,0.5190839694656488,-1.3282442748091603,-0.434814453125,0.017578125,-0.269287109375,0.039099999999999996
1.450381679389313,0.48854961832061067,-1.4961832061068703,-0.439453125,0.015625,-0.2783203125,0.040799999999999996
1.5572519083969465,0.549618320610687,-1.3435114503816794,-0.4375,0.0126953125,-0.2734375,0.042499999999999996
1.5114503816793894,0.4580152671755725,-1.4351145038167938,-0.438720703125,0.0185546875,-0.271728515625,0.044199999999999996
1.618320610687023,0.5343511450381679,-1.465648854961832,-0.435302734375,0.01611328125,-0.2705078125,0.045899999999999996
1.6030534351145038,0.5954198473282443,-1.5572519083969465,-0.439697265625,0.021240234375,-0.2763671875,0.047599999999999996
1.7709923664122138,0.6106870229007634,-1.3129770992366412,-0.435302734375,0.0185546875,-0.268798828125,0.0493
1.5572519083969465,0.5648854961832062,-1.4198473282442747,-0.43798828125,0.0205078125,-0.277099609375,0.051
1.3282442748091603,0.4732824427480916,-1.3435114503816794,-0.432861328125,0.016845703125,-0.27099609375,0.0527
1.6793893129770991,0.6412213740458015,-1.5114503816793894,-0.440185546875,0.017333984375,-0.272216796875,0.0544
1.5725190839694656,0.5038167938931297,-1.450381679389313,-0.432373046875,0.016845703125,-0.2763671875,0.0561
1.4198473282442747,0.549618320610687,-1.3893129770992367,-0.43505859375,0.0146484375,-0.27490234375,0.0578
1.5267175572519085,0.5648854961832062,-1.3587786259541985,-0.43994140625,0.018310546875,-0.26806640625,0.0595
1.6488549618320612,0.5954198473282443,-1.5267175572519085,-0.436279296875,0.0146484375,-0.2734375,0.0612
1.5725190839694656,0.6106870229007634,-1.3893129770992367,-0.44091796875,0.01220703125,-0.2685546875,0.0629
1.5419847328244274,0.6259541984732825,-1.4961832061068703,-0.4384765625,0.015380859375,-0.26708984375,0.06459999999999999
1.6488549618320612,0.5648854961832062,-1.3740458015267176,-0.4404296875,0.018798828125,-0.279541015625,0.0663
1.7099236641221374,0.5954198473282443,-1.3435114503816794,-0.4365234375,0.015625,-0.28564453125,0.06799999999999999
1.4351145038167938,0.6106870229007634,-1.297709923664122,-0.436767578125,0.01708984375,-0.2724609375,0.0697
1.4809160305343512,0.732824427480916,-1.2213740458015268,-0.43359375,0.018798828125,-0.264892578125,0.07139999999999999
1.5877862595419847,0.7022900763358778,-1.3587786259541985,-0.432861328125,0.015380859375,-0.273681640625,0.0731
1.6793893129770991,0.6564885496183206,-1.3740458015267176,-0.438720703125,0.013671875,-0.27783203125,0.07479999999999999
1.5725190839694656,0.7175572519083969,-1.2671755725190839,-0.446044921875,0.014404296875,-0.277099609375,0.0765
1.2366412213740459,0.6412213740458015,-1.3893129770992367,-0.438232421875,0.02197265625,-0.271240234375,0.07819999999999999
1.6641221374045803,0.5954198473282443,-1.1908396946564885,-0.444580078125,0.012939453125,-0.280029296875,0.0799
1.7099236641221374,0.8244274809160306,-1.297709923664122,-0.442138671875,0.0146484375,-0.27294921875,0.08159999999999999
1.5572519083969465,0.732824427480916,-1.465648854961832,-0.442138671875,0.0146484375,-0.27099609375,0.0833
1.3893129770992367,0.8396946564885496,-1.3435114503816794,-0.440673828125,0.0205078125,-0.26904296875,0.08499999999999999
1.8473282442748091,0.7938931297709924,-1.3740458015267176,-0.44091796875,0.017822265625,-0.271728515625,0.0867
1.7404580152671756,0.6717557251908397,-1.3129770992366412,-0.43505859375,0.015869140625,-0.26904296875,0.08839999999999999
1.5419847328244274,0.9007633587786259,-1.3129770992366412,-0.439208984375,0.01220703125,-0.283203125,0.0901
1.7099236641221374,0.8702290076335878,-1.4198473282442747,-0.439453125,0.0244140625,-0.276123046875,0.09179999999999999
1.6641221374045803,0.9007633587786259,-1.3893129770992367,-0.437744140625,0.017578125,-0.26171875,0.0935
1.5419847328244274,0.8396946564885496,-1.4961832061068703,-0.439453125,0.013671875,-0.2744140625,0.09519999999999999
1.6946564885496183,0.8549618320610687,-1.3129770992366412,-0.4375,0.014892578125,-0.272705078125,0.0969
1.83206106870229,1.0687022900763359,-1.465648854961832,-0.44140625,0.018798828125,-0.274658203125,0.0986
1.633587786259542,0.9465648854961832,-1.3893129770992367,-0.437744140625,0.01708984375,-0.2666015625,0.1003
1.633587786259542,1.1297709923664123,-1.450381679389313,-0.441162109375,0.020263671875,-0.268310546875,0.102
1.816793893129771,1.0687022900763359,-1.4961832061068703,-0.43603515625,0.0185546875,-0.27099609375,0.1037
1.816793893129771,1.099236641221374,-1.618320610687023,-0.436279296875,0.01513671875,-0.267578125,0.1054
1.7404580152671756,1.0076335877862594,-1.4351145038167938,-0.436279296875,0.0166015625,-0.269287109375,0.1071
1.7557251908396947,0.9618320610687023,-1.5877862595419847,-0.441650390625,0.018310546875,-0.272216796875,0.1088
1.8473282442748091,1.0229007633587786,-1.4351145038167938,-0.444091796875,0.0166015625,-0.272705078125,0.11049999999999999
1.7251908396946565,1.099236641221374,-1.5725190839694656,-0.43896484375,0.018798828125,-0.261474609375,0.1122
2.030534351145038,1.1297709923664123,-1.2061068702290076,-0.439208984375,0.018798828125,-0.273193359375,0.11389999999999999
1.9236641221374047,1.2061068702290076,-1.4351145038167938,-0.444580078125,0.023681640625,-0.272705078125,0.1156
1.786259541984733,1.0381679389312977,-1.450381679389313,-0.4384765625,0.018798828125,-0.280517578125,0.11729999999999999
1.816793893129771,1.0381679389312977,-1.4351145038167938,-0.44287109375,0.01806640625,-0.27197265625,0.119
1.8015267175572518,1.1145038167938932,-1.5114503816793894,-0.440673828125,0.021484375,-0.272705078125,0.12069999999999999
1.9694656488549618,0.9618320610687023,-1.6030534351145038,-0.438720703125,0.018798828125,-0.269775390625,0.1224
2.1526717557251906,1.0534351145038168,-1.5572519083969465,-0.440185546875,0.016845703125,-0.280517578125,0.12409999999999999
1.5877862595419847,1.1755725190839694,-1.450381679389313,-0.4375,0.01611328125,-0.279052734375,0.1258
1.7251908396946565,1.1450381679389312,-1.4961832061068703,-0.436279296875,0.0146484375,-0.2724609375,0.1275
1.9083969465648856,1.1603053435114503,-1.5877862595419847,-0.437255859375,0.017333984375,-0.272216796875,0.12919999999999998
1.9541984732824427,1.0534351145038168,-1.4809160305343512,-0.43798828125,0.0126953125,-0.277099609375,0.1309
1.984732824427481,1.0534351145038168,-1.4809160305343512,-0.43798828125,0.02001953125,-0.2783203125,0.1326
1.9389312977099236,1.1908396946564885,-1.450381679389313,-0.437744140625,0.016845703125,-0.270751953125,0.1343
2.0763358778625953,1.1145038167938932,-1.5572519083969465,-0.435302734375,0.015380859375,-0.273681640625,0.13599999999999998
2.0610687022900764,1.1450381679389312,-1.4961832061068703,-0.436279296875,0.012939453125,-0.275146484375,0.1377
1.8625954198473282,1.0381679389312977,-1.4198473282442747,-0.436767578125,0.01904296875,-0.268798828125,0.1394
1.9389312977099236,1.083969465648855,-1.465648854961832,-0.439453125,0.017578125,-0.276611328125,0.1411
2.1068702290076335,1.0534351145038168,-1.3587786259541985,-0.43505859375,0.0146484375,-0.271240234375,0.14279999999999998
1.9083969465648856,1.099236641221374,-1.3435114503816794,-0.43603515625,0.01416015625,-0.276123046875,0.1445
1.8625954198473282,1.083969465648855,-1.465648854961832,-0.43798828125,0.0166015625,-0.272216796875,0.1462
2.030534351145038,1.2366412213740459,-1.5114503816793894,-0.4375,0.019287109375,-0.274658203125,0.1479
2.1374045801526718,1.1908396946564885,-1.3893129770992367,-0.441162109375,0.016845703125,-0.273193359375,0.14959999999999998
2.0916030534351147,1.1908396946564885,-1.3282442748091603,-0.44140625,0.02001953125,-0.26953125,0.1513
1.8473282442748091,1.2366412213740459,-1.5572519083969465,-0.441650390625,0.015380859375,-0.271484375,0.153
1.9541984732824427,1.2671755725190839,-1.3740458015267176,-0.440185546875,0.013671875,-0.265380859375,0.1547
2.045801526717557,1.2366412213740459,-1.4961832061068703,-0.440185546875,0.022216796875,-0.275634765625,0.15639999999999998
2.122137404580153,1.0534351145038168,-1.618320610687023,-0.44189453125,0.019287109375,-0.273193359375,0.1581
2.1526717557251906,1.1755725190839694,-1.6946564885496183,-0.44091796875,0.016845703125,-0.268798828125,0.1598
2.1374045801526718,1.2213740458015268,-1.297709923664122,-0.441650390625,0.01904296875,-0.267333984375,0.1615
2.045801526717557,1.4045801526717556,-1.4045801526717556,-0.437255859375,0.021240234375,-0.271728515625,0.16319999999999998
2.0763358778625953,1.3129770992366412,-1.3587786259541985,-0.43994140625,0.017578125,-0.271484375,0.1649
1.9236641221374047,1.282442748091603,-1.633587786259542,-0.441650390625,0.0146484375,-0.279541015625,0.1666
2.16793893129771,1.3435114503816794,-1.5725190839694656,-0.44091796875,0.018310546875,-0.2763671875,0.16829999999999998
2.045801526717557,1.1297709923664123,-1.8473282442748091,-0.440185546875,0.015625,-0.2744140625,0.16999999999999998
1.9541984732824427,1.2213740458015268,-1.5572519083969465,-0.44091796875,0.01220703125,-0.275390625,0.1717
2.045801526717557,1.1450381679389312,-1.633587786259542,-0.439697265625,0.016845703125,-0.27001953125,0.1734
2.122137404580153,1.2061068702290076,-1.5419847328244274,-0.44189453125,0.01904296875,-0.264404296875,0.17509999999999998
1.9389312977099236,1.099236641221374,-1.450381679389313,-0.4375,0.015380859375,-0.27587890625,0.17679999999999998
1.9541984732824427,0.9923664122137404,-1.3893129770992367,-0.43408203125,0.016357421875,-0.276123046875,0.1785
2.0763358778625953,1.099236641221374,-1.450381679389313,-0.441162109375,0.019775390625,-0.2744140625,0.1802
1.816793893129771,1.251908396946565,-1.3587786259541985,-0.437744140625,0.02099609375,-0.276123046875,0.18189999999999998
1.984732824427481,1.099236641221374,-1.5114503816793894,-0.431396484375,0.0166015625,-0.27490234375,0.18359999999999999
1.8473282442748091,0.916030534351145,-1.282442748091603,-0.436767578125,0.011962890625,-0.273681640625,0.1853
1.8625954198473282,1.099236641221374,-1.3740458015267176,-0.4384765625,0.01416015625,-0.2734375,0.187
1.7404580152671756,1.2213740458015268,-1.282442748091603,-0.439208984375,0.013671875,-0.286865234375,0.18869999999999998
1.633587786259542,1.1145038167938932,-1.4045801526717556,-0.4404296875,0.0126953125,-0.2724609375,0.19039999999999999
1.9389312977099236,1.099236641221374,-1.282442748091603,-0.4423828125,0.018798828125,-0.266845703125,0.1921
1.7251908396946565,1.3587786259541985,-1.282442748091603,-0.4384765625,0.01708984375,-0.27001953125,0.1938
1.4961832061068703,1.1297709923664123,-1.2061068702290076,-0.4384765625,0.012939453125,-0.273193359375,0.19549999999999998
1.6946564885496183,1.2213740458015268,-1.3282442748091603,-0.440673828125,0.014404296875,-0.27783203125,0.1972
1.6641221374045803,1.1908396946564885,-1.2366412213740459,-0.439453125,0.013671875,-0.27099609375,0.1989
1.5114503816793894,1.1908396946564885,-1.2366412213740459,-0.443115234375,0.015869140625,-0.270751953125,0.2006
1.6946564885496183,1.4045801526717556,-1.1145038167938932,-0.43994140625,0.0185546875,-0.27392578125,0.20229999999999998
1.5419847328244274,1.3282442748091603,-1.282442748091603,-0.444580078125,0.0166015625,-0.265869140625,0.204
1.5725190839694656,1.3893129770992367,-1.2366412213740459,-0.43994140625,0.014404296875,-0.263427734375,0.2057
1.5725190839694656,1.3893129770992367,-1.3587786259541985,-0.4375,0.014892578125,-0.26611328125,0.2074
1.5114503816793894,1.3282442748091603,-1.251908396946565,-0.438232421875,0.014404296875,-0.26806640625,0.20909999999999998
1.5877862595419847,1.4961832061068703,-1.4198473282442747,-0.443359375,0.018310546875,-0.281494140625,0.2108
1.4809160305343512,1.450381679389313,-1.2061068702290076,-0.439208984375,0.0166015625,-0.27685546875,0.2125
1.5572519083969465,1.3587786259541985,-1.2061068702290076,-0.439453125,0.0185546875,-0.27490234375,0.2142
1.4351145038167938,1.5114503816793894,-1.2061068702290076,-0.434814453125,0.01904296875,-0.279541015625,0.21589999999999998
1.633587786259542,1.4961832061068703,-1.5267175572519085,-0.438232421875,0.014892578125,-0.2744140625,0.2176
1.6030534351145038,1.3435114503816794,-1.5877862595419847,-0.43994140625,0.02197265625,-0.27685546875,0.2193
1.6030534351145038,1.450381679389313,-1.6488549618320612,-0.441650390625,0.017822265625,-0.275634765625,0.22099999999999997
1.6793893129770991,1.251908396946565,-1.5572519083969465,-0.442138671875,0.021484375,-0.266845703125,0.22269999999999998
1.5877862595419847,1.450381679389313,-1.8473282442748091,-0.4384765625,0.016845703125,-0.27587890625,0.2244
1.465648854961832,1.3740458015267176,-1.9694656488549618,-0.43798828125,0.017333984375,-0.28369140625,0.2261
1.8015267175572518,1.297709923664122,-1.8931297709923665,-0.43505859375,0.01708984375,-0.271728515625,0.22779999999999997
1.7251908396946565,1.3740458015267176,-1.7557251908396947,-0.43359375,0.022216796875,-0.27880859375,0.22949999999999998
1.7709923664122138,1.3129770992366412,-2.183206106870229,-0.439208984375,0.01904296875,-0.279296875,0.2312
1.8625954198473282,1.297709923664122,-1.9236641221374047,-0.441162109375,0.02099609375,-0.26953125,0.2329
1.4809160305343512,1.2213740458015268,-2.122137404580153,-0.43798828125,0.015869140625,-0.282958984375,0.23459999999999998
1.786259541984733,1.282442748091603,-2.0,-0.439453125,0.016357421875,-0.276611328125,0.23629999999999998
1.8625954198473282,1.2671755725190839,-2.1068702290076335,-0.438232421875,0.015869140625,-0.277587890625,0.238
1.984732824427481,1.3435114503816794,-1.816793893129771,-0.43359375,0.01953125,-0.2705078125,0.2397
1.7251908396946565,1.4961832061068703,-2.0763358778625953,-0.4384765625,0.014892578125,-0.271240234375,0.24139999999999998
1.9083969465648856,1.4809160305343512,-2.122137404580153,-0.4345703125,0.0146484375,-0.2705078125,0.24309999999999998
1.9236641221374047,1.1450381679389312,-2.0916030534351147,-0.436279296875,0.0126953125,-0.273193359375,0.2448
1.7404580152671756,1.251908396946565,-1.984732824427481,-0.44091796875,0.014404296875,-0.279541015625,0.2465
1.633587786259542,1.3740458015267176,-2.16793893129771,-0.437255859375,0.011962890625,-0.275390625,0.24819999999999998
1.7251908396946565,1.2366412213740459,-2.16793893129771,-0.43603515625,0.01708984375,-0.279541015625,0.24989999999999998
1.984732824427481,1.1603053435114503,-2.1068702290076335,-0.434326171875,0.01708984375,-0.273193359375,0.2516
1.83206106870229,1.2366412213740459,-2.122137404580153,-0.43798828125,0.01611328125,-0.268798828125,0.25329999999999997
1.633587786259542,1.2061068702290076,-2.045801526717557,-0.43701171875,0.013427734375,-0.27490234375,0.255
1.7404580152671756,1.099236641221374,-2.030534351145038,-0.433837890625,0.01904296875,-0.27685546875,0.2567
1.7557251908396947,1.1603053435114503,-1.9389312977099236,-0.4384765625,0.01318359375,-0.266845703125,0.25839999999999996
1.7251908396946565,1.083969465648855,-1.83206106870229,-0.441162109375,0.012451171875,-0.2763671875,0.2601
1.633587786259542,1.099236641221374,-1.8473282442748091,-0.436279296875,0.01123046875,-0.27587890625,0.2618
1.7404580152671756,0.9465648854961832,-1.7404580152671756,-0.435546875,0.014892578125,-0.266845703125,0.2635
1.5572519083969465,0.9923664122137404,-1.8778625954198473,-0.431640625,0.017333984375,-0.26611328125,0.2652
1.5572519083969465,0.9465648854961832,-1.984732824427481,-0.433349609375,0.012451171875,-0.2705078125,0.26689999999999997
1.6793893129770991,0.916030534351145,-1.8473282442748091,-0.437744140625,0.01220703125,-0.2666015625,0.2686
1.4045801526717556,0.6259541984732825,-1.633587786259542,-0.435546875,0.010498046875,-0.265869140625,0.2703
1.5114503816793894,0.8244274809160306,-1.8625954198473282,-0.436767578125,0.0126953125,-0.269287109375,0.27199999999999996
1.450381679389313,0.8091603053435115,-1.7709923664122138,-0.435302734375,0.015869140625,-0.272216796875,0.2737
1.4809160305343512,0.6717557251908397,-1.6793893129770991,-0.435302734375,0.014404296875,-0.27734375,0.2754
1.7557251908396947,0.6259541984732825,-1.6030534351145038,-0.4326171875,0.0126953125,-0.2734375,0.27709999999999996
1.7709923664122138,0.6106870229007634,-1.6488549618320612,-0.434814453125,0.015380859375,-0.279052734375,0.2788
1.6793893129770991,0.549618320610687,-1.6641221374045803,-0.4345703125,0.015380859375,-0.271728515625,0.28049999999999997
1.7557251908396947,0.4580152671755725,-1.816793893129771,-0.43310546875,0.01611328125,-0.26806640625,0.2822
1.3587786259541985,0.5038167938931297,-1.633587786259542,-0.433349609375,0.01220703125,-0.272216796875,0.2839
1.4961832061068703,0.22900763358778625,-1.633587786259542,-0.4345703125,0.014892578125,-0.275390625,0.28559999999999997
1.5877862595419847,0.3511450381679389,-1.633587786259542,-0.43603515625,0.01318359375,-0.2734375,0.2873
1.5572519083969465,0.24427480916030533,-1.5877862595419847,-0.427978515625,0.0166015625,-0.263671875,0.289
1.5572519083969465,0.2595419847328244,-1.5267175572519085,-0.43603515625,0.01904296875,-0.268798828125,0.29069999999999996
1.7251908396946565,0.030534351145038167,-1.5725190839694656,-0.44091796875,0.01953125,-0.273193359375,0.2924
1.6946564885496183,0.13740458015267176,-1.7251908396946565,-0.43310546875,0.01416015625,-0.269287109375,0.2941
1.8931297709923665,0.24427480916030533,-1.7251908396946565,-0.435302734375,0.01513671875,-0.274658203125,0.2958
1.8473282442748091,-0.015267175572519083,-1.8625954198473282,-0.429931640625,0.0146484375,-0.264892578125,0.2975
1.7251908396946565,-0.1984732824427481,-1.7557251908396947,-0.43115234375,0.0146484375,-0.26953125,0.29919999999999997
1.5419847328244274,-0.10687022900763359,-1.6488549618320612,-0.434326171875,0.01318359375,-0.275146484375,0.3009
1.8931297709923665,-0.24427480916030533,-1.786259541984733,-0.43310546875,0.019287109375,-0.27685546875,0.3026
2.0,-0.12213740458015267,-1.8015267175572518,-0.435791015625,0.0166015625,-0.26904296875,0.30429999999999996
1.6946564885496183,-0.21374045801526717,-1.816793893129771,-0.435791015625,0.0146484375,-0.275390625,0.306
1.6488549618320612,-0.3816793893129771,-1.7709923664122138,-0.43603515625,0.01611328125,-0.276611328125,0.3077
1.618320610687023,-0.42748091603053434,-1.6488549618320612,-0.443359375,0.01416015625,-0.273681640625,0.3094
1.9236641221374047,-0.2595419847328244,-1.4045801526717556,-0.442138671875,0.01416015625,-0.279052734375,0.3111
1.6946564885496183,-0.5038167938931297,-1.8015267175572518,-0.438232421875,0.01318359375,-0.272705078125,0.31279999999999997
1.7709923664122138,-0.366412213740458,-1.5725190839694656,-0.44482421875,0.014892578125,-0.275634765625,0.3145
1.8015267175572518,-0.4580152671755725,-1.3893129770992367,-0.44091796875,0.01025390625,-0.276123046875,0.3162
1.7404580152671756,-0.366412213740458,-1.4961832061068703,-0.44677734375,0.0166015625,-0.27099609375,0.31789999999999996
1.6641221374045803,-0.32061068702290074,-1.450381679389313,-0.438232421875,0.017578125,-0.2685546875,0.3196
1.9541984732824427,-0.3511450381679389,-1.5877862595419847,-0.43701171875,0.016357421875,-0.2705078125,0.3213
1.6488549618320612,-0.2748091603053435,-1.5572519083969465,-0.43994140625,0.013916015625,-0.275390625,0.323
1.7557251908396947,-0.4122137404580153,-1.3435114503816794,-0.440673828125,0.01416015625,-0.2705078125,0.3247
1.6030534351145038,-0.3969465648854962,-1.465648854961832,-0.4345703125,0.013916015625,-0.27099609375,0.32639999999999997
1.7099236641221374,-0.3816793893129771,-1.4809160305343512,-0.43701171875,0.017333984375,-0.27197265625,0.3281
1.8473282442748091,-0.15267175572519084,-1.4961832061068703,-0.439697265625,0.014404296875,-0.2734375,0.3298
1.9083969465648856,-0.33587786259541985,-1.3435114503816794,-0.442138671875,0.016357421875,-0.27197265625,0.33149999999999996
1.5419847328244274,-0.07633587786259542,-1.1145038167938932,-0.436279296875,0.014892578125,-0.268798828125,0.3332
1.633587786259542,-0.183206106870229,-1.2213740458015268,-0.43505859375,0.016845703125,-0.268310546875,0.3349
1.7099236641221374,-0.061068702290076333,-1.1603053435114503,-0.441162109375,0.015625,-0.265869140625,0.33659999999999995
1.7557251908396947,-0.0916030534351145,-1.1908396946564885,-0.44140625,0.014404296875,-0.268798828125,0.3383
1.6793893129770991,0.015267175572519083,-1.1755725190839694,-0.441162109375,0.01611328125,-0.272705078125,0.33999999999999997
1.5572519083969465,-0.061068702290076333,-1.297709923664122,-0.43701171875,0.018798828125,-0.26416015625,0.3417
1.8015267175572518,0.030534351145038167,-1.1145038167938932,-0.436767578125,0.01806640625,-0.274169921875,0.3434
1.6488549618320612,0.07633587786259542,-1.0687022900763359,-0.446044921875,0.019775390625,-0.2802734375,0.34509999999999996
1.4351145038167938,-0.015267175572519083,-0.9770992366412213,-0.436767578125,0.014404296875,-0.2685546875,0.3468
1.6793893129770991,0.0916030534351145,-0.916030534351145,-0.436767578125,0.015869140625,-0.269775390625,0.3485
1.7099236641221374,0.13740458015267176,-1.0534351145038168,-0.4404296875,0.014892578125,-0.2685546875,0.35019999999999996
1.6793893129770991,0.04580152671755725,-1.0229007633587786,-0.438232421875,0.017578125,-0.26904296875,0.3519
1.6946564885496183,0.13740458015267176,-0.9618320610687023,-0.439208984375,0.022216796875,-0.273681640625,0.35359999999999997
1.6030534351145038,0.13740458015267176,-0.9923664122137404,-0.43798828125,0.0185546875,-0.28076171875,0.3553
1.4961832061068703,0.21374045801526717,-0.9007633587786259,-0.43798828125,0.01513671875,-0.277587890625,0.357
1.4198473282442747,0.15267175572519084,-1.1603053435114503,-0.44091796875,0.0146484375,-0.283935546875,0.35869999999999996
1.4351145038167938,0.33587786259541985,-0.9465648854961832,-0.44140625,0.013916015625,-0.282958984375,0.3604
1.4809160305343512,0.3511450381679389,-1.083969465648855,-0.43896484375,0.02099609375,-0.2685546875,0.3621
1.5725190839694656,0.3511450381679389,-1.1603053435114503,-0.4443359375,0.017333984375,-0.280029296875,0.36379999999999996
1.4809160305343512,0.33587786259541985,-1.1908396946564885,-0.435791015625,0.021240234375,-0.275634765625,0.3655
1.633587786259542,0.3816793893129771,-1.083969465648855,-0.4443359375,0.017333984375,-0.267333984375,0.36719999999999997
1.5877862595419847,0.5801526717557252,-1.2061068702290076,-0.444091796875,0.0185546875,-0.27001953125,0.3689
1.3587786259541985,0.5190839694656488,-1.0687022900763359,-0.4404296875,0.02197265625,-0.275390625,0.3706
1.6030534351145038,0.366412213740458,-1.1755725190839694,-0.4423828125,0.02099609375,-0.27392578125,0.37229999999999996
1.4809160305343512,0.4580152671755725,-1.099236641221374,-0.439453125,0.0166015625,-0.272216796875,0.374
1.6946564885496183,0.6106870229007634,-1.2366412213740459,-0.435791015625,0.014892578125,-0.27392578125,0.3757
1.5114503816793894,0.4732824427480916,-1.251908396946565,-0.440185546875,0.01611328125,-0.271240234375,0.37739999999999996
1.5419847328244274,0.7022900763358778,-1.3435114503816794,-0.43505859375,0.01708984375,-0.27392578125,0.3791
1.786259541984733,0.7786259541984732,-1.251908396946565,-0.44287109375,0.013916015625,-0.275634765625,0.38079999999999997
1.618320610687023,0.6106870229007634,-1.4045801526717556,-0.439697265625,0.01318359375,-0.271728515625,0.38249999999999995
1.4198473282442747,0.5648854961832062,-1.4045801526717556,-0.442626953125,0.015380859375,-0.275634765625,0.3842
1.618320610687023,0.4580152671755725,-1.4198473282442747,-0.43701171875,0.016845703125,-0.273681640625,0.38589999999999997
1.8473282442748091,0.5038167938931297,-1.251908396946565,-0.44091796875,0.013916015625,-0.2705078125,0.3876
1.6030534351145038,0.6106870229007634,-1.5267175572519085,-0.439453125,0.021728515625,-0.27587890625,0.3893
1.6641221374045803,0.7480916030534351,-1.3740458015267176,-0.440185546875,0.0205078125,-0.268310546875,0.39099999999999996
1.618320610687023,0.6717557251908397,-1.3893129770992367,-0.439208984375,0.0185546875,-0.260009765625,0.3927
1.7251908396946565,0.8091603053435115,-1.4961832061068703,-0.43994140625,0.019775390625,-0.273193359375,0.3944
1.7557251908396947,0.732824427480916,-1.4351145038167938,-0.44287109375,0.018310546875,-0.2666015625,0.39609999999999995
1.6946564885496183,0.6870229007633588,-1.3129770992366412,-0.438232421875,0.01806640625,-0.27099609375,0.3978
1.5267175572519085,0.6106870229007634,-1.5877862595419847,-0.43896484375,0.017578125,-0.26806640625,0.39949999999999997
1.7557251908396947,0.8091603053435115,-1.5419847328244274,-0.441162109375,0.018310546875,-0.273681640625,0.4012
1.7557251908396947,0.7633587786259542,-1.4045801526717556,-0.43359375,0.014404296875,-0.277587890625,0.4029
1.7709923664122138,0.6412213740458015,-1.2671755725190839,-0.434326171875,0.015380859375,-0.274169921875,0.40459999999999996
1.786259541984733,0.8549618320610687,-1.450381679389313,-0.435791015625,0.015869140625,-0.273681640625,0.4063
1.6641221374045803,0.9007633587786259,-1.4351145038167938,-0.4345703125,0.01708984375,-0.26513671875,0.408
1.7557251908396947,0.5801526717557252,-1.6641221374045803,-0.434814453125,0.013427734375,-0.272216796875,0.40969999999999995
1.6793893129770991,0.4732824427480916,-1.6946564885496183,-0.438232421875,0.0205078125,-0.267822265625,0.4114
1.7404580152671756,0.7022900763358778,-1.450381679389313,-0.439453125,0.013427734375,-0.26904296875,0.41309999999999997
1.6488549618320612,0.6259541984732825,-1.5267175572519085,-0.438232421875,0.01123046875,-0.269775390625,0.4148
1.5419847328244274,0.5343511450381679,-1.6030534351145038,-0.4345703125,0.017333984375,-0.2802734375,0.4165
1.7251908396946565,0.5648854961832062,-1.3740458015267176,-0.431884765625,0.0205078125,-0.275390625,0.41819999999999996
1.5114503816793894,0.6717557251908397,-1.4045801526717556,-0.43505859375,0.0185546875,-0.280517578125,0.4199
1.5572519083969465,0.732824427480916,-1.4351145038167938,-0.436767578125,0.017578125,-0.27001953125,0.4216
1.786259541984733,0.549618320610687,-1.4198473282442747,-0.434326171875,0.017333984375,-0.28125,0.42329999999999995
1.618320610687023,0.6870229007633588,-1.2213740458015268,-0.434326171875,0.0126953125,-0.27001953125,0.425
1.6030534351145038,0.8549618320610687,-1.4045801526717556,-0.43798828125,0.016357421875,-0.27392578125,0.42669999999999997
1.633587786259542,0.7480916030534351,-1.1145038167938932,-0.440673828125,0.01708984375,-0.26611328125,0.4284
1.5572519083969465,0.6106870229007634,-1.5419847328244274,-0.441162109375,0.018798828125,-0.271484375,0.4301
1.6793893129770991,0.732824427480916,-1.2366412213740459,-0.434326171875,0.01806640625,-0.27490234375,0.43179999999999996
1.633587786259542,0.8549618320610687,-1.1450381679389312,-0.440185546875,0.023681640625,-0.269287109375,0.4335
1.633587786259542,1.0076335877862594,-1.297709923664122,-0.436767578125,0.017578125,-0.264892578125,0.4352
1.6793893129770991,0.916030534351145,-1.2061068702290076,-0.435546875,0.01708984375,-0.269775390625,0.43689999999999996
1.6946564885496183,0.916030534351145,-1.1603053435114503,-0.437255859375,0.015869140625,-0.264404296875,0.4386
1.5267175572519085,0.9618320610687023,-1.1450381679389312,-0.439453125,0.01416015625,-0.279296875,0.44029999999999997
1.5877862595419847,0.9007633587786259,-1.2366412213740459,-0.439453125,0.0166015625,-0.272216796875,0.44199999999999995
1.5572519083969465,0.732824427480916,-1.2366412213740459,-0.441650390625,0.013916015625,-0.272705078125,0.4437
1.83206106870229,1.0534351145038168,-1.2061068702290076,-0.43505859375,0.019775390625,-0.2705078125,0.44539999999999996
1.816793893129771,1.0381679389312977,-1.2366412213740459,-0.442138671875,0.01416015625,-0.278076171875,0.4471
1.5725190839694656,1.1603053435114503,-1.1908396946564885,-0.439208984375,0.018798828125,-0.283935546875,0.4488
1.5725190839694656,0.9923664122137404,-1.1908396946564885,-0.437255859375,0.01708984375,-0.271240234375,0.45049999999999996
1.6946564885496183,0.9770992366412213,-1.1908396946564885,-0.445556640625,0.01123046875,-0.275146484375,0.4522
1.7709923664122138,0.9923664122137404,-1.4045801526717556,-0.43798828125,0.01220703125,-0.279296875,0.45389999999999997
1.8473282442748091,1.1755725190839694,-1.3282442748091603,-0.43994140625,0.0185546875,-0.268798828125,0.45559999999999995
1.7709923664122138,1.2061068702290076,-1.3587786259541985,-0.4404296875,0.017333984375,-0.26904296875,0.4573
1.816793893129771,1.297709923664122,-1.2061068702290076,-0.4326171875,0.018798828125,-0.27783203125,0.45899999999999996
1.8625954198473282,1.2671755725190839,-1.450381679389313,-0.435791015625,0.01708984375,-0.281494140625,0.4607
1.7099236641221374,1.1145038167938932,-1.4045801526717556,-0.44287109375,0.016845703125,-0.2734375,0.4624
1.7251908396946565,1.251908396946565,-1.4809160305343512,-0.440185546875,0.020751953125,-0.264404296875,0.46409999999999996
1.7404580152671756,1.2061068702290076,-1.5877862595419847,-0.438720703125,0.017822265625,-0.268310546875,0.4658
1.816793893129771,1.1450381679389312,-1.5877862595419847,-0.442138671875,0.014892578125,-0.275146484375,0.46749999999999997
1.9541984732824427,1.1297709923664123,-1.5725190839694656,-0.4453125,0.017333984375,-0.271240234375,0.46919999999999995
1.9389312977099236,1.3129770992366412,-1.786259541984733,-0.4375,0.02294921875,-0.265625,0.4709
1.9694656488549618,1.3740458015267176,-1.5877862595419847,-0.444091796875,0.018798828125,-0.271240234375,0.47259999999999996
1.9541984732824427,1.3435114503816794,-1.4809160305343512,-0.43896484375,0.01708984375,-0.278564453125,0.4743
1.7557251908396947,1.4198473282442747,-1.6641221374045803,-0.44091796875,0.013427734375,-0.27294921875,0.476
2.0,1.5267175572519085,-1.6946564885496183,-0.443603515625,0.016357421875,-0.26611328125,0.47769999999999996
2.030534351145038,1.4198473282442747,-1.618320610687023,-0.441162109375,0.012939453125,-0.261474609375,0.4794
1.9541984732824427,1.4961832061068703,-1.5877862595419847,-0.441162109375,0.017822265625,-0.283935546875,0.48109999999999997
2.1374045801526718,1.3435114503816794,-1.5419847328244274,-0.4404296875,0.0126953125,-0.27490234375,0.48279999999999995
2.015267175572519,1.4961832061068703,-1.7099236641221374,-0.43994140625,0.0205078125,-0.273681640625,0.4845
2.0610687022900764,1.6641221374045803,-1.450381679389313,-0.440185546875,0.016357421875,-0.2705078125,0.48619999999999997
2.045801526717557,1.633587786259542,-1.5572519083969465,-0.443359375,0.0185546875,-0.2646484375,0.4879
2.122137404580153,1.6030534351145038,-1.3893129770992367,-0.437255859375,0.018310546875,-0.268310546875,0.4896
2.045801526717557,1.5725190839694656,-1.5114503816793894,-0.441650390625,0.01611328125,-0.268798828125,0.49129999999999996
2.0610687022900764,1.633587786259542,-1.4198473282442747,-0.4404296875,0.017822265625,-0.27978515625,0.493
1.984732824427481,1.4045801526717556,-1.4961832061068703,-0.44189453125,0.01708984375,-0.27587890625,0.4947
1.9694656488549618,1.4198473282442747,-1.3282442748091603,-0.437744140625,0.024658203125,-0.274169921875,0.49639999999999995
1.9389312977099236,1.5114503816793894,-1.4198473282442747,-0.44189453125,0.00927734375,-0.280517578125,0.4981
1.6946564885496183,1.6641221374045803,-1.297709923664122,-0.44091796875,0.013427734375,-0.2705078125,0.49979999999999997
1.9389312977099236,1.5877862595419847,-1.465648854961832,-0.438720703125,0.012451171875,-0.272705078125,0.5015
1.8625954198473282,1.5725190839694656,-1.450381679389313,-0.43798828125,0.018798828125,-0.271484375,0.5032
1.7404580152671756,1.5267175572519085,-1.3740458015267176,-0.43896484375,0.020263671875,-0.26904296875,0.5049
2.1374045801526718,1.7709923664122138,-1.1908396946564885,-0.436767578125,0.018798828125,-0.2705078125,0.5065999999999999
2.030534351145038,1.5877862595419847,-1.3587786259541985,-0.439208984375,0.01220703125,-0.26904296875,0.5083
1.8473282442748091,1.450381679389313,-1.4045801526717556,-0.43701171875,0.017333984375,-0.274658203125,0.51
1.8015267175572518,1.6030534351145038,-1.297709923664122,-0.4326171875,0.017822265625,-0.2646484375,0.5116999999999999
2.0,1.5419847328244274,-1.3129770992366412,-0.439453125,0.0107421875,-0.26318359375,0.5134
1.9389312977099236,1.465648854961832,-1.251908396946565,-0.4404296875,0.019775390625,-0.272705078125,0.5151
1.786259541984733,1.2671755725190839,-1.1908396946564885,-0.4384765625,0.017333984375,-0.2763671875,0.5167999999999999
1.786259541984733,1.3129770992366412,-1.3435114503816794,-0.437744140625,0.0166015625,-0.2783203125,0.5185
1.9083969465648856,1.3587786259541985,-1.3893129770992367,-0.440673828125,0.01611328125,-0.2734375,0.5202
2.1068702290076335,1.3893129770992367,-1.5114503816793894,-0.438720703125,0.018310546875,-0.26953125,0.5218999999999999
1.7099236641221374,1.3129770992366412,-1.3435114503816794,-0.43798828125,0.017822265625,-0.275634765625,0.5236
2.0610687022900764,1.2366412213740459,-1.3893129770992367,-0.442138671875,0.017333984375,-0.2734375,0.5253
2.1374045801526718,1.4809160305343512,-1.4198473282442747,-0.437744140625,0.009033203125,-0.2685546875,0.527
1.9389312977099236,1.3740458015267176,-1.5267175572519085,-0.437744140625,0.01806640625,-0.279052734375,0.5287
1.9083969465648856,1.1755725190839694,-1.4961832061068703,-0.44384765625,0.02001953125,-0.267333984375,0.5304
2.045801526717557,1.3435114503816794,-1.5419847328244274,-0.44287109375,0.022705078125,-0.2744140625,0.5321
2.1068702290076335,1.0687022900763359,-1.4198473282442747,-0.440673828125,0.022705078125,-0.275390625,0.5337999999999999
2.030534351145038,1.083969465648855,-1.4045801526717556,-0.437255859375,0.019775390625,-0.271240234375,0.5355
2.0916030534351147,1.1145038167938932,-1.5877862595419847,-0.43603515625,0.01708984375,-0.2724609375,0.5372
2.045801526717557,1.251908396946565,-1.618320610687023,-0.433837890625,0.017333984375,-0.274169921875,0.5388999999999999
2.1068702290076335,1.2213740458015268,-1.4809160305343512,-0.4345703125,0.020263671875,-0.274169921875,0.5406
2.2900763358778624,1.1603053435114503,-1.5877862595419847,-0.43310546875,0.018798828125,-0.273193359375,0.5423
2.213740458015267,1.0076335877862594,-1.4198473282442747,-0.43505859375,0.019287109375,-0.271728515625,0.5439999999999999
2.3053435114503817,0.9312977099236641,-1.5877862595419847,-0.44091796875,0.0166015625,-0.272216796875,0.5457
2.198473282442748,1.0381679389312977,-1.6488549618320612,-0.435302734375,0.017822265625,-0.27001953125,0.5474
2.427480916030534,0.9465648854961832,-1.633587786259542,-0.434326171875,0.01611328125,-0.2744140625,0.5490999999999999
2.2595419847328246,1.0076335877862594,-1.5267175572519085,-0.43798828125,0.017578125,-0.27392578125,0.5508
2.2748091603053435,0.916030534351145,-1.5877862595419847,-0.435546875,0.02001953125,-0.26904296875,0.5525
2.3206106870229006,0.8091603053435115,-1.6030534351145038,-0.437744140625,0.013427734375,-0.2705078125,0.5541999999999999
2.213740458015267,1.0229007633587786,-1.6488549618320612,-0.43701171875,0.013427734375,-0.271728515625,0.5559
2.3206106870229006,0.8854961832061069,-1.6641221374045803,-0.4384765625,0.015869140625,-0.2685546875,0.5576
2.351145038167939,0.9770992366412213,-1.6641221374045803,-0.43408203125,0.0185546875,-0.273193359375,0.5593
2.3969465648854964,0.8549618320610687,-1.5114503816793894,-0.436279296875,0.02099609375,-0.272216796875,0.5609999999999999
2.4427480916030535,0.7633587786259542,-1.4809160305343512,-0.434814453125,0.016845703125,-0.269775390625,0.5627
2.4122137404580153,0.9770992366412213,-1.633587786259542,-0.436279296875,0.01611328125,-0.2724609375,0.5644
2.351145038167939,0.916030534351145,-1.6488549618320612,-0.4384765625,0.020263671875,-0.27685546875,0.5660999999999999
2.564885496183206,0.7022900763358778,-1.5877862595419847,-0.439453125,0.0205078125,-0.270751953125,0.5678
2.4732824427480917,0.7938931297709924,-1.3893129770992367,-0.4375,0.0224609375,-0.2783203125,0.5695
2.3969465648854964,0.9618320610687023,-1.4045801526717556,-0.4365234375,0.015380859375,-0.272216796875,0.5711999999999999
2.5343511450381677,0.9007633587786259,-1.5572519083969465,-0.43896484375,0.01513671875,-0.262939453125,0.5729
2.564885496183206,0.6870229007633588,-1.5267175572519085,-0.4326171875,0.017822265625,-0.27978515625,0.5746
2.4580152671755724,0.9923664122137404,-1.4961832061068703,-0.441650390625,0.014404296875,-0.268798828125,0.5762999999999999
2.366412213740458,0.9007633587786259,-1.4961832061068703,-0.4384765625,0.015625,-0.2578125,0.578
2.3206106870229006,0.6870229007633588,-1.5419847328244274,-0.43798828125,0.019287109375,-0.270751953125,0.5797
2.3969465648854964,0.7938931297709924,-1.3893129770992367,-0.438232421875,0.018310546875,-0.27099609375,0.5813999999999999
2.4732824427480917,0.916030534351145,-1.465648854961832,-0.44140625,0.01513671875,-0.27783203125,0.5831
2.3969465648854964,0.9312977099236641,-1.5419847328244274,-0.442138671875,0.013916015625,-0.272705078125,0.5848
2.6717557251908395,0.9312977099236641,-1.4198473282442747,-0.439208984375,0.0146484375,-0.259765625,0.5865
2.381679389312977,0.8396946564885496,-1.4198473282442747,-0.43798828125,0.014892578125,-0.2744140625,0.5882
2.427480916030534,0.7633587786259542,-1.3282442748091603,-0.440185546875,0.018310546875,-0.272216796875,0.5899
2.4732824427480917,0.8854961832061069,-1.4961832061068703,-0.439453125,0.018310546875,-0.272705078125,0.5916
2.519083969465649,0.8702290076335878,-1.3282442748091603,-0.434326171875,0.013916015625,-0.2802734375,0.5932999999999999
2.4122137404580153,0.8091603053435115,-1.3282442748091603,-0.439208984375,0.013671875,-0.277587890625,0.595
2.4427480916030535,0.9923664122137404,-1.4351145038167938,-0.4384765625,0.020751953125,-0.26904296875,0.5967
2.3969465648854964,0.8244274809160306,-1.4351145038167938,-0.435302734375,0.015869140625,-0.271240234375,0.5983999999999999
2.6412213740458017,0.8244274809160306,-1.4351145038167938,-0.4326171875,0.016845703125,-0.271484375,0.6001
2.351145038167939,0.8396946564885496,-1.3587786259541985,-0.44287109375,0.01025390625,-0.273193359375,0.6018
2.4732824427480917,0.8091603053435115,-1.4961832061068703,-0.4375,0.015625,-0.27197265625,0.6034999999999999
2.5343511450381677,0.7633587786259542,-1.4045801526717556,-0.4384765625,0.013671875,-0.27490234375,0.6052
2.366412213740458,0.8091603053435115,-1.3129770992366412,-0.442138671875,0.017822265625,-0.261474609375,0.6069
2.549618320610687,0.8244274809160306,-1.465648854961832,-0.441650390625,0.01708984375,-0.2724609375,0.6085999999999999
2.6106870229007635,0.9007633587786259,-1.5572519083969465,-0.439453125,0.01318359375,-0.27001953125,0.6103
2.366412213740458,0.8854961832061069,-1.4045801526717556,-0.435546875,0.01904296875,-0.268310546875,0.612
2.564885496183206,0.9923664122137404,-1.4809160305343512,-0.43994140625,0.01953125,-0.273193359375,0.6136999999999999
2.3969465648854964,1.0076335877862594,-1.618320610687023,-0.436279296875,0.015380859375,-0.271728515625,0.6154
2.5343511450381677,0.916030534351145,-1.4045801526717556,-0.435546875,0.01318359375,-0.272216796875,0.6171
2.4885496183206106,1.1603053435114503,-1.6793893129770991,-0.4345703125,0.0185546875,-0.27783203125,0.6188
2.4580152671755724,0.8854961832061069,-1.5267175572519085,-0.4345703125,0.016845703125,-0.266845703125,0.6204999999999999
2.4427480916030535,0.8702290076335878,-1.4961832061068703,-0.43701171875,0.014404296875,-0.2724609375,0.6222
2.4885496183206106,0.9465648854961832,-1.5114503816793894,-0.4384765625,0.01416015625,-0.272216796875,0.6239
2.6106870229007635,0.8702290076335878,-1.633587786259542,-0.439697265625,0.01953125,-0.274658203125,0.6255999999999999
2.4122137404580153,0.9312977099236641,-1.6030534351145038,-0.4404296875,0.015625,-0.266845703125,0.6273
2.549618320610687,0.8091603053435115,-1.633587786259542,-0.437255859375,0.0234375,-0.27099609375,0.629
2.4122137404580153,0.8396946564885496,-1.816793893129771,-0.437744140625,0.01025390625,-0.275146484375,0.6306999999999999
2.3053435114503817,0.8396946564885496,-1.5725190839694656,-0.44384765625,0.012939453125,-0.2705078125,0.6324
2.3969465648854964,1.0076335877862594,-1.6641221374045803,-0.443603515625,0.012939453125,-0.266357421875,0.6341
2.549618320610687,0.9923664122137404,-1.816793893129771,-0.43701171875,0.01171875,-0.275390625,0.6357999999999999
2.427480916030534,0.8091603053435115,-1.7099236641221374,-0.435302734375,0.01123046875,-0.277587890625,0.6375
2.732824427480916,0.916030534351145,-1.6488549618320612,-0.441650390625,0.01708984375,-0.27587890625,0.6392
2.687022900763359,0.9618320610687023,-1.6793893129770991,-0.43896484375,0.015625,-0.275634765625,0.6408999999999999
2.4885496183206106,0.916030534351145,-1.6793893129770991,-0.43701171875,0.0166015625,-0.2705078125,0.6426
2.4885496183206106,0.9312977099236641,-1.8015267175572518,-0.439208984375,0.014404296875,-0.271484375,0.6443
2.3969465648854964,0.7786259541984732,-1.7251908396946565,-0.4375,0.01708984375,-0.27734375,0.646
2.6106870229007635,0.6717557251908397,-1.6488549618320612,-0.4375,0.015380859375,-0.269287109375,0.6476999999999999
2.549618320610687,0.8244274809160306,-1.7251908396946565,-0.437744140625,0.019287109375,-0.272216796875,0.6494
2.3206106870229006,0.9618320610687023,-1.7099236641221374,-0.43994140625,0.0166015625,-0.2724609375,0.6511
2.427480916030534,0.8091603053435115,-1.7099236641221374,-0.43603515625,0.0166015625,-0.269287109375,0.6527999999999999
2.549618320610687,0.7938931297709924,-1.6641221374045803,-0.435302734375,0.011474609375,-0.278564453125,0.6545
2.183206106870229,0.8854961832061069,-1.7709923664122138,-0.440185546875,0.0205078125,-0.27587890625,0.6562
2.2442748091603053,0.9618320610687023,-1.7557251908396947,-0.435791015625,0.013427734375,-0.270263671875,0.6578999999999999
2.4732824427480917,0.8702290076335878,-1.7251908396946565,-0.439208984375,0.014892578125,-0.268798828125,0.6596
2.549618320610687,0.916030534351145,-1.6641221374045803,-0.43896484375,0.011962890625,-0.2734375,0.6613
2.2748091603053435,0.916030534351145,-1.6488549618320612,-0.43798828125,0.013916015625,-0.2685546875,0.6629999999999999
2.351145038167939,0.8854961832061069,-1.6946564885496183,-0.435546875,0.018310546875,-0.271240234375,0.6647
2.427480916030534,0.8244274809160306,-1.6946564885496183,-0.43603515625,0.01416015625,-0.264404296875,0.6664
2.351145038167939,0.6870229007633588,-1.5572519083969465,-0.441162109375,0.018798828125,-0.270751953125,0.6680999999999999
2.381679389312977,0.8396946564885496,-1.6488549618320612,-0.43701171875,0.017578125,-0.273193359375,0.6698
2.50381679389313,0.8396946564885496,-1.6030534351145038,-0.438232421875,0.013427734375,-0.2724609375,0.6715
2.33587786259542,0.8396946564885496,-1.6946564885496183,-0.44091796875,0.016845703125,-0.27490234375,0.6731999999999999
2.427480916030534,0.7022900763358778,-1.5267175572519085,-0.435546875,0.01220703125,-0.269775390625,0.6748999999999999
2.2290076335877864,0.8244274809160306,-1.786259541984733,-0.438232421875,0.01611328125,-0.271240234375,0.6766
2.3206106870229006,0.7938931297709924,-1.633587786259542,-0.4384765625,0.013427734375,-0.266357421875,0.6783
2.2900763358778624,0.9618320610687023,-1.6793893129770991,-0.4345703125,0.01513671875,-0.2734375,0.6799999999999999
2.3053435114503817,0.916030534351145,-1.786259541984733,-0.435302734375,0.01708984375,-0.27685546875,0.6817
2.351145038167939,0.8091603053435115,-1.633587786259542,-0.435546875,0.014892578125,-0.274169921875,0.6834
2.2900763358778624,0.7786259541984732,-1.5267175572519085,-0.43310546875,0.01904296875,-0.27685546875,0.6850999999999999
2.351145038167939,0.8854961832061069,-1.5419847328244274,-0.438232421875,0.01513671875,-0.2705078125,0.6868
2.2442748091603053,0.9465648854961832,-1.6488549618320612,-0.441650390625,0.016845703125,-0.27001953125,0.6885
2.2748091603053435,0.8702290076335878,-1.7099236641221374,-0.43408203125,0.017578125,-0.26904296875,0.6901999999999999
2.183206106870229,0.7786259541984732,-1.5877862595419847,-0.44091796875,0.011962890625,-0.270263671875,0.6919
2.1374045801526718,0.7786259541984732,-1.6793893129770991,-0.4375,0.01513671875,-0.2734375,0.6936
2.198473282442748,0.9007633587786259,-1.7404580152671756,-0.439697265625,0.01611328125,-0.280517578125,0.6952999999999999
2.1526717557251906,0.8854961832061069,-1.7404580152671756,-0.439453125,0.01220703125,-0.273193359375,0.697
2.3969465648854964,1.0687022900763359,-1.618320610687023,-0.442626953125,0.018310546875,-0.270263671875,0.6987
2.2290076335877864,0.8396946564885496,-1.5267175572519085,-0.44091796875,0.017822265625,-0.273193359375,0.7003999999999999
2.045801526717557,0.7022900763358778,-1.465648854961832,-0.4326171875,0.018310546875,-0.2705078125,0.7021
2.122137404580153,0.9007633587786259,-1.465648854961832,-0.434814453125,0.015869140625,-0.269775390625,0.7038
2.1526717557251906,1.0229007633587786,-1.3740458015267176,-0.44287109375,0.01220703125,-0.27197265625,0.7055
2.183206106870229,0.9465648854961832,-1.6793893129770991,-0.438720703125,0.015625,-0.274658203125,0.7071999999999999
2.2748091603053435,0.9312977099236641,-1.633587786259542,-0.444580078125,0.0068359375,-0.26953125,0.7089
2.16793893129771,0.8854961832061069,-1.6946564885496183,-0.43896484375,0.013427734375,-0.26953125,0.7106
2.3053435114503817,0.916030534351145,-1.5267175572519085,-0.435302734375,0.0126953125,-0.270263671875,0.7122999999999999
2.16793893129771,1.0381679389312977,-1.7557251908396947,-0.44140625,0.01416015625,-0.28173828125,0.714
2.030534351145038,1.0687022900763359,-1.618320610687023,-0.437744140625,0.011474609375,-0.263427734375,0.7157
2.213740458015267,0.9465648854961832,-1.7251908396946565,-0.438720703125,0.012939453125,-0.264892578125,0.7173999999999999
2.1526717557251906,1.0229007633587786,-1.6793893129770991,-0.436279296875,0.011962890625,-0.272216796875,0.7191
2.015267175572519,0.9465648854961832,-1.7099236641221374,-0.44482421875,0.012939453125,-0.267822265625,0.7208
1.984732824427481,1.099236641221374,-1.5725190839694656,-0.442138671875,0.014404296875,-0.271240234375,0.7224999999999999
2.0,1.083969465648855,-1.7557251908396947,-0.443359375,0.00830078125,-0.269287109375,0.7242
2.16793893129771,1.1908396946564885,-1.6488549618320612,-0.441162109375,0.016357421875,-0.275146484375,0.7259
2.16793893129771,1.1603053435114503,-1.7404580152671756,-0.43359375,0.013671875,-0.2734375,0.7275999999999999
2.030534351145038,1.1450381679389312,-1.7099236641221374,-0.438720703125,0.01513671875,-0.275146484375,0.7293
2.16793893129771,1.1145038167938932,-1.816793893129771,-0.437744140625,0.015380859375,-0.277099609375,0.731
2.1374045801526718,1.1908396946564885,-1.5419847328244274,-0.44091796875,0.013916015625,-0.273681640625,0.7326999999999999
1.8625954198473282,0.9923664122137404,-1.7099236641221374,-0.44140625,0.01171875,-0.27294921875,0.7343999999999999
1.9541984732824427,1.2671755725190839,-1.7251908396946565,-0.431396484375,0.018310546875,-0.272705078125,0.7361
2.1068702290076335,1.297709923664122,-1.816793893129771,-0.434326171875,0.017578125,-0.267333984375,0.7378
2.198473282442748,1.251908396946565,-1.6946564885496183,-0.437744140625,0.01708984375,-0.265625,0.7394999999999999
1.8931297709923665,1.2671755725190839,-1.6641221374045803,-0.439208984375,0.011962890625,-0.272216796875,0.7412
1.8625954198473282,1.3587786259541985,-1.5725190839694656,-0.4375,0.0126953125,-0.271240234375,0.7429
1.9694656488549618,1.2366412213740459,-1.786259541984733,-0.43701171875,0.012939453125,-0.2744140625,0.7445999999999999
1.9694656488549618,1.297709923664122,-1.7099236641221374,-0.43310546875,0.013427734375,-0.2744140625,0.7463
2.1374045801526718,1.2213740458015268,-1.984732824427481,-0.441650390625,0.011474609375,-0.266845703125,0.748
1.8778625954198473,1.1603053435114503,-1.7251908396946565,-0.43408203125,0.0087890625,-0.272216796875,0.7496999999999999
1.7404580152671756,1.2366412213740459,-1.8625954198473282,-0.435791015625,0.0087890625,-0.2744140625,0.7514
2.030534351145038,1.2366412213740459,-1.8015267175572518,-0.440185546875,0.01318359375,-0.28271484375,0.7531
2.045801526717557,1.099236641221374,-1.9083969465648856,-0.440185546875,0.00927734375,-0.263916015625,0.7547999999999999
2.1374045801526718,1.1908396946564885,-1.7709923664122138,-0.4345703125,0.019775390625,-0.267822265625,0.7565
1.9236641221374047,1.1603053435114503,-1.8778625954198473,-0.436767578125,0.017578125,-0.27783203125,0.7582
2.0916030534351147,1.0534351145038168,-1.7557251908396947,-0.43408203125,0.01318359375,-0.26953125,0.7598999999999999
2.0610687022900764,1.1145038167938932,-1.984732824427481,-0.434814453125,0.016357421875,-0.2685546875,0.7615999999999999
2.045801526717557,1.1908396946564885,-1.8473282442748091,-0.437744140625,0.015380859375,-0.282958984375,0.7633
2.1068702290076335,1.2366412213740459,-1.8931297709923665,-0.445068359375,0.01123046875,-0.26513671875,0.7649999999999999
2.122137404580153,1.3282442748091603,-1.83206106870229,-0.4384765625,0.019775390625,-0.273193359375,0.7666999999999999
1.984732824427481,1.0229007633587786,-1.8778625954198473,-0.436767578125,0.017822265625,-0.276123046875,0.7684
1.6793893129770991,1.0381679389312977,-1.6488549618320612,-0.439453125,0.014892578125,-0.27783203125,0.7701
2.0916030534351147,1.099236641221374,-1.9389312977099236,-0.438232421875,0.01708984375,-0.26953125,0.7717999999999999
1.8931297709923665,1.0229007633587786,-1.7099236641221374,-0.4345703125,0.01611328125,-0.27001953125,0.7735
1.8778625954198473,0.9465648854961832,-1.7557251908396947,-0.4326171875,0.01171875,-0.27197265625,0.7752
1.9236641221374047,0.8854961832061069,-1.6488549618320612,-0.442626953125,0.013427734375,-0.26513671875,0.7768999999999999
1.7404580152671756,0.9465648854961832,-1.7404580152671756,-0.440673828125,0.01220703125,-0.2646484375,0.7786
2.1374045801526718,1.0076335877862594,-1.5419847328244274,-0.436279296875,0.017578125,-0.27294921875,0.7803
1.7404580152671756,0.9465648854961832,-1.7557251908396947,-0.4345703125,0.016845703125,-0.270751953125,0.7819999999999999
1.8015267175572518,0.8702290076335878,-1.5877862595419847,-0.440673828125,0.015869140625,-0.260986328125,0.7837
2.0,0.9618320610687023,-1.618320610687023,-0.439453125,0.01513671875,-0.268798828125,0.7854
1.8778625954198473,1.0381679389312977,-1.5725190839694656,-0.438232421875,0.013916015625,-0.271728515625,0.7870999999999999
1.7557251908396947,0.9007633587786259,-1.4045801526717556,-0.438720703125,0.0166015625,-0.27685546875,0.7888
2.0610687022900764,0.7938931297709924,-1.4045801526717556,-0.441162109375,0.015380859375,-0.27587890625,0.7905
2.045801526717557,0.9465648854961832,-1.5572519083969465,-0.439697265625,0.014404296875,-0.267822265625,0.7921999999999999
1.6946564885496183,0.8244274809160306,-1.3282442748091603,-0.434326171875,0.0107421875,-0.27197265625,0.7938999999999999
1.8625954198473282,0.9618320610687023,-1.6030534351145038,-0.4375,0.01513671875,-0.276611328125,0.7956
1.7251908396946565,0.9923664122137404,-1.3282442748091603,-0.435791015625,0.017333984375,-0.259765625,0.7973
1.7404580152671756,1.0381679389312977,-1.3587786259541985,-0.436767578125,0.014404296875,-0.271728515625,0.7989999999999999
1.7709923664122138,0.9923664122137404,-1.2366412213740459,-0.43896484375,0.011474609375,-0.271240234375,0.8007
1.7251908396946565,1.0229007633587786,-1.2671755725190839,-0.441650390625,0.012451171875,-0.278564453125,0.8024
1.618320610687023,0.7480916030534351,-1.3587786259541985,-0.440185546875,0.013427734375,-0.27099609375,0.8040999999999999
1.8931297709923665,0.9007633587786259,-1.5267175572519085,-0.442138671875,0.020751953125,-0.2744140625,0.8058
1.786259541984733,1.1450381679389312,-1.1297709923664123,-0.44189453125,0.0166015625,-0.271484375,0.8075
1.6030534351145038,0.7786259541984732,-1.3587786259541985,-0.4384765625,0.01708984375,-0.270263671875,0.8091999999999999
1.8625954198473282,0.8396946564885496,-1.4198473282442747,-0.439453125,0.018798828125,-0.266357421875,0.8109
1.816793893129771,0.8702290076335878,-1.282442748091603,-0.43896484375,0.019287109375,-0.272705078125,0.8126
1.9389312977099236,0.7938931297709924,-1.4351145038167938,-0.436279296875,0.018310546875,-0.267578125,0.8142999999999999
1.7099236641221374,0.8549618320610687,-1.5725190839694656,-0.43701171875,0.016845703125,-0.26953125,0.816
1.8778625954198473,0.8244274809160306,-1.3893129770992367,-0.439208984375,0.014892578125,-0.267333984375,0.8177
1.8778625954198473,0.8244274809160306,-1.3587786259541985,-0.439697265625,0.013427734375,-0.26953125,0.8193999999999999
1.9083969465648856,0.9770992366412213,-1.3587786259541985,-0.44189453125,0.013916015625,-0.275146484375,0.8210999999999999
1.9083969465648856,0.916030534351145,-1.5114503816793894,-0.43701171875,0.01513671875,-0.26806640625,0.8228
1.8931297709923665,0.916030534351145,-1.4351145038167938,-0.43603515625,0.02001953125,-0.2724609375,0.8244999999999999
2.0916030534351147,0.7022900763358778,-1.618320610687023,-0.439453125,0.01708984375,-0.273681640625,0.8261999999999999
1.9083969465648856,0.8091603053435115,-1.297709923664122,-0.434814453125,0.013427734375,-0.271728515625,0.8279
1.7709923664122138,0.7480916030534351,-1.6641221374045803,-0.44091796875,0.015869140625,-0.27099609375,0.8296
1.9236641221374047,0.7480916030534351,-1.5877862595419847,-0.438720703125,0.017822265625,-0.272216796875,0.8312999999999999
2.045801526717557,0.7938931297709924,-1.618320610687023,-0.438232421875,0.016845703125,-0.266357421875,0.833
1.7709923664122138,0.5190839694656488,-1.4351145038167938,-0.435302734375,0.017822265625,-0.26220703125,0.8347
1.8015267175572518,0.5648854961832062,-1.618320610687023,-0.4365234375,0.012939453125,-0.268310546875,0.8363999999999999
1.9236641221374047,0.6106870229007634,-1.5114503816793894,-0.432373046875,0.01904296875,-0.2685546875,0.8381
2.1068702290076335,0.5343511450381679,-1.816793893129771,-0.434326171875,0.016845703125,-0.273681640625,0.8398
2.1068702290076335,0.6717557251908397,-1.4961832061068703,-0.432373046875,0.008544921875,-0.276123046875,0.8414999999999999
1.7709923664122138,0.5343511450381679,-1.633587786259542,-0.438232421875,0.01318359375,-0.284912109375,0.8432
1.9236641221374047,0.5954198473282443,-1.6793893129770991,-0.4375,0.011474609375,-0.273681640625,0.8449
1.83206106870229,0.7175572519083969,-1.6946564885496183,-0.4404296875,0.01171875,-0.26953125,0.8465999999999999
1.9083969465648856,0.7633587786259542,-1.4809160305343512,-0.435546875,0.0166015625,-0.2734375,0.8482999999999999
1.9236641221374047,0.6564885496183206,-1.633587786259542,-0.442626953125,0.01416015625,-0.278564453125,0.85
1.984732824427481,0.7938931297709924,-1.5877862595419847,-0.447509765625,0.01318359375,-0.27294921875,0.8516999999999999
1.8931297709923665,0.916030534351145,-1.5725190839694656,-0.443603515625,0.02001953125,-0.271728515625,0.8533999999999999
1.786259541984733,0.9312977099236641,-1.5877862595419847,-0.44091796875,0.01171875,-0.27490234375,0.8551
1.83206106870229,1.0229007633587786,-1.7099236641221374,-0.444091796875,0.01416015625,-0.2724609375,0.8568
1.984732824427481,0.9618320610687023,-1.3129770992366412,-0.443359375,0.017333984375,-0.265380859375,0.8584999999999999
1.7404580152671756,1.0076335877862594,-1.4809160305343512,-0.439453125,0.018798828125,-0.281005859375,0.8602
1.8473282442748091,0.8854961832061069,-1.465648854961832,-0.445556640625,0.01904296875,-0.268798828125,0.8619
1.7251908396946565,0.9923664122137404,-1.5114503816793894,-0.44091796875,0.019775390625,-0.28515625,0.8635999999999999
1.9236641221374047,1.1603053435114503,-1.465648854961832,-0.444091796875,0.01171875,-0.27587890625,0.8653
1.7404580152671756,1.1450381679389312,-1.5725190839694656,-0.44091796875,0.013916015625,-0.276123046875,0.867
1.5572519083969465,1.251908396946565,-1.5114503816793894,-0.43896484375,0.017333984375,-0.272705078125,0.8686999999999999
1.8778625954198473,1.282442748091603,-1.6641221374045803,-0.438720703125,0.0146484375,-0.27197265625,0.8704
1.786259541984733,1.1603053435114503,-1.6946564885496183,-0.44189453125,0.01708984375,-0.2705078125,0.8721
2.0763358778625953,1.251908396946565,-1.6946564885496183,-0.43896484375,0.014892578125,-0.272216796875,0.8737999999999999
2.045801526717557,1.3740458015267176,-1.8625954198473282,-0.44091796875,0.01220703125,-0.277587890625,0.8755
2.1068702290076335,1.3740458015267176,-2.122137404580153,-0.442626953125,0.021484375,-0.2685546875,0.8772
1.9694656488549618,1.1297709923664123,-2.015267175572519,-0.439697265625,0.018798828125,-0.2705078125,0.8788999999999999
2.0763358778625953,1.0687022900763359,-2.2748091603053435,-0.43310546875,0.01416015625,-0.26904296875,0.8805999999999999
2.213740458015267,1.0687022900763359,-2.2900763358778624,-0.431884765625,0.017333984375,-0.26025390625,0.8823
2.2595419847328246,1.0687022900763359,-2.3969465648854964,-0.4345703125,0.022705078125,-0.27587890625,0.8839999999999999
2.2595419847328246,0.9923664122137404,-2.381679389312977,-0.4375,0.0185546875,-0.268798828125,0.8856999999999999
2.351145038167939,0.9312977099236641,-2.2442748091603053,-0.43994140625,0.0166015625,-0.27685546875,0.8874
2.3053435114503817,0.6870229007633588,-2.4122137404580153,-0.4404296875,0.02001953125,-0.271728515625,0.8891
2.3969465648854964,0.8244274809160306,-2.381679389312977,-0.436279296875,0.015625,-0.27099609375,0.8907999999999999
2.5801526717557253,0.732824427480916,-2.2900763358778624,-0.441650390625,0.01708984375,-0.27099609375,0.8925
2.3053435114503817,0.8549618320610687,-2.50381679389313,-0.43359375,0.01416015625,-0.266845703125,0.8942
2.4885496183206106,0.8091603053435115,-2.4122137404580153,-0.434326171875,0.0126953125,-0.265869140625,0.8958999999999999
2.4427480916030535,0.7938931297709924,-2.381679389312977,-0.439697265625,0.01708984375,-0.269287109375,0.8976
2.4427480916030535,0.7938931297709924,-2.2900763358778624,-0.440673828125,0.017333984375,-0.275634765625,0.8993
2.4732824427480917,0.6259541984732825,-2.4122137404580153,-0.435302734375,0.0166015625,-0.278076171875,0.9009999999999999
2.4885496183206106,0.6717557251908397,-2.519083969465649,-0.439208984375,0.016357421875,-0.27685546875,0.9027
2.4427480916030535,0.7480916030534351,-2.366412213740458,-0.4384765625,0.016845703125,-0.265380859375,0.9044
2.351145038167939,0.6412213740458015,-2.2290076335877864,-0.4404296875,0.01708984375,-0.273193359375,0.9060999999999999
2.366412213740458,0.8396946564885496,-2.2442748091603053,-0.436767578125,0.018310546875,-0.267578125,0.9077999999999999
2.4885496183206106,0.732824427480916,-2.2900763358778624,-0.43798828125,0.014404296875,-0.275634765625,0.9095
2.564885496183206,0.4732824427480916,-2.0916030534351147,-0.4404296875,0.012451171875,-0.27294921875,0.9111999999999999
2.50381679389313,0.6106870229007634,-2.1374045801526718,-0.4345703125,0.012939453125,-0.265380859375,0.9128999999999999
2.4580152671755724,0.44274809160305345,-2.1068702290076335,-0.439208984375,0.016845703125,-0.26806640625,0.9146
2.6564885496183206,0.4122137404580153,-2.122137404580153,-0.431640625,0.017578125,-0.275146484375,0.9163
2.50381679389313,0.549618320610687,-2.183206106870229,-0.431884765625,0.010009765625,-0.271728515625,0.9179999999999999
2.687022900763359,0.549618320610687,-2.213740458015267,-0.437255859375,0.01611328125,-0.271728515625,0.9197
2.687022900763359,0.24427480916030533,-2.0916030534351147,-0.439208984375,0.01416015625,-0.268310546875,0.9214
2.4122137404580153,0.3511450381679389,-2.122137404580153,-0.433837890625,0.009033203125,-0.26953125,0.9230999999999999
2.6259541984732824,0.3969465648854962,-2.2748091603053435,-0.431640625,0.01318359375,-0.27099609375,0.9248
2.549618320610687,0.16793893129770993,-2.198473282442748,-0.4326171875,0.019287109375,-0.26611328125,0.9265
2.7480916030534353,0.2748091603053435,-2.2442748091603053,-0.4345703125,0.015380859375,-0.2685546875,0.9281999999999999
2.4732824427480917,0.2748091603053435,-2.213740458015267,-0.438720703125,0.01171875,-0.268310546875,0.9299
2.366412213740458,0.04580152671755725,-2.1526717557251906,-0.43212890625,0.013916015625,-0.272705078125,0.9316
2.5343511450381677,0.061068702290076333,-2.1526717557251906,-0.4365234375,0.01708984375,-0.27392578125,0.9332999999999999
2.6717557251908395,-0.15267175572519084,-2.183206106870229,-0.43701171875,0.0146484375,-0.279541015625,0.9349999999999999
2.4732824427480917,-0.21374045801526717,-2.16793893129771,-0.442626953125,0.0146484375,-0.270751953125,0.9367
2.6259541984732824,-0.04580152671755725,-2.2290076335877864,-0.44140625,0.014404296875,-0.260986328125,0.9383999999999999
2.7938931297709924,-0.13740458015267176,-2.122137404580153,-0.435302734375,0.01513671875,-0.266845703125,0.9400999999999999
2.687022900763359,-0.13740458015267176,-1.9541984732824427,-0.43603515625,0.01806640625,-0.267822265625,0.9418
2.6717557251908395,-0.16793893129770993,-2.1374045801526718,-0.4423828125,0.009765625,-0.26806640625,0.9434999999999999
2.6259541984732824,-0.3511450381679389,-2.183206106870229,-0.43896484375,0.0146484375,-0.2705078125,0.9451999999999999
2.564885496183206,-0.3511450381679389,-2.0610687022900764,-0.43505859375,0.015625,-0.26318359375,0.9469
2.5801526717557253,-0.33587786259541985,-1.8778625954198473,-0.43798828125,0.014892578125,-0.2646484375,0.9486
2.6717557251908395,-0.3969465648854962,-2.0916030534351147,-0.435791015625,0.015380859375,-0.2705078125,0.9502999999999999
2.519083969465649,-0.4122137404580153,-2.0916030534351147,-0.43310546875,0.012451171875,-0.265869140625,0.952
2.687022900763359,-0.366412213740458,-2.2595419847328246,-0.438232421875,0.014892578125,-0.274658203125,0.9537
2.7022900763358777,-0.5343511450381679,-2.045801526717557,-0.437255859375,0.011474609375,-0.275390625,0.9553999999999999
2.732824427480916,-0.8396946564885496,-2.0763358778625953,-0.435302734375,0.013427734375,-0.2724609375,0.9571
2.854961832061069,-0.7175572519083969,-2.122137404580153,-0.437744140625,0.009765625,-0.2734375,0.9588
2.4427480916030535,-0.6564885496183206,-2.122137404580153,-0.437744140625,0.02099609375,-0.271728515625,0.9604999999999999
2.8244274809160306,-0.8091603053435115,-2.1374045801526718,-0.436767578125,0.0126953125,-0.267578125,0.9621999999999999
2.931297709923664,-0.9465648854961832,-2.0916030534351147,-0.43798828125,0.00732421875,-0.267822265625,0.9639
2.6717557251908395,-0.7633587786259542,-1.984732824427481,-0.43603515625,0.011962890625,-0.2705078125,0.9655999999999999
2.687022900763359,-0.5954198473282443,-2.1526717557251906,-0.4404296875,0.011474609375,-0.267578125,0.9672999999999999
2.7022900763358777,-0.9312977099236641,-2.122137404580153,-0.439453125,0.01123046875,-0.267333984375,0.969
2.595419847328244,-0.8244274809160306,-1.984732824427481,-0.436279296875,0.016357421875,-0.267822265625,0.9706999999999999
2.8091603053435112,-0.6870229007633588,-2.0610687022900764,-0.442626953125,0.012939453125,-0.271240234375,0.9723999999999999
2.6259541984732824,-0.7175572519083969,-2.1374045801526718,-0.436279296875,0.01611328125,-0.271728515625,0.9741
2.7938931297709924,-0.8854961832061069,-1.8015267175572518,-0.441650390625,0.01904296875,-0.276123046875,0.9758
2.5801526717557253,-0.8702290076335878,-2.030534351145038,-0.44140625,0.020263671875,-0.2705078125,0.9774999999999999
2.351145038167939,-0.7480916030534351,-1.8473282442748091,-0.438720703125,0.015869140625,-0.266845703125,0.9792
2.7022900763358777,-0.732824427480916,-1.8015267175572518,-0.438232421875,0.019775390625,-0.263671875,0.9809
2.4580152671755724,-0.8091603053435115,-1.9083969465648856,-0.436279296875,0.011474609375,-0.26806640625,0.9825999999999999
2.595419847328244,-0.732824427480916,-1.816793893129771,-0.43798828125,0.013427734375,-0.26513671875,0.9843
2.5801526717557253,-0.4732824427480916,-1.6030534351145038,-0.442138671875,0.015869140625,-0.266357421875,0.986
2.595419847328244,-0.6259541984732825,-1.8015267175572518,-0.439697265625,0.010986328125,-0.27294921875,0.9876999999999999
2.2442748091603053,-0.42748091603053434,-1.6641221374045803,-0.441162109375,0.01416015625,-0.26806640625,0.9894
2.595419847328244,-0.2900763358778626,-1.6641221374045803,-0.438720703125,0.01220703125,-0.269775390625,0.9911
2.564885496183206,-0.3969465648854962,-1.6641221374045803,-0.443359375,0.0068359375,-0.26953125,0.9927999999999999
2.366412213740458,-0.2748091603053435,-1.83206106870229,-0.441650390625,0.014404296875,-0.27587890625,0.9944999999999999
2.5343511450381677,-0.2748091603053435,-1.83206106870229,-0.441162109375,0.015625,-0.268798828125,0.9962
2.351145038167939,-0.1984732824427481,-1.8473282442748091,-0.43701171875,0.009033203125,-0.265625,0.9978999999999999
2.5343511450381677,-0.1984732824427481,-1.618320610687023,-0.43896484375,0.011962890625,-0.269775390625,0.9995999999999999
2.549618320610687,-0.2900763358778626,-1.5877862595419847,-0.4384765625,0.0146484375,-0.279052734375,1.0012999999999999
2.33587786259542,-0.07633587786259542,-1.6641221374045803,-0.4365234375,0.0126953125,-0.271240234375,1.003
2.122137404580153,-0.16793893129770993,-1.6946564885496183,-0.437744140625,0.01171875,-0.273681640625,1.0047
2.2442748091603053,-0.16793893129770993,-1.6488549618320612,-0.444091796875,0.0146484375,-0.26953125,1.0064
2.4122137404580153,-0.4122137404580153,-1.5725190839694656,-0.443115234375,0.01171875,-0.27490234375,1.0081
2.4580152671755724,-0.4580152671755725,-1.633587786259542,-0.4384765625,0.009765625,-0.27783203125,1.0098
2.2442748091603053,-0.2748091603053435,-1.6488549618320612,-0.439453125,0.01123046875,-0.27734375,1.0114999999999998
2.50381679389313,-0.32061068702290074,-1.4045801526717556,-0.44140625,0.013427734375,-0.271728515625,1.0131999999999999
2.198473282442748,-0.24427480916030533,-1.5725190839694656,-0.4443359375,0.011474609375,-0.26953125,1.0149
2.0610687022900764,-0.183206106870229,-1.5267175572519085,-0.443603515625,0.01318359375,-0.269775390625,1.0166
2.213740458015267,-0.366412213740458,-1.5419847328244274,-0.446044921875,0.0126953125,-0.265380859375,1.0183
2.3969465648854964,-0.33587786259541985,-1.5114503816793894,-0.447998046875,0.013427734375,-0.27294921875,1.02
2.4122137404580153,-0.32061068702290074,-1.8015267175572518,-0.4443359375,0.01611328125,-0.275634765625,1.0217
2.2900763358778624,-0.0916030534351145,-1.5419847328244274,-0.441650390625,0.0146484375,-0.268310546875,1.0233999999999999
2.4580152671755724,-0.04580152671755725,-1.6946564885496183,-0.44189453125,0.0166015625,-0.274169921875,1.0251
2.3053435114503817,-0.21374045801526717,-1.7099236641221374,-0.442626953125,0.010986328125,-0.260009765625,1.0268
2.198473282442748,0.015267175572519083,-1.6488549618320612,-0.443359375,0.01904296875,-0.274169921875,1.0285
2.1068702290076335,0.030534351145038167,-1.6946564885496183,-0.444580078125,0.01220703125,-0.269287109375,1.0302
2.33587786259542,0.183206106870229,-1.8473282442748091,-0.44384765625,0.01416015625,-0.264892578125,1.0319
2.1068702290076335,0.21374045801526717,-1.7557251908396947,-0.4453125,0.016845703125,-0.27294921875,1.0335999999999999
2.351145038167939,0.4122137404580153,-1.816793893129771,-0.443115234375,0.02099609375,-0.270751953125,1.0352999999999999
2.2442748091603053,0.12213740458015267,-1.5877862595419847,-0.438232421875,0.0107421875,-0.271484375,1.037
2.198473282442748,0.22900763358778625,-1.8931297709923665,-0.4404296875,0.013671875,-0.270751953125,1.0387
2.2595419847328246,0.183206106870229,-1.7251908396946565,-0.441162109375,0.01611328125,-0.267333984375,1.0404
2.2290076335877864,0.3969465648854962,-2.0,-0.4375,0.00830078125,-0.26220703125,1.0421
2.198473282442748,0.24427480916030533,-1.9236641221374047,-0.44189453125,0.01513671875,-0.268310546875,1.0437999999999998
2.381679389312977,0.21374045801526717,-2.015267175572519,-0.4404296875,0.01513671875,-0.276123046875,1.0454999999999999
2.2595419847328246,0.13740458015267176,-1.7404580152671756,-0.440185546875,0.014404296875,-0.277099609375,1.0472
2.3053435114503817,0.2595419847328244,-2.030534351145038,-0.439453125,0.01171875,-0.26953125,1.0489
2.3206106870229006,0.3511450381679389,-1.9236641221374047,-0.43798828125,0.0166015625,-0.27490234375,1.0506
2.4732824427480917,0.42748091603053434,-2.030534351145038,-0.4345703125,0.01708984375,-0.275390625,1.0523
2.6106870229007635,0.4580152671755725,-1.8931297709923665,-0.435791015625,0.016845703125,-0.26806640625,1.054
2.2442748091603053,0.3816793893129771,-1.9083969465648856,-0.441650390625,0.0185546875,-0.26904296875,1.0556999999999999
2.3206106870229006,0.1984732824427481,-1.7557251908396947,-0.433349609375,0.01611328125,-0.26953125,1.0574
2.4427480916030535,0.22900763358778625,-1.9694656488549618,-0.435302734375,0.013427734375,-0.271240234375,1.0591
2.549618320610687,0.3053435114503817,-1.83206106870229,-0.439697265625,0.0166015625,-0.265625,1.0608
2.3206106870229006,0.0,-1.9083969465648856,-0.43994140625,0.01318359375,-0.2705078125,1.0625
2.6412213740458017,-0.24427480916030533,-1.83206106870229,-0.441162109375,0.01123046875,-0.274169921875,1.0642
2.9618320610687023,-0.22900763358778625,-1.9541984732824427,-0.441650390625,0.015869140625,-0.26904296875,1.0658999999999998
2.717557251908397,-0.22900763358778625,-1.7709923664122138,-0.439697265625,0.017333984375,-0.271484375,1.0675999999999999
2.595419847328244,-0.42748091603053434,-1.83206106870229,-0.438720703125,0.0205078125,-0.271484375,1.0693
2.6717557251908395,-0.22900763358778625,-1.7557251908396947,-0.439453125,0.017333984375,-0.2626953125,1.071
2.763358778625954,-0.16793893129770993,-1.83206106870229,-0.436767578125,0.02001953125,-0.26806640625,1.0727
2.687022900763359,-0.12213740458015267,-1.816793893129771,-0.43505859375,0.014892578125,-0.272216796875,1.0744
2.7786259541984735,-0.2748091603053435,-1.7557251908396947,-0.444091796875,0.009765625,-0.279296875,1.0760999999999998
2.7938931297709924,-0.07633587786259542,-1.6641221374045803,-0.441650390625,0.01025390625,-0.261962890625,1.0777999999999999
2.854961832061069,-0.13740458015267176,-2.0,-0.4404296875,0.015625,-0.266845703125,1.0795
3.0076335877862594,-0.21374045801526717,-1.9389312977099236,-0.44091796875,0.01318359375,-0.27197265625,1.0812
2.9923664122137406,-0.0916030534351145,-2.0916030534351147,-0.442626953125,0.016357421875,-0.269287109375,1.0829
2.9770992366412212,-0.12213740458015267,-1.6793893129770991,-0.442138671875,0.01171875,-0.274658203125,1.0846
2.595419847328244,-0.10687022900763359,-1.8473282442748091,-0.4462890625,0.013916015625,-0.26708984375,1.0863
2.8244274809160306,-0.061068702290076333,-1.7099236641221374,-0.43994140625,0.01513671875,-0.2724609375,1.0879999999999999
3.0839694656488548,0.10687022900763359,-1.5725190839694656,-0.44189453125,0.01611328125,-0.267333984375,1.0897
2.885496183206107,0.13740458015267176,-1.6946564885496183,-0.441650390625,0.015869140625,-0.2646484375,1.0914
3.053435114503817,0.21374045801526717,-1.7557251908396947,-0.446044921875,0.01611328125,-0.271240234375,1.0931
3.1297709923664123,0.3053435114503817,-1.6488549618320612,-0.4404296875,0.0166015625,-0.264892578125,1.0948
3.0076335877862594,0.22900763358778625,-1.6641221374045803,-0.44091796875,0.01953125,-0.27392578125,1.0965
3.145038167938931,0.366412213740458,-1.6030534351145038,-0.439697265625,0.0205078125,-0.267822265625,1.0981999999999998
3.099236641221374,0.366412213740458,-1.9236641221374047,-0.445556640625,0.016357421875,-0.27587890625,1.0998999999999999
3.1297709923664123,0.4580152671755725,-1.7557251908396947,-0.4453125,0.0166015625,-0.26806640625,1.1016
3.2977099236641223,0.7480916030534351,-1.633587786259542,-0.440673828125,0.016845703125,-0.270263671875,1.1033
3.2213740458015265,0.7022900763358778,-1.6793893129770991,-0.4404296875,0.01904296875,-0.280029296875,1.105
3.267175572519084,0.6564885496183206,-2.045801526717557,-0.438720703125,0.016845703125,-0.27685546875,1.1067
3.282442748091603,0.732824427480916,-1.9694656488549618,-0.439208984375,0.01806640625,-0.280517578125,1.1083999999999998
3.404580152671756,0.7175572519083969,-1.8625954198473282,-0.442626953125,0.01513671875,-0.273681640625,1.1100999999999999
3.404580152671756,0.6259541984732825,-2.0,-0.443115234375,0.0126953125,-0.26904296875,1.1118
3.572519083969466,0.6412213740458015,-1.9541984732824427,-0.439453125,0.012451171875,-0.264404296875,1.1135
3.435114503816794,0.6412213740458015,-1.8931297709923665,-0.43603515625,0.015625,-0.27099609375,1.1152
3.3740458015267176,0.5343511450381679,-2.0763358778625953,-0.435546875,0.016845703125,-0.269775390625,1.1169
3.49618320610687,0.44274809160305345,-1.8931297709923665,-0.445556640625,0.0087890625,-0.265625,1.1186
3.5267175572519083,0.4732824427480916,-2.030534351145038,-0.44091796875,0.0126953125,-0.265625,1.1202999999999999
3.267175572519084,0.5038167938931297,-1.9236641221374047,-0.440185546875,0.013427734375,-0.273681640625,1.1219999999999999
3.49618320610687,0.6259541984732825,-2.015267175572519,-0.43603515625,0.0146484375,-0.274169921875,1.1237
3.5572519083969465,0.6106870229007634,-2.045801526717557,-0.4365234375,0.010498046875,-0.27490234375,1.1254
3.5267175572519083,0.549618320610687,-2.16793893129771,-0.43994140625,0.017822265625,-0.26953125,1.1271
3.5877862595419847,0.6717557251908397,-1.9389312977099236,-0.4443359375,0.020263671875,-0.267578125,1.1288
3.7099236641221376,0.916030534351145,-2.0763358778625953,-0.4423828125,0.01513671875,-0.26953125,1.1304999999999998
3.5419847328244276,0.7633587786259542,-2.045801526717557,-0.441162109375,0.01708984375,-0.272216796875,1.1321999999999999
3.4656488549618323,0.8702290076335878,-2.1526717557251906,-0.439453125,0.015380859375,-0.27490234375,1.1339
3.6793893129770994,0.8091603053435115,-2.16793893129771,-0.444580078125,0.016357421875,-0.271728515625,1.1356
3.5877862595419847,0.9312977099236641,-2.3053435114503817,-0.44189453125,0.013671875,-0.27880859375,1.1373
3.435114503816794,0.9312977099236641,-2.045801526717557,-0.439208984375,0.00927734375,-0.27685546875,1.139
3.7709923664122136,0.8396946564885496,-1.984732824427481,-0.4404296875,0.014404296875,-0.268310546875,1.1407
3.480916030534351,0.9007633587786259,-2.122137404580153,-0.43603515625,0.01806640625,-0.28076171875,1.1423999999999999
3.6030534351145036,0.8091603053435115,-2.2900763358778624,-0.4404296875,0.0126953125,-0.269287109375,1.1441
3.5572519083969465,0.6412213740458015,-2.030534351145038,-0.4375,0.01123046875,-0.277587890625,1.1458
3.7099236641221376,0.7480916030534351,-2.2290076335877864,-0.437744140625,0.01123046875,-0.2724609375,1.1475
3.572519083969466,0.7633587786259542,-2.3206106870229006,-0.441162109375,0.013671875,-0.264404296875,1.1492
3.8625954198473282,0.9770992366412213,-2.3206106870229006,-0.4404296875,0.013671875,-0.26708984375,1.1509
3.7557251908396947,0.6870229007633588,-2.3206106870229006,-0.443115234375,0.01123046875,-0.273681640625,1.1525999999999998
3.6030534351145036,0.8244274809160306,-2.4427480916030535,-0.440185546875,0.009033203125,-0.27099609375,1.1542999999999999
3.7557251908396947,0.7480916030534351,-2.4580152671755724,-0.438720703125,0.01416015625,-0.26953125,1.156
3.7557251908396947,0.6412213740458015,-2.564885496183206,-0.441162109375,0.012939453125,-0.27880859375,1.1577
3.786259541984733,0.8549618320610687,-2.2442748091603053,-0.4375,0.014404296875,-0.26904296875,1.1594
3.66412213740458,0.6870229007633588,-2.519083969465649,-0.441162109375,0.01025390625,-0.266357421875,1.1611
3.7709923664122136,0.6106870229007634,-2.50381679389313,-0.434326171875,0.01708984375,-0.272216796875,1.1627999999999998
3.7557251908396947,0.7022900763358778,-2.4732824427480917,-0.438232421875,0.01171875,-0.26904296875,1.1644999999999999
3.7709923664122136,0.6717557251908397,-2.351145038167939,-0.44384765625,0.01220703125,-0.267578125,1.1662
3.877862595419847,0.732824427480916,-2.4122137404580153,-0.441162109375,0.016845703125,-0.265380859375,1.1679
3.9236641221374047,0.9007633587786259,-2.33587786259542,-0.442138671875,0.01513671875,-0.268798828125,1.1696
3.801526717557252,0.8854961832061069,-2.687022900763359,-0.4375,0.019287109375,-0.269287109375,1.1713
3.969465648854962,1.0076335877862594,-2.6412213740458017,-0.4404296875,0.011474609375,-0.265380859375,1.173
4.015267175572519,1.0687022900763359,-2.6259541984732824,-0.4375,0.01513671875,-0.273681640625,1.1746999999999999
4.061068702290076,0.8549618320610687,-2.6717557251908395,-0.4365234375,0.015380859375,-0.272705078125,1.1764
4.076335877862595,0.9923664122137404,-2.5343511450381677,-0.4404296875,0.014404296875,-0.268798828125,1.1781
3.8625954198473282,0.6717557251908397,-2.6564885496183206,-0.435546875,0.019287109375,-0.267578125,1.1798
3.8931297709923665,0.7022900763358778,-2.717557251908397,-0.43359375,0.018798828125,-0.267333984375,1.1815
4.076335877862595,0.7022900763358778,-2.6412213740458017,-0.43994140625,0.00830078125,-0.2724609375,1.1832
4.1679389312977095,0.5190839694656488,-2.6564885496183206,-0.4375,0.015380859375,-0.264404296875,1.1848999999999998
4.1679389312977095,0.7175572519083969,-2.6412213740458017,-0.439453125,0.01220703125,-0.260498046875,1.1865999999999999
4.061068702290076,0.7786259541984732,-2.564885496183206,-0.43994140625,0.00927734375,-0.26708984375,1.1883
4.259541984732825,0.7175572519083969,-2.5343511450381677,-0.437255859375,0.013427734375,-0.280029296875,1.19
4.229007633587786,0.7480916030534351,-2.7480916030534353,-0.44189453125,0.020751953125,-0.274658203125,1.1917
4.0458015267175576,0.6412213740458015,-2.6717557251908395,-0.446533203125,0.01123046875,-0.27783203125,1.1934
4.198473282442748,0.5801526717557252,-2.4580152671755724,-0.440673828125,0.014404296875,-0.2607421875,1.1950999999999998
4.290076335877862,0.5038167938931297,-2.595419847328244,-0.437255859375,0.01611328125,-0.273681640625,1.1967999999999999
4.259541984732825,0.3511450381679389,-2.595419847328244,-0.436767578125,0.01220703125,-0.275634765625,1.1985
4.259541984732825,0.4122137404580153,-2.595419847328244,-0.435791015625,0.015380859375,-0.27392578125,1.2002
4.366412213740458,0.42748091603053434,-2.732824427480916,-0.441650390625,0.01904296875,-0.2705078125,1.2019
4.3816793893129775,0.4122137404580153,-2.900763358778626,-0.43701171875,0.01611328125,-0.271728515625,1.2036
4.1679389312977095,0.3816793893129771,-2.854961832061069,-0.439453125,0.013916015625,-0.27294921875,1.2053
4.458015267175573,0.5343511450381679,-2.6564885496183206,-0.444580078125,0.010986328125,-0.276123046875,1.2069999999999999
4.427480916030534,0.3053435114503817,-2.7938931297709924,-0.436767578125,0.0107421875,-0.272705078125,1.2086999999999999
4.488549618320611,0.366412213740458,-2.7786259541984735,-0.43701171875,0.015625,-0.277099609375,1.2104
4.5038167938931295,0.16793893129770993,-2.885496183206107,-0.4375,0.009033203125,-0.265869140625,1.2121
4.6106870229007635,0.15267175572519084,-2.8244274809160306,-0.4404296875,0.013916015625,-0.2705078125,1.2138
4.549618320610687,0.12213740458015267,-2.8091603053435112,-0.4384765625,0.011474609375,-0.27001953125,1.2155
4.473282442748092,-0.061068702290076333,-2.717557251908397,-0.44091796875,0.010498046875,-0.26904296875,1.2171999999999998
4.641221374045801,-0.183206106870229,-2.6259541984732824,-0.442138671875,0.014892578125,-0.2607421875,1.2188999999999999
4.564885496183206,-0.1984732824427481,-2.6259541984732824,-0.43994140625,0.014404296875,-0.2685546875,1.2206
4.732824427480916,-0.12213740458015267,-2.6717557251908395,-0.44091796875,0.01611328125,-0.26318359375,1.2223
4.763358778625954,-0.1984732824427481,-2.6717557251908395,-0.4375,0.0166015625,-0.26904296875,1.224
4.885496183206107,-0.21374045801526717,-2.732824427480916,-0.440673828125,0.018310546875,-0.27490234375,1.2257
4.687022900763359,-0.4122137404580153,-2.8091603053435112,-0.437255859375,0.010498046875,-0.274658203125,1.2273999999999998
5.00763358778626,-0.7022900763358778,-2.854961832061069,-0.438232421875,0.009521484375,-0.27001953125,1.2290999999999999
5.022900763358779,-0.5190839694656488,-2.9770992366412212,-0.43994140625,0.015625,-0.275146484375,1.2308
4.870229007633588,-0.6106870229007634,-2.8396946564885495,-0.43701171875,0.013427734375,-0.273681640625,1.2325
5.175572519083969,-0.8244274809160306,-2.9160305343511452,-0.439208984375,0.0146484375,-0.27197265625,1.2342
5.0534351145038165,-0.7938931297709924,-2.9618320610687023,-0.439697265625,0.014892578125,-0.271484375,1.2359
5.022900763358779,-0.7022900763358778,-2.7938931297709924,-0.44140625,0.01611328125,-0.27001953125,1.2376
5.175572519083969,-0.48854961832061067,-2.885496183206107,-0.43505859375,0.01025390625,-0.27001953125,1.2392999999999998
5.175572519083969,-0.3969465648854962,-2.931297709923664,-0.439208984375,0.010498046875,-0.265625,1.2409999999999999
5.282442748091603,-0.33587786259541985,-2.931297709923664,-0.4384765625,0.0107421875,-0.265869140625,1.2427
5.282442748091603,-0.15267175572519084,-3.0076335877862594,-0.43701171875,0.015625,-0.272216796875,1.2444
5.206106870229007,-0.366412213740458,-3.068702290076336,-0.4404296875,0.01123046875,-0.2724609375,1.2461
5.419847328244275,-0.12213740458015267,-3.0381679389312977,-0.44482421875,0.013916015625,-0.277099609375,1.2478
5.343511450381679,-0.030534351145038167,-3.053435114503817,-0.43701171875,0.013427734375,-0.272216796875,1.2494999999999998
5.312977099236641,0.061068702290076333,-2.9770992366412212,-0.438232421875,0.013427734375,-0.269287109375,1.2511999999999999
5.557251908396947,-0.0916030534351145,-2.885496183206107,-0.439453125,0.015625,-0.27490234375,1.2529
5.557251908396947,-0.22900763358778625,-2.9618320610687023,-0.438232421875,0.013671875,-0.2705078125,1.2546
5.358778625954199,-0.2748091603053435,-2.885496183206107,-0.4404296875,0.0146484375,-0.271728515625,1.2563
5.312977099236641,-0.549618320610687,-2.946564885496183,-0.44091796875,0.009765625,-0.27001953125,1.258
5.541984732824427,-0.3511450381679389,-3.053435114503817,-0.4375,0.014404296875,-0.267333984375,1.2596999999999998
5.603053435114504,-0.5648854961832062,-3.099236641221374,-0.435546875,0.012939453125,-0.268798828125,1.2613999999999999
5.480916030534351,-0.7022900763358778,-3.0839694656488548,-0.43603515625,0.013427734375,-0.274658203125,1.2631
5.526717557251908,-0.5343511450381679,-2.8396946564885495,-0.43798828125,0.015380859375,-0.270751953125,1.2648
5.6183206106870225,-0.48854961832061067,-2.7480916030534353,-0.43896484375,0.014892578125,-0.265380859375,1.2665
5.7251908396946565,-0.3969465648854962,-2.946564885496183,-0.43994140625,0.014404296875,-0.26708984375,1.2682
5.7251908396946565,-0.33587786259541985,-2.717557251908397,-0.43701171875,0.010009765625,-0.268798828125,1.2699
5.679389312977099,-0.44274809160305345,-2.8702290076335877,-0.4375,0.0146484375,-0.271728515625,1.2715999999999998
5.862595419847328,-0.4122137404580153,-2.7786259541984735,-0.4423828125,0.015869140625,-0.269775390625,1.2732999999999999
5.923664122137405,-0.42748091603053434,-2.885496183206107,-0.442138671875,0.014404296875,-0.27294921875,1.275
5.679389312977099,-0.3053435114503817,-2.7480916030534353,-0.437255859375,0.012939453125,-0.266845703125,1.2767
5.648854961832061,-0.3053435114503817,-2.8396946564885495,-0.443603515625,0.010498046875,-0.269775390625,1.2784
6.0,-0.4122137404580153,-2.9770992366412212,-0.441162109375,0.014892578125,-0.271240234375,1.2801
6.290076335877862,-0.6564885496183206,-2.931297709923664,-0.443359375,0.00927734375,-0.272216796875,1.2817999999999998
5.755725190839694,-0.6717557251908397,-2.732824427480916,-0.43798828125,0.01025390625,-0.2705078125,1.2834999999999999
5.755725190839694,-0.549618320610687,-2.9770992366412212,-0.436279296875,0.011962890625,-0.2705078125,1.2852
5.908396946564886,-0.4580152671755725,-2.732824427480916,-0.44091796875,0.011962890625,-0.263916015625,1.2869
5.969465648854962,-0.6412213740458015,-2.9770992366412212,-0.439208984375,0.016845703125,-0.277099609375,1.2886
6.2748091603053435,-0.5343511450381679,-2.6412213740458017,-0.436279296875,0.01025390625,-0.268798828125,1.2903
6.152671755725191,-0.44274809160305345,-2.7480916030534353,-0.440185546875,0.01171875,-0.273193359375,1.292
6.030534351145038,-0.12213740458015267,-2.763358778625954,-0.439208984375,0.01171875,-0.26953125,1.2936999999999999
6.183206106870229,-0.4122137404580153,-2.7786259541984735,-0.445068359375,0.009033203125,-0.272705078125,1.2953999999999999
6.076335877862595,-0.42748091603053434,-2.3969465648854964,-0.444091796875,0.01220703125,-0.260009765625,1.2971
6.122137404580153,-0.1984732824427481,-2.519083969465649,-0.438720703125,0.00927734375,-0.265625,1.2988
6.320610687022901,-0.44274809160305345,-2.6717557251908395,-0.440673828125,0.010009765625,-0.270263671875,1.3005
6.213740458015267,-0.48854961832061067,-2.7022900763358777,-0.433837890625,0.009765625,-0.277099609375,1.3022
6.1679389312977095,-0.366412213740458,-2.6412213740458017,-0.4326171875,0.013671875,-0.273193359375,1.3038999999999998
6.366412213740458,-0.24427480916030533,-2.6106870229007635,-0.44091796875,0.01220703125,-0.264892578125,1.3055999999999999
6.351145038167939,-0.33587786259541985,-2.4732824427480917,-0.4423828125,0.009033203125,-0.269287109375,1.3073
6.290076335877862,-0.48854961832061067,-2.519083969465649,-0.438720703125,0.016357421875,-0.26953125,1.309
6.396946564885496,-0.44274809160305345,-2.4732824427480917,-0.436279296875,0.01025390625,-0.26611328125,1.3107
6.305343511450381,-0.32061068702290074,-2.6412213740458017,-0.437744140625,0.0078125,-0.2626953125,1.3124
6.427480916030534,-0.5343511450381679,-2.4580152671755724,-0.4365234375,0.0078125,-0.266357421875,1.3140999999999998
6.213740458015267,-0.44274809160305345,-2.4885496183206106,-0.43505859375,0.005615234375,-0.27587890625,1.3157999999999999
6.366412213740458,-0.4122137404580153,-2.2748091603053435,-0.440185546875,0.00927734375,-0.27294921875,1.3175
6.412213740458015,-0.3511450381679389,-2.4122137404580153,-0.4375,0.009765625,-0.269775390625,1.3192
6.396946564885496,-0.3511450381679389,-2.4732824427480917,-0.43994140625,0.009033203125,-0.27001953125,1.3209
6.427480916030534,-0.3053435114503817,-2.427480916030534,-0.443115234375,0.01513671875,-0.270263671875,1.3226
6.458015267175573,-0.33587786259541985,-2.183206106870229,-0.43896484375,0.012451171875,-0.26953125,1.3243
6.641221374045801,-0.2748091603053435,-2.2900763358778624,-0.439697265625,0.016357421875,-0.267578125,1.3259999999999998
6.763358778625954,-0.2748091603053435,-2.0763358778625953,-0.440673828125,0.008056640625,-0.272216796875,1.3276999999999999
6.595419847328245,-0.4580152671755725,-2.351145038167939,-0.43994140625,0.0068359375,-0.266357421875,1.3294
6.702290076335878,-0.04580152671755725,-2.2442748091603053,-0.435302734375,0.0126953125,-0.273681640625,1.3311
6.427480916030534,-0.0916030534351145,-2.213740458015267,-0.436767578125,0.009033203125,-0.274169921875,1.3328
6.5038167938931295,-0.2595419847328244,-2.381679389312977,-0.439453125,0.013671875,-0.27392578125,1.3345
6.702290076335878,-0.42748091603053434,-2.2900763358778624,-0.442138671875,0.009765625,-0.26953125,1.3361999999999998
6.778625954198473,-0.2900763358778626,-2.122137404580153,-0.439697265625,0.013671875,-0.270263671875,1.3378999999999999
6.824427480916031,-0.4580152671755725,-2.33587786259542,-0.4375,0.01318359375,-0.273681640625,1.3396
6.931297709923665,-0.42748091603053434,-1.9389312977099236,-0.44140625,0.009765625,-0.271240234375,1.3413
7.022900763358779,-0.3969465648854962,-2.122137404580153,-0.43994140625,0.00634765625,-0.275390625,1.343
7.083969465648855,-0.3511450381679389,-2.1526717557251906,-0.437744140625,0.010498046875,-0.267822265625,1.3447
7.114503816793893,-0.5343511450381679,-2.0916030534351147,-0.4375,0.01416015625,-0.2685546875,1.3463999999999998
6.748091603053435,-0.4732824427480916,-2.0763358778625953,-0.441162109375,0.011962890625,-0.266845703125,1.3480999999999999
7.099236641221374,-0.3511450381679389,-1.9541984732824427,-0.438232421875,0.01025390625,-0.27001953125,1.3497999999999999
7.129770992366412,-0.3969465648854962,-2.015267175572519,-0.44140625,0.005859375,-0.267822265625,1.3515
7.129770992366412,-0.5343511450381679,-2.0610687022900764,-0.438720703125,0.009521484375,-0.266845703125,1.3532
7.114503816793893,-0.2595419847328244,-1.8015267175572518,-0.4423828125,0.004638671875,-0.265380859375,1.3549
6.9465648854961835,-0.2900763358778626,-2.015267175572519,-0.437744140625,0.0068359375,-0.2646484375,1.3566
7.190839694656488,-0.3511450381679389,-2.030534351145038,-0.43798828125,0.01220703125,-0.27197265625,1.3582999999999998
7.129770992366412,-0.3816793893129771,-1.9694656488549618,-0.43701171875,0.011474609375,-0.2783203125,1.3599999999999999
7.175572519083969,-0.2900763358778626,-1.8473282442748091,-0.4443359375,0.009521484375,-0.26220703125,1.3617
7.068702290076335,-0.5038167938931297,-2.183206106870229,-0.436279296875,0.005126953125,-0.270263671875,1.3634
7.068702290076335,-0.48854961832061067,-2.0,-0.434814453125,0.001220703125,-0.262451171875,1.3651
7.083969465648855,-0.5190839694656488,-2.045801526717557,-0.43359375,0.008544921875,-0.262451171875,1.3668
7.32824427480916,-0.48854961832061067,-1.816793893129771,-0.440185546875,0.01171875,-0.269287109375,1.3684999999999998
7.374045801526718,-0.5343511450381679,-1.9389312977099236,-0.441162109375,0.0048828125,-0.27197265625,1.3701999999999999
7.282442748091603,-0.48854961832061067,-1.984732824427481,-0.442138671875,0.006591796875,-0.272216796875,1.3719
7.114503816793893,-0.732824427480916,-2.1526717557251906,-0.43701171875,0.009033203125,-0.266845703125,1.3736
7.068702290076335,-0.8091603053435115,-2.030534351145038,-0.447021484375,0.013916015625,-0.27001953125,1.3753
7.32824427480916,-0.7480916030534351,-2.015267175572519,-0.446533203125,0.009521484375,-0.263671875,1.377
7.3893129770992365,-0.7175572519083969,-2.015267175572519,-0.442626953125,0.0078125,-0.26904296875,1.3786999999999998
7.4961832061068705,-0.5343511450381679,-1.9694656488549618,-0.440673828125,0.00732421875,-0.271240234375,1.3803999999999998
7.435114503816794,-0.6106870229007634,-1.9083969465648856,-0.4443359375,0.00830078125,-0.26953125,1.3820999999999999
7.419847328244275,-0.6870229007633588,-2.1374045801526718,-0.439697265625,0.011962890625,-0.27197265625,1.3838
7.358778625954199,-0.5954198473282443,-2.2900763358778624,-0.443603515625,0.00830078125,-0.26953125,1.3855
7.358778625954199,-0.4122137404580153,-2.2900763358778624,-0.436767578125,0.008056640625,-0.26806640625,1.3872
7.297709923664122,-0.44274809160305345,-2.122137404580153,-0.44287109375,0.0078125,-0.26318359375,1.3889
7.465648854961832,-0.4580152671755725,-2.1526717557251906,-0.439453125,0.01025390625,-0.2626953125,1.3905999999999998
7.3893129770992365,-0.5343511450381679,-2.213740458015267,-0.442626953125,0.00537109375,-0.27490234375,1.3922999999999999
7.465648854961832,-0.5038167938931297,-2.4580152671755724,-0.44091796875,0.0078125,-0.26806640625,1.394
7.847328244274809,-0.2900763358778626,-2.351145038167939,-0.439453125,0.009521484375,-0.2646484375,1.3957
7.755725190839694,-0.5343511450381679,-2.3206106870229006,-0.4345703125,0.00732421875,-0.26611328125,1.3974
7.6183206106870225,-0.6564885496183206,-2.2290076335877864,-0.44189453125,0.00927734375,-0.269287109375,1.3991
7.587786259541985,-0.5343511450381679,-2.2595419847328246,-0.441162109375,0.008056640625,-0.262451171875,1.4007999999999998
7.923664122137405,-0.4732824427480916,-2.213740458015267,-0.437255859375,0.009521484375,-0.260986328125,1.4024999999999999
7.541984732824427,-0.4122137404580153,-2.122137404580153,-0.439208984375,0.00830078125,-0.26611328125,1.4042
7.694656488549619,-0.4122137404580153,-2.0763358778625953,-0.4423828125,0.0087890625,-0.271728515625,1.4059
7.755725190839694,-0.48854961832061067,-2.0916030534351147,-0.443603515625,0.00634765625,-0.2646484375,1.4076
7.7251908396946565,-0.3053435114503817,-1.984732824427481,-0.44384765625,0.010009765625,-0.272216796875,1.4093
7.7251908396946565,-0.3969465648854962,-2.1526717557251906,-0.447265625,0.00390625,-0.2607421875,1.411
7.847328244274809,-0.10687022900763359,-2.0916030534351147,-0.437744140625,0.013427734375,-0.26904296875,1.4126999999999998
7.740458015267175,-0.21374045801526717,-2.122137404580153,-0.4423828125,0.009033203125,-0.26318359375,1.4143999999999999
7.847328244274809,-0.2900763358778626,-2.045801526717557,-0.443603515625,0.008056640625,-0.2626953125,1.4161
7.923664122137405,-0.183206106870229,-2.2290076335877864,-0.439453125,0.009521484375,-0.265380859375,1.4178
7.862595419847328,-0.183206106870229,-2.122137404580153,-0.440185546875,0.009521484375,-0.267822265625,1.4195
7.893129770992366,-0.2748091603053435,-2.16793893129771,-0.437744140625,0.003173828125,-0.266845703125,1.4212
8.122137404580153,-0.12213740458015267,-2.0763358778625953,-0.4404296875,0.01318359375,-0.27392578125,1.4228999999999998
7.740458015267175,-0.1984732824427481,-2.045801526717557,-0.442626953125,0.005126953125,-0.2646484375,1.4245999999999999
7.679389312977099,-0.13740458015267176,-1.9236641221374047,-0.440185546875,0.005615234375,-0.271484375,1.4263
7.786259541984733,-0.0916030534351145,-2.183206106870229,-0.44287109375,0.004638671875,-0.26953125,1.428
7.8320610687022905,-0.183206106870229,-2.015267175572519,-0.443359375,0.0078125,-0.27001953125,1.4297
7.969465648854962,-0.015267175572519083,-2.0,-0.4423828125,0.008544921875,-0.2705078125,1.4314
7.893129770992366,-0.183206106870229,-2.030534351145038,-0.4423828125,0.009033203125,-0.27099609375,1.4330999999999998
7.801526717557252,-0.2748091603053435,-1.9694656488549618,-0.443359375,0.006591796875,-0.2744140625,1.4347999999999999
7.755725190839694,-0.061068702290076333,-1.8625954198473282,-0.440185546875,0.006591796875,-0.260009765625,1.4364999999999999
7.847328244274809,0.0,-2.122137404580153,-0.441650390625,0.0078125,-0.258544921875,1.4382
7.923664122137405,-0.015267175572519083,-1.8778625954198473,-0.440185546875,0.007080078125,-0.270751953125,1.4399
7.893129770992366,0.0,-1.8778625954198473,-0.44091796875,0.008544921875,-0.27197265625,1.4416
7.9541984732824424,0.04580152671755725,-2.030534351145038,-0.44189453125,0.00439453125,-0.263916015625,1.4433
7.8320610687022905,0.07633587786259542,-2.1374045801526718,-0.433837890625,0.006591796875,-0.268310546875,1.4449999999999998
7.8320610687022905,-0.015267175572519083,-2.198473282442748,-0.439697265625,0.00830078125,-0.2705078125,1.4466999999999999
7.908396946564886,-0.061068702290076333,-2.0763358778625953,-0.442138671875,0.007568359375,-0.26611328125,1.4484
8.106870229007633,-0.22900763358778625,-2.33587786259542,-0.437744140625,0.0068359375,-0.259521484375,1.4501
8.0,-0.3969465648854962,-2.2290076335877864,-0.4375,0.006103515625,-0.2724609375,1.4518
7.862595419847328,-0.10687022900763359,-1.984732824427481,-0.44287109375,0.005615234375,-0.267578125,1.4535
8.106870229007633,-0.15267175572519084,-2.351145038167939,-0.44384765625,-0.001220703125,-0.2646484375,1.4551999999999998
7.877862595419847,-0.12213740458015267,-2.2595419847328246,-0.4404296875,0.010009765625,-0.26806640625,1.4568999999999999
7.8320610687022905,-0.10687022900763359,-2.3206106870229006,-0.439697265625,0.009033203125,-0.27490234375,1.4586
8.045801526717558,-0.183206106870229,-2.198473282442748,-0.435546875,0.00439453125,-0.27197265625,1.4603
7.816793893129771,-0.24427480916030533,-2.2290076335877864,-0.439208984375,0.007568359375,-0.267333984375,1.462
7.877862595419847,-0.15267175572519084,-2.1526717557251906,-0.43798828125,0.005126953125,-0.267333984375,1.4637
7.9541984732824424,-0.15267175572519084,-2.2748091603053435,-0.4404296875,0.008056640625,-0.263916015625,1.4653999999999998
8.16793893129771,-0.0916030534351145,-2.2595419847328246,-0.440673828125,0.00927734375,-0.263427734375,1.4670999999999998
8.076335877862595,0.07633587786259542,-2.2900763358778624,-0.4384765625,0.005859375,-0.2646484375,1.4687999999999999
7.908396946564886,-0.1984732824427481,-2.122137404580153,-0.43896484375,0.009521484375,-0.266357421875,1.4705
7.9541984732824424,-0.10687022900763359,-2.0916030534351147,-0.439453125,0.003662109375,-0.26806640625,1.4722
8.061068702290076,0.07633587786259542,-2.0916030534351147,-0.437744140625,0.001953125,-0.257080078125,1.4739
8.030534351145038,-0.10687022900763359,-2.045801526717557,-0.441162109375,0.003662109375,-0.265380859375,1.4756
7.862595419847328,-0.4122137404580153,-2.0610687022900764,-0.441650390625,0.002685546875,-0.265869140625,1.4772999999999998
7.847328244274809,0.0,-1.9236641221374047,-0.4384765625,0.00439453125,-0.2685546875,1.4789999999999999
7.862595419847328,-0.10687022900763359,-2.122137404580153,-0.43359375,0.001708984375,-0.265380859375,1.4807
7.755725190839694,-0.2595419847328244,-1.984732824427481,-0.438232421875,0.00634765625,-0.2685546875,1.4824
7.847328244274809,-0.2900763358778626,-1.816793893129771,-0.438232421875,0.006103515625,-0.26220703125,1.4841
7.847328244274809,0.0,-1.83206106870229,-0.439208984375,0.00439453125,-0.270751953125,1.4858
7.755725190839694,0.04580152671755725,-1.7557251908396947,-0.44384765625,0.001708984375,-0.271240234375,1.4874999999999998
7.770992366412214,-0.04580152671755725,-1.5725190839694656,-0.44482421875,0.003662109375,-0.266845703125,1.4891999999999999
7.7251908396946565,0.0916030534351145,-1.5419847328244274,-0.44287109375,0.004150390625,-0.268310546875,1.4909
7.770992366412214,0.015267175572519083,-1.5572519083969465,-0.44775390625,0.004638671875,-0.26025390625,1.4926
8.045801526717558,0.21374045801526717,-1.633587786259542,-0.44384765625,0.00830078125,-0.264404296875,1.4943
7.633587786259542,0.2900763358778626,-1.6946564885496183,-0.4462890625,0.005126953125,-0.268310546875,1.496
7.66412213740458,0.24427480916030533,-1.6946564885496183,-0.44287109375,0.00244140625,-0.266845703125,1.4976999999999998
7.908396946564886,0.33587786259541985,-1.4351145038167938,-0.443603515625,0.00146484375,-0.267822265625,1.4993999999999998
7.603053435114504,0.48854961832061067,-1.5725190839694656,-0.44775390625,0.007080078125,-0.274169921875,1.5010999999999999
7.755725190839694,0.33587786259541985,-1.618320610687023,-0.446533203125,0.004150390625,-0.267578125,1.5028
7.801526717557252,0.2595419847328244,-1.5572519083969465,-0.447265625,0.00439453125,-0.266845703125,1.5045
7.6183206106870225,0.2748091603053435,-1.6030534351145038,-0.443603515625,0.005859375,-0.267578125,1.5062
7.66412213740458,0.3969465648854962,-1.7404580152671756,-0.444091796875,0.006103515625,-0.26904296875,1.5079
7.740458015267175,0.3816793893129771,-1.8473282442748091,-0.44384765625,0.00537109375,-0.268310546875,1.5095999999999998
7.541984732824427,0.3511450381679389,-1.8625954198473282,-0.443603515625,0.003662109375,-0.27197265625,1.5112999999999999
7.541984732824427,0.2900763358778626,-1.984732824427481,-0.443359375,0.00732421875,-0.267822265625,1.513
7.8320610687022905,0.3511450381679389,-1.9541984732824427,-0.441650390625,0.0029296875,-0.266357421875,1.5147
7.6183206106870225,0.366412213740458,-1.786259541984733,-0.439208984375,0.0009765625,-0.270263671875,1.5164
7.587786259541985,0.2748091603053435,-2.015267175572519,-0.447509765625,0.00439453125,-0.26611328125,1.5181
7.679389312977099,0.2900763358778626,-1.984732824427481,-0.4404296875,0.005615234375,-0.264404296875,1.5197999999999998
7.770992366412214,0.3511450381679389,-1.9083969465648856,-0.441162109375,0.0029296875,-0.272705078125,1.5214999999999999
7.740458015267175,0.24427480916030533,-1.9541984732824427,-0.443359375,0.00341796875,-0.266845703125,1.5231999999999999
7.755725190839694,0.183206106870229,-2.0763358778625953,-0.44287109375,0.004638671875,-0.262451171875,1.5249
7.541984732824427,0.12213740458015267,-1.8778625954198473,-0.44384765625,0.00048828125,-0.27392578125,1.5266
7.343511450381679,0.015267175572519083,-2.16793893129771,-0.444091796875,0.0009765625,-0.275146484375,1.5283
7.557251908396947,-0.183206106870229,-2.2442748091603053,-0.44287109375,0.008056640625,-0.265380859375,1.5299999999999998
7.694656488549619,-0.030534351145038167,-2.030534351145038,-0.442138671875,0.0029296875,-0.26220703125,1.5316999999999998
7.4961832061068705,0.015267175572519083,-1.8473282442748091,-0.440673828125,0.001220703125,-0.25927734375,1.5333999999999999
7.4961832061068705,-0.04580152671755725,-1.9541984732824427,-0.443359375,0.0068359375,-0.267333984375,1.5351
7.404580152671755,0.0,-1.9694656488549618,-0.447021484375,0.00537109375,-0.261962890625,1.5368
7.404580152671755,-0.030534351145038167,-2.0916030534351147,-0.4443359375,0.001708984375,-0.260498046875,1.5385
7.312977099236641,0.15267175572519084,-1.7099236641221374,-0.44384765625,0.00244140625,-0.269775390625,1.5402
7.206106870229007,0.07633587786259542,-1.786259541984733,-0.442138671875,0.005126953125,-0.270263671875,1.5418999999999998
7.267175572519084,0.22900763358778625,-1.7251908396946565,-0.444580078125,0.0048828125,-0.268798828125,1.5435999999999999
7.297709923664122,0.07633587786259542,-1.83206106870229,-0.440673828125,0.005615234375,-0.265869140625,1.5453
7.1603053435114505,-0.13740458015267176,-1.7099236641221374,-0.442138671875,0.004638671875,-0.264892578125,1.547
7.022900763358779,-0.12213740458015267,-1.7251908396946565,-0.44287109375,0.000244140625,-0.267822265625,1.5487
7.038167938931298,-0.061068702290076333,-1.6946564885496183,-0.44091796875,0.00048828125,-0.2626953125,1.5504
6.961832061068702,-0.15267175572519084,-1.786259541984733,-0.43896484375,0.002197265625,-0.273681640625,1.5520999999999998
6.854961832061068,-0.04580152671755725,-1.6488549618320612,-0.43115234375,0.0048828125,-0.269287109375,1.5537999999999998
6.824427480916031,0.0,-1.6641221374045803,-0.43603515625,0.002197265625,-0.2705078125,1.5554999999999999
6.854961832061068,0.015267175572519083,-1.6946564885496183,-0.4384765625,-0.00048828125,-0.261962890625,1.5572
6.564885496183206,-0.07633587786259542,-1.816793893129771,-0.4404296875,0.00048828125,-0.273193359375,1.5589
6.824427480916031,-0.061068702290076333,-1.83206106870229,-0.441162109375,0.00537109375,-0.267578125,1.5606
6.763358778625954,-0.030534351145038167,-1.9541984732824427,-0.442626953125,-0.000732421875,-0.260986328125,1.5623
6.67175572519084,0.015267175572519083,-1.9389312977099236,-0.440185546875,-0.00341796875,-0.26953125,1.5639999999999998
6.732824427480916,-0.21374045801526717,-1.6793893129770991,-0.43798828125,0.001953125,-0.273681640625,1.5656999999999999
6.625954198473282,-0.2595419847328244,-1.8015267175572518,-0.439453125,0.002197265625,-0.260009765625,1.5674
6.5038167938931295,-0.15267175572519084,-1.9083969465648856,-0.43798828125,-0.0009765625,-0.261474609375,1.5691
6.625954198473282,-0.32061068702290074,-1.618320610687023,-0.435302734375,0.001953125,-0.255859375,1.5708
6.351145038167939,-0.44274809160305345,-1.9083969465648856,-0.43701171875,0.00244140625,-0.25732421875,1.5725
6.549618320610687,-0.3511450381679389,-1.8931297709923665,-0.443359375,-0.003173828125,-0.265869140625,1.5741999999999998
6.442748091603053,-0.48854961832061067,-1.786259541984733,-0.4404296875,-0.0048828125,-0.263916015625,1.5758999999999999
6.320610687022901,-0.4580152671755725,-1.786259541984733,-0.437255859375,-0.00634765625,-0.2587890625,1.5776
6.091603053435114,-0.3511450381679389,-1.9541984732824427,-0.44189453125,0.002197265625,-0.26220703125,1.5793
6.305343511450381,-0.33587786259541985,-1.8778625954198473,-0.43798828125,0.00537109375,-0.2705078125,1.581
6.2748091603053435,-0.42748091603053434,-1.9541984732824427,-0.439208984375,0.005126953125,-0.26318359375,1.5827
6.183206106870229,-0.5038167938931297,-1.9389312977099236,-0.4423828125,0.003662109375,-0.263916015625,1.5843999999999998
6.061068702290076,-0.4580152671755725,-1.9694656488549618,-0.441650390625,0.003662109375,-0.262939453125,1.5860999999999998
6.1679389312977095,-0.6564885496183206,-1.9541984732824427,-0.442138671875,0.0048828125,-0.263427734375,1.5877999999999999
6.015267175572519,-0.7480916030534351,-2.1068702290076335,-0.4404296875,0.006591796875,-0.2626953125,1.5895
5.908396946564886,-0.732824427480916,-1.9389312977099236,-0.44140625,0.003662109375,-0.260498046875,1.5912
6.0458015267175576,-0.7938931297709924,-1.9389312977099236,-0.43603515625,0.00439453125,-0.2646484375,1.5929
5.893129770992366,-0.732824427480916,-1.7404580152671756,-0.44140625,-0.00146484375,-0.261962890625,1.5946
5.847328244274809,-0.9007633587786259,-2.0610687022900764,-0.440673828125,-0.00244140625,-0.260498046875,1.5962999999999998
5.801526717557252,-0.6870229007633588,-1.7099236641221374,-0.4404296875,-0.00244140625,-0.263671875,1.5979999999999999
5.557251908396947,-0.7022900763358778,-1.9236641221374047,-0.442626953125,-0.00390625,-0.27001953125,1.5997
5.7251908396946565,-0.7786259541984732,-1.8778625954198473,-0.4443359375,0.001708984375,-0.27001953125,1.6014
5.923664122137405,-0.6717557251908397,-1.6946564885496183,-0.439453125,-0.0009765625,-0.262451171875,1.6031
5.633587786259542,-0.6870229007633588,-1.6946564885496183,-0.448486328125,0.000732421875,-0.273193359375,1.6048
5.587786259541985,-0.6564885496183206,-1.6946564885496183,-0.440673828125,-0.002197265625,-0.269287109375,1.6064999999999998
5.480916030534351,-0.4732824427480916,-1.816793893129771,-0.4443359375,0.002197265625,-0.2724609375,1.6081999999999999
5.480916030534351,-0.5648854961832062,-1.7404580152671756,-0.4384765625,-0.003173828125,-0.268798828125,1.6098999999999999
5.190839694656488,-0.5801526717557252,-1.5419847328244274,-0.439453125,0.001953125,-0.26904296875,1.6116
5.114503816793893,-0.6870229007633588,-1.7251908396946565,-0.443359375,0.00146484375,-0.269775390625,1.6133
5.251908396946565,-0.5801526717557252,-1.6641221374045803,-0.444580078125,-0.006103515625,-0.273681640625,1.615
5.00763358778626,-0.6259541984732825,-1.6488549618320612,-0.449462890625,-0.0029296875,-0.26806640625,1.6166999999999998
5.114503816793893,-0.4580152671755725,-1.5572519083969465,-0.439697265625,0.001220703125,-0.263427734375,1.6183999999999998
5.190839694656488,-0.48854961832061067,-1.7404580152671756,-0.440673828125,-0.002685546875,-0.26318359375,1.6200999999999999
4.916030534351145,-0.5038167938931297,-1.4809160305343512,-0.445068359375,0.0,-0.26416015625,1.6218
4.824427480916031,-0.4732824427480916,-1.6030534351145038,-0.44580078125,0.005126953125,-0.27099609375,1.6235
4.748091603053435,-0.32061068702290074,-1.6030534351145038,-0.443603515625,0.0068359375,-0.269775390625,1.6252
4.778625954198473,-0.2900763358778626,-1.633587786259542,-0.442626953125,-0.00048828125,-0.26220703125,1.6269
4.717557251908397,-0.21374045801526717,-1.3587786259541985,-0.445556640625,-0.00048828125,-0.266845703125,1.6285999999999998
4.67175572519084,-0.22900763358778625,-1.3740458015267176,-0.44287109375,-0.00244140625,-0.254638671875,1.6302999999999999
4.564885496183206,-0.183206106870229,-1.4198473282442747,-0.446044921875,0.0029296875,-0.260986328125,1.632
4.427480916030534,-0.2900763358778626,-1.3587786259541985,-0.44482421875,0.000244140625,-0.260009765625,1.6337
4.412213740458015,-0.10687022900763359,-1.1603053435114503,-0.44970703125,-0.002685546875,-0.26904296875,1.6354
4.137404580152672,0.0,-1.1755725190839694,-0.44921875,-0.001953125,-0.263427734375,1.6371
4.183206106870229,-0.0916030534351145,-1.3129770992366412,-0.4453125,0.002685546875,-0.265380859375,1.6387999999999998
4.2748091603053435,0.24427480916030533,-1.3893129770992367,-0.443603515625,-0.0009765625,-0.26611328125,1.6404999999999998
4.213740458015267,0.32061068702290074,-1.1755725190839694,-0.447509765625,-0.004638671875,-0.266357421875,1.6421999999999999
4.015267175572519,0.10687022900763359,-1.3587786259541985,-0.447998046875,-0.004150390625,-0.26220703125,1.6439
3.969465648854962,0.22900763358778625,-1.1297709923664123,-0.443603515625,-0.0048828125,-0.260009765625,1.6456
3.9389312977099236,0.15267175572519084,-1.2671755725190839,-0.447021484375,0.005126953125,-0.2666015625,1.6473
3.816793893129771,0.48854961832061067,-1.1755725190839694,-0.442138671875,0.0,-0.263671875,1.6489999999999998
3.7404580152671754,0.5343511450381679,-1.3129770992366412,-0.447265625,-0.000244140625,-0.2626953125,1.6506999999999998
3.984732824427481,0.44274809160305345,-1.1603053435114503,-0.440185546875,-0.00439453125,-0.266357421875,1.6523999999999999
3.6793893129770994,0.32061068702290074,-1.2061068702290076,-0.44140625,-0.00146484375,-0.265869140625,1.6541
3.3740458015267176,0.4580152671755725,-1.2213740458015268,-0.4423828125,0.00146484375,-0.27392578125,1.6558
3.7404580152671754,0.5954198473282443,-1.282442748091603,-0.437255859375,-0.00048828125,-0.2626953125,1.6575
3.6030534351145036,0.549618320610687,-1.1450381679389312,-0.445556640625,0.001220703125,-0.26953125,1.6592
3.6030534351145036,0.6870229007633588,-1.5114503816793894,-0.44482421875,-0.000244140625,-0.26171875,1.6608999999999998
3.3740458015267176,0.4732824427480916,-1.2213740458015268,-0.4443359375,-0.000244140625,-0.26513671875,1.6625999999999999
3.267175572519084,0.732824427480916,-1.4351145038167938,-0.441650390625,0.003662109375,-0.251220703125,1.6643
3.2519083969465647,0.6717557251908397,-1.282442748091603,-0.448486328125,0.0029296875,-0.263916015625,1.666
3.450381679389313,0.7022900763358778,-1.2671755725190839,-0.447998046875,0.000244140625,-0.2626953125,1.6677
3.267175572519084,0.7175572519083969,-1.1450381679389312,-0.4462890625,-0.00146484375,-0.27392578125,1.6694
3.1755725190839694,0.9465648854961832,-1.4045801526717556,-0.4501953125,-0.006591796875,-0.27197265625,1.6710999999999998
3.236641221374046,0.8702290076335878,-1.1908396946564885,-0.447998046875,-0.00732421875,-0.264892578125,1.6727999999999998
2.9923664122137406,0.9465648854961832,-1.3282442748091603,-0.444580078125,0.001220703125,-0.25634765625,1.6744999999999999
3.099236641221374,1.1603053435114503,-1.3129770992366412,-0.44287109375,0.00244140625,-0.2568359375,1.6762
3.053435114503817,1.2671755725190839,-1.5572519083969465,-0.44189453125,-0.001708984375,-0.2685546875,1.6779
2.946564885496183,1.1450381679389312,-1.4045801526717556,-0.442138671875,0.003662109375,-0.259033203125,1.6796
2.854961832061069,1.282442748091603,-1.5572519083969465,-0.446533203125,-0.001708984375,-0.261474609375,1.6813
2.7938931297709924,1.2213740458015268,-1.5725190839694656,-0.443115234375,0.00390625,-0.273681640625,1.6829999999999998
2.595419847328244,1.2671755725190839,-1.450381679389313,-0.445556640625,0.00390625,-0.26708984375,1.6846999999999999
2.8091603053435112,1.2671755725190839,-1.450381679389313,-0.443359375,0.002685546875,-0.2685546875,1.6864
2.763358778625954,1.3740458015267176,-1.618320610687023,-0.44287109375,-0.001953125,-0.264404296875,1.6881
2.8396946564885495,1.4351145038167938,-1.6641221374045803,-0.444580078125,-0.005615234375,-0.260009765625,1.6898
2.687022900763359,1.297709923664122,-1.4809160305343512,-0.44873046875,-0.00048828125,-0.261474609375,1.6915
2.4580152671755724,1.4351145038167938,-1.4045801526717556,-0.447021484375,-0.0029296875,-0.270263671875,1.6931999999999998
2.4885496183206106,1.4809160305343512,-1.9389312977099236,-0.4462890625,-0.0029296875,-0.2587890625,1.6948999999999999
2.3206106870229006,1.5267175572519085,-1.6793893129770991,-0.44677734375,-0.001708984375,-0.269287109375,1.6965999999999999
2.4885496183206106,1.7404580152671756,-1.618320610687023,-0.4404296875,-0.002197265625,-0.27294921875,1.6983
2.50381679389313,1.4198473282442747,-1.5725190839694656,-0.44287109375,0.0,-0.27978515625,1.7
2.2442748091603053,1.5267175572519085,-1.7251908396946565,-0.4453125,0.0,-0.259033203125,1.7017
2.2595419847328246,1.6793893129770991,-1.6641221374045803,-0.442626953125,0.001708984375,-0.2666015625,1.7033999999999998
2.122137404580153,1.5877862595419847,-1.618320610687023,-0.442138671875,-0.001953125,-0.26220703125,1.7050999999999998
2.0916030534351147,1.6641221374045803,-1.5725190839694656,-0.43408203125,-0.00048828125,-0.258544921875,1.7067999999999999
2.2442748091603053,1.4809160305343512,-1.816793893129771,-0.440185546875,0.0,-0.258056640625,1.7085
2.015267175572519,1.6641221374045803,-1.7709923664122138,-0.433349609375,0.000732421875,-0.265625,1.7102
1.9389312977099236,1.618320610687023,-1.7251908396946565,-0.435302734375,0.001953125,-0.267333984375,1.7119
1.816793893129771,1.618320610687023,-1.6793893129770991,-0.43798828125,-0.007080078125,-0.2578125,1.7136
1.9083969465648856,1.7099236641221374,-1.633587786259542,-0.43896484375,-0.006591796875,-0.27490234375,1.7152999999999998
1.7557251908396947,1.8015267175572518,-1.6030534351145038,-0.435302734375,-0.005126953125,-0.266357421875,1.7169999999999999
1.8625954198473282,1.6641221374045803,-1.450381679389313,-0.43798828125,-0.006103515625,-0.255615234375,1.7187
1.7099236641221374,1.786259541984733,-1.4351145038167938,-0.4404296875,-0.004638671875,-0.264892578125,1.7204
1.5267175572519085,1.8015267175572518,-1.5267175572519085,-0.43603515625,-0.00439453125,-0.264892578125,1.7221
1.450381679389313,1.8931297709923665,-1.3129770992366412,-0.441650390625,-0.0029296875,-0.2578125,1.7238
1.3129770992366412,1.9389312977099236,-1.5419847328244274,-0.44482421875,0.0009765625,-0.269775390625,1.7254999999999998
1.1755725190839694,1.8015267175572518,-1.4198473282442747,-0.446533203125,-0.004638671875,-0.26611328125,1.7271999999999998
1.3129770992366412,2.0610687022900764,-1.465648854961832,-0.44091796875,-0.00390625,-0.267333984375,1.7288999999999999
1.2061068702290076,1.83206106870229,-1.4045801526717556,-0.44482421875,0.000244140625,-0.278564453125,1.7306
1.1908396946564885,1.7099236641221374,-1.450381679389313,-0.4404296875,0.001953125,-0.261474609375,1.7323
1.1603053435114503,1.7709923664122138,-1.297709923664122,-0.43896484375,0.000732421875,-0.265625,1.734
1.099236641221374,1.7404580152671756,-1.4198473282442747,-0.44189453125,0.000732421875,-0.260986328125,1.7356999999999998
0.8702290076335878,1.8015267175572518,-1.3740458015267176,-0.438232421875,-0.0009765625,-0.265380859375,1.7373999999999998
1.0076335877862594,1.7709923664122138,-1.3587786259541985,-0.440673828125,0.005859375,-0.261962890625,1.7390999999999999
1.0076335877862594,1.786259541984733,-1.5114503816793894,-0.4404296875,0.001953125,-0.26806640625,1.7408
0.916030534351145,1.8473282442748091,-1.4045801526717556,-0.43896484375,0.004150390625,-0.26220703125,1.7425
0.9923664122137404,1.816793893129771,-1.3587786259541985,-0.445068359375,0.003173828125,-0.271728515625,1.7442
0.9007633587786259,1.8625954198473282,-1.618320610687023,-0.443359375,0.001708984375,-0.2685546875,1.7459
0.9007633587786259,1.7404580152671756,-1.3587786259541985,-0.443115234375,0.001953125,-0.26513671875,1.7475999999999998
0.8549618320610687,1.9541984732824427,-1.465648854961832,-0.44482421875,0.002197265625,-0.264892578125,1.7492999999999999
0.6870229007633588,1.9694656488549618,-1.633587786259542,-0.43896484375,-0.0009765625,-0.2626953125,1.751
0.6564885496183206,2.045801526717557,-1.8778625954198473,-0.445068359375,-0.00048828125,-0.26708984375,1.7527
0.8091603053435115,1.9236641221374047,-1.618320610687023,-0.44384765625,0.005859375,-0.2646484375,1.7544
0.9618320610687023,1.8473282442748091,-1.7709923664122138,-0.435791015625,0.0048828125,-0.259765625,1.7561
0.6717557251908397,1.83206106870229,-1.7404580152671756,-0.442138671875,0.00341796875,-0.266357421875,1.7577999999999998
0.7175572519083969,1.7557251908396947,-1.8473282442748091,-0.43896484375,-0.001220703125,-0.2626953125,1.7594999999999998
1.0229007633587786,1.83206106870229,-1.7557251908396947,-0.445556640625,-0.00341796875,-0.262939453125,1.7611999999999999
0.6412213740458015,1.9083969465648856,-1.7251908396946565,-0.440185546875,0.0,-0.2685546875,1.7629
0.7022900763358778,2.0610687022900764,-1.6793893129770991,-0.443359375,0.00390625,-0.269287109375,1.7646
0.7022900763358778,1.83206106870229,-1.5267175572519085,-0.438232421875,0.00341796875,-0.26611328125,1.7663
0.6717557251908397,1.9236641221374047,-1.6946564885496183,-0.442138671875,0.002685546875,-0.261962890625,1.7679999999999998
0.732824427480916,2.213740458015267,-2.015267175572519,-0.439697265625,0.0,-0.264404296875,1.7696999999999998
0.5343511450381679,2.16793893129771,-2.0763358778625953,-0.44482421875,0.00390625,-0.26416015625,1.7713999999999999
0.6106870229007634,1.9083969465648856,-1.7709923664122138,-0.443603515625,0.001708984375,-0.26513671875,1.7731
0.6106870229007634,2.0763358778625953,-1.9694656488549618,-0.4482421875,0.005615234375,-0.2685546875,1.7748
0.5954198473282443,2.030534351145038,-2.1068702290076335,-0.4453125,0.0009765625,-0.26611328125,1.7765
0.6717557251908397,2.183206106870229,-2.122137404580153,-0.44189453125,0.002685546875,-0.2587890625,1.7782
0.4732824427480916,2.213740458015267,-2.045801526717557,-0.443115234375,0.005859375,-0.264404296875,1.7798999999999998
0.5038167938931297,2.1374045801526718,-2.030534351145038,-0.4384765625,0.005126953125,-0.270751953125,1.7815999999999999
0.5343511450381679,2.16793893129771,-2.1068702290076335,-0.438232421875,0.004638671875,-0.26904296875,1.7832999999999999
0.7633587786259542,2.122137404580153,-2.0,-0.439697265625,0.00341796875,-0.262451171875,1.785
0.4580152671755725,1.984732824427481,-2.030534351145038,-0.443359375,0.0029296875,-0.25390625,1.7867
0.44274809160305345,2.1526717557251906,-1.9236641221374047,-0.438232421875,-0.00048828125,-0.263671875,1.7884
0.5343511450381679,2.2748091603053435,-1.9541984732824427,-0.438720703125,0.0009765625,-0.268310546875,1.7900999999999998
0.4732824427480916,2.1374045801526718,-1.9694656488549618,-0.444091796875,-0.003173828125,-0.260009765625,1.7917999999999998
0.5801526717557252,2.2290076335877864,-1.8778625954198473,-0.446533203125,0.005615234375,-0.275634765625,1.7934999999999999
0.5038167938931297,2.381679389312977,-1.9389312977099236,-0.447021484375,0.0048828125,-0.275146484375,1.7952
0.5648854961832062,2.213740458015267,-2.122137404580153,-0.44580078125,0.002197265625,-0.26513671875,1.7969
0.6870229007633588,2.2290076335877864,-2.1068702290076335,-0.442626953125,0.00390625,-0.277587890625,1.7986
0.42748091603053434,2.3053435114503817,-2.2290076335877864,-0.44677734375,0.002197265625,-0.269287109375,1.8002999999999998
0.3816793893129771,2.2748091603053435,-2.2442748091603053,-0.4423828125,0.007568359375,-0.263671875,1.8019999999999998
0.4122137404580153,2.427480916030534,-2.122137404580153,-0.443603515625,0.00634765625,-0.270263671875,1.8036999999999999
