gyrox1,gyroy1,gyroz1,accelx1,accely1,accelz1,Time
0.5954198473282443,2.946564885496183,-0.9312977099236641,-0.40625,0.0439453125,-0.3349609375,0.0
0.3816793893129771,2.946564885496183,-1.2061068702290076,-0.40869140625,0.0498046875,-0.330322265625,0.0017
0.4732824427480916,2.9160305343511452,-1.1297709923664123,-0.41064453125,0.045166015625,-0.3291015625,0.0034
0.7175572519083969,2.8396946564885495,-1.1145038167938932,-0.412109375,0.05029296875,-0.325927734375,0.0050999999999999995
0.6717557251908397,2.854961832061069,-1.2671755725190839,-0.408203125,0.0478515625,-0.329345703125,0.0068
0.4122137404580153,2.5343511450381677,-1.6030534351145038,-0.408203125,0.049560546875,-0.333984375,0.008499999999999999
0.5343511450381679,2.549618320610687,-1.2671755725190839,-0.414306640625,0.04736328125,-0.3232421875,0.010199999999999999
1.083969465648855,2.9618320610687023,-1.251908396946565,-0.411865234375,0.0537109375,-0.32861328125,0.011899999999999999
0.8702290076335878,2.931297709923664,-1.2061068702290076,-0.411376953125,0.042724609375,-0.329833984375,0.0136
1.0534351145038168,2.900763358778626,-1.297709923664122,-0.41015625,0.052978515625,-0.327392578125,0.0153
0.9465648854961832,3.145038167938931,-1.5419847328244274,-0.409912109375,0.05224609375,-0.32421875,0.016999999999999998
0.916030534351145,3.1297709923664123,-1.2671755725190839,-0.416259765625,0.046142578125,-0.3291015625,0.018699999999999998
1.0381679389312977,3.2213740458015265,-1.3435114503816794,-0.4052734375,0.046142578125,-0.335205078125,0.020399999999999998
1.2671755725190839,3.282442748091603,-1.3893129770992367,-0.40771484375,0.04638671875,-0.332763671875,0.022099999999999998
1.0076335877862594,3.053435114503817,-1.5725190839694656,-0.40673828125,0.0458984375,-0.331298828125,0.023799999999999998
1.1297709923664123,3.1755725190839694,-1.4809160305343512,-0.407470703125,0.048583984375,-0.330810546875,0.0255
1.251908396946565,3.114503816793893,-1.5572519083969465,-0.407470703125,0.050537109375,-0.3251953125,0.0272
0.9770992366412213,3.0076335877862594,-1.297709923664122,-0.40576171875,0.048583984375,-0.332275390625,0.0289
1.2213740458015268,3.0839694656488548,-1.450381679389313,-0.40576171875,0.046875,-0.337646484375,0.0306
1.6488549618320612,3.1603053435114505,-1.6488549618320612,-0.408447265625,0.047607421875,-0.331787109375,0.032299999999999995
1.4351145038167938,2.931297709923664,-1.3129770992366412,-0.406494140625,0.048583984375,-0.33447265625,0.033999999999999996
1.1908396946564885,2.7786259541984735,-1.3587786259541985,-0.406005859375,0.05126953125,-0.330322265625,0.035699999999999996
1.3282442748091603,2.9618320610687023,-1.5267175572519085,-0.40380859375,0.0478515625,-0.33544921875,0.037399999999999996
1.2213740458015268,2.7786259541984735,-1.3893129770992367,-0.407470703125,0.051513671875,-0.328125,0.039099999999999996
1.2366412213740459,3.068702290076336,-1.4198473282442747,-0.41259765625,0.044677734375,-0.330810546875,0.040799999999999996
1.3282442748091603,3.0381679389312977,-1.4351145038167938,-0.409912109375,0.045654296875,-0.328125,0.042499999999999996
1.465648854961832,2.900763358778626,-1.3893129770992367,-0.409423828125,0.0419921875,-0.334228515625,0.044199999999999996
1.3893129770992367,2.8702290076335877,-1.5267175572519085,-0.40771484375,0.043701171875,-0.331787109375,0.045899999999999996
1.3740458015267176,2.9923664122137406,-1.3435114503816794,-0.404052734375,0.05078125,-0.33154296875,0.047599999999999996
1.251908396946565,2.8244274809160306,-1.3129770992366412,-0.40771484375,0.04443359375,-0.31982421875,0.0493
1.2671755725190839,2.6564885496183206,-1.3435114503816794,-0.404541015625,0.04345703125,-0.322021484375,0.051
1.6488549618320612,2.9160305343511452,-1.297709923664122,-0.40478515625,0.048095703125,-0.325927734375,0.0527
1.6641221374045803,2.7480916030534353,-1.3435114503816794,-0.41064453125,0.049072265625,-0.336669921875,0.0544
1.1908396946564885,2.7022900763358777,-1.2671755725190839,-0.4091796875,0.050537109375,-0.338623046875,0.0561
1.3282442748091603,2.6564885496183206,-1.4351145038167938,-0.41015625,0.045654296875,-0.340576171875,0.0578
1.4045801526717556,2.6106870229007635,-1.1297709923664123,-0.405029296875,0.04833984375,-0.329345703125,0.0595
1.5419847328244274,2.6259541984732824,-1.2061068702290076,-0.407470703125,0.044921875,-0.327880859375,0.0612
1.1908396946564885,2.732824427480916,-1.450381679389313,-0.408935546875,0.044189453125,-0.339111328125,0.0629
1.3893129770992367,2.6259541984732824,-1.3587786259541985,-0.40673828125,0.049072265625,-0.334228515625,0.06459999999999999
1.4961832061068703,2.8396946564885495,-1.1908396946564885,-0.4052734375,0.0458984375,-0.32861328125,0.0663
1.3893129770992367,2.351145038167939,-1.1755725190839694,-0.4033203125,0.04541015625,-0.328369140625,0.06799999999999999
1.3740458015267176,2.5343511450381677,-1.5877862595419847,-0.4072265625,0.049072265625,-0.336181640625,0.0697
1.5877862595419847,2.564885496183206,-1.4351145038167938,-0.404052734375,0.045654296875,-0.32958984375,0.07139999999999999
1.5877862595419847,2.427480916030534,-1.4045801526717556,-0.406005859375,0.046875,-0.323974609375,0.0731
1.4809160305343512,2.33587786259542,-1.4045801526717556,-0.410888671875,0.04248046875,-0.326416015625,0.07479999999999999
1.4351145038167938,2.6564885496183206,-1.083969465648855,-0.4052734375,0.043212890625,-0.323974609375,0.0765
1.3893129770992367,2.549618320610687,-1.251908396946565,-0.4091796875,0.04296875,-0.3310546875,0.07819999999999999
1.3282442748091603,2.2748091603053435,-1.1145038167938932,-0.40673828125,0.044921875,-0.334228515625,0.0799
1.2213740458015268,2.519083969465649,-1.1755725190839694,-0.40380859375,0.04541015625,-0.33251953125,0.08159999999999999
1.3282442748091603,2.4885496183206106,-1.4045801526717556,-0.404296875,0.0419921875,-0.34326171875,0.0833
1.4045801526717556,2.3206106870229006,-1.4198473282442747,-0.407470703125,0.04052734375,-0.337158203125,0.08499999999999999
1.4961832061068703,2.427480916030534,-1.2366412213740459,-0.40673828125,0.04638671875,-0.328369140625,0.0867
1.4045801526717556,2.2442748091603053,-1.1755725190839694,-0.4091796875,0.0478515625,-0.3251953125,0.08839999999999999
1.5419847328244274,2.3053435114503817,-1.465648854961832,-0.41064453125,0.0458984375,-0.32861328125,0.0901
1.5267175572519085,2.213740458015267,-1.450381679389313,-0.40625,0.048828125,-0.3291015625,0.09179999999999999
1.3282442748091603,2.2748091603053435,-1.0229007633587786,-0.4111328125,0.044921875,-0.32421875,0.0935
1.5114503816793894,2.2290076335877864,-1.3282442748091603,-0.407958984375,0.04638671875,-0.34228515625,0.09519999999999999
1.3435114503816794,2.213740458015267,-1.2366412213740459,-0.4013671875,0.04345703125,-0.32568359375,0.0969
1.5572519083969465,2.33587786259542,-1.3282442748091603,-0.405029296875,0.0439453125,-0.339111328125,0.0986
1.816793893129771,2.1526717557251906,-1.3740458015267176,-0.407470703125,0.04248046875,-0.32861328125,0.1003
1.3587786259541985,2.183206106870229,-1.3435114503816794,-0.404541015625,0.04150390625,-0.328125,0.102
1.4961832061068703,2.2900763358778624,-1.2366412213740459,-0.4072265625,0.041015625,-0.330810546875,0.1037
1.8931297709923665,2.351145038167939,-1.2061068702290076,-0.4033203125,0.044677734375,-0.336669921875,0.1054
1.6641221374045803,2.2595419847328246,-1.2671755725190839,-0.400146484375,0.047119140625,-0.32958984375,0.1071
2.015267175572519,2.0763358778625953,-1.3282442748091603,-0.40673828125,0.0478515625,-0.330322265625,0.1088
1.7709923664122138,2.2290076335877864,-1.3740458015267176,-0.41015625,0.047607421875,-0.327880859375,0.11049999999999999
1.633587786259542,2.2595419847328246,-1.3740458015267176,-0.405517578125,0.0498046875,-0.327392578125,0.1122
1.816793893129771,2.33587786259542,-1.3129770992366412,-0.404296875,0.0478515625,-0.32861328125,0.11389999999999999
1.9236641221374047,2.0763358778625953,-1.282442748091603,-0.4013671875,0.0439453125,-0.33642578125,0.1156
1.9694656488549618,1.8625954198473282,-1.282442748091603,-0.407958984375,0.04541015625,-0.33984375,0.11729999999999999
1.9083969465648856,1.9389312977099236,-1.5114503816793894,-0.409423828125,0.048583984375,-0.325439453125,0.119
1.83206106870229,2.16793893129771,-1.2061068702290076,-0.40380859375,0.048828125,-0.326904296875,0.12069999999999999
1.9236641221374047,1.9389312977099236,-1.3282442748091603,-0.40673828125,0.044189453125,-0.33740234375,0.1224
2.1374045801526718,1.8778625954198473,-1.3129770992366412,-0.404052734375,0.048095703125,-0.332763671875,0.12409999999999999
1.7709923664122138,1.8931297709923665,-1.465648854961832,-0.403076171875,0.044189453125,-0.330810546875,0.1258
2.0763358778625953,1.7099236641221374,-1.1908396946564885,-0.40625,0.0439453125,-0.330810546875,0.1275
1.9236641221374047,1.633587786259542,-1.3129770992366412,-0.4033203125,0.0439453125,-0.334716796875,0.12919999999999998
1.9541984732824427,1.6946564885496183,-1.2671755725190839,-0.405517578125,0.046142578125,-0.33251953125,0.1309
2.0610687022900764,1.5267175572519085,-1.4198473282442747,-0.40869140625,0.052734375,-0.335205078125,0.1326
1.8625954198473282,1.297709923664122,-1.099236641221374,-0.40673828125,0.049560546875,-0.336669921875,0.1343
2.045801526717557,1.450381679389313,-1.3129770992366412,-0.40625,0.044677734375,-0.3310546875,0.13599999999999998
2.0,1.465648854961832,-1.3129770992366412,-0.404296875,0.046142578125,-0.325927734375,0.1377
2.122137404580153,1.3893129770992367,-1.3740458015267176,-0.402099609375,0.0517578125,-0.330078125,0.1394
1.9083969465648856,1.1908396946564885,-1.251908396946565,-0.405517578125,0.04833984375,-0.33544921875,0.1411
1.9236641221374047,1.1908396946564885,-1.251908396946565,-0.400634765625,0.043212890625,-0.3310546875,0.14279999999999998
2.1068702290076335,1.1145038167938932,-1.2061068702290076,-0.41064453125,0.039794921875,-0.328369140625,0.1445
2.1374045801526718,1.0687022900763359,-1.282442748091603,-0.404296875,0.039794921875,-0.322265625,0.1462
1.83206106870229,1.0687022900763359,-1.1908396946564885,-0.401611328125,0.039794921875,-0.333984375,0.1479
2.015267175572519,0.9618320610687023,-1.1908396946564885,-0.404541015625,0.039794921875,-0.32666015625,0.14959999999999998
2.030534351145038,0.9770992366412213,-1.1145038167938932,-0.40380859375,0.04296875,-0.334716796875,0.1513
1.8625954198473282,0.9923664122137404,-1.099236641221374,-0.407470703125,0.04736328125,-0.332275390625,0.153
1.9236641221374047,0.7633587786259542,-1.1450381679389312,-0.408203125,0.04296875,-0.322998046875,0.1547
2.0610687022900764,0.9770992366412213,-1.1908396946564885,-0.4013671875,0.0400390625,-0.322021484375,0.15639999999999998
1.8778625954198473,0.9923664122137404,-1.099236641221374,-0.4072265625,0.04248046875,-0.329833984375,0.1581
2.16793893129771,0.9770992366412213,-1.0076335877862594,-0.399169921875,0.040771484375,-0.339111328125,0.1598
1.6793893129770991,0.732824427480916,-1.1297709923664123,-0.406494140625,0.03955078125,-0.33349609375,0.1615
1.7099236641221374,0.7938931297709924,-1.2213740458015268,-0.4033203125,0.039794921875,-0.33203125,0.16319999999999998
1.9694656488549618,0.8702290076335878,-1.0076335877862594,-0.4111328125,0.04345703125,-0.325439453125,0.1649
1.7251908396946565,0.8396946564885496,-1.0229007633587786,-0.4072265625,0.044677734375,-0.330078125,0.1666
1.5877862595419847,0.5954198473282443,-0.8549618320610687,-0.40771484375,0.047119140625,-0.329833984375,0.16829999999999998
1.7709923664122138,0.732824427480916,-0.9770992366412213,-0.404296875,0.043701171875,-0.332275390625,0.16999999999999998
1.8931297709923665,0.7175572519083969,-0.8854961832061069,-0.403564453125,0.036865234375,-0.332275390625,0.1717
1.7557251908396947,0.44274809160305345,-1.0381679389312977,-0.4052734375,0.038818359375,-0.33154296875,0.1734
1.5877862595419847,0.3969465648854962,-0.8396946564885496,-0.4091796875,0.044921875,-0.32958984375,0.17509999999999998
1.6488549618320612,0.44274809160305345,-0.9770992366412213,-0.4091796875,0.045166015625,-0.339599609375,0.17679999999999998
1.6641221374045803,0.3969465648854962,-0.916030534351145,-0.41162109375,0.045654296875,-0.332275390625,0.1785
1.6030534351145038,0.32061068702290074,-0.732824427480916,-0.41455078125,0.045166015625,-0.328369140625,0.1802
1.4198473282442747,0.4122137404580153,-0.7938931297709924,-0.409423828125,0.044189453125,-0.332763671875,0.18189999999999998
1.5877862595419847,0.42748091603053434,-0.9465648854961832,-0.408447265625,0.042236328125,-0.337158203125,0.18359999999999999
1.6793893129770991,0.7786259541984732,-0.8702290076335878,-0.408203125,0.044677734375,-0.335693359375,0.1853
1.9083969465648856,0.6259541984732825,-0.8396946564885496,-0.41015625,0.047607421875,-0.338134765625,0.187
1.5114503816793894,0.48854961832061067,-0.6412213740458015,-0.410400390625,0.040283203125,-0.333251953125,0.18869999999999998
1.450381679389313,0.7633587786259542,-1.0076335877862594,-0.41259765625,0.04296875,-0.325927734375,0.19039999999999999
1.297709923664122,0.6717557251908397,-0.8549618320610687,-0.40869140625,0.04248046875,-0.33056640625,0.1921
1.5419847328244274,0.48854961832061067,-0.9618320610687023,-0.40869140625,0.040283203125,-0.328369140625,0.1938
1.5114503816793894,0.3053435114503817,-0.7480916030534351,-0.408447265625,0.04296875,-0.328369140625,0.19549999999999998
1.3587786259541985,0.33587786259541985,-0.6870229007633588,-0.407958984375,0.04345703125,-0.334228515625,0.1972
1.465648854961832,0.3511450381679389,-0.732824427480916,-0.40869140625,0.046630859375,-0.3271484375,0.1989
1.4961832061068703,0.3816793893129771,-0.7175572519083969,-0.40478515625,0.045654296875,-0.328125,0.2006
1.3435114503816794,0.13740458015267176,-0.8091603053435115,-0.408935546875,0.04150390625,-0.3330078125,0.20229999999999998
1.3893129770992367,0.13740458015267176,-0.8091603053435115,-0.40966796875,0.0478515625,-0.3271484375,0.204
1.3129770992366412,0.07633587786259542,-0.7633587786259542,-0.40771484375,0.04638671875,-0.32861328125,0.2057
1.1755725190839694,0.183206106870229,-0.9770992366412213,-0.409912109375,0.042724609375,-0.327392578125,0.2074
1.5267175572519085,0.1984732824427481,-0.7175572519083969,-0.406005859375,0.04150390625,-0.3232421875,0.20909999999999998
1.4045801526717556,0.0916030534351145,-0.9618320610687023,-0.408935546875,0.046630859375,-0.342041015625,0.2108
1.6030534351145038,0.10687022900763359,-0.9618320610687023,-0.410400390625,0.043701171875,-0.33203125,0.2125
1.2671755725190839,0.183206106870229,-1.0229007633587786,-0.410400390625,0.040771484375,-0.330078125,0.2142
1.2213740458015268,0.061068702290076333,-0.9312977099236641,-0.403564453125,0.043212890625,-0.335693359375,0.21589999999999998
1.1755725190839694,0.2900763358778626,-0.8854961832061069,-0.406494140625,0.048095703125,-0.341552734375,0.2176
1.3282442748091603,0.04580152671755725,-1.1603053435114503,-0.404052734375,0.049072265625,-0.336669921875,0.2193
1.4351145038167938,0.10687022900763359,-1.0229007633587786,-0.400146484375,0.04736328125,-0.336181640625,0.22099999999999997
1.6641221374045803,-0.061068702290076333,-1.2061068702290076,-0.408935546875,0.0458984375,-0.3369140625,0.22269999999999998
1.3740458015267176,-0.16793893129770993,-1.2213740458015268,-0.406982421875,0.051025390625,-0.341064453125,0.2244
1.297709923664122,-0.07633587786259542,-1.3587786259541985,-0.408935546875,0.045166015625,-0.340576171875,0.2261
1.251908396946565,-0.015267175572519083,-1.251908396946565,-0.40625,0.044189453125,-0.333740234375,0.22779999999999997
1.3282442748091603,-0.16793893129770993,-1.251908396946565,-0.408203125,0.0390625,-0.32861328125,0.22949999999999998
1.4961832061068703,-0.2748091603053435,-1.618320610687023,-0.40576171875,0.04052734375,-0.32470703125,0.2312
1.3587786259541985,-0.1984732824427481,-1.6030534351145038,-0.404541015625,0.045654296875,-0.32666015625,0.2329
1.3740458015267176,-0.10687022900763359,-1.5114503816793894,-0.40673828125,0.046142578125,-0.335693359375,0.23459999999999998
1.633587786259542,-0.2900763358778626,-1.5725190839694656,-0.405029296875,0.048828125,-0.328369140625,0.23629999999999998
1.465648854961832,-0.33587786259541985,-1.4198473282442747,-0.407958984375,0.050537109375,-0.324951171875,0.238
1.3893129770992367,-0.44274809160305345,-1.5725190839694656,-0.40966796875,0.041259765625,-0.328369140625,0.2397
1.3587786259541985,-0.21374045801526717,-1.6488549618320612,-0.408203125,0.041748046875,-0.336669921875,0.24139999999999998
1.3587786259541985,-0.15267175572519084,-1.7404580152671756,-0.411376953125,0.038818359375,-0.3330078125,0.24309999999999998
1.5877862595419847,-0.3816793893129771,-1.6641221374045803,-0.410400390625,0.0478515625,-0.33349609375,0.2448
1.450381679389313,-0.366412213740458,-1.6488549618320612,-0.4091796875,0.047607421875,-0.3291015625,0.2465
1.4961832061068703,-0.33587786259541985,-1.6946564885496183,-0.410400390625,0.048583984375,-0.32470703125,0.24819999999999998
1.5114503816793894,-0.21374045801526717,-1.9389312977099236,-0.406494140625,0.0439453125,-0.328857421875,0.24989999999999998
1.3740458015267176,-0.3053435114503817,-1.6488549618320612,-0.40576171875,0.048095703125,-0.33837890625,0.2516
1.5267175572519085,-0.24427480916030533,-1.7557251908396947,-0.404541015625,0.044677734375,-0.332763671875,0.25329999999999997
1.5725190839694656,-0.2595419847328244,-1.7709923664122138,-0.409423828125,0.044189453125,-0.33642578125,0.255
1.5877862595419847,-0.0916030534351145,-1.633587786259542,-0.408935546875,0.046630859375,-0.337646484375,0.2567
1.2671755725190839,-0.030534351145038167,-1.7099236641221374,-0.40625,0.044921875,-0.32861328125,0.25839999999999996
1.2671755725190839,-0.15267175572519084,-1.786259541984733,-0.411376953125,0.045654296875,-0.327392578125,0.2601
1.251908396946565,-0.04580152671755725,-1.7099236641221374,-0.411865234375,0.04833984375,-0.3349609375,0.2618
1.3282442748091603,-0.030534351145038167,-1.7557251908396947,-0.40966796875,0.047119140625,-0.332763671875,0.2635
1.4809160305343512,0.12213740458015267,-1.7709923664122138,-0.41259765625,0.045166015625,-0.3330078125,0.2652
1.4809160305343512,0.183206106870229,-1.6641221374045803,-0.412109375,0.04638671875,-0.333251953125,0.26689999999999997
1.3282442748091603,0.33587786259541985,-1.7404580152671756,-0.41064453125,0.05224609375,-0.33837890625,0.2686
1.3740458015267176,0.21374045801526717,-1.816793893129771,-0.408935546875,0.04736328125,-0.334228515625,0.2703
1.2213740458015268,0.4732824427480916,-1.83206106870229,-0.4169921875,0.0390625,-0.335693359375,0.27199999999999996
1.6030534351145038,0.366412213740458,-1.8473282442748091,-0.414794921875,0.043701171875,-0.328125,0.2737
1.450381679389313,0.32061068702290074,-2.030534351145038,-0.4130859375,0.049560546875,-0.336181640625,0.2754
1.4045801526717556,0.4580152671755725,-2.030534351145038,-0.412841796875,0.045654296875,-0.32373046875,0.27709999999999996
1.4045801526717556,0.549618320610687,-2.0916030534351147,-0.411376953125,0.052978515625,-0.32421875,0.2788
1.3587786259541985,0.6564885496183206,-2.1526717557251906,-0.40673828125,0.047119140625,-0.324951171875,0.28049999999999997
1.4351145038167938,0.6564885496183206,-2.0763358778625953,-0.409423828125,0.04248046875,-0.33203125,0.2822
1.5725190839694656,0.6412213740458015,-2.2442748091603053,-0.418212890625,0.04736328125,-0.326171875,0.2839
1.4045801526717556,0.7175572519083969,-2.2290076335877864,-0.41357421875,0.05126953125,-0.3349609375,0.28559999999999997
1.786259541984733,0.7633587786259542,-2.1526717557251906,-0.413330078125,0.04443359375,-0.325439453125,0.2873
1.7709923664122138,0.6870229007633588,-1.9694656488549618,-0.41552734375,0.043212890625,-0.333251953125,0.289
1.3893129770992367,0.7786259541984732,-2.3969465648854964,-0.414794921875,0.0439453125,-0.32861328125,0.29069999999999996
1.7099236641221374,0.8854961832061069,-2.1068702290076335,-0.415771484375,0.049560546875,-0.328125,0.2924
1.5267175572519085,0.8702290076335878,-2.1374045801526718,-0.414794921875,0.044677734375,-0.3291015625,0.2941
1.5725190839694656,1.1755725190839694,-2.16793893129771,-0.4072265625,0.037353515625,-0.333251953125,0.2958
1.6946564885496183,1.1297709923664123,-2.0916030534351147,-0.408935546875,0.04345703125,-0.330078125,0.2975
1.465648854961832,0.8702290076335878,-2.045801526717557,-0.4111328125,0.04541015625,-0.321044921875,0.29919999999999997
1.6946564885496183,1.083969465648855,-2.1374045801526718,-0.40576171875,0.03857421875,-0.328857421875,0.3009
1.9541984732824427,0.916030534351145,-1.9694656488549618,-0.412353515625,0.0400390625,-0.32763671875,0.3026
1.83206106870229,0.9923664122137404,-2.2748091603053435,-0.411376953125,0.04931640625,-0.321533203125,0.30429999999999996
1.7709923664122138,1.4045801526717556,-2.045801526717557,-0.404541015625,0.042236328125,-0.333740234375,0.306
1.8015267175572518,1.4961832061068703,-2.045801526717557,-0.405517578125,0.04248046875,-0.332275390625,0.3077
1.8473282442748091,1.4961832061068703,-2.0763358778625953,-0.408935546875,0.044677734375,-0.334228515625,0.3094
1.8778625954198473,1.3587786259541985,-2.015267175572519,-0.407958984375,0.046630859375,-0.323486328125,0.3111
1.8931297709923665,1.2061068702290076,-1.9236641221374047,-0.40966796875,0.04541015625,-0.33056640625,0.31279999999999997
2.0916030534351147,0.9923664122137404,-2.0,-0.413818359375,0.050048828125,-0.335693359375,0.3145
2.0610687022900764,0.7633587786259542,-1.7557251908396947,-0.411865234375,0.044921875,-0.330322265625,0.3162
2.045801526717557,0.8854961832061069,-1.8473282442748091,-0.41162109375,0.044677734375,-0.3310546875,0.31789999999999996
2.1068702290076335,0.9618320610687023,-1.9236641221374047,-0.41259765625,0.046142578125,-0.33203125,0.3196
1.9389312977099236,0.8702290076335878,-1.9236641221374047,-0.41064453125,0.0400390625,-0.339599609375,0.3213
2.045801526717557,1.450381679389313,-1.786259541984733,-0.405029296875,0.04541015625,-0.324462890625,0.323
2.030534351145038,1.8931297709923665,-1.816793893129771,-0.411865234375,0.044189453125,-0.329345703125,0.3247
2.045801526717557,1.7404580152671756,-1.6030534351145038,-0.407958984375,0.04345703125,-0.3251953125,0.32639999999999997
2.0916030534351147,2.030534351145038,-1.9694656488549618,-0.40966796875,0.0458984375,-0.32470703125,0.3281
1.8931297709923665,2.1068702290076335,-1.816793893129771,-0.41064453125,0.046875,-0.335693359375,0.3298
2.0763358778625953,1.9694656488549618,-1.5114503816793894,-0.406005859375,0.04296875,-0.32861328125,0.33149999999999996
2.0610687022900764,1.9389312977099236,-1.6793893129770991,-0.4130859375,0.041748046875,-0.3310546875,0.3332
2.16793893129771,2.015267175572519,-1.9083969465648856,-0.413818359375,0.04443359375,-0.3359375,0.3349
2.198473282442748,1.9236641221374047,-1.816793893129771,-0.412109375,0.041259765625,-0.3359375,0.33659999999999995
2.366412213740458,1.5725190839694656,-1.6488549618320612,-0.409423828125,0.0439453125,-0.32763671875,0.3383
2.3053435114503817,1.6793893129770991,-1.7251908396946565,-0.41162109375,0.0419921875,-0.332763671875,0.33999999999999997
2.2290076335877864,1.6946564885496183,-1.786259541984733,-0.410888671875,0.045654296875,-0.32958984375,0.3417
2.3969465648854964,1.5725190839694656,-1.6641221374045803,-0.406982421875,0.04345703125,-0.32861328125,0.3434
2.5343511450381677,1.7404580152671756,-2.0,-0.409423828125,0.046630859375,-0.33642578125,0.34509999999999996
2.3206106870229006,1.7709923664122138,-1.6946564885496183,-0.409423828125,0.042724609375,-0.333251953125,0.3468
2.4732824427480917,1.5267175572519085,-1.8473282442748091,-0.41162109375,0.04296875,-0.325927734375,0.3485
2.6564885496183206,1.3587786259541985,-1.786259541984733,-0.40673828125,0.042236328125,-0.337158203125,0.35019999999999996
2.50381679389313,1.450381679389313,-1.8473282442748091,-0.41064453125,0.04736328125,-0.33544921875,0.3519
2.5343511450381677,1.4045801526717556,-1.786259541984733,-0.40869140625,0.0419921875,-0.335693359375,0.35359999999999997
2.6717557251908395,1.3435114503816794,-1.83206106870229,-0.41015625,0.04296875,-0.3232421875,0.3553
2.6564885496183206,1.5419847328244274,-1.8778625954198473,-0.41357421875,0.04541015625,-0.325439453125,0.357
2.6564885496183206,1.618320610687023,-1.8473282442748091,-0.4150390625,0.044189453125,-0.334228515625,0.35869999999999996
2.7938931297709924,1.4809160305343512,-1.6641221374045803,-0.412353515625,0.04638671875,-0.3359375,0.3604
2.7022900763358777,1.5725190839694656,-1.9541984732824427,-0.410888671875,0.04345703125,-0.334716796875,0.3621
2.6717557251908395,1.5877862595419847,-1.8473282442748091,-0.412109375,0.041259765625,-0.342041015625,0.36379999999999996
2.7480916030534353,1.6488549618320612,-2.015267175572519,-0.412841796875,0.04052734375,-0.33544921875,0.3655
2.7480916030534353,1.618320610687023,-1.7709923664122138,-0.407958984375,0.04638671875,-0.328369140625,0.36719999999999997
2.549618320610687,1.6488549618320612,-1.6488549618320612,-0.409912109375,0.042724609375,-0.334228515625,0.3689
2.6259541984732824,1.5877862595419847,-1.786259541984733,-0.41015625,0.03466796875,-0.334228515625,0.3706
2.9923664122137406,1.816793893129771,-2.0610687022900764,-0.4140625,0.036865234375,-0.333984375,0.37229999999999996
2.946564885496183,1.8931297709923665,-1.5725190839694656,-0.412353515625,0.041259765625,-0.329833984375,0.374
2.7938931297709924,1.7099236641221374,-1.618320610687023,-0.40478515625,0.044677734375,-0.325439453125,0.3757
2.900763358778626,1.5877862595419847,-1.8015267175572518,-0.40234375,0.040283203125,-0.331298828125,0.37739999999999996
2.854961832061069,1.5419847328244274,-1.8473282442748091,-0.407958984375,0.0400390625,-0.32373046875,0.3791
2.7022900763358777,1.7099236641221374,-1.7557251908396947,-0.405517578125,0.045166015625,-0.33251953125,0.38079999999999997
2.854961832061069,1.465648854961832,-1.6793893129770991,-0.412353515625,0.04248046875,-0.33837890625,0.38249999999999995
2.6717557251908395,1.5419847328244274,-1.5267175572519085,-0.404296875,0.04541015625,-0.32958984375,0.3842
2.6717557251908395,1.5114503816793894,-1.6793893129770991,-0.40966796875,0.0478515625,-0.332275390625,0.38589999999999997
2.8702290076335877,1.4961832061068703,-1.5877862595419847,-0.408447265625,0.04541015625,-0.327880859375,0.3876
2.854961832061069,1.4961832061068703,-1.4198473282442747,-0.40771484375,0.0419921875,-0.330322265625,0.3893
2.6106870229007635,1.3435114503816794,-1.297709923664122,-0.406982421875,0.04541015625,-0.328369140625,0.39099999999999996
2.8091603053435112,1.3129770992366412,-1.4809160305343512,-0.408447265625,0.038818359375,-0.324462890625,0.3927
2.7938931297709924,1.4961832061068703,-1.4961832061068703,-0.408935546875,0.040283203125,-0.3291015625,0.3944
2.5343511450381677,1.4961832061068703,-1.4351145038167938,-0.412353515625,0.0419921875,-0.329833984375,0.39609999999999995
2.732824427480916,1.5725190839694656,-1.3893129770992367,-0.413818359375,0.037353515625,-0.330810546875,0.3978
2.595419847328244,1.5267175572519085,-1.5725190839694656,-0.409912109375,0.0380859375,-0.3291015625,0.39949999999999997
2.8396946564885495,1.450381679389313,-1.465648854961832,-0.411376953125,0.041259765625,-0.32958984375,0.4012
2.6259541984732824,1.786259541984733,-1.3587786259541985,-0.40966796875,0.04150390625,-0.327880859375,0.4029
2.5801526717557253,1.5572519083969465,-1.5267175572519085,-0.403564453125,0.037109375,-0.3291015625,0.40459999999999996
2.5801526717557253,1.3893129770992367,-1.5114503816793894,-0.4091796875,0.04345703125,-0.330322265625,0.4063
2.4732824427480917,1.4961832061068703,-1.3740458015267176,-0.40576171875,0.044921875,-0.32763671875,0.408
2.519083969465649,1.4351145038167938,-1.4809160305343512,-0.404541015625,0.03955078125,-0.3369140625,0.40969999999999995
2.595419847328244,1.3740458015267176,-1.4045801526717556,-0.4072265625,0.04443359375,-0.332275390625,0.4114
2.717557251908397,1.4198473282442747,-1.4045801526717556,-0.40673828125,0.041748046875,-0.33349609375,0.41309999999999997
2.6259541984732824,1.4045801526717556,-1.3282442748091603,-0.40966796875,0.040771484375,-0.332275390625,0.4148
2.687022900763359,1.4198473282442747,-1.6793893129770991,-0.40966796875,0.0390625,-0.340087890625,0.4165
2.732824427480916,1.282442748091603,-1.4961832061068703,-0.40966796875,0.041259765625,-0.32666015625,0.41819999999999996
2.7480916030534353,1.4961832061068703,-1.5877862595419847,-0.4072265625,0.040771484375,-0.329833984375,0.4199
2.7938931297709924,1.4045801526717556,-1.633587786259542,-0.405517578125,0.038818359375,-0.325439453125,0.4216
2.6412213740458017,1.5114503816793894,-1.633587786259542,-0.4072265625,0.044921875,-0.32861328125,0.42329999999999995
2.5801526717557253,1.3129770992366412,-1.5267175572519085,-0.406005859375,0.0361328125,-0.33447265625,0.425
2.7022900763358777,1.2061068702290076,-1.4809160305343512,-0.410888671875,0.039306640625,-0.3310546875,0.42669999999999997
2.7480916030534353,1.1297709923664123,-1.5572519083969465,-0.404052734375,0.03759765625,-0.327392578125,0.4284
2.4580152671755724,1.0687022900763359,-1.5725190839694656,-0.40771484375,0.041748046875,-0.332275390625,0.4301
2.564885496183206,1.083969465648855,-1.465648854961832,-0.411376953125,0.041259765625,-0.33642578125,0.43179999999999996
2.717557251908397,1.0076335877862594,-1.5419847328244274,-0.4140625,0.045166015625,-0.33935546875,0.4335
2.732824427480916,1.0534351145038168,-1.5267175572519085,-0.40771484375,0.03955078125,-0.331787109375,0.4352
2.7480916030534353,0.9312977099236641,-1.6793893129770991,-0.411376953125,0.043701171875,-0.3369140625,0.43689999999999996
2.4732824427480917,1.1755725190839694,-1.618320610687023,-0.408935546875,0.0361328125,-0.33056640625,0.4386
2.6412213740458017,1.3740458015267176,-1.816793893129771,-0.408447265625,0.043701171875,-0.329833984375,0.44029999999999997
2.3969465648854964,1.2671755725190839,-1.7099236641221374,-0.41015625,0.041259765625,-0.32275390625,0.44199999999999995
2.564885496183206,1.2213740458015268,-1.8473282442748091,-0.4052734375,0.047119140625,-0.328125,0.4437
2.6259541984732824,1.083969465648855,-1.9389312977099236,-0.40771484375,0.0361328125,-0.332763671875,0.44539999999999996
2.4122137404580153,1.0687022900763359,-1.618320610687023,-0.40625,0.0390625,-0.336181640625,0.4471
2.4122137404580153,1.2213740458015268,-1.5877862595419847,-0.407470703125,0.039794921875,-0.336181640625,0.4488
2.564885496183206,1.2213740458015268,-1.816793893129771,-0.40673828125,0.033447265625,-0.334716796875,0.45049999999999996
2.4427480916030535,1.251908396946565,-1.7404580152671756,-0.41015625,0.03955078125,-0.337158203125,0.4522
2.427480916030534,1.2061068702290076,-1.7404580152671756,-0.405517578125,0.04248046875,-0.335205078125,0.45389999999999997
2.381679389312977,1.2671755725190839,-1.7251908396946565,-0.40869140625,0.039306640625,-0.33056640625,0.45559999999999995
2.3969465648854964,1.282442748091603,-1.8473282442748091,-0.4091796875,0.037109375,-0.337158203125,0.4573
2.2595419847328246,1.2671755725190839,-2.045801526717557,-0.408447265625,0.036865234375,-0.338623046875,0.45899999999999996
2.183206106870229,1.297709923664122,-1.6641221374045803,-0.406982421875,0.03955078125,-0.333251953125,0.4607
2.2442748091603053,1.465648854961832,-1.9694656488549618,-0.40966796875,0.04052734375,-0.334228515625,0.4624
2.0610687022900764,1.3435114503816794,-1.83206106870229,-0.408447265625,0.039306640625,-0.33056640625,0.46409999999999996
2.122137404580153,1.4198473282442747,-1.8473282442748091,-0.40869140625,0.03466796875,-0.33544921875,0.4658
1.9541984732824427,1.1755725190839694,-1.9236641221374047,-0.404541015625,0.035400390625,-0.334228515625,0.46749999999999997
1.9389312977099236,1.251908396946565,-1.786259541984733,-0.40771484375,0.040771484375,-0.33984375,0.46919999999999995
2.1526717557251906,1.3587786259541985,-1.8625954198473282,-0.407470703125,0.040771484375,-0.337890625,0.4709
2.0916030534351147,1.2366412213740459,-1.984732824427481,-0.408203125,0.040283203125,-0.320556640625,0.47259999999999996
1.8625954198473282,1.4809160305343512,-2.0763358778625953,-0.408447265625,0.037353515625,-0.34033203125,0.4743
1.9694656488549618,1.4809160305343512,-1.984732824427481,-0.407470703125,0.039306640625,-0.340576171875,0.476
1.984732824427481,1.297709923664122,-1.8015267175572518,-0.414306640625,0.035400390625,-0.323974609375,0.47769999999999996
1.984732824427481,1.2213740458015268,-2.015267175572519,-0.409912109375,0.04443359375,-0.3310546875,0.4794
1.9389312977099236,1.2366412213740459,-1.8015267175572518,-0.40283203125,0.043212890625,-0.325927734375,0.48109999999999997
1.7251908396946565,1.251908396946565,-1.9083969465648856,-0.407958984375,0.03857421875,-0.327392578125,0.48279999999999995
1.7404580152671756,1.083969465648855,-2.015267175572519,-0.403564453125,0.045166015625,-0.3271484375,0.4845
1.816793893129771,1.2671755725190839,-1.9389312977099236,-0.40625,0.042236328125,-0.3330078125,0.48619999999999997
1.633587786259542,1.2671755725190839,-2.030534351145038,-0.40576171875,0.0380859375,-0.333740234375,0.4879
1.7404580152671756,1.1145038167938932,-2.015267175572519,-0.407470703125,0.039306640625,-0.33056640625,0.4896
1.7099236641221374,1.1755725190839694,-2.045801526717557,-0.406005859375,0.039306640625,-0.3291015625,0.49129999999999996
1.6030534351145038,1.1145038167938932,-1.9541984732824427,-0.40673828125,0.045166015625,-0.328857421875,0.493
1.4809160305343512,1.1603053435114503,-1.9083969465648856,-0.408935546875,0.040771484375,-0.33544921875,0.4947
1.8625954198473282,1.0076335877862594,-2.1374045801526718,-0.4033203125,0.038818359375,-0.336669921875,0.49639999999999995
1.7404580152671756,1.1450381679389312,-2.030534351145038,-0.407470703125,0.0400390625,-0.332763671875,0.4981
1.3740458015267176,1.0381679389312977,-1.9694656488549618,-0.407958984375,0.045166015625,-0.333984375,0.49979999999999997
1.5114503816793894,1.282442748091603,-1.8931297709923665,-0.40673828125,0.0390625,-0.331298828125,0.5015
1.4961832061068703,1.1603053435114503,-2.0,-0.4072265625,0.043212890625,-0.3330078125,0.5032
1.6030534351145038,1.0687022900763359,-2.0916030534351147,-0.406982421875,0.040771484375,-0.32470703125,0.5049
1.786259541984733,0.9312977099236641,-1.984732824427481,-0.40966796875,0.0439453125,-0.333251953125,0.5065999999999999
1.1450381679389312,0.9465648854961832,-1.9083969465648856,-0.40625,0.04345703125,-0.32861328125,0.5083
1.5114503816793894,0.8091603053435115,-2.1526717557251906,-0.40673828125,0.03857421875,-0.330078125,0.51
1.5572519083969465,0.9312977099236641,-2.0916030534351147,-0.4072265625,0.0341796875,-0.336181640625,0.5116999999999999
1.465648854961832,0.8244274809160306,-1.8931297709923665,-0.403076171875,0.037353515625,-0.33642578125,0.5134
1.5725190839694656,0.8854961832061069,-1.7404580152671756,-0.404296875,0.04150390625,-0.341796875,0.5151
1.5572519083969465,0.7938931297709924,-1.984732824427481,-0.40478515625,0.040283203125,-0.3310546875,0.5167999999999999
1.0534351145038168,0.8244274809160306,-1.7251908396946565,-0.40869140625,0.04345703125,-0.328857421875,0.5185
1.3282442748091603,0.2748091603053435,-1.7099236641221374,-0.405029296875,0.040283203125,-0.332763671875,0.5202
1.5114503816793894,0.3053435114503817,-1.4809160305343512,-0.405029296875,0.041748046875,-0.326904296875,0.5218999999999999
1.4961832061068703,0.3511450381679389,-1.5725190839694656,-0.41015625,0.044677734375,-0.323486328125,0.5236
1.3740458015267176,0.44274809160305345,-1.4961832061068703,-0.41064453125,0.04638671875,-0.332763671875,0.5253
1.4961832061068703,0.4732824427480916,-1.6641221374045803,-0.411865234375,0.044921875,-0.330078125,0.527
1.5267175572519085,0.366412213740458,-1.3587786259541985,-0.417724609375,0.03955078125,-0.333740234375,0.5287
1.3893129770992367,0.42748091603053434,-1.4809160305343512,-0.415771484375,0.0390625,-0.328857421875,0.5304
1.3740458015267176,0.5801526717557252,-1.633587786259542,-0.41845703125,0.042724609375,-0.330322265625,0.5321
1.3435114503816794,0.7938931297709924,-1.6641221374045803,-0.413818359375,0.042236328125,-0.343505859375,0.5337999999999999
1.099236641221374,0.8549618320610687,-1.5114503816793894,-0.411865234375,0.039794921875,-0.333984375,0.5355
1.3282442748091603,0.8854961832061069,-1.6030534351145038,-0.412109375,0.0390625,-0.3330078125,0.5372
1.4198473282442747,0.8854961832061069,-1.5877862595419847,-0.4091796875,0.04345703125,-0.327392578125,0.5388999999999999
1.2671755725190839,0.8091603053435115,-1.5267175572519085,-0.41064453125,0.04052734375,-0.331298828125,0.5406
1.2213740458015268,1.2366412213740459,-1.2671755725190839,-0.40771484375,0.041748046875,-0.331787109375,0.5423
1.2671755725190839,1.0076335877862594,-1.4961832061068703,-0.405517578125,0.042724609375,-0.337158203125,0.5439999999999999
1.633587786259542,0.8396946564885496,-1.297709923664122,-0.408935546875,0.04443359375,-0.32763671875,0.5457
1.2366412213740459,0.9618320610687023,-1.618320610687023,-0.403564453125,0.041015625,-0.3291015625,0.5474
1.4351145038167938,0.9465648854961832,-1.1908396946564885,-0.40966796875,0.043701171875,-0.331787109375,0.5490999999999999
1.6641221374045803,0.9770992366412213,-1.633587786259542,-0.4072265625,0.035888671875,-0.32861328125,0.5508
1.5877862595419847,0.8244274809160306,-1.5572519083969465,-0.410888671875,0.04052734375,-0.323486328125,0.5525
1.1603053435114503,0.8854961832061069,-1.4351145038167938,-0.40673828125,0.0419921875,-0.3369140625,0.5541999999999999
1.5419847328244274,0.8396946564885496,-1.4961832061068703,-0.41162109375,0.04150390625,-0.333740234375,0.5559
1.3740458015267176,0.8396946564885496,-1.633587786259542,-0.406494140625,0.0439453125,-0.32861328125,0.5576
1.465648854961832,0.9465648854961832,-1.3893129770992367,-0.41259765625,0.04052734375,-0.32958984375,0.5593
1.5419847328244274,0.8702290076335878,-1.5725190839694656,-0.40673828125,0.041015625,-0.3291015625,0.5609999999999999
1.6946564885496183,0.8854961832061069,-1.5114503816793894,-0.4091796875,0.040771484375,-0.3349609375,0.5627
1.465648854961832,0.916030534351145,-1.5114503816793894,-0.4072265625,0.039306640625,-0.330810546875,0.5644
1.5267175572519085,0.9923664122137404,-1.3740458015267176,-0.4072265625,0.048095703125,-0.332275390625,0.5660999999999999
1.4351145038167938,0.9312977099236641,-1.6793893129770991,-0.40576171875,0.04736328125,-0.336669921875,0.5678
1.4809160305343512,1.0076335877862594,-1.3893129770992367,-0.407958984375,0.036376953125,-0.336669921875,0.5695
1.5877862595419847,0.9007633587786259,-1.5114503816793894,-0.407958984375,0.044189453125,-0.33447265625,0.5711999999999999
1.7099236641221374,0.9007633587786259,-1.4351145038167938,-0.413330078125,0.039794921875,-0.328369140625,0.5729
1.8778625954198473,1.0381679389312977,-1.3893129770992367,-0.40673828125,0.041748046875,-0.33349609375,0.5746
1.5267175572519085,0.9923664122137404,-1.2366412213740459,-0.409423828125,0.0439453125,-0.32275390625,0.5762999999999999
1.5877862595419847,0.8549618320610687,-1.6030534351145038,-0.409912109375,0.04345703125,-0.328369140625,0.578
1.8473282442748091,0.9312977099236641,-1.5114503816793894,-0.41162109375,0.03955078125,-0.338134765625,0.5797
1.6793893129770991,1.1145038167938932,-1.6946564885496183,-0.412109375,0.03955078125,-0.330810546875,0.5813999999999999
1.5267175572519085,1.0687022900763359,-1.3893129770992367,-0.410888671875,0.04150390625,-0.340087890625,0.5831
1.633587786259542,1.251908396946565,-1.3893129770992367,-0.41015625,0.04248046875,-0.3271484375,0.5848
1.5572519083969465,1.3129770992366412,-1.4198473282442747,-0.40625,0.040283203125,-0.33056640625,0.5865
1.5114503816793894,1.0076335877862594,-1.5725190839694656,-0.40576171875,0.0390625,-0.33056640625,0.5882
1.6641221374045803,1.0534351145038168,-1.465648854961832,-0.408203125,0.04150390625,-0.33740234375,0.5899
1.8778625954198473,1.1145038167938932,-1.5419847328244274,-0.40625,0.046142578125,-0.33544921875,0.5916
1.4351145038167938,1.0076335877862594,-1.5419847328244274,-0.405517578125,0.045654296875,-0.3310546875,0.5932999999999999
1.5419847328244274,1.083969465648855,-1.450381679389313,-0.406982421875,0.044189453125,-0.33984375,0.595
1.5725190839694656,1.2213740458015268,-1.2671755725190839,-0.405517578125,0.041748046875,-0.33544921875,0.5967
1.282442748091603,1.083969465648855,-1.3740458015267176,-0.4072265625,0.04443359375,-0.33349609375,0.5983999999999999
1.4198473282442747,1.1908396946564885,-1.251908396946565,-0.410888671875,0.04443359375,-0.327392578125,0.6001
1.5419847328244274,1.251908396946565,-1.4351145038167938,-0.40625,0.042236328125,-0.333740234375,0.6018
1.5877862595419847,1.0534351145038168,-1.3282442748091603,-0.409912109375,0.041748046875,-0.33203125,0.6034999999999999
1.4198473282442747,1.1145038167938932,-1.3282442748091603,-0.404052734375,0.0419921875,-0.334228515625,0.6052
1.2213740458015268,1.1145038167938932,-1.3893129770992367,-0.406005859375,0.0400390625,-0.332763671875,0.6069
1.4351145038167938,1.3893129770992367,-1.4809160305343512,-0.4091796875,0.04052734375,-0.332763671875,0.6085999999999999
1.5267175572519085,1.0687022900763359,-1.282442748091603,-0.40625,0.04345703125,-0.331298828125,0.6103
1.282442748091603,1.0534351145038168,-1.3740458015267176,-0.409423828125,0.03955078125,-0.322509765625,0.612
1.297709923664122,0.8396946564885496,-1.297709923664122,-0.409423828125,0.042236328125,-0.319580078125,0.6136999999999999
1.2213740458015268,0.732824427480916,-1.3740458015267176,-0.406005859375,0.0419921875,-0.321533203125,0.6154
1.3129770992366412,0.8702290076335878,-1.2213740458015268,-0.402587890625,0.041259765625,-0.3310546875,0.6171
1.4045801526717556,1.0229007633587786,-1.1603053435114503,-0.40966796875,0.0458984375,-0.3251953125,0.6188
1.4198473282442747,0.8854961832061069,-1.1755725190839694,-0.4072265625,0.048828125,-0.3330078125,0.6204999999999999
1.3893129770992367,0.8091603053435115,-1.2366412213740459,-0.4072265625,0.04736328125,-0.328857421875,0.6222
1.4198473282442747,0.8702290076335878,-1.099236641221374,-0.408447265625,0.037353515625,-0.331298828125,0.6239
1.2366412213740459,0.8396946564885496,-1.3282442748091603,-0.406982421875,0.044921875,-0.330078125,0.6255999999999999
1.3587786259541985,1.0229007633587786,-1.3282442748091603,-0.40673828125,0.04150390625,-0.333251953125,0.6273
1.1450381679389312,1.0229007633587786,-1.3587786259541985,-0.407958984375,0.04296875,-0.3251953125,0.629
1.2366412213740459,0.8854961832061069,-1.4198473282442747,-0.41259765625,0.03955078125,-0.322998046875,0.6306999999999999
1.5114503816793894,0.8549618320610687,-1.4961832061068703,-0.40966796875,0.0390625,-0.332763671875,0.6324
1.3893129770992367,0.7480916030534351,-1.1755725190839694,-0.4072265625,0.04296875,-0.33544921875,0.6341
1.2671755725190839,1.1755725190839694,-1.1908396946564885,-0.411376953125,0.045166015625,-0.331787109375,0.6357999999999999
1.633587786259542,1.0534351145038168,-1.1755725190839694,-0.409423828125,0.045166015625,-0.33642578125,0.6375
1.4045801526717556,1.099236641221374,-1.1297709923664123,-0.402587890625,0.03955078125,-0.33447265625,0.6392
1.297709923664122,1.0534351145038168,-1.3435114503816794,-0.4091796875,0.038818359375,-0.335205078125,0.6408999999999999
1.4961832061068703,1.0687022900763359,-1.3587786259541985,-0.41162109375,0.0390625,-0.337158203125,0.6426
1.3893129770992367,1.1145038167938932,-1.450381679389313,-0.406982421875,0.04345703125,-0.3330078125,0.6443
1.1755725190839694,1.1603053435114503,-1.5114503816793894,-0.408447265625,0.04443359375,-0.33154296875,0.646
1.5114503816793894,1.282442748091603,-1.4351145038167938,-0.411865234375,0.043701171875,-0.323974609375,0.6476999999999999
1.3129770992366412,1.251908396946565,-1.251908396946565,-0.41064453125,0.0419921875,-0.328369140625,0.6494
1.3893129770992367,1.2366412213740459,-1.465648854961832,-0.412109375,0.041259765625,-0.328857421875,0.6511
1.4809160305343512,1.0229007633587786,-1.450381679389313,-0.4091796875,0.0478515625,-0.327880859375,0.6527999999999999
1.5419847328244274,1.282442748091603,-1.282442748091603,-0.409912109375,0.041748046875,-0.32861328125,0.6545
1.4045801526717556,1.297709923664122,-1.4198473282442747,-0.40576171875,0.045654296875,-0.333984375,0.6562
1.3740458015267176,1.282442748091603,-1.251908396946565,-0.40625,0.047119140625,-0.327392578125,0.6578999999999999
1.3893129770992367,1.1145038167938932,-1.618320610687023,-0.407958984375,0.04443359375,-0.33349609375,0.6596
1.6488549618320612,1.282442748091603,-1.4351145038167938,-0.406982421875,0.03955078125,-0.323974609375,0.6613
1.5419847328244274,1.2366412213740459,-1.4045801526717556,-0.412109375,0.03759765625,-0.321533203125,0.6629999999999999
1.4961832061068703,1.1603053435114503,-1.3740458015267176,-0.40576171875,0.0419921875,-0.326416015625,0.6647
1.6030534351145038,1.0534351145038168,-1.3740458015267176,-0.40966796875,0.040771484375,-0.3310546875,0.6664
1.3587786259541985,1.1297709923664123,-1.5267175572519085,-0.403076171875,0.045166015625,-0.32861328125,0.6680999999999999
1.5572519083969465,0.916030534351145,-1.4961832061068703,-0.4111328125,0.0439453125,-0.32763671875,0.6698
1.6793893129770991,0.9770992366412213,-1.5114503816793894,-0.405517578125,0.037353515625,-0.338134765625,0.6715
1.633587786259542,1.0076335877862594,-1.5572519083969465,-0.407470703125,0.045166015625,-0.33837890625,0.6731999999999999
1.5419847328244274,1.1450381679389312,-1.4809160305343512,-0.41064453125,0.040771484375,-0.326904296875,0.6748999999999999
1.5572519083969465,0.8854961832061069,-1.4961832061068703,-0.406494140625,0.0478515625,-0.33154296875,0.6766
1.4045801526717556,0.8244274809160306,-1.5877862595419847,-0.412353515625,0.046630859375,-0.32958984375,0.6783
1.6793893129770991,0.9923664122137404,-1.465648854961832,-0.40869140625,0.04296875,-0.330078125,0.6799999999999999
1.7709923664122138,0.8244274809160306,-1.6030534351145038,-0.4091796875,0.040283203125,-0.3310546875,0.6817
1.6488549618320612,0.916030534351145,-1.4045801526717556,-0.406982421875,0.04443359375,-0.329345703125,0.6834
1.5572519083969465,0.7938931297709924,-1.5114503816793894,-0.412353515625,0.037841796875,-0.326171875,0.6850999999999999
1.7557251908396947,0.7633587786259542,-1.6641221374045803,-0.40869140625,0.04248046875,-0.331787109375,0.6868
1.465648854961832,0.8244274809160306,-1.5725190839694656,-0.410888671875,0.04248046875,-0.338134765625,0.6885
1.8625954198473282,0.8244274809160306,-1.5419847328244274,-0.40966796875,0.042236328125,-0.329345703125,0.6901999999999999
1.7099236641221374,0.6870229007633588,-1.6946564885496183,-0.408203125,0.0390625,-0.332275390625,0.6919
1.7557251908396947,0.8091603053435115,-1.7251908396946565,-0.41162109375,0.036865234375,-0.333984375,0.6936
1.5877862595419847,0.9770992366412213,-1.6030534351145038,-0.40673828125,0.042724609375,-0.335693359375,0.6952999999999999
1.7404580152671756,0.7480916030534351,-1.4961832061068703,-0.409423828125,0.039794921875,-0.322021484375,0.697
1.7099236641221374,1.0534351145038168,-1.6641221374045803,-0.41064453125,0.0439453125,-0.325927734375,0.6987
1.5877862595419847,1.0687022900763359,-1.4961832061068703,-0.409423828125,0.038818359375,-0.326904296875,0.7003999999999999
1.83206106870229,0.9770992366412213,-1.5114503816793894,-0.40869140625,0.04345703125,-0.333740234375,0.7021
1.6793893129770991,0.8244274809160306,-1.3587786259541985,-0.410888671875,0.04345703125,-0.334716796875,0.7038
2.0,0.7786259541984732,-1.4961832061068703,-0.4150390625,0.047607421875,-0.334716796875,0.7055
1.7404580152671756,0.7022900763358778,-1.6030534351145038,-0.40771484375,0.03662109375,-0.331298828125,0.7071999999999999
1.8931297709923665,0.7786259541984732,-1.5419847328244274,-0.406494140625,0.0400390625,-0.326171875,0.7089
1.786259541984733,0.9618320610687023,-1.5877862595419847,-0.41259765625,0.041015625,-0.329833984375,0.7106
1.5419847328244274,1.0687022900763359,-1.5877862595419847,-0.414306640625,0.040771484375,-0.33251953125,0.7122999999999999
1.8015267175572518,0.8396946564885496,-1.3435114503816794,-0.412353515625,0.043212890625,-0.33251953125,0.714
1.7251908396946565,0.8549618320610687,-1.4351145038167938,-0.40771484375,0.041259765625,-0.3271484375,0.7157
1.8931297709923665,0.7480916030534351,-1.3740458015267176,-0.411865234375,0.038330078125,-0.333740234375,0.7173999999999999
1.8931297709923665,0.8702290076335878,-1.297709923664122,-0.4072265625,0.04443359375,-0.324462890625,0.7191
1.9083969465648856,0.916030534351145,-1.1908396946564885,-0.40673828125,0.044189453125,-0.322265625,0.7208
1.8015267175572518,0.9465648854961832,-1.3435114503816794,-0.408203125,0.040771484375,-0.32568359375,0.7224999999999999
1.9389312977099236,0.9770992366412213,-1.3282442748091603,-0.407958984375,0.035400390625,-0.3349609375,0.7242
1.786259541984733,1.0076335877862594,-1.297709923664122,-0.41064453125,0.044921875,-0.329345703125,0.7259
2.0,1.2213740458015268,-1.2671755725190839,-0.40478515625,0.04541015625,-0.327880859375,0.7275999999999999
1.9541984732824427,1.1450381679389312,-1.3282442748091603,-0.407958984375,0.040283203125,-0.33349609375,0.7293
1.8778625954198473,1.3282442748091603,-1.282442748091603,-0.408935546875,0.041015625,-0.328125,0.731
1.9083969465648856,1.2366412213740459,-1.4198473282442747,-0.408447265625,0.039794921875,-0.32568359375,0.7326999999999999
1.786259541984733,1.251908396946565,-0.8854961832061069,-0.40869140625,0.041015625,-0.331787109375,0.7343999999999999
1.9694656488549618,1.3740458015267176,-1.0076335877862594,-0.408935546875,0.041259765625,-0.331298828125,0.7361
1.8778625954198473,1.3282442748091603,-1.2061068702290076,-0.408935546875,0.03662109375,-0.333251953125,0.7378
2.183206106870229,1.450381679389313,-1.4961832061068703,-0.406982421875,0.046630859375,-0.32861328125,0.7394999999999999
2.16793893129771,1.5572519083969465,-1.099236641221374,-0.4130859375,0.04638671875,-0.332763671875,0.7412
1.9236641221374047,1.297709923664122,-1.1908396946564885,-0.409423828125,0.044921875,-0.318359375,0.7429
1.9236641221374047,1.3435114503816794,-1.1145038167938932,-0.4091796875,0.043212890625,-0.332275390625,0.7445999999999999
2.0916030534351147,1.4045801526717556,-1.1603053435114503,-0.407958984375,0.0400390625,-0.32666015625,0.7463
2.1374045801526718,1.3587786259541985,-1.0534351145038168,-0.413818359375,0.041748046875,-0.33544921875,0.748
1.83206106870229,1.3129770992366412,-1.2366412213740459,-0.40869140625,0.04345703125,-0.32763671875,0.7496999999999999
1.9083969465648856,1.4351145038167938,-1.099236641221374,-0.406982421875,0.037353515625,-0.3330078125,0.7514
2.16793893129771,1.4809160305343512,-1.282442748091603,-0.410888671875,0.040771484375,-0.32861328125,0.7531
2.2442748091603053,1.633587786259542,-1.2213740458015268,-0.410888671875,0.04150390625,-0.335693359375,0.7547999999999999
1.9541984732824427,1.6641221374045803,-1.0229007633587786,-0.411865234375,0.042236328125,-0.339111328125,0.7565
2.3206106870229006,1.4351145038167938,-1.1297709923664123,-0.40673828125,0.043212890625,-0.333251953125,0.7582
2.0916030534351147,1.7251908396946565,-1.0381679389312977,-0.408447265625,0.044189453125,-0.3310546875,0.7598999999999999
2.2748091603053435,1.6488549618320612,-1.1908396946564885,-0.41015625,0.039794921875,-0.32666015625,0.7615999999999999
2.3053435114503817,1.7557251908396947,-1.2213740458015268,-0.412841796875,0.041259765625,-0.326416015625,0.7633
2.4427480916030535,1.8015267175572518,-0.9618320610687023,-0.41015625,0.04296875,-0.327880859375,0.7649999999999999
2.1526717557251906,2.0,-1.083969465648855,-0.40673828125,0.04736328125,-0.33642578125,0.7666999999999999
2.030534351145038,1.9389312977099236,-0.916030534351145,-0.41357421875,0.041748046875,-0.336181640625,0.7684
2.198473282442748,1.8473282442748091,-1.1908396946564885,-0.412109375,0.046630859375,-0.340087890625,0.7701
2.33587786259542,1.9694656488549618,-0.9770992366412213,-0.412109375,0.04443359375,-0.3310546875,0.7717999999999999
1.9694656488549618,1.7709923664122138,-1.1297709923664123,-0.41162109375,0.039306640625,-0.33203125,0.7735
2.045801526717557,1.9389312977099236,-1.1603053435114503,-0.40869140625,0.03955078125,-0.32958984375,0.7752
2.427480916030534,2.0763358778625953,-1.1755725190839694,-0.4091796875,0.0390625,-0.328857421875,0.7768999999999999
2.16793893129771,1.9541984732824427,-1.083969465648855,-0.41064453125,0.037109375,-0.33251953125,0.7786
2.183206106870229,1.9694656488549618,-1.2061068702290076,-0.408203125,0.04443359375,-0.329345703125,0.7803
2.213740458015267,1.7404580152671756,-1.099236641221374,-0.408447265625,0.0419921875,-0.329833984375,0.7819999999999999
2.351145038167939,1.8778625954198473,-1.3435114503816794,-0.410400390625,0.041259765625,-0.328857421875,0.7837
2.3206106870229006,1.9236641221374047,-0.9923664122137404,-0.416015625,0.041259765625,-0.33642578125,0.7854
2.0916030534351147,1.9236641221374047,-1.3587786259541985,-0.4091796875,0.0419921875,-0.328857421875,0.7870999999999999
2.33587786259542,1.7557251908396947,-1.2061068702290076,-0.41162109375,0.0400390625,-0.324462890625,0.7888
2.2748091603053435,1.816793893129771,-1.1603053435114503,-0.4111328125,0.0439453125,-0.34228515625,0.7905
2.5343511450381677,1.7557251908396947,-1.1908396946564885,-0.41015625,0.037841796875,-0.3388671875,0.7921999999999999
2.2900763358778624,1.7557251908396947,-1.1603053435114503,-0.4091796875,0.04541015625,-0.334716796875,0.7938999999999999
2.2290076335877864,1.83206106870229,-1.2671755725190839,-0.413330078125,0.038330078125,-0.3310546875,0.7956
2.183206106870229,1.816793893129771,-1.6030534351145038,-0.40625,0.04638671875,-0.332763671875,0.7973
1.9236641221374047,1.7557251908396947,-1.3587786259541985,-0.412353515625,0.04345703125,-0.326416015625,0.7989999999999999
2.198473282442748,1.984732824427481,-1.4198473282442747,-0.40771484375,0.046142578125,-0.32861328125,0.8007
2.366412213740458,1.6488549618320612,-1.465648854961832,-0.4130859375,0.0439453125,-0.337890625,0.8024
2.2900763358778624,1.8931297709923665,-1.4351145038167938,-0.407958984375,0.039794921875,-0.332275390625,0.8040999999999999
2.366412213740458,1.9236641221374047,-1.282442748091603,-0.4091796875,0.033447265625,-0.33154296875,0.8058
2.2290076335877864,2.030534351145038,-1.297709923664122,-0.410888671875,0.0400390625,-0.3291015625,0.8075
2.030534351145038,1.984732824427481,-1.2061068702290076,-0.4072265625,0.03759765625,-0.338623046875,0.8091999999999999
2.1526717557251906,1.8625954198473282,-1.465648854961832,-0.405029296875,0.0380859375,-0.334228515625,0.8109
2.213740458015267,1.816793893129771,-1.251908396946565,-0.4072265625,0.0419921875,-0.3291015625,0.8126
2.0763358778625953,1.83206106870229,-1.4198473282442747,-0.408203125,0.035888671875,-0.335693359375,0.8142999999999999
2.2290076335877864,1.8015267175572518,-1.3129770992366412,-0.410888671875,0.03662109375,-0.33740234375,0.816
2.2748091603053435,1.7251908396946565,-1.3740458015267176,-0.4072265625,0.0380859375,-0.33056640625,0.8177
2.122137404580153,1.5877862595419847,-1.3740458015267176,-0.409912109375,0.037841796875,-0.328125,0.8193999999999999
2.030534351145038,1.618320610687023,-1.3129770992366412,-0.410400390625,0.0439453125,-0.326904296875,0.8210999999999999
2.122137404580153,1.6488549618320612,-1.297709923664122,-0.406005859375,0.040771484375,-0.33203125,0.8228
2.1068702290076335,1.7404580152671756,-1.5114503816793894,-0.41162109375,0.037353515625,-0.33056640625,0.8244999999999999
2.045801526717557,1.8015267175572518,-1.2671755725190839,-0.40771484375,0.0361328125,-0.3271484375,0.8261999999999999
2.0,1.7251908396946565,-1.297709923664122,-0.407470703125,0.0400390625,-0.331298828125,0.8279
2.030534351145038,1.786259541984733,-1.2671755725190839,-0.411376953125,0.035400390625,-0.32958984375,0.8296
2.0916030534351147,1.83206106870229,-1.3282442748091603,-0.403564453125,0.042236328125,-0.330078125,0.8312999999999999
2.1068702290076335,1.7404580152671756,-1.450381679389313,-0.4091796875,0.04296875,-0.32666015625,0.833
1.7404580152671756,1.8778625954198473,-1.4198473282442747,-0.405029296875,0.036865234375,-0.341064453125,0.8347
1.9083969465648856,1.8931297709923665,-1.282442748091603,-0.412841796875,0.037109375,-0.33544921875,0.8363999999999999
2.1068702290076335,1.786259541984733,-1.297709923664122,-0.406982421875,0.043212890625,-0.339599609375,0.8381
1.8931297709923665,1.9694656488549618,-1.2061068702290076,-0.40576171875,0.041259765625,-0.328125,0.8398
2.030534351145038,2.1526717557251906,-1.251908396946565,-0.404541015625,0.0380859375,-0.32861328125,0.8414999999999999
1.8015267175572518,2.0,-1.297709923664122,-0.403564453125,0.036865234375,-0.333740234375,0.8432
1.618320610687023,1.7404580152671756,-1.450381679389313,-0.408935546875,0.04052734375,-0.341796875,0.8449
1.6488549618320612,1.8625954198473282,-1.297709923664122,-0.408203125,0.038330078125,-0.32958984375,0.8465999999999999
1.6946564885496183,1.8778625954198473,-1.282442748091603,-0.41259765625,0.041748046875,-0.3359375,0.8482999999999999
1.7099236641221374,1.8931297709923665,-1.2671755725190839,-0.4072265625,0.039306640625,-0.335693359375,0.85
1.6946564885496183,1.8625954198473282,-1.3129770992366412,-0.404052734375,0.04296875,-0.329345703125,0.8516999999999999
1.8778625954198473,1.9236641221374047,-1.3587786259541985,-0.410400390625,0.042236328125,-0.3369140625,0.8533999999999999
1.5725190839694656,1.9541984732824427,-1.3435114503816794,-0.408447265625,0.040283203125,-0.324951171875,0.8551
1.7557251908396947,1.816793893129771,-1.251908396946565,-0.40625,0.041015625,-0.32861328125,0.8568
1.7251908396946565,1.7099236641221374,-1.3893129770992367,-0.40673828125,0.040771484375,-0.339111328125,0.8584999999999999
1.7099236641221374,1.7251908396946565,-1.3587786259541985,-0.408203125,0.041748046875,-0.3349609375,0.8602
1.618320610687023,1.6488549618320612,-1.4351145038167938,-0.40966796875,0.041015625,-0.339599609375,0.8619
1.465648854961832,1.786259541984733,-1.2213740458015268,-0.406005859375,0.038818359375,-0.336181640625,0.8635999999999999
1.5877862595419847,1.4809160305343512,-1.4351145038167938,-0.408203125,0.04248046875,-0.334716796875,0.8653
1.6030534351145038,1.4809160305343512,-1.3129770992366412,-0.406494140625,0.039306640625,-0.333740234375,0.867
1.7404580152671756,1.5267175572519085,-1.633587786259542,-0.40771484375,0.04052734375,-0.325927734375,0.8686999999999999
1.4351145038167938,1.465648854961832,-1.6641221374045803,-0.40625,0.0380859375,-0.323974609375,0.8704
1.3435114503816794,1.6793893129770991,-1.2366412213740459,-0.411376953125,0.0380859375,-0.330810546875,0.8721
1.3587786259541985,1.6641221374045803,-1.251908396946565,-0.4091796875,0.0419921875,-0.335693359375,0.8737999999999999
1.6641221374045803,1.4351145038167938,-1.4961832061068703,-0.406005859375,0.044677734375,-0.333740234375,0.8755
1.5725190839694656,1.633587786259542,-1.4809160305343512,-0.40966796875,0.0400390625,-0.33203125,0.8772
1.6030534351145038,1.450381679389313,-1.282442748091603,-0.409912109375,0.03564453125,-0.336181640625,0.8788999999999999
1.4045801526717556,1.251908396946565,-1.2366412213740459,-0.410888671875,0.03955078125,-0.334716796875,0.8805999999999999
1.3587786259541985,1.4351145038167938,-1.450381679389313,-0.407470703125,0.040283203125,-0.3291015625,0.8823
1.4961832061068703,1.2671755725190839,-1.5877862595419847,-0.40283203125,0.03857421875,-0.32958984375,0.8839999999999999
1.5419847328244274,1.5267175572519085,-1.4198473282442747,-0.4072265625,0.042724609375,-0.328857421875,0.8856999999999999
1.3435114503816794,1.297709923664122,-1.2366412213740459,-0.4052734375,0.040771484375,-0.331787109375,0.8874
1.0687022900763359,1.2213740458015268,-1.3587786259541985,-0.40869140625,0.039306640625,-0.32958984375,0.8891
1.7709923664122138,1.4045801526717556,-1.4961832061068703,-0.406494140625,0.039794921875,-0.3291015625,0.8907999999999999
1.2366412213740459,1.3893129770992367,-1.4198473282442747,-0.40576171875,0.045166015625,-0.325439453125,0.8925
1.3282442748091603,1.282442748091603,-1.3893129770992367,-0.407958984375,0.039794921875,-0.32861328125,0.8942
1.2061068702290076,1.3435114503816794,-1.4809160305343512,-0.408935546875,0.0380859375,-0.335693359375,0.8958999999999999
1.1603053435114503,1.2671755725190839,-1.3435114503816794,-0.410888671875,0.0419921875,-0.329345703125,0.8976
1.3282442748091603,1.2213740458015268,-1.4351145038167938,-0.39990234375,0.044677734375,-0.327392578125,0.8993
1.4198473282442747,1.1755725190839694,-1.5267175572519085,-0.40966796875,0.0390625,-0.3349609375,0.9009999999999999
1.450381679389313,0.9312977099236641,-1.4351145038167938,-0.405029296875,0.041015625,-0.335205078125,0.9027
1.4198473282442747,1.1450381679389312,-1.3893129770992367,-0.407958984375,0.040283203125,-0.327880859375,0.9044
1.3129770992366412,0.9923664122137404,-1.4198473282442747,-0.408447265625,0.0361328125,-0.340576171875,0.9060999999999999
1.1297709923664123,0.9770992366412213,-1.618320610687023,-0.40869140625,0.04248046875,-0.32861328125,0.9077999999999999
1.2213740458015268,1.1145038167938932,-1.3893129770992367,-0.409423828125,0.04736328125,-0.330078125,0.9095
1.1450381679389312,0.9770992366412213,-1.4198473282442747,-0.410888671875,0.039794921875,-0.32666015625,0.9111999999999999
1.465648854961832,0.916030534351145,-1.3740458015267176,-0.40625,0.03515625,-0.333740234375,0.9128999999999999
1.465648854961832,0.9465648854961832,-1.5114503816793894,-0.403564453125,0.039794921875,-0.336181640625,0.9146
1.3282442748091603,1.0534351145038168,-1.3129770992366412,-0.407470703125,0.04150390625,-0.33056640625,0.9163
1.5419847328244274,0.8549618320610687,-1.465648854961832,-0.404052734375,0.045654296875,-0.33544921875,0.9179999999999999
1.4198473282442747,1.099236641221374,-1.3282442748091603,-0.40771484375,0.044677734375,-0.33447265625,0.9197
1.4351145038167938,0.916030534351145,-1.5267175572519085,-0.40576171875,0.038818359375,-0.337158203125,0.9214
1.4961832061068703,0.8854961832061069,-1.2671755725190839,-0.405029296875,0.041259765625,-0.33056640625,0.9230999999999999
1.4351145038167938,0.9312977099236641,-1.3282442748091603,-0.40966796875,0.04638671875,-0.33544921875,0.9248
1.3282442748091603,0.9312977099236641,-1.3740458015267176,-0.40771484375,0.040771484375,-0.333984375,0.9265
1.251908396946565,0.9465648854961832,-1.2671755725190839,-0.413818359375,0.03759765625,-0.332275390625,0.9281999999999999
1.0687022900763359,0.9007633587786259,-1.3587786259541985,-0.40771484375,0.04541015625,-0.330322265625,0.9299
1.3740458015267176,0.916030534351145,-1.5572519083969465,-0.4072265625,0.0419921875,-0.3291015625,0.9316
1.3740458015267176,0.8702290076335878,-1.450381679389313,-0.40625,0.04052734375,-0.3291015625,0.9332999999999999
1.4045801526717556,0.732824427480916,-1.5419847328244274,-0.406982421875,0.044677734375,-0.3369140625,0.9349999999999999
1.297709923664122,1.1297709923664123,-1.4198473282442747,-0.409912109375,0.044921875,-0.332763671875,0.9367
1.2366412213740459,1.0381679389312977,-1.450381679389313,-0.412353515625,0.045166015625,-0.33642578125,0.9383999999999999
1.4351145038167938,1.1450381679389312,-1.3893129770992367,-0.412353515625,0.044189453125,-0.326416015625,0.9400999999999999
1.3740458015267176,0.9770992366412213,-1.5114503816793894,-0.40576171875,0.041259765625,-0.3330078125,0.9418
1.3740458015267176,1.0687022900763359,-1.3129770992366412,-0.410888671875,0.040771484375,-0.3271484375,0.9434999999999999
1.0229007633587786,1.3129770992366412,-1.3893129770992367,-0.40869140625,0.039306640625,-0.3330078125,0.9451999999999999
1.3129770992366412,1.1145038167938932,-1.4351145038167938,-0.40771484375,0.03955078125,-0.337646484375,0.9469
1.3129770992366412,1.0687022900763359,-1.4198473282442747,-0.407958984375,0.04248046875,-0.3359375,0.9486
1.4351145038167938,1.0534351145038168,-1.3587786259541985,-0.412109375,0.039306640625,-0.3291015625,0.9502999999999999
1.1908396946564885,1.1908396946564885,-1.5114503816793894,-0.40771484375,0.037841796875,-0.333251953125,0.952
1.1603053435114503,1.282442748091603,-1.083969465648855,-0.406494140625,0.04052734375,-0.33544921875,0.9537
1.099236641221374,1.0687022900763359,-1.251908396946565,-0.407470703125,0.037109375,-0.328369140625,0.9553999999999999
1.3893129770992367,1.083969465648855,-1.297709923664122,-0.4072265625,0.046142578125,-0.33203125,0.9571
1.2213740458015268,0.9923664122137404,-1.297709923664122,-0.41015625,0.0458984375,-0.332763671875,0.9588
1.1450381679389312,0.9465648854961832,-1.1603053435114503,-0.40625,0.046875,-0.332275390625,0.9604999999999999
1.282442748091603,1.0687022900763359,-1.3740458015267176,-0.403076171875,0.0419921875,-0.33544921875,0.9621999999999999
1.465648854961832,1.3129770992366412,-1.2671755725190839,-0.40673828125,0.044677734375,-0.33056640625,0.9639
0.9770992366412213,1.251908396946565,-1.2671755725190839,-0.405517578125,0.041748046875,-0.329345703125,0.9655999999999999
1.297709923664122,1.2366412213740459,-1.2213740458015268,-0.405517578125,0.0380859375,-0.334716796875,0.9672999999999999
1.4351145038167938,1.1145038167938932,-1.3587786259541985,-0.4111328125,0.046875,-0.336181640625,0.969
1.3282442748091603,0.916030534351145,-1.1450381679389312,-0.40478515625,0.04345703125,-0.327880859375,0.9706999999999999
1.2213740458015268,0.9618320610687023,-1.3435114503816794,-0.4072265625,0.041259765625,-0.331787109375,0.9723999999999999
1.1908396946564885,0.9007633587786259,-1.3435114503816794,-0.406982421875,0.04345703125,-0.33349609375,0.9741
1.2671755725190839,0.916030534351145,-1.3435114503816794,-0.411865234375,0.041259765625,-0.331787109375,0.9758
1.297709923664122,1.2061068702290076,-1.0534351145038168,-0.412109375,0.043701171875,-0.34033203125,0.9774999999999999
1.251908396946565,1.297709923664122,-1.297709923664122,-0.40771484375,0.0390625,-0.331298828125,0.9792
1.1755725190839694,1.2213740458015268,-1.1755725190839694,-0.410888671875,0.042236328125,-0.339111328125,0.9809
1.1450381679389312,1.4351145038167938,-1.3893129770992367,-0.408203125,0.049560546875,-0.337890625,0.9825999999999999
1.1603053435114503,1.3435114503816794,-1.0076335877862594,-0.408447265625,0.046875,-0.330078125,0.9843
1.297709923664122,1.2671755725190839,-1.1755725190839694,-0.410888671875,0.04296875,-0.339111328125,0.986
1.2061068702290076,1.5419847328244274,-1.1603053435114503,-0.40966796875,0.04736328125,-0.337646484375,0.9876999999999999
1.282442748091603,1.4198473282442747,-1.099236641221374,-0.40869140625,0.0419921875,-0.328857421875,0.9894
1.2213740458015268,1.6946564885496183,-1.1450381679389312,-0.408935546875,0.039306640625,-0.330322265625,0.9911
1.4045801526717556,1.6488549618320612,-1.3435114503816794,-0.4091796875,0.04541015625,-0.336669921875,0.9927999999999999
1.3282442748091603,1.6641221374045803,-1.3282442748091603,-0.405029296875,0.046142578125,-0.340087890625,0.9944999999999999
1.3587786259541985,1.6030534351145038,-1.2671755725190839,-0.410400390625,0.039794921875,-0.3388671875,0.9962
1.3129770992366412,1.6793893129770991,-1.3587786259541985,-0.408203125,0.044921875,-0.333984375,0.9978999999999999
1.3893129770992367,1.6946564885496183,-1.3282442748091603,-0.405029296875,0.0439453125,-0.332763671875,0.9995999999999999
1.3435114503816794,1.8015267175572518,-1.2366412213740459,-0.414794921875,0.041259765625,-0.338134765625,1.0012999999999999
1.4809160305343512,1.8473282442748091,-1.5114503816793894,-0.41357421875,0.04052734375,-0.332763671875,1.003
1.4809160305343512,1.5877862595419847,-1.5419847328244274,-0.4140625,0.041259765625,-0.332763671875,1.0047
1.618320610687023,1.6793893129770991,-1.5877862595419847,-0.4130859375,0.0419921875,-0.332763671875,1.0064
1.7557251908396947,1.6793893129770991,-1.6488549618320612,-0.40966796875,0.04541015625,-0.334716796875,1.0081
1.6030534351145038,1.5267175572519085,-1.5572519083969465,-0.41162109375,0.04638671875,-0.33642578125,1.0098
1.6641221374045803,1.4045801526717556,-1.5877862595419847,-0.408935546875,0.04638671875,-0.334228515625,1.0114999999999998
1.7099236641221374,1.5725190839694656,-1.8473282442748091,-0.410888671875,0.046142578125,-0.3251953125,1.0131999999999999
1.6793893129770991,1.3435114503816794,-1.7099236641221374,-0.409912109375,0.049072265625,-0.328857421875,1.0149
1.8473282442748091,1.4198473282442747,-1.7557251908396947,-0.4111328125,0.047119140625,-0.326171875,1.0166
1.816793893129771,1.4198473282442747,-1.6793893129770991,-0.41015625,0.0439453125,-0.342529296875,1.0183
1.83206106870229,1.465648854961832,-1.6641221374045803,-0.408935546875,0.045166015625,-0.32568359375,1.02
2.16793893129771,1.5725190839694656,-1.5572519083969465,-0.408447265625,0.04541015625,-0.333740234375,1.0217
1.8473282442748091,1.3893129770992367,-1.7709923664122138,-0.408447265625,0.04443359375,-0.33251953125,1.0233999999999999
1.9694656488549618,1.450381679389313,-1.8015267175572518,-0.40380859375,0.0458984375,-0.34130859375,1.0251
1.8931297709923665,1.7404580152671756,-1.7557251908396947,-0.4091796875,0.044921875,-0.33154296875,1.0268
2.030534351145038,1.6488549618320612,-1.7099236641221374,-0.408203125,0.042236328125,-0.343994140625,1.0285
2.045801526717557,1.4198473282442747,-1.8015267175572518,-0.409423828125,0.0400390625,-0.336669921875,1.0302
1.9694656488549618,1.465648854961832,-1.816793893129771,-0.408203125,0.047119140625,-0.32958984375,1.0319
2.1374045801526718,1.4961832061068703,-1.9083969465648856,-0.40087890625,0.040771484375,-0.324462890625,1.0335999999999999
2.2748091603053435,1.282442748091603,-1.6793893129770991,-0.408447265625,0.04345703125,-0.329833984375,1.0352999999999999
1.984732824427481,1.3587786259541985,-1.4351145038167938,-0.41162109375,0.041015625,-0.33349609375,1.037
2.0610687022900764,1.3893129770992367,-1.4809160305343512,-0.4091796875,0.041259765625,-0.32958984375,1.0387
2.2595419847328246,1.3587786259541985,-1.633587786259542,-0.40869140625,0.037353515625,-0.337158203125,1.0404
2.1068702290076335,1.4351145038167938,-1.6488549618320612,-0.406494140625,0.038818359375,-0.331787109375,1.0421
2.198473282442748,1.450381679389313,-1.5419847328244274,-0.4111328125,0.04248046875,-0.332275390625,1.0437999999999998
2.1374045801526718,1.1603053435114503,-1.3893129770992367,-0.4091796875,0.04150390625,-0.34130859375,1.0454999999999999
2.1068702290076335,1.251908396946565,-1.4961832061068703,-0.40625,0.044921875,-0.344970703125,1.0472
2.2595419847328246,1.251908396946565,-1.450381679389313,-0.40625,0.044189453125,-0.339599609375,1.0489
2.0610687022900764,1.1908396946564885,-1.2061068702290076,-0.408203125,0.046875,-0.332275390625,1.0506
2.0916030534351147,1.2213740458015268,-1.4351145038167938,-0.40771484375,0.041015625,-0.326171875,1.0523
1.9236641221374047,1.0381679389312977,-1.5419847328244274,-0.408203125,0.0439453125,-0.334228515625,1.054
2.3206106870229006,1.2213740458015268,-1.633587786259542,-0.404296875,0.039306640625,-0.333251953125,1.0556999999999999
1.9541984732824427,1.083969465648855,-1.4198473282442747,-0.407958984375,0.041748046875,-0.326904296875,1.0574
2.198473282442748,1.1297709923664123,-1.4198473282442747,-0.40625,0.03955078125,-0.338134765625,1.0591
2.213740458015267,1.297709923664122,-1.297709923664122,-0.408935546875,0.0439453125,-0.33447265625,1.0608
2.0610687022900764,1.2213740458015268,-1.3282442748091603,-0.407470703125,0.03955078125,-0.3359375,1.0625
2.045801526717557,1.0687022900763359,-1.3435114503816794,-0.40283203125,0.046142578125,-0.33447265625,1.0642
2.1374045801526718,1.0687022900763359,-1.450381679389313,-0.405029296875,0.044189453125,-0.33642578125,1.0658999999999998
2.16793893129771,0.9618320610687023,-1.4045801526717556,-0.40478515625,0.040283203125,-0.33154296875,1.0675999999999999
2.2595419847328246,0.9770992366412213,-1.297709923664122,-0.403564453125,0.043701171875,-0.345458984375,1.0693
2.16793893129771,0.7938931297709924,-1.3282442748091603,-0.4033203125,0.04638671875,-0.337646484375,1.071
2.1374045801526718,0.8244274809160306,-1.465648854961832,-0.409423828125,0.045654296875,-0.33056640625,1.0727
2.3206106870229006,0.7022900763358778,-1.5267175572519085,-0.407958984375,0.0458984375,-0.332275390625,1.0744
2.16793893129771,0.7938931297709924,-1.618320610687023,-0.40673828125,0.048828125,-0.32763671875,1.0760999999999998
2.183206106870229,0.9312977099236641,-1.5419847328244274,-0.40869140625,0.041259765625,-0.33056640625,1.0777999999999999
2.4122137404580153,0.7175572519083969,-1.6641221374045803,-0.407958984375,0.04638671875,-0.332275390625,1.0795
2.3206106870229006,0.6259541984732825,-1.5267175572519085,-0.407958984375,0.04638671875,-0.332275390625,1.0812
2.519083969465649,0.5801526717557252,-1.618320610687023,-0.399169921875,0.04296875,-0.32958984375,1.0829
2.5801526717557253,0.6412213740458015,-1.618320610687023,-0.4052734375,0.0439453125,-0.3310546875,1.0846
2.33587786259542,0.549618320610687,-1.6488549618320612,-0.4111328125,0.041015625,-0.341064453125,1.0863
2.5343511450381677,0.3969465648854962,-1.618320610687023,-0.4072265625,0.04296875,-0.338623046875,1.0879999999999999
2.549618320610687,0.4122137404580153,-1.7099236641221374,-0.40576171875,0.0380859375,-0.33544921875,1.0897
2.6412213740458017,0.549618320610687,-1.5419847328244274,-0.409423828125,0.041015625,-0.328369140625,1.0914
2.549618320610687,0.5038167938931297,-1.9083969465648856,-0.4052734375,0.03759765625,-0.3330078125,1.0931
2.4427480916030535,0.4732824427480916,-1.9083969465648856,-0.405029296875,0.040771484375,-0.33056640625,1.0948
2.7480916030534353,0.6106870229007634,-1.7557251908396947,-0.41015625,0.041259765625,-0.330078125,1.0965
2.8396946564885495,0.5038167938931297,-1.7404580152671756,-0.408447265625,0.043212890625,-0.33984375,1.0981999999999998
2.717557251908397,0.366412213740458,-1.8015267175572518,-0.40966796875,0.041259765625,-0.324951171875,1.0998999999999999
2.6717557251908395,0.3969465648854962,-1.633587786259542,-0.404541015625,0.04296875,-0.330810546875,1.1016
2.564885496183206,0.42748091603053434,-1.6793893129770991,-0.409423828125,0.03857421875,-0.332275390625,1.1033
2.595419847328244,0.3053435114503817,-1.6793893129770991,-0.406494140625,0.04248046875,-0.32958984375,1.105
2.885496183206107,0.33587786259541985,-1.6793893129770991,-0.40625,0.039306640625,-0.33544921875,1.1067
2.763358778625954,0.2900763358778626,-1.6488549618320612,-0.40576171875,0.04345703125,-0.3349609375,1.1083999999999998
2.885496183206107,0.549618320610687,-1.8778625954198473,-0.4111328125,0.0341796875,-0.333251953125,1.1100999999999999
2.5801526717557253,0.32061068702290074,-1.8778625954198473,-0.40625,0.041748046875,-0.326171875,1.1118
2.5801526717557253,0.42748091603053434,-1.8778625954198473,-0.408447265625,0.043212890625,-0.330078125,1.1135
2.6564885496183206,0.3053435114503817,-1.7251908396946565,-0.40673828125,0.036865234375,-0.331298828125,1.1152
2.7786259541984735,0.2900763358778626,-1.8931297709923665,-0.408935546875,0.040771484375,-0.33544921875,1.1169
2.5801526717557253,0.2748091603053435,-1.7099236641221374,-0.40673828125,0.0390625,-0.333251953125,1.1186
2.6717557251908395,0.4580152671755725,-1.83206106870229,-0.40576171875,0.04052734375,-0.32958984375,1.1202999999999999
2.763358778625954,0.32061068702290074,-1.7709923664122138,-0.407958984375,0.043212890625,-0.328857421875,1.1219999999999999
2.564885496183206,0.3053435114503817,-1.816793893129771,-0.4130859375,0.0380859375,-0.341064453125,1.1237
2.3053435114503817,0.12213740458015267,-1.5267175572519085,-0.4130859375,0.036865234375,-0.3330078125,1.1254
2.8244274809160306,0.22900763358778625,-1.7251908396946565,-0.408447265625,0.04052734375,-0.32763671875,1.1271
2.900763358778626,0.24427480916030533,-1.5114503816793894,-0.41064453125,0.036865234375,-0.32568359375,1.1288
2.4122137404580153,0.183206106870229,-1.7709923664122138,-0.40625,0.041259765625,-0.3291015625,1.1304999999999998
2.549618320610687,0.5038167938931297,-1.5419847328244274,-0.408447265625,0.03857421875,-0.33203125,1.1321999999999999
2.6259541984732824,0.2595419847328244,-1.5572519083969465,-0.408935546875,0.037841796875,-0.333740234375,1.1339
2.4580152671755724,0.2748091603053435,-1.6488549618320612,-0.4111328125,0.038818359375,-0.33251953125,1.1356
2.6717557251908395,0.48854961832061067,-1.6946564885496183,-0.412841796875,0.0390625,-0.33447265625,1.1373
2.6412213740458017,0.366412213740458,-1.6641221374045803,-0.40576171875,0.043701171875,-0.3330078125,1.139
2.549618320610687,0.3511450381679389,-1.8473282442748091,-0.41015625,0.04443359375,-0.326416015625,1.1407
2.5801526717557253,0.48854961832061067,-1.5267175572519085,-0.407470703125,0.042724609375,-0.3310546875,1.1423999999999999
2.2900763358778624,0.7480916030534351,-1.7709923664122138,-0.407470703125,0.035400390625,-0.3310546875,1.1441
2.6106870229007635,0.6106870229007634,-1.6641221374045803,-0.412353515625,0.038330078125,-0.3330078125,1.1458
2.5343511450381677,0.6564885496183206,-1.7251908396946565,-0.407958984375,0.039794921875,-0.335205078125,1.1475
2.381679389312977,0.5954198473282443,-1.618320610687023,-0.40966796875,0.0390625,-0.3310546875,1.1492
2.2290076335877864,0.6564885496183206,-1.5725190839694656,-0.407470703125,0.03955078125,-0.326171875,1.1509
2.2595419847328246,0.9465648854961832,-1.7251908396946565,-0.416015625,0.035888671875,-0.328369140625,1.1525999999999998
2.4122137404580153,0.8244274809160306,-1.7557251908396947,-0.41357421875,0.044677734375,-0.34033203125,1.1542999999999999
2.381679389312977,0.7786259541984732,-1.5267175572519085,-0.4091796875,0.037109375,-0.3291015625,1.156
2.3053435114503817,1.1450381679389312,-1.8473282442748091,-0.412353515625,0.0390625,-0.322021484375,1.1577
2.1068702290076335,1.1297709923664123,-1.6946564885496183,-0.40966796875,0.036865234375,-0.33544921875,1.1594
2.2595419847328246,0.8854961832061069,-1.6030534351145038,-0.415771484375,0.04052734375,-0.33837890625,1.1611
2.183206106870229,1.1145038167938932,-1.465648854961832,-0.41552734375,0.041259765625,-0.330078125,1.1627999999999998
2.2290076335877864,1.2061068702290076,-1.7251908396946565,-0.410888671875,0.0390625,-0.3408203125,1.1644999999999999
2.0,1.2213740458015268,-1.450381679389313,-0.411865234375,0.040771484375,-0.331787109375,1.1662
2.213740458015267,1.2213740458015268,-1.5725190839694656,-0.412109375,0.044189453125,-0.3291015625,1.1679
2.3053435114503817,1.5572519083969465,-1.6946564885496183,-0.41015625,0.03857421875,-0.3359375,1.1696
1.9389312977099236,1.2213740458015268,-1.633587786259542,-0.408935546875,0.044189453125,-0.33447265625,1.1713
2.0763358778625953,1.2061068702290076,-1.3740458015267176,-0.408447265625,0.04052734375,-0.333251953125,1.173
2.183206106870229,1.2671755725190839,-1.6488549618320612,-0.411865234375,0.039306640625,-0.330810546875,1.1746999999999999
2.0,1.282442748091603,-1.6793893129770991,-0.406005859375,0.035888671875,-0.328369140625,1.1764
2.122137404580153,1.4045801526717556,-1.6641221374045803,-0.408447265625,0.036865234375,-0.32763671875,1.1781
2.198473282442748,1.3435114503816794,-1.450381679389313,-0.41064453125,0.03369140625,-0.33642578125,1.1798
1.9694656488549618,1.3282442748091603,-1.465648854961832,-0.407470703125,0.04150390625,-0.332763671875,1.1815
2.0916030534351147,1.3129770992366412,-1.4351145038167938,-0.41357421875,0.037109375,-0.331787109375,1.1832
1.9236641221374047,1.3893129770992367,-1.6030534351145038,-0.413818359375,0.04248046875,-0.33154296875,1.1848999999999998
1.8778625954198473,1.4198473282442747,-1.3893129770992367,-0.410888671875,0.0400390625,-0.333984375,1.1865999999999999
1.786259541984733,1.4198473282442747,-1.4809160305343512,-0.406494140625,0.036865234375,-0.338134765625,1.1883
1.8015267175572518,1.3740458015267176,-1.5114503816793894,-0.40576171875,0.037353515625,-0.33203125,1.19
1.8473282442748091,1.3587786259541985,-1.5877862595419847,-0.40869140625,0.036376953125,-0.33154296875,1.1917
1.9389312977099236,1.4961832061068703,-1.4198473282442747,-0.412109375,0.03564453125,-0.32861328125,1.1934
1.7709923664122138,1.3740458015267176,-1.5419847328244274,-0.412353515625,0.040771484375,-0.3271484375,1.1950999999999998
1.786259541984733,1.4045801526717556,-1.4961832061068703,-0.406005859375,0.03662109375,-0.329833984375,1.1967999999999999
1.7099236641221374,1.3893129770992367,-1.5877862595419847,-0.408447265625,0.045166015625,-0.324951171875,1.1985
1.6488549618320612,1.2213740458015268,-1.297709923664122,-0.409912109375,0.041748046875,-0.3330078125,1.2002
1.6946564885496183,1.3893129770992367,-1.3893129770992367,-0.4111328125,0.038330078125,-0.331298828125,1.2019
1.816793893129771,1.450381679389313,-1.618320610687023,-0.408203125,0.03857421875,-0.336669921875,1.2036
1.7404580152671756,1.450381679389313,-1.5114503816793894,-0.406005859375,0.038330078125,-0.3349609375,1.2053
1.5114503816793894,1.297709923664122,-1.3587786259541985,-0.403564453125,0.040283203125,-0.333251953125,1.2069999999999999
1.5114503816793894,1.1755725190839694,-1.3893129770992367,-0.408935546875,0.0380859375,-0.328857421875,1.2086999999999999
1.3893129770992367,1.251908396946565,-1.251908396946565,-0.406494140625,0.04052734375,-0.328125,1.2104
1.4809160305343512,1.3893129770992367,-1.4045801526717556,-0.404296875,0.039306640625,-0.33642578125,1.2121
1.4809160305343512,1.3282442748091603,-1.3129770992366412,-0.412353515625,0.043701171875,-0.33154296875,1.2138
1.5419847328244274,1.1450381679389312,-1.4045801526717556,-0.408447265625,0.037353515625,-0.32958984375,1.2155
1.4809160305343512,0.9618320610687023,-1.4198473282442747,-0.408447265625,0.035888671875,-0.33544921875,1.2171999999999998
1.618320610687023,0.916030534351145,-1.3740458015267176,-0.40576171875,0.037109375,-0.333740234375,1.2188999999999999
1.5114503816793894,1.099236641221374,-1.3129770992366412,-0.406982421875,0.039306640625,-0.33642578125,1.2206
1.2366412213740459,0.7938931297709924,-1.7251908396946565,-0.405029296875,0.04052734375,-0.3349609375,1.2223
1.3740458015267176,0.6717557251908397,-1.4351145038167938,-0.4052734375,0.0400390625,-0.33349609375,1.224
1.633587786259542,0.732824427480916,-1.4351145038167938,-0.400634765625,0.040283203125,-0.326904296875,1.2257
1.5572519083969465,0.9312977099236641,-1.5572519083969465,-0.406494140625,0.03369140625,-0.332763671875,1.2273999999999998
1.3435114503816794,0.5648854961832062,-1.6793893129770991,-0.41015625,0.034912109375,-0.3310546875,1.2290999999999999
1.297709923664122,0.7480916030534351,-1.5114503816793894,-0.404052734375,0.0419921875,-0.331787109375,1.2308
1.2061068702290076,0.7786259541984732,-1.4961832061068703,-0.40673828125,0.0439453125,-0.339111328125,1.2325
1.3129770992366412,0.6564885496183206,-1.4961832061068703,-0.409423828125,0.034423828125,-0.33203125,1.2342
1.4809160305343512,0.366412213740458,-1.5114503816793894,-0.410400390625,0.037841796875,-0.33447265625,1.2359
1.297709923664122,0.48854961832061067,-1.4198473282442747,-0.408447265625,0.041748046875,-0.33251953125,1.2376
1.2061068702290076,0.6717557251908397,-1.5572519083969465,-0.40576171875,0.04443359375,-0.33447265625,1.2392999999999998
1.1450381679389312,0.5801526717557252,-1.4961832061068703,-0.405517578125,0.044189453125,-0.32421875,1.2409999999999999
1.3587786259541985,0.5648854961832062,-1.450381679389313,-0.40869140625,0.04052734375,-0.328125,1.2427
1.2213740458015268,0.5343511450381679,-1.3587786259541985,-0.412109375,0.037109375,-0.333251953125,1.2444
1.2061068702290076,0.32061068702290074,-1.450381679389313,-0.41064453125,0.03759765625,-0.333740234375,1.2461
1.1145038167938932,0.42748091603053434,-1.4961832061068703,-0.406005859375,0.03759765625,-0.334716796875,1.2478
1.083969465648855,0.33587786259541985,-1.3129770992366412,-0.412109375,0.03662109375,-0.33349609375,1.2494999999999998
0.8549618320610687,0.3053435114503817,-1.1603053435114503,-0.408203125,0.03515625,-0.33056640625,1.2511999999999999
1.2213740458015268,0.4580152671755725,-1.4961832061068703,-0.41259765625,0.039306640625,-0.32958984375,1.2529
0.9618320610687023,0.2595419847328244,-1.282442748091603,-0.40771484375,0.036376953125,-0.333740234375,1.2546
1.1145038167938932,0.3816793893129771,-1.282442748091603,-0.406494140625,0.03662109375,-0.32568359375,1.2563
1.0076335877862594,0.5954198473282443,-1.4351145038167938,-0.4091796875,0.0390625,-0.33154296875,1.258
0.6259541984732825,0.7480916030534351,-1.3893129770992367,-0.407470703125,0.041259765625,-0.33642578125,1.2596999999999998
0.7938931297709924,0.7786259541984732,-1.3129770992366412,-0.4130859375,0.040771484375,-0.3251953125,1.2613999999999999
0.916030534351145,0.8396946564885496,-1.3129770992366412,-0.40966796875,0.040283203125,-0.325927734375,1.2631
0.8702290076335878,0.9465648854961832,-1.4045801526717556,-0.408447265625,0.0380859375,-0.332275390625,1.2648
0.6259541984732825,0.9312977099236641,-1.618320610687023,-0.412353515625,0.040771484375,-0.3427734375,1.2665
0.7786259541984732,1.1297709923664123,-1.4045801526717556,-0.408935546875,0.036376953125,-0.3369140625,1.2682
0.8091603053435115,0.9312977099236641,-1.3435114503816794,-0.408447265625,0.039794921875,-0.32666015625,1.2699
0.8396946564885496,0.8549618320610687,-1.1755725190839694,-0.402587890625,0.034423828125,-0.337158203125,1.2715999999999998
0.9770992366412213,0.916030534351145,-1.5267175572519085,-0.412109375,0.038330078125,-0.33642578125,1.2732999999999999
0.9312977099236641,1.0076335877862594,-1.6030534351145038,-0.4072265625,0.040771484375,-0.33447265625,1.275
0.7480916030534351,0.7022900763358778,-1.4351145038167938,-0.409912109375,0.041015625,-0.33984375,1.2767
0.8702290076335878,0.9007633587786259,-1.465648854961832,-0.409912109375,0.041259765625,-0.32861328125,1.2784
0.8854961832061069,0.916030534351145,-1.450381679389313,-0.41064453125,0.03955078125,-0.328369140625,1.2801
0.7786259541984732,1.0381679389312977,-1.7709923664122138,-0.4140625,0.042236328125,-0.333740234375,1.2817999999999998
0.9923664122137404,1.0687022900763359,-1.6488549618320612,-0.406982421875,0.037109375,-0.33349609375,1.2834999999999999
0.9923664122137404,1.0534351145038168,-1.7709923664122138,-0.408935546875,0.040283203125,-0.331787109375,1.2852
0.8549618320610687,1.2061068702290076,-1.7099236641221374,-0.4072265625,0.038818359375,-0.32958984375,1.2869
0.916030534351145,1.3282442748091603,-1.6488549618320612,-0.41162109375,0.038818359375,-0.33642578125,1.2886
0.916030534351145,1.1450381679389312,-1.7099236641221374,-0.40869140625,0.03857421875,-0.333740234375,1.2903
0.8396946564885496,1.083969465648855,-1.6030534351145038,-0.408935546875,0.03857421875,-0.33642578125,1.292
0.9312977099236641,1.4351145038167938,-1.6641221374045803,-0.4130859375,0.03369140625,-0.342529296875,1.2936999999999999
0.8702290076335878,1.465648854961832,-1.4961832061068703,-0.4130859375,0.037841796875,-0.331298828125,1.2953999999999999
1.099236641221374,1.3740458015267176,-1.6946564885496183,-0.408935546875,0.0400390625,-0.3291015625,1.2971
0.9007633587786259,1.465648854961832,-1.6793893129770991,-0.40625,0.03759765625,-0.327880859375,1.2988
0.7633587786259542,1.3282442748091603,-1.6488549618320612,-0.405517578125,0.038330078125,-0.338134765625,1.3005
0.8244274809160306,1.5114503816793894,-1.6793893129770991,-0.408935546875,0.038818359375,-0.333984375,1.3022
0.9618320610687023,1.4809160305343512,-1.5877862595419847,-0.410888671875,0.039794921875,-0.334228515625,1.3038999999999998
0.7786259541984732,1.4961832061068703,-1.8015267175572518,-0.407958984375,0.040771484375,-0.331787109375,1.3055999999999999
0.5954198473282443,1.6946564885496183,-1.6030534351145038,-0.403564453125,0.035400390625,-0.322998046875,1.3073
0.6106870229007634,1.4961832061068703,-1.6030534351145038,-0.40771484375,0.04150390625,-0.3369140625,1.309
0.8396946564885496,1.6030534351145038,-1.5877862595419847,-0.41015625,0.036376953125,-0.333740234375,1.3107
0.8244274809160306,1.5877862595419847,-1.5572519083969465,-0.41162109375,0.036376953125,-0.331787109375,1.3124
0.7175572519083969,1.4809160305343512,-1.465648854961832,-0.407470703125,0.0380859375,-0.33056640625,1.3140999999999998
0.6717557251908397,1.450381679389313,-1.4809160305343512,-0.40966796875,0.04345703125,-0.335205078125,1.3157999999999999
1.0381679389312977,1.450381679389313,-1.3740458015267176,-0.41259765625,0.037109375,-0.328369140625,1.3175
0.8702290076335878,1.4198473282442747,-1.4351145038167938,-0.407470703125,0.041015625,-0.3330078125,1.3192
0.6870229007633588,1.2366412213740459,-1.2213740458015268,-0.41162109375,0.0400390625,-0.33056640625,1.3209
0.5801526717557252,1.2213740458015268,-1.3129770992366412,-0.408447265625,0.03759765625,-0.3349609375,1.3226
0.7022900763358778,1.4045801526717556,-1.3282442748091603,-0.4091796875,0.039306640625,-0.329833984375,1.3243
0.6106870229007634,1.3587786259541985,-1.450381679389313,-0.412109375,0.040771484375,-0.335693359375,1.3259999999999998
0.44274809160305345,1.3282442748091603,-1.3282442748091603,-0.413818359375,0.037841796875,-0.332763671875,1.3276999999999999
0.6106870229007634,1.3587786259541985,-1.4198473282442747,-0.409423828125,0.0419921875,-0.334228515625,1.3294
0.6259541984732825,1.5114503816793894,-1.282442748091603,-0.41162109375,0.0439453125,-0.32666015625,1.3311
0.6412213740458015,1.1908396946564885,-1.3129770992366412,-0.412841796875,0.0400390625,-0.337158203125,1.3328
0.7022900763358778,1.1450381679389312,-1.1908396946564885,-0.411865234375,0.039794921875,-0.334228515625,1.3345
0.366412213740458,1.3435114503816794,-1.083969465648855,-0.410400390625,0.040283203125,-0.33056640625,1.3361999999999998
0.4732824427480916,1.3129770992366412,-1.1145038167938932,-0.408203125,0.040283203125,-0.333740234375,1.3378999999999999
0.7633587786259542,1.282442748091603,-1.2213740458015268,-0.40869140625,0.03955078125,-0.337158203125,1.3396
0.7175572519083969,1.251908396946565,-1.083969465648855,-0.409912109375,0.035400390625,-0.33154296875,1.3413
0.732824427480916,1.4198473282442747,-1.0381679389312977,-0.40966796875,0.039306640625,-0.326416015625,1.343
0.5801526717557252,1.4198473282442747,-0.9312977099236641,-0.407470703125,0.043212890625,-0.333740234375,1.3447
0.7633587786259542,1.3740458015267176,-1.1450381679389312,-0.40478515625,0.0458984375,-0.3359375,1.3463999999999998
0.6564885496183206,1.3587786259541985,-0.9770992366412213,-0.412353515625,0.038330078125,-0.3310546875,1.3480999999999999
0.4122137404580153,1.3740458015267176,-0.9465648854961832,-0.41259765625,0.039794921875,-0.335693359375,1.3497999999999999
0.6564885496183206,1.3893129770992367,-1.1297709923664123,-0.40283203125,0.040771484375,-0.337646484375,1.3515
0.7786259541984732,1.4351145038167938,-1.0381679389312977,-0.407958984375,0.03955078125,-0.333740234375,1.3532
0.6412213740458015,1.2061068702290076,-1.0534351145038168,-0.406982421875,0.039306640625,-0.33251953125,1.3549
0.7175572519083969,1.3893129770992367,-1.1603053435114503,-0.40380859375,0.04052734375,-0.327392578125,1.3566
0.8244274809160306,1.5725190839694656,-1.1297709923664123,-0.409912109375,0.046875,-0.330810546875,1.3582999999999998
0.7633587786259542,1.3282442748091603,-1.1603053435114503,-0.40771484375,0.04638671875,-0.33251953125,1.3599999999999999
0.7786259541984732,1.2366412213740459,-1.0381679389312977,-0.408935546875,0.04248046875,-0.335205078125,1.3617
0.8091603053435115,1.5114503816793894,-1.297709923664122,-0.41064453125,0.038818359375,-0.32958984375,1.3634
0.9618320610687023,1.4809160305343512,-1.0076335877862594,-0.409912109375,0.041748046875,-0.333251953125,1.3651
1.0229007633587786,1.4351145038167938,-1.2671755725190839,-0.41259765625,0.040771484375,-0.329345703125,1.3668
0.8396946564885496,1.4351145038167938,-1.3282442748091603,-0.412353515625,0.0419921875,-0.3349609375,1.3684999999999998
1.0381679389312977,1.3893129770992367,-1.1755725190839694,-0.413818359375,0.0419921875,-0.32373046875,1.3701999999999999
1.0687022900763359,1.5572519083969465,-1.2366412213740459,-0.41015625,0.041748046875,-0.328857421875,1.3719
1.0381679389312977,1.6030534351145038,-1.3587786259541985,-0.406494140625,0.039306640625,-0.33642578125,1.3736
1.083969465648855,1.5419847328244274,-1.2213740458015268,-0.41162109375,0.04296875,-0.3291015625,1.3753
0.8854961832061069,1.5114503816793894,-1.297709923664122,-0.41064453125,0.047119140625,-0.3310546875,1.377
0.916030534351145,1.7557251908396947,-1.3435114503816794,-0.40869140625,0.04052734375,-0.33935546875,1.3786999999999998
0.9618320610687023,1.6946564885496183,-1.618320610687023,-0.414306640625,0.038330078125,-0.333251953125,1.3803999999999998
0.8396946564885496,1.786259541984733,-1.4809160305343512,-0.406982421875,0.03955078125,-0.33056640625,1.3820999999999999
0.8854961832061069,1.6946564885496183,-1.4198473282442747,-0.4130859375,0.0400390625,-0.33154296875,1.3838
1.1603053435114503,1.6030534351145038,-1.6488549618320612,-0.41259765625,0.041259765625,-0.322509765625,1.3855
1.0534351145038168,1.7099236641221374,-1.4045801526717556,-0.402587890625,0.037353515625,-0.326904296875,1.3872
1.1145038167938932,1.5877862595419847,-1.3587786259541985,-0.412109375,0.040283203125,-0.329833984375,1.3889
1.0534351145038168,1.7404580152671756,-1.5419847328244274,-0.406982421875,0.04931640625,-0.33203125,1.3905999999999998
0.8396946564885496,1.6030534351145038,-1.5419847328244274,-0.406982421875,0.039794921875,-0.333251953125,1.3922999999999999
1.1755725190839694,1.6946564885496183,-1.5725190839694656,-0.408203125,0.036376953125,-0.33154296875,1.394
1.1297709923664123,1.6030534351145038,-1.4351145038167938,-0.408203125,0.0390625,-0.333251953125,1.3957
0.8854961832061069,1.4961832061068703,-1.5419847328244274,-0.405517578125,0.042236328125,-0.331787109375,1.3974
0.9618320610687023,1.4961832061068703,-1.5419847328244274,-0.40576171875,0.039794921875,-0.3310546875,1.3991
1.2061068702290076,1.4045801526717556,-1.633587786259542,-0.411376953125,0.037109375,-0.322998046875,1.4007999999999998
0.8549618320610687,1.6641221374045803,-1.4961832061068703,-0.40869140625,0.036865234375,-0.32763671875,1.4024999999999999
1.0534351145038168,1.5267175572519085,-1.7251908396946565,-0.406005859375,0.04248046875,-0.343994140625,1.4042
0.9923664122137404,1.450381679389313,-1.4198473282442747,-0.405517578125,0.03759765625,-0.3388671875,1.4059
1.0534351145038168,1.4045801526717556,-1.5267175572519085,-0.4033203125,0.03759765625,-0.331298828125,1.4076
0.9465648854961832,1.1908396946564885,-1.7251908396946565,-0.408447265625,0.0380859375,-0.33935546875,1.4093
0.9923664122137404,1.4961832061068703,-1.5725190839694656,-0.40576171875,0.0361328125,-0.3359375,1.411
1.099236641221374,1.3893129770992367,-1.5114503816793894,-0.412353515625,0.04443359375,-0.336669921875,1.4126999999999998
1.0534351145038168,1.3587786259541985,-1.6793893129770991,-0.409912109375,0.0419921875,-0.33447265625,1.4143999999999999
0.9465648854961832,1.3282442748091603,-1.5267175572519085,-0.41162109375,0.0380859375,-0.328857421875,1.4161
0.9465648854961832,1.2671755725190839,-1.6641221374045803,-0.40625,0.046142578125,-0.329833984375,1.4178
1.083969465648855,1.282442748091603,-1.5725190839694656,-0.40966796875,0.0419921875,-0.32421875,1.4195
1.1450381679389312,1.251908396946565,-1.618320610687023,-0.406982421875,0.04052734375,-0.327392578125,1.4212
0.916030534351145,1.1603053435114503,-1.4961832061068703,-0.405029296875,0.0419921875,-0.3310546875,1.4228999999999998
0.9465648854961832,1.099236641221374,-1.5114503816793894,-0.406982421875,0.03857421875,-0.331787109375,1.4245999999999999
1.083969465648855,0.9770992366412213,-1.5267175572519085,-0.409912109375,0.04248046875,-0.337158203125,1.4263
1.1755725190839694,1.0076335877862594,-1.8015267175572518,-0.406005859375,0.046142578125,-0.3310546875,1.428
1.0229007633587786,1.0381679389312977,-1.7404580152671756,-0.406494140625,0.039306640625,-0.3359375,1.4297
0.9465648854961832,0.9465648854961832,-1.7557251908396947,-0.40771484375,0.044189453125,-0.3349609375,1.4314
0.9618320610687023,0.8702290076335878,-1.6641221374045803,-0.40869140625,0.04296875,-0.329833984375,1.4330999999999998
1.0381679389312977,0.8854961832061069,-1.816793893129771,-0.406005859375,0.041748046875,-0.328857421875,1.4347999999999999
1.1908396946564885,0.9007633587786259,-1.7404580152671756,-0.409912109375,0.0419921875,-0.320068359375,1.4364999999999999
1.0534351145038168,0.732824427480916,-1.786259541984733,-0.406005859375,0.04296875,-0.3310546875,1.4382
1.0076335877862594,0.6259541984732825,-1.7251908396946565,-0.404541015625,0.037353515625,-0.33544921875,1.4399
1.2671755725190839,0.549618320610687,-1.6946564885496183,-0.409912109375,0.0400390625,-0.3330078125,1.4416
1.1145038167938932,0.6106870229007634,-1.83206106870229,-0.40478515625,0.0439453125,-0.330078125,1.4433
0.9465648854961832,0.5801526717557252,-1.7251908396946565,-0.405517578125,0.04296875,-0.336669921875,1.4449999999999998
1.0534351145038168,0.3816793893129771,-1.6488549618320612,-0.40673828125,0.046630859375,-0.334716796875,1.4466999999999999
1.1145038167938932,0.5038167938931297,-1.786259541984733,-0.405029296875,0.0390625,-0.333740234375,1.4484
1.1297709923664123,0.5648854961832062,-1.7557251908396947,-0.4091796875,0.03759765625,-0.32861328125,1.4501
1.0076335877862594,0.2748091603053435,-1.984732824427481,-0.40625,0.045166015625,-0.34130859375,1.4518
1.083969465648855,0.3511450381679389,-1.786259541984733,-0.40869140625,0.037841796875,-0.34228515625,1.4535
1.3129770992366412,0.183206106870229,-1.786259541984733,-0.406982421875,0.0390625,-0.3349609375,1.4551999999999998
1.3740458015267176,0.33587786259541985,-1.816793893129771,-0.404296875,0.041259765625,-0.3291015625,1.4568999999999999
1.4045801526717556,0.42748091603053434,-1.8015267175572518,-0.408935546875,0.03759765625,-0.3408203125,1.4586
1.1145038167938932,0.4122137404580153,-1.7557251908396947,-0.405029296875,0.04052734375,-0.33349609375,1.4603
1.1450381679389312,0.3511450381679389,-1.8625954198473282,-0.41357421875,0.041015625,-0.337890625,1.462
1.3129770992366412,0.2595419847328244,-1.7404580152671756,-0.41064453125,0.040771484375,-0.334716796875,1.4637
1.4961832061068703,0.366412213740458,-1.8778625954198473,-0.408203125,0.0400390625,-0.32958984375,1.4653999999999998
1.5267175572519085,0.3053435114503817,-2.030534351145038,-0.41015625,0.0390625,-0.33203125,1.4670999999999998
1.2366412213740459,0.3969465648854962,-1.8015267175572518,-0.4091796875,0.04443359375,-0.331787109375,1.4687999999999999
1.4351145038167938,0.5038167938931297,-1.8625954198473282,-0.407958984375,0.0439453125,-0.335205078125,1.4705
1.4045801526717556,0.44274809160305345,-1.9236641221374047,-0.412109375,0.04248046875,-0.329833984375,1.4722
1.4198473282442747,0.6564885496183206,-1.8015267175572518,-0.41162109375,0.039794921875,-0.333740234375,1.4739
1.4045801526717556,0.5190839694656488,-1.9236641221374047,-0.407958984375,0.04150390625,-0.330078125,1.4756
1.282442748091603,0.42748091603053434,-1.6641221374045803,-0.412353515625,0.04296875,-0.3408203125,1.4772999999999998
1.3129770992366412,0.366412213740458,-1.8473282442748091,-0.412109375,0.041748046875,-0.326904296875,1.4789999999999999
1.3435114503816794,0.5343511450381679,-1.5877862595419847,-0.412109375,0.041748046875,-0.330322265625,1.4807
1.3282442748091603,0.6717557251908397,-1.6030534351145038,-0.408447265625,0.037353515625,-0.32470703125,1.4824
1.5114503816793894,0.5648854961832062,-1.633587786259542,-0.415771484375,0.036865234375,-0.3349609375,1.4841
1.4961832061068703,0.5343511450381679,-1.6641221374045803,-0.41162109375,0.03369140625,-0.3291015625,1.4858
1.3740458015267176,0.5648854961832062,-1.7404580152671756,-0.407470703125,0.033203125,-0.329833984375,1.4874999999999998
1.7557251908396947,0.5801526717557252,-1.5877862595419847,-0.408447265625,0.04150390625,-0.339111328125,1.4891999999999999
1.465648854961832,0.5648854961832062,-1.5114503816793894,-0.408935546875,0.04296875,-0.332763671875,1.4909
1.1297709923664123,0.7022900763358778,-1.7251908396946565,-0.412353515625,0.041748046875,-0.332763671875,1.4926
1.3129770992366412,0.6564885496183206,-1.3587786259541985,-0.41015625,0.0361328125,-0.332275390625,1.4943
1.4198473282442747,0.5190839694656488,-1.3129770992366412,-0.412353515625,0.035888671875,-0.326171875,1.496
1.4045801526717556,0.5343511450381679,-1.5114503816793894,-0.4111328125,0.0390625,-0.323974609375,1.4976999999999998
1.3282442748091603,0.5190839694656488,-1.3435114503816794,-0.413818359375,0.031005859375,-0.33056640625,1.4993999999999998
0.9618320610687023,0.9007633587786259,-1.3435114503816794,-0.418212890625,0.041748046875,-0.327880859375,1.5010999999999999
1.1297709923664123,0.5801526717557252,-1.2366412213740459,-0.4130859375,0.03662109375,-0.33154296875,1.5028
1.2213740458015268,0.549618320610687,-1.1603053435114503,-0.40771484375,0.038818359375,-0.327392578125,1.5045
1.1297709923664123,0.7480916030534351,-1.3740458015267176,-0.40771484375,0.039794921875,-0.339599609375,1.5062
1.099236641221374,0.7786259541984732,-1.2366412213740459,-0.406982421875,0.0419921875,-0.33056640625,1.5079
1.0687022900763359,0.6870229007633588,-1.0229007633587786,-0.407470703125,0.04345703125,-0.328857421875,1.5095999999999998
1.0687022900763359,0.5801526717557252,-1.3587786259541985,-0.41064453125,0.034423828125,-0.33154296875,1.5112999999999999
1.2213740458015268,0.8549618320610687,-1.1450381679389312,-0.40771484375,0.03759765625,-0.33056640625,1.513
0.8396946564885496,0.8702290076335878,-0.9312977099236641,-0.405517578125,0.036865234375,-0.333251953125,1.5147
1.0381679389312977,0.6870229007633588,-1.1297709923664123,-0.40576171875,0.0380859375,-0.328857421875,1.5164
0.916030534351145,0.7633587786259542,-1.2213740458015268,-0.408447265625,0.037841796875,-0.33837890625,1.5181
1.0534351145038168,0.732824427480916,-0.8549618320610687,-0.411865234375,0.03759765625,-0.333984375,1.5197999999999998
0.7633587786259542,0.6564885496183206,-1.1908396946564885,-0.408935546875,0.04541015625,-0.32958984375,1.5214999999999999
1.1145038167938932,0.5801526717557252,-1.099236641221374,-0.4052734375,0.04345703125,-0.331787109375,1.5231999999999999
1.0076335877862594,0.7022900763358778,-0.9770992366412213,-0.412109375,0.03857421875,-0.330078125,1.5249
0.8396946564885496,0.5648854961832062,-1.0229007633587786,-0.40966796875,0.0361328125,-0.33154296875,1.5266
0.7938931297709924,0.5190839694656488,-1.1603053435114503,-0.40966796875,0.03857421875,-0.337646484375,1.5283
0.9465648854961832,0.5648854961832062,-1.1755725190839694,-0.41015625,0.031494140625,-0.334228515625,1.5299999999999998
0.9923664122137404,0.3969465648854962,-1.1450381679389312,-0.41015625,0.03857421875,-0.330078125,1.5316999999999998
1.1603053435114503,0.4122137404580153,-1.1603053435114503,-0.40576171875,0.039794921875,-0.3291015625,1.5333999999999999
1.0229007633587786,0.3969465648854962,-1.2061068702290076,-0.407470703125,0.041015625,-0.334716796875,1.5351
0.8854961832061069,0.3511450381679389,-1.1145038167938932,-0.408935546875,0.0380859375,-0.327392578125,1.5368
0.8244274809160306,0.3053435114503817,-1.1145038167938932,-0.408935546875,0.04248046875,-0.33203125,1.5385
0.7633587786259542,0.42748091603053434,-1.2061068702290076,-0.4072265625,0.034912109375,-0.329345703125,1.5402
0.8244274809160306,0.4732824427480916,-1.3282442748091603,-0.4072265625,0.03857421875,-0.3359375,1.5418999999999998
0.9618320610687023,0.42748091603053434,-1.1755725190839694,-0.406005859375,0.0400390625,-0.330322265625,1.5435999999999999
0.9618320610687023,0.4732824427480916,-1.2213740458015268,-0.4130859375,0.0341796875,-0.32666015625,1.5453
0.6259541984732825,0.732824427480916,-1.1297709923664123,-0.40673828125,0.03955078125,-0.3232421875,1.547
0.8702290076335878,0.5343511450381679,-1.099236641221374,-0.412353515625,0.042236328125,-0.3251953125,1.5487
1.1145038167938932,0.7938931297709924,-1.1755725190839694,-0.41015625,0.036865234375,-0.325439453125,1.5504
0.6259541984732825,0.6564885496183206,-1.297709923664122,-0.4130859375,0.0380859375,-0.3291015625,1.5520999999999998
0.549618320610687,0.6564885496183206,-1.1450381679389312,-0.409912109375,0.041259765625,-0.3330078125,1.5537999999999998
0.6870229007633588,0.7022900763358778,-1.251908396946565,-0.411865234375,0.035888671875,-0.325439453125,1.5554999999999999
0.7175572519083969,0.7786259541984732,-1.1145038167938932,-0.411376953125,0.036865234375,-0.327880859375,1.5572
0.549618320610687,0.7022900763358778,-1.297709923664122,-0.4140625,0.0380859375,-0.332275390625,1.5589
0.7022900763358778,0.6412213740458015,-1.1145038167938932,-0.40966796875,0.040283203125,-0.330078125,1.5606
0.6106870229007634,0.6412213740458015,-1.1908396946564885,-0.407958984375,0.036865234375,-0.3330078125,1.5623
0.42748091603053434,0.9312977099236641,-1.099236641221374,-0.41064453125,0.037841796875,-0.32177734375,1.5639999999999998
0.48854961832061067,0.8396946564885496,-1.1145038167938932,-0.407470703125,0.040771484375,-0.3251953125,1.5656999999999999
0.6259541984732825,1.0381679389312977,-1.0534351145038168,-0.407470703125,0.03857421875,-0.3349609375,1.5674
0.5190839694656488,1.1297709923664123,-1.2671755725190839,-0.4130859375,0.039794921875,-0.330078125,1.5691
0.42748091603053434,1.099236641221374,-1.1755725190839694,-0.40380859375,0.040283203125,-0.32666015625,1.5708
0.33587786259541985,1.0229007633587786,-1.1297709923664123,-0.4111328125,0.03955078125,-0.331298828125,1.5725
0.5038167938931297,1.2213740458015268,-1.0687022900763359,-0.410888671875,0.0400390625,-0.3310546875,1.5741999999999998
0.366412213740458,1.0687022900763359,-1.297709923664122,-0.41064453125,0.039794921875,-0.328369140625,1.5758999999999999
0.2748091603053435,1.1755725190839694,-1.1450381679389312,-0.415771484375,0.04296875,-0.337158203125,1.5776
0.6564885496183206,1.3740458015267176,-1.3129770992366412,-0.415283203125,0.0419921875,-0.337158203125,1.5793
0.5801526717557252,1.282442748091603,-1.297709923664122,-0.412353515625,0.042724609375,-0.339111328125,1.581
0.5190839694656488,1.2061068702290076,-1.4198473282442747,-0.409912109375,0.040771484375,-0.3359375,1.5827
0.5648854961832062,1.4198473282442747,-1.251908396946565,-0.41162109375,0.03857421875,-0.334228515625,1.5843999999999998
0.5038167938931297,1.4961832061068703,-1.4198473282442747,-0.412109375,0.040771484375,-0.336181640625,1.5860999999999998
0.549618320610687,1.4961832061068703,-1.297709923664122,-0.408935546875,0.041259765625,-0.3310546875,1.5877999999999999
0.5190839694656488,1.5114503816793894,-1.3587786259541985,-0.412353515625,0.0400390625,-0.337646484375,1.5895
0.6564885496183206,1.6488549618320612,-1.2366412213740459,-0.40966796875,0.04638671875,-0.327392578125,1.5912
0.5801526717557252,1.8473282442748091,-1.1908396946564885,-0.413818359375,0.041748046875,-0.327392578125,1.5929
0.6412213740458015,1.6641221374045803,-1.3129770992366412,-0.406982421875,0.0439453125,-0.330810546875,1.5946
0.6412213740458015,1.618320610687023,-1.6030534351145038,-0.411376953125,0.0439453125,-0.329833984375,1.5962999999999998
0.6564885496183206,1.786259541984733,-1.3587786259541985,-0.407470703125,0.0458984375,-0.33740234375,1.5979999999999999
0.732824427480916,1.8931297709923665,-1.6030534351145038,-0.410400390625,0.044189453125,-0.32568359375,1.5997
0.6870229007633588,2.015267175572519,-1.5114503816793894,-0.414794921875,0.044189453125,-0.33251953125,1.6014
0.8244274809160306,1.786259541984733,-1.5725190839694656,-0.41455078125,0.039306640625,-0.3330078125,1.6031
0.5190839694656488,2.183206106870229,-1.5114503816793894,-0.41162109375,0.0439453125,-0.332763671875,1.6048
0.549618320610687,1.786259541984733,-1.6488549618320612,-0.410888671875,0.044189453125,-0.33984375,1.6064999999999998
0.8091603053435115,1.7099236641221374,-1.5114503816793894,-0.412841796875,0.04296875,-0.3291015625,1.6081999999999999
0.8702290076335878,1.8778625954198473,-1.5114503816793894,-0.41162109375,0.039306640625,-0.326171875,1.6098999999999999
1.0229007633587786,1.9541984732824427,-1.633587786259542,-0.40771484375,0.041748046875,-0.328857421875,1.6116
0.9923664122137404,1.816793893129771,-1.633587786259542,-0.403076171875,0.044189453125,-0.330078125,1.6133
0.8549618320610687,1.7099236641221374,-1.6946564885496183,-0.40087890625,0.03955078125,-0.33642578125,1.615
0.8854961832061069,2.045801526717557,-1.8625954198473282,-0.409423828125,0.03857421875,-0.326416015625,1.6166999999999998
1.2061068702290076,2.183206106870229,-1.450381679389313,-0.408935546875,0.045166015625,-0.329345703125,1.6183999999999998
0.9618320610687023,1.984732824427481,-1.8931297709923665,-0.408935546875,0.047607421875,-0.329833984375,1.6200999999999999
1.0381679389312977,1.9694656488549618,-1.5419847328244274,-0.410888671875,0.04150390625,-0.33740234375,1.6218
1.251908396946565,2.122137404580153,-1.7557251908396947,-0.40966796875,0.0400390625,-0.328857421875,1.6235
1.0687022900763359,2.045801526717557,-1.6793893129770991,-0.40771484375,0.044921875,-0.3232421875,1.6252
1.1297709923664123,1.9389312977099236,-1.7099236641221374,-0.413818359375,0.043212890625,-0.32861328125,1.6269
1.2671755725190839,2.030534351145038,-1.7404580152671756,-0.4072265625,0.04248046875,-0.331787109375,1.6285999999999998
1.297709923664122,2.213740458015267,-1.8931297709923665,-0.413330078125,0.037353515625,-0.333984375,1.6302999999999999
0.9618320610687023,2.0763358778625953,-1.6793893129770991,-0.408935546875,0.04052734375,-0.330810546875,1.632
1.4198473282442747,2.122137404580153,-1.7251908396946565,-0.407958984375,0.03857421875,-0.32666015625,1.6337
1.4961832061068703,1.9083969465648856,-1.618320610687023,-0.411376953125,0.042724609375,-0.32861328125,1.6354
1.3435114503816794,2.0610687022900764,-1.8778625954198473,-0.40966796875,0.042236328125,-0.33544921875,1.6371
1.2213740458015268,2.1374045801526718,-1.7557251908396947,-0.41259765625,0.041015625,-0.333740234375,1.6387999999999998
1.4961832061068703,2.0916030534351147,-1.6641221374045803,-0.407470703125,0.04296875,-0.3359375,1.6404999999999998
1.633587786259542,1.8778625954198473,-1.5877862595419847,-0.404541015625,0.046142578125,-0.33154296875,1.6421999999999999
1.5267175572519085,1.9236641221374047,-1.6793893129770991,-0.40625,0.040771484375,-0.340576171875,1.6439
1.450381679389313,2.0,-1.7557251908396947,-0.406005859375,0.04345703125,-0.333984375,1.6456
1.450381679389313,1.83206106870229,-1.8473282442748091,-0.406494140625,0.045654296875,-0.326416015625,1.6473
1.3129770992366412,1.83206106870229,-1.4198473282442747,-0.41015625,0.0419921875,-0.32861328125,1.6489999999999998
1.4351145038167938,1.8015267175572518,-1.4045801526717556,-0.40673828125,0.041748046875,-0.336181640625,1.6506999999999998
1.618320610687023,2.015267175572519,-1.4351145038167938,-0.409912109375,0.04296875,-0.330322265625,1.6523999999999999
1.6946564885496183,1.9236641221374047,-1.6030534351145038,-0.407470703125,0.040283203125,-0.333740234375,1.6541
1.6793893129770991,1.9083969465648856,-1.1603053435114503,-0.405517578125,0.03759765625,-0.330078125,1.6558
1.4961832061068703,1.7251908396946565,-1.2061068702290076,-0.41015625,0.043212890625,-0.3310546875,1.6575
1.6793893129770991,1.7709923664122138,-1.2061068702290076,-0.40869140625,0.044921875,-0.336181640625,1.6592
1.7404580152671756,1.8015267175572518,-1.4961832061068703,-0.407470703125,0.036865234375,-0.3291015625,1.6608999999999998
1.633587786259542,1.7251908396946565,-1.083969465648855,-0.40869140625,0.040771484375,-0.328125,1.6625999999999999
1.9389312977099236,1.618320610687023,-1.1755725190839694,-0.4091796875,0.0419921875,-0.337890625,1.6643
1.8931297709923665,1.7251908396946565,-1.0687022900763359,-0.412353515625,0.040283203125,-0.33447265625,1.666
1.8931297709923665,1.7404580152671756,-1.1450381679389312,-0.40380859375,0.043212890625,-0.3388671875,1.6677
1.8625954198473282,1.5267175572519085,-0.9618320610687023,-0.40625,0.04296875,-0.32861328125,1.6694
2.030534351145038,1.4809160305343512,-0.9618320610687023,-0.410888671875,0.040283203125,-0.33056640625,1.6710999999999998
1.9083969465648856,1.297709923664122,-0.8244274809160306,-0.406005859375,0.03857421875,-0.330810546875,1.6727999999999998
1.984732824427481,1.3893129770992367,-0.9923664122137404,-0.40869140625,0.03857421875,-0.339111328125,1.6744999999999999
1.8015267175572518,1.251908396946565,-0.6106870229007634,-0.405029296875,0.04150390625,-0.334228515625,1.6762
1.984732824427481,1.2671755725190839,-0.6564885496183206,-0.408447265625,0.0400390625,-0.33203125,1.6779
2.0916030534351147,1.2671755725190839,-0.7786259541984732,-0.40625,0.04052734375,-0.336669921875,1.6796
1.9694656488549618,1.0687022900763359,-0.8244274809160306,-0.408203125,0.04638671875,-0.33203125,1.6813
1.984732824427481,1.1603053435114503,-0.5954198473282443,-0.407470703125,0.0390625,-0.335205078125,1.6829999999999998
2.045801526717557,1.2671755725190839,-0.6259541984732825,-0.40576171875,0.04833984375,-0.32421875,1.6846999999999999
2.0,1.1450381679389312,-0.48854961832061067,-0.406494140625,0.0439453125,-0.32861328125,1.6864
1.9389312977099236,1.1908396946564885,-0.6412213740458015,-0.40478515625,0.040283203125,-0.32861328125,1.6881
2.122137404580153,1.2213740458015268,-0.549618320610687,-0.40478515625,0.03955078125,-0.338134765625,1.6898
2.366412213740458,1.0229007633587786,-0.5038167938931297,-0.407470703125,0.0400390625,-0.340576171875,1.6915
2.2900763358778624,1.0229007633587786,-0.5954198473282443,-0.404296875,0.041259765625,-0.334716796875,1.6931999999999998
2.1374045801526718,1.3282442748091603,-0.549618320610687,-0.40234375,0.034912109375,-0.3349609375,1.6948999999999999
2.366412213740458,1.0381679389312977,-0.549618320610687,-0.41162109375,0.03955078125,-0.336181640625,1.6965999999999999
2.030534351145038,1.2671755725190839,-0.549618320610687,-0.41162109375,0.039794921875,-0.32666015625,1.6983
2.2900763358778624,1.1450381679389312,-0.5343511450381679,-0.408203125,0.04150390625,-0.326904296875,1.7
2.0916030534351147,1.1450381679389312,-0.44274809160305345,-0.411376953125,0.041259765625,-0.326904296875,1.7017
2.0610687022900764,1.2061068702290076,-0.4122137404580153,-0.40576171875,0.0400390625,-0.3359375,1.7033999999999998
2.122137404580153,1.2061068702290076,-0.4732824427480916,-0.40673828125,0.04541015625,-0.331787109375,1.7050999999999998
2.015267175572519,1.297709923664122,-0.21374045801526717,-0.412109375,0.03759765625,-0.331298828125,1.7067999999999999
2.213740458015267,1.2671755725190839,-0.3969465648854962,-0.413818359375,0.039794921875,-0.328857421875,1.7085
2.1374045801526718,1.282442748091603,-0.3969465648854962,-0.408203125,0.041015625,-0.33349609375,1.7102
2.33587786259542,1.297709923664122,-0.3816793893129771,-0.40576171875,0.037841796875,-0.334716796875,1.7119
2.427480916030534,1.1908396946564885,-0.3816793893129771,-0.4130859375,0.04052734375,-0.330078125,1.7136
2.3969465648854964,1.1297709923664123,-0.22900763358778625,-0.4130859375,0.03955078125,-0.33447265625,1.7152999999999998
2.3206106870229006,1.1603053435114503,-0.2900763358778626,-0.4111328125,0.037109375,-0.3330078125,1.7169999999999999
2.2442748091603053,1.2366412213740459,-0.2900763358778626,-0.406005859375,0.04833984375,-0.33447265625,1.7187
2.0610687022900764,1.3740458015267176,-0.1984732824427481,-0.4052734375,0.045654296875,-0.34375,1.7204
2.0610687022900764,1.5419847328244274,-0.21374045801526717,-0.41162109375,0.0390625,-0.326904296875,1.7221
2.33587786259542,1.3893129770992367,-0.1984732824427481,-0.40771484375,0.041259765625,-0.33642578125,1.7238
2.198473282442748,1.5572519083969465,-0.15267175572519084,-0.406982421875,0.040283203125,-0.337158203125,1.7254999999999998
2.198473282442748,1.3893129770992367,-0.24427480916030533,-0.4052734375,0.042236328125,-0.3330078125,1.7271999999999998
2.0763358778625953,1.2061068702290076,-0.13740458015267176,-0.40673828125,0.04296875,-0.32763671875,1.7288999999999999
2.1068702290076335,1.2213740458015268,-0.32061068702290074,-0.40966796875,0.035400390625,-0.3359375,1.7306
2.3053435114503817,1.251908396946565,-0.21374045801526717,-0.40869140625,0.043212890625,-0.3359375,1.7323
2.045801526717557,1.4961832061068703,-0.32061068702290074,-0.407470703125,0.04248046875,-0.334716796875,1.734
2.16793893129771,1.2213740458015268,-0.16793893129770993,-0.413330078125,0.043701171875,-0.332275390625,1.7356999999999998
2.1526717557251906,1.3893129770992367,-0.32061068702290074,-0.409912109375,0.041748046875,-0.3359375,1.7373999999999998
1.984732824427481,1.2061068702290076,-0.3816793893129771,-0.4052734375,0.04150390625,-0.334716796875,1.7390999999999999
2.183206106870229,1.4351145038167938,-0.1984732824427481,-0.4091796875,0.0419921875,-0.332275390625,1.7408
2.015267175572519,1.4198473282442747,-0.24427480916030533,-0.40771484375,0.041748046875,-0.331298828125,1.7425
2.045801526717557,1.1908396946564885,-0.549618320610687,-0.410888671875,0.0400390625,-0.332275390625,1.7442
2.0610687022900764,1.1603053435114503,-0.33587786259541985,-0.405517578125,0.040771484375,-0.337646484375,1.7459
2.0,1.251908396946565,-0.6412213740458015,-0.407470703125,0.04052734375,-0.326904296875,1.7475999999999998
2.0916030534351147,1.2213740458015268,-0.549618320610687,-0.40625,0.039306640625,-0.3251953125,1.7492999999999999
1.9236641221374047,1.4961832061068703,-0.5038167938931297,-0.41064453125,0.040283203125,-0.336669921875,1.751
1.83206106870229,1.5572519083969465,-0.48854961832061067,-0.403564453125,0.03955078125,-0.33349609375,1.7527
1.9236641221374047,1.6641221374045803,-0.4732824427480916,-0.408447265625,0.038818359375,-0.335693359375,1.7544
1.8931297709923665,1.4351145038167938,-0.4580152671755725,-0.40869140625,0.041748046875,-0.33447265625,1.7561
1.8625954198473282,1.2213740458015268,-0.7022900763358778,-0.407958984375,0.042724609375,-0.33447265625,1.7577999999999998
1.8625954198473282,1.3587786259541985,-0.7022900763358778,-0.408203125,0.03955078125,-0.334716796875,1.7594999999999998
1.9083969465648856,1.3893129770992367,-0.732824427480916,-0.40771484375,0.039306640625,-0.335205078125,1.7611999999999999
1.984732824427481,1.1450381679389312,-0.6259541984732825,-0.4072265625,0.041259765625,-0.33251953125,1.7629
1.6488549618320612,1.2213740458015268,-0.6717557251908397,-0.405517578125,0.041748046875,-0.33203125,1.7646
1.816793893129771,1.3893129770992367,-0.7786259541984732,-0.401611328125,0.0380859375,-0.330078125,1.7663
1.816793893129771,1.5877862595419847,-0.8854961832061069,-0.40673828125,0.040283203125,-0.328857421875,1.7679999999999998
1.6030534351145038,1.2213740458015268,-0.7480916030534351,-0.40771484375,0.03759765625,-0.342041015625,1.7696999999999998
1.7251908396946565,1.4198473282442747,-0.8244274809160306,-0.410400390625,0.034423828125,-0.33251953125,1.7713999999999999
1.7709923664122138,1.297709923664122,-0.8854961832061069,-0.40673828125,0.036376953125,-0.33056640625,1.7731
1.618320610687023,1.0687022900763359,-1.0076335877862594,-0.409912109375,0.043701171875,-0.335693359375,1.7748
1.5419847328244274,1.0229007633587786,-0.8702290076335878,-0.404296875,0.037353515625,-0.337158203125,1.7765
1.3740458015267176,0.9618320610687023,-0.9770992366412213,-0.40966796875,0.0419921875,-0.3349609375,1.7782
1.3740458015267176,0.9923664122137404,-0.732824427480916,-0.402099609375,0.0419921875,-0.32666015625,1.7798999999999998
1.6488549618320612,1.0229007633587786,-0.8396946564885496,-0.407470703125,0.039794921875,-0.335205078125,1.7815999999999999
1.465648854961832,0.8396946564885496,-0.9465648854961832,-0.4130859375,0.044677734375,-0.337158203125,1.7832999999999999
1.4809160305343512,1.0076335877862594,-0.9618320610687023,-0.409423828125,0.0390625,-0.33056640625,1.785
1.5419847328244274,0.9007633587786259,-0.7938931297709924,-0.406982421875,0.043212890625,-0.3369140625,1.7867
1.3435114503816794,1.0534351145038168,-1.0534351145038168,-0.40869140625,0.04296875,-0.3447265625,1.7884
1.4351145038167938,1.1755725190839694,-0.9923664122137404,-0.409912109375,0.041015625,-0.33203125,1.7900999999999998
1.282442748091603,1.282442748091603,-1.1603053435114503,-0.411376953125,0.03759765625,-0.330078125,1.7917999999999998
1.4809160305343512,1.1908396946564885,-1.099236641221374,-0.408203125,0.03857421875,-0.329833984375,1.7934999999999999
1.4045801526717556,1.4045801526717556,-1.1297709923664123,-0.41015625,0.03857421875,-0.327392578125,1.7952
1.4351145038167938,1.3740458015267176,-1.2061068702290076,-0.4130859375,0.045166015625,-0.331787109375,1.7969
1.4198473282442747,1.3129770992366412,-1.2366412213740459,-0.41259765625,0.044189453125,-0.33642578125,1.7986
1.3282442748091603,1.5419847328244274,-1.2213740458015268,-0.4111328125,0.043212890625,-0.331787109375,1.8002999999999998
1.3740458015267176,1.5877862595419847,-1.251908396946565,-0.40771484375,0.039794921875,-0.333251953125,1.8019999999999998
1.3587786259541985,1.465648854961832,-1.3435114503816794,-0.408935546875,0.043701171875,-0.322998046875,1.8036999999999999
1.282442748091603,1.6793893129770991,-1.282442748091603,-0.409423828125,0.040771484375,-0.338134765625,1.8054
