gyrox1,gyroy1,gyroz1,accelx1,accely1,accelz1,Time
1.4045801526717556,0.732824427480916,-1.6793893129770991,-0.446044921875,-0.03271484375,-0.2392578125,0.0
1.297709923664122,0.5954198473282443,-1.816793893129771,-0.44580078125,-0.03076171875,-0.235595703125,0.0017
1.1755725190839694,0.7022900763358778,-1.8473282442748091,-0.4423828125,-0.029296875,-0.237548828125,0.0034
1.3282442748091603,0.7786259541984732,-1.6946564885496183,-0.4453125,-0.033447265625,-0.23876953125,0.0050999999999999995
1.3435114503816794,0.6717557251908397,-1.7709923664122138,-0.4521484375,-0.031982421875,-0.23876953125,0.0068
1.2213740458015268,0.5954198473282443,-1.9083969465648856,-0.446044921875,-0.033935546875,-0.2353515625,0.008499999999999999
1.5877862595419847,0.6717557251908397,-1.8473282442748091,-0.453125,-0.029052734375,-0.24169921875,0.010199999999999999
1.5114503816793894,0.5190839694656488,-1.83206106870229,-0.44189453125,-0.027587890625,-0.24462890625,0.011899999999999999
1.3587786259541985,0.5343511450381679,-1.7404580152671756,-0.44091796875,-0.030029296875,-0.232666015625,0.0136
1.1755725190839694,0.6106870229007634,-1.8931297709923665,-0.44970703125,-0.02294921875,-0.240478515625,0.0153
1.5877862595419847,0.44274809160305345,-1.7709923664122138,-0.444580078125,-0.03173828125,-0.241455078125,0.016999999999999998
1.5725190839694656,0.6412213740458015,-1.8625954198473282,-0.4443359375,-0.03271484375,-0.236572265625,0.018699999999999998
1.4045801526717556,0.5801526717557252,-1.7557251908396947,-0.441162109375,-0.028564453125,-0.23486328125,0.020399999999999998
1.4198473282442747,0.5343511450381679,-1.786259541984733,-0.44482421875,-0.02685546875,-0.23388671875,0.022099999999999998
1.7099236641221374,0.6564885496183206,-1.6946564885496183,-0.44970703125,-0.032958984375,-0.23291015625,0.023799999999999998
1.5419847328244274,0.44274809160305345,-1.9083969465648856,-0.452392578125,-0.033447265625,-0.2333984375,0.0255
1.4045801526717556,0.4122137404580153,-1.786259541984733,-0.44970703125,-0.02978515625,-0.242919921875,0.0272
1.6030534351145038,0.3511450381679389,-2.030534351145038,-0.44677734375,-0.029296875,-0.236572265625,0.0289
1.5725190839694656,0.7175572519083969,-1.6793893129770991,-0.44580078125,-0.032470703125,-0.228271484375,0.0306
1.5419847328244274,0.5801526717557252,-2.0610687022900764,-0.44921875,-0.03125,-0.23486328125,0.032299999999999995
1.816793893129771,0.5801526717557252,-1.8015267175572518,-0.453857421875,-0.02685546875,-0.24072265625,0.033999999999999996
1.83206106870229,0.6870229007633588,-2.0610687022900764,-0.44970703125,-0.02783203125,-0.235107421875,0.035699999999999996
1.6946564885496183,0.6564885496183206,-1.6793893129770991,-0.45068359375,-0.0322265625,-0.23095703125,0.037399999999999996
1.5725190839694656,0.6412213740458015,-1.9389312977099236,-0.451171875,-0.031005859375,-0.23876953125,0.039099999999999996
1.7557251908396947,0.7938931297709924,-1.8015267175572518,-0.4501953125,-0.03466796875,-0.245849609375,0.040799999999999996
1.7557251908396947,0.7480916030534351,-1.7557251908396947,-0.4453125,-0.02978515625,-0.24169921875,0.042499999999999996
1.816793893129771,0.5801526717557252,-1.6030534351145038,-0.448974609375,-0.029052734375,-0.23681640625,0.044199999999999996
1.7709923664122138,0.7175572519083969,-1.7557251908396947,-0.45166015625,-0.028076171875,-0.23486328125,0.045899999999999996
1.6793893129770991,0.6870229007633588,-1.5725190839694656,-0.4482421875,-0.0322265625,-0.23876953125,0.047599999999999996
1.7099236641221374,0.6870229007633588,-1.5419847328244274,-0.449951171875,-0.031982421875,-0.23291015625,0.0493
1.7557251908396947,0.5190839694656488,-1.6488549618320612,-0.447998046875,-0.029052734375,-0.232421875,0.051
1.83206106870229,0.8854961832061069,-1.7404580152671756,-0.4462890625,-0.02783203125,-0.23486328125,0.0527
1.9083969465648856,0.8549618320610687,-1.6030534351145038,-0.449462890625,-0.034912109375,-0.23681640625,0.0544
1.83206106870229,0.7175572519083969,-1.6793893129770991,-0.44384765625,-0.03125,-0.23828125,0.0561
1.7557251908396947,0.9770992366412213,-1.6488549618320612,-0.448486328125,-0.02978515625,-0.238037109375,0.0578
1.816793893129771,0.9770992366412213,-1.6641221374045803,-0.45361328125,-0.029052734375,-0.240234375,0.0595
2.030534351145038,0.7480916030534351,-1.633587786259542,-0.44970703125,-0.030029296875,-0.23291015625,0.0612
1.7099236641221374,0.9618320610687023,-1.7404580152671756,-0.45068359375,-0.032470703125,-0.2431640625,0.0629
1.9236641221374047,1.083969465648855,-1.633587786259542,-0.44970703125,-0.02880859375,-0.23291015625,0.06459999999999999
1.8625954198473282,0.8244274809160306,-1.5419847328244274,-0.441650390625,-0.03173828125,-0.23828125,0.0663
1.7557251908396947,1.0687022900763359,-1.4351145038167938,-0.44677734375,-0.026123046875,-0.247314453125,0.06799999999999999
1.7557251908396947,1.083969465648855,-1.4809160305343512,-0.446533203125,-0.033447265625,-0.2412109375,0.0697
1.8015267175572518,1.282442748091603,-1.5419847328244274,-0.445068359375,-0.033935546875,-0.24072265625,0.07139999999999999
1.8625954198473282,1.297709923664122,-1.5572519083969465,-0.44677734375,-0.033935546875,-0.24072265625,0.0731
1.9236641221374047,1.2671755725190839,-1.3282442748091603,-0.447509765625,-0.033447265625,-0.236083984375,0.07479999999999999
2.030534351145038,1.251908396946565,-1.3587786259541985,-0.4482421875,-0.028564453125,-0.241455078125,0.0765
2.122137404580153,1.297709923664122,-1.450381679389313,-0.45263671875,-0.0302734375,-0.228759765625,0.07819999999999999
1.7709923664122138,1.2366412213740459,-1.633587786259542,-0.446044921875,-0.028076171875,-0.236572265625,0.0799
1.83206106870229,1.3129770992366412,-1.5114503816793894,-0.4443359375,-0.030517578125,-0.23193359375,0.08159999999999999
2.0,1.251908396946565,-1.5725190839694656,-0.447021484375,-0.0263671875,-0.23291015625,0.0833
1.9541984732824427,1.2671755725190839,-1.3587786259541985,-0.447998046875,-0.0361328125,-0.243408203125,0.08499999999999999
2.030534351145038,1.465648854961832,-1.3893129770992367,-0.448974609375,-0.033935546875,-0.237548828125,0.0867
2.015267175572519,1.3129770992366412,-1.3282442748091603,-0.447509765625,-0.02734375,-0.243408203125,0.08839999999999999
2.1526717557251906,1.3129770992366412,-1.4961832061068703,-0.441650390625,-0.02685546875,-0.23779296875,0.0901
2.198473282442748,1.1603053435114503,-1.5114503816793894,-0.447998046875,-0.02783203125,-0.24169921875,0.09179999999999999
2.16793893129771,1.1603053435114503,-1.5725190839694656,-0.450927734375,-0.033447265625,-0.248779296875,0.0935
2.0916030534351147,1.1908396946564885,-1.5267175572519085,-0.442626953125,-0.03369140625,-0.241943359375,0.09519999999999999
1.9694656488549618,1.2366412213740459,-1.5114503816793894,-0.44287109375,-0.031982421875,-0.242431640625,0.0969
2.015267175572519,1.251908396946565,-1.3893129770992367,-0.44482421875,-0.026611328125,-0.241943359375,0.0986
2.122137404580153,1.1450381679389312,-1.5725190839694656,-0.446533203125,-0.033935546875,-0.239501953125,0.1003
2.33587786259542,1.1908396946564885,-1.5572519083969465,-0.444091796875,-0.032958984375,-0.23486328125,0.102
2.015267175572519,1.1297709923664123,-1.4351145038167938,-0.448974609375,-0.030517578125,-0.23193359375,0.1037
2.0610687022900764,1.251908396946565,-1.5725190839694656,-0.444580078125,-0.0322265625,-0.238525390625,0.1054
2.213740458015267,1.0534351145038168,-1.618320610687023,-0.45068359375,-0.025390625,-0.2333984375,0.1071
1.984732824427481,1.0687022900763359,-1.633587786259542,-0.451171875,-0.03125,-0.238525390625,0.1088
1.9389312977099236,0.8854961832061069,-1.618320610687023,-0.4482421875,-0.029052734375,-0.225341796875,0.11049999999999999
1.9389312977099236,0.8244274809160306,-1.7404580152671756,-0.447998046875,-0.0322265625,-0.240966796875,0.1122
2.0,1.0076335877862594,-1.633587786259542,-0.444091796875,-0.030517578125,-0.23291015625,0.11389999999999999
1.9236641221374047,1.083969465648855,-1.6030534351145038,-0.445068359375,-0.028564453125,-0.23779296875,0.1156
1.8931297709923665,0.8244274809160306,-1.6641221374045803,-0.4443359375,-0.03125,-0.237060546875,0.11729999999999999
2.0610687022900764,0.7022900763358778,-1.5725190839694656,-0.441162109375,-0.033203125,-0.241455078125,0.119
2.030534351145038,0.916030534351145,-1.5114503816793894,-0.447265625,-0.03076171875,-0.244384765625,0.12069999999999999
1.9236641221374047,0.8091603053435115,-1.6946564885496183,-0.44287109375,-0.03515625,-0.237060546875,0.1224
1.9389312977099236,0.6412213740458015,-1.5114503816793894,-0.443359375,-0.03515625,-0.2294921875,0.12409999999999999
1.9389312977099236,0.5648854961832062,-1.5877862595419847,-0.4462890625,-0.02880859375,-0.229736328125,0.1258
1.6641221374045803,0.5343511450381679,-1.5267175572519085,-0.450439453125,-0.03466796875,-0.23583984375,0.1275
1.6946564885496183,0.5190839694656488,-1.465648854961832,-0.443359375,-0.0341796875,-0.2392578125,0.12919999999999998
1.816793893129771,0.3816793893129771,-1.2671755725190839,-0.444091796875,-0.037109375,-0.2451171875,0.1309
1.8015267175572518,0.2595419847328244,-1.3282442748091603,-0.449951171875,-0.033935546875,-0.248779296875,0.1326
1.5267175572519085,0.3816793893129771,-1.2671755725190839,-0.445556640625,-0.029541015625,-0.22314453125,0.1343
1.6946564885496183,0.3816793893129771,-1.2213740458015268,-0.446044921875,-0.033447265625,-0.237060546875,0.13599999999999998
1.6488549618320612,0.5038167938931297,-1.3587786259541985,-0.447021484375,-0.032470703125,-0.240478515625,0.1377
1.5877862595419847,0.3969465648854962,-1.297709923664122,-0.45263671875,-0.03662109375,-0.24072265625,0.1394
1.3587786259541985,0.6259541984732825,-1.3282442748091603,-0.445556640625,-0.03857421875,-0.23046875,0.1411
1.3740458015267176,0.3969465648854962,-1.1145038167938932,-0.4453125,-0.036865234375,-0.229248046875,0.14279999999999998
1.4351145038167938,0.44274809160305345,-1.1755725190839694,-0.447265625,-0.03662109375,-0.238037109375,0.1445
1.3740458015267176,0.6106870229007634,-1.3282442748091603,-0.447509765625,-0.03466796875,-0.23583984375,0.1462
1.2213740458015268,0.7022900763358778,-1.1603053435114503,-0.448974609375,-0.03466796875,-0.236083984375,0.1479
1.2366412213740459,0.4580152671755725,-1.3435114503816794,-0.4482421875,-0.037109375,-0.23193359375,0.14959999999999998
1.1755725190839694,0.549618320610687,-1.3587786259541985,-0.447998046875,-0.031494140625,-0.240478515625,0.1513
1.0076335877862594,0.6106870229007634,-1.1908396946564885,-0.44482421875,-0.028564453125,-0.237060546875,0.153
1.0076335877862594,0.5343511450381679,-1.1145038167938932,-0.443359375,-0.03076171875,-0.241455078125,0.1547
1.1908396946564885,0.6717557251908397,-1.2366412213740459,-0.45068359375,-0.0322265625,-0.2294921875,0.15639999999999998
0.9770992366412213,0.5343511450381679,-1.2366412213740459,-0.450927734375,-0.0302734375,-0.22802734375,0.1581
0.8854961832061069,0.44274809160305345,-1.3129770992366412,-0.442626953125,-0.0341796875,-0.236083984375,0.1598
0.7938931297709924,0.549618320610687,-1.2671755725190839,-0.4443359375,-0.031494140625,-0.23095703125,0.1615
0.9007633587786259,0.6870229007633588,-1.1297709923664123,-0.4462890625,-0.03564453125,-0.235107421875,0.16319999999999998
1.0229007633587786,0.6870229007633588,-1.083969465648855,-0.4462890625,-0.035400390625,-0.23779296875,0.1649
0.8549618320610687,0.5801526717557252,-1.3740458015267176,-0.445068359375,-0.032958984375,-0.23779296875,0.1666
0.7175572519083969,0.549618320610687,-1.282442748091603,-0.447998046875,-0.032470703125,-0.23486328125,0.16829999999999998
0.9618320610687023,0.5954198473282443,-1.3129770992366412,-0.449462890625,-0.031005859375,-0.23779296875,0.16999999999999998
0.7786259541984732,0.5343511450381679,-1.3587786259541985,-0.44873046875,-0.03515625,-0.242431640625,0.1717
0.7480916030534351,0.5038167938931297,-1.4961832061068703,-0.446533203125,-0.03515625,-0.2373046875,0.1734
0.8854961832061069,0.4580152671755725,-1.4045801526717556,-0.44677734375,-0.033935546875,-0.2431640625,0.17509999999999998
0.8091603053435115,0.5648854961832062,-1.5419847328244274,-0.447021484375,-0.035400390625,-0.238525390625,0.17679999999999998
0.8854961832061069,0.4732824427480916,-1.450381679389313,-0.445556640625,-0.0322265625,-0.243896484375,0.1785
0.6564885496183206,0.366412213740458,-1.5419847328244274,-0.445556640625,-0.03271484375,-0.242919921875,0.1802
0.8396946564885496,0.3511450381679389,-1.2213740458015268,-0.448974609375,-0.035888671875,-0.24072265625,0.18189999999999998
0.5343511450381679,0.42748091603053434,-1.5114503816793894,-0.4482421875,-0.030517578125,-0.236083984375,0.18359999999999999
0.8244274809160306,0.3969465648854962,-1.6488549618320612,-0.451416015625,-0.030517578125,-0.233154296875,0.1853
0.7786259541984732,0.3053435114503817,-1.6030534351145038,-0.449462890625,-0.027099609375,-0.23388671875,0.187
0.6412213740458015,0.3969465648854962,-1.6030534351145038,-0.451171875,-0.025146484375,-0.2373046875,0.18869999999999998
0.6259541984732825,0.3969465648854962,-1.618320610687023,-0.447265625,-0.0302734375,-0.238037109375,0.19039999999999999
0.7938931297709924,0.32061068702290074,-1.5419847328244274,-0.451416015625,-0.031494140625,-0.237548828125,0.1921
0.6106870229007634,0.3969465648854962,-1.633587786259542,-0.4541015625,-0.031982421875,-0.239990234375,0.1938
0.7633587786259542,0.48854961832061067,-1.5267175572519085,-0.453857421875,-0.03173828125,-0.232666015625,0.19549999999999998
0.6259541984732825,0.3053435114503817,-1.6641221374045803,-0.451171875,-0.033935546875,-0.23583984375,0.1972
0.8244274809160306,0.2900763358778626,-1.618320610687023,-0.44970703125,-0.03076171875,-0.237548828125,0.1989
0.8702290076335878,0.6259541984732825,-1.786259541984733,-0.445068359375,-0.028564453125,-0.24658203125,0.2006
0.5648854961832062,0.6259541984732825,-1.83206106870229,-0.447265625,-0.027587890625,-0.23095703125,0.20229999999999998
0.8396946564885496,0.5190839694656488,-1.83206106870229,-0.450439453125,-0.03173828125,-0.238037109375,0.204
0.9007633587786259,0.48854961832061067,-1.6946564885496183,-0.451171875,-0.029541015625,-0.233154296875,0.2057
0.8396946564885496,0.48854961832061067,-2.0916030534351147,-0.45263671875,-0.026123046875,-0.244140625,0.2074
0.9618320610687023,0.4732824427480916,-1.786259541984733,-0.445068359375,-0.03173828125,-0.236572265625,0.20909999999999998
1.1603053435114503,0.5343511450381679,-1.8931297709923665,-0.44287109375,-0.02490234375,-0.23681640625,0.2108
1.0381679389312977,0.5190839694656488,-2.1068702290076335,-0.4443359375,-0.0283203125,-0.24658203125,0.2125
0.8854961832061069,0.4122137404580153,-2.16793893129771,-0.447998046875,-0.026611328125,-0.23974609375,0.2142
0.9923664122137404,0.44274809160305345,-2.030534351145038,-0.454345703125,-0.02685546875,-0.238037109375,0.21589999999999998
1.1603053435114503,0.4732824427480916,-2.1068702290076335,-0.447509765625,-0.02392578125,-0.235107421875,0.2176
1.0076335877862594,0.48854961832061067,-2.015267175572519,-0.44873046875,-0.029541015625,-0.23974609375,0.2193
1.4045801526717556,0.366412213740458,-2.1374045801526718,-0.450927734375,-0.033203125,-0.240966796875,0.22099999999999997
1.450381679389313,0.4122137404580153,-2.045801526717557,-0.44580078125,-0.030517578125,-0.23486328125,0.22269999999999998
1.3282442748091603,0.366412213740458,-2.351145038167939,-0.446533203125,-0.026611328125,-0.23779296875,0.2244
1.2366412213740459,0.4732824427480916,-2.1374045801526718,-0.449951171875,-0.027587890625,-0.231689453125,0.2261
1.4809160305343512,0.44274809160305345,-2.0763358778625953,-0.4443359375,-0.0263671875,-0.234130859375,0.22779999999999997
1.5267175572519085,0.3816793893129771,-2.198473282442748,-0.447021484375,-0.02490234375,-0.242919921875,0.22949999999999998
1.7404580152671756,0.2748091603053435,-2.2748091603053435,-0.4501953125,-0.03125,-0.2353515625,0.2312
1.633587786259542,0.4122137404580153,-2.045801526717557,-0.454345703125,-0.027099609375,-0.23388671875,0.2329
1.6488549618320612,0.42748091603053434,-2.198473282442748,-0.447509765625,-0.028564453125,-0.22802734375,0.23459999999999998
1.5114503816793894,0.5038167938931297,-2.015267175572519,-0.452880859375,-0.03369140625,-0.225830078125,0.23629999999999998
1.618320610687023,0.3969465648854962,-2.1068702290076335,-0.44677734375,-0.029296875,-0.22900390625,0.238
1.7709923664122138,0.32061068702290074,-2.030534351145038,-0.446044921875,-0.0302734375,-0.2294921875,0.2397
1.6946564885496183,0.3969465648854962,-2.1374045801526718,-0.44384765625,-0.0322265625,-0.23974609375,0.24139999999999998
1.633587786259542,0.7022900763358778,-2.0,-0.44775390625,-0.03173828125,-0.236083984375,0.24309999999999998
1.786259541984733,0.4732824427480916,-1.8931297709923665,-0.44970703125,-0.0283203125,-0.239013671875,0.2448
1.786259541984733,0.6412213740458015,-1.633587786259542,-0.44580078125,-0.02734375,-0.2333984375,0.2465
1.7251908396946565,0.5343511450381679,-1.8473282442748091,-0.44677734375,-0.0322265625,-0.244140625,0.24819999999999998
1.816793893129771,0.6412213740458015,-1.7251908396946565,-0.449951171875,-0.02880859375,-0.2451171875,0.24989999999999998
1.816793893129771,0.4580152671755725,-1.6641221374045803,-0.448974609375,-0.031494140625,-0.236572265625,0.2516
1.786259541984733,0.42748091603053434,-1.6793893129770991,-0.445556640625,-0.030517578125,-0.2412109375,0.25329999999999997
1.8931297709923665,0.366412213740458,-1.7709923664122138,-0.45556640625,-0.03173828125,-0.23046875,0.255
1.6946564885496183,0.5954198473282443,-1.633587786259542,-0.453857421875,-0.03076171875,-0.233154296875,0.2567
1.9389312977099236,0.3511450381679389,-1.618320610687023,-0.449462890625,-0.038330078125,-0.240966796875,0.25839999999999996
1.8778625954198473,0.549618320610687,-1.5419847328244274,-0.45458984375,-0.037353515625,-0.239990234375,0.2601
1.9694656488549618,0.7480916030534351,-1.6030534351145038,-0.44580078125,-0.031005859375,-0.2373046875,0.2618
1.6793893129770991,0.44274809160305345,-1.2671755725190839,-0.4482421875,-0.0244140625,-0.23876953125,0.2635
1.8931297709923665,0.44274809160305345,-1.4198473282442747,-0.447998046875,-0.033203125,-0.2333984375,0.2652
2.0,0.7786259541984732,-1.2671755725190839,-0.45361328125,-0.033203125,-0.235595703125,0.26689999999999997
2.045801526717557,0.8702290076335878,-1.251908396946565,-0.450439453125,-0.03173828125,-0.233154296875,0.2686
1.8015267175572518,0.6564885496183206,-1.297709923664122,-0.44580078125,-0.0341796875,-0.23486328125,0.2703
1.8015267175572518,0.6106870229007634,-1.3893129770992367,-0.447265625,-0.03125,-0.23486328125,0.27199999999999996
1.786259541984733,0.5343511450381679,-1.1145038167938932,-0.45068359375,-0.031005859375,-0.228759765625,0.2737
2.1068702290076335,0.5954198473282443,-1.3587786259541985,-0.450439453125,-0.028076171875,-0.234619140625,0.2754
2.030534351145038,0.7938931297709924,-1.2366412213740459,-0.447021484375,-0.02978515625,-0.227783203125,0.27709999999999996
1.8625954198473282,0.33587786259541985,-1.297709923664122,-0.448974609375,-0.02783203125,-0.23486328125,0.2788
1.9694656488549618,0.4732824427480916,-1.1297709923664123,-0.45068359375,-0.028564453125,-0.231689453125,0.28049999999999997
2.122137404580153,0.549618320610687,-1.3282442748091603,-0.448486328125,-0.028564453125,-0.23828125,0.2822
2.2290076335877864,0.549618320610687,-1.2671755725190839,-0.443603515625,-0.03125,-0.23583984375,0.2839
2.122137404580153,0.4732824427480916,-1.1603053435114503,-0.446044921875,-0.033447265625,-0.236083984375,0.28559999999999997
2.2290076335877864,0.6717557251908397,-1.1755725190839694,-0.44970703125,-0.036376953125,-0.23388671875,0.2873
2.183206106870229,0.5343511450381679,-1.3435114503816794,-0.45068359375,-0.03369140625,-0.23388671875,0.289
2.030534351145038,0.6259541984732825,-1.2061068702290076,-0.448486328125,-0.029052734375,-0.235595703125,0.29069999999999996
2.122137404580153,0.5648854961832062,-1.3129770992366412,-0.448486328125,-0.029541015625,-0.22900390625,0.2924
1.8625954198473282,0.4580152671755725,-1.2213740458015268,-0.453857421875,-0.0283203125,-0.239501953125,0.2941
2.015267175572519,0.6412213740458015,-1.297709923664122,-0.443359375,-0.02587890625,-0.23193359375,0.2958
2.015267175572519,0.5648854961832062,-1.3282442748091603,-0.447265625,-0.033203125,-0.24169921875,0.2975
1.984732824427481,0.732824427480916,-1.251908396946565,-0.45166015625,-0.03662109375,-0.238037109375,0.29919999999999997
2.1374045801526718,0.549618320610687,-1.3893129770992367,-0.44921875,-0.03125,-0.234375,0.3009
2.198473282442748,0.6870229007633588,-1.2061068702290076,-0.44970703125,-0.03466796875,-0.23876953125,0.3026
1.83206106870229,0.7633587786259542,-1.3129770992366412,-0.44921875,-0.033447265625,-0.24365234375,0.30429999999999996
1.6946564885496183,0.7022900763358778,-1.4045801526717556,-0.452880859375,-0.031005859375,-0.231201171875,0.306
1.7709923664122138,0.7022900763358778,-1.3435114503816794,-0.44775390625,-0.0302734375,-0.2353515625,0.3077
1.984732824427481,0.6259541984732825,-1.282442748091603,-0.449951171875,-0.029541015625,-0.234130859375,0.3094
1.9694656488549618,0.6259541984732825,-1.3282442748091603,-0.451171875,-0.029296875,-0.239501953125,0.3111
1.7404580152671756,0.732824427480916,-1.3893129770992367,-0.452880859375,-0.031494140625,-0.234375,0.31279999999999997
1.5267175572519085,0.8091603053435115,-1.3129770992366412,-0.45263671875,-0.0283203125,-0.245361328125,0.3145
1.6946564885496183,0.6106870229007634,-1.4351145038167938,-0.450927734375,-0.031005859375,-0.234619140625,0.3162
1.7709923664122138,0.6564885496183206,-1.4045801526717556,-0.449951171875,-0.032958984375,-0.23974609375,0.31789999999999996
1.450381679389313,0.8091603053435115,-1.5572519083969465,-0.448486328125,-0.034423828125,-0.228759765625,0.3196
1.4198473282442747,0.6564885496183206,-1.5725190839694656,-0.446044921875,-0.029052734375,-0.237548828125,0.3213
1.6030534351145038,0.7022900763358778,-1.5267175572519085,-0.44970703125,-0.030517578125,-0.234130859375,0.323
1.4961832061068703,0.6717557251908397,-1.4045801526717556,-0.44873046875,-0.029296875,-0.232177734375,0.3247
1.3893129770992367,0.7938931297709924,-1.5419847328244274,-0.44580078125,-0.0263671875,-0.24267578125,0.32639999999999997
1.251908396946565,0.6717557251908397,-1.6030534351145038,-0.4482421875,-0.03466796875,-0.231201171875,0.3281
1.4351145038167938,0.5801526717557252,-1.5114503816793894,-0.451171875,-0.029052734375,-0.2333984375,0.3298
1.3129770992366412,0.5954198473282443,-1.3435114503816794,-0.446044921875,-0.0302734375,-0.235107421875,0.33149999999999996
1.3282442748091603,0.5038167938931297,-1.6488549618320612,-0.447998046875,-0.032958984375,-0.23681640625,0.3332
1.0229007633587786,0.6870229007633588,-1.6030534351145038,-0.44921875,-0.02734375,-0.239013671875,0.3349
1.099236641221374,0.549618320610687,-1.4351145038167938,-0.4501953125,-0.031005859375,-0.233642578125,0.33659999999999995
1.251908396946565,0.4732824427480916,-1.5267175572519085,-0.448974609375,-0.02783203125,-0.2373046875,0.3383
1.1755725190839694,0.5648854961832062,-1.5572519083969465,-0.44873046875,-0.031982421875,-0.2216796875,0.33999999999999997
1.083969465648855,0.5801526717557252,-1.786259541984733,-0.451904296875,-0.0263671875,-0.235595703125,0.3417
0.9770992366412213,0.6259541984732825,-1.6641221374045803,-0.451171875,-0.030517578125,-0.238037109375,0.3434
1.083969465648855,0.7938931297709924,-1.6488549618320612,-0.44677734375,-0.02978515625,-0.238525390625,0.34509999999999996
1.0229007633587786,0.5801526717557252,-1.7251908396946565,-0.448974609375,-0.02978515625,-0.2392578125,0.3468
1.1603053435114503,0.6870229007633588,-1.6946564885496183,-0.449462890625,-0.032958984375,-0.235595703125,0.3485
0.9465648854961832,0.6564885496183206,-1.7557251908396947,-0.451171875,-0.02783203125,-0.240234375,0.35019999999999996
0.8091603053435115,0.7786259541984732,-1.5725190839694656,-0.4521484375,-0.02783203125,-0.23876953125,0.3519
0.7480916030534351,0.9618320610687023,-1.7709923664122138,-0.449951171875,-0.029052734375,-0.239013671875,0.35359999999999997
0.8244274809160306,0.9007633587786259,-1.8778625954198473,-0.44775390625,-0.031982421875,-0.233154296875,0.3553
0.8244274809160306,0.8091603053435115,-1.633587786259542,-0.44970703125,-0.03271484375,-0.2353515625,0.357
0.9312977099236641,1.0229007633587786,-1.8473282442748091,-0.4482421875,-0.0283203125,-0.240234375,0.35869999999999996
0.9007633587786259,0.9618320610687023,-1.7557251908396947,-0.447509765625,-0.029541015625,-0.234619140625,0.3604
1.0534351145038168,1.099236641221374,-1.6641221374045803,-0.447265625,-0.0244140625,-0.23291015625,0.3621
1.0381679389312977,1.099236641221374,-1.8931297709923665,-0.450439453125,-0.03076171875,-0.23193359375,0.36379999999999996
1.0076335877862594,1.1450381679389312,-1.9541984732824427,-0.451904296875,-0.02880859375,-0.239990234375,0.3655
1.0381679389312977,1.1908396946564885,-1.786259541984733,-0.45166015625,-0.029052734375,-0.22900390625,0.36719999999999997
0.9465648854961832,1.1450381679389312,-1.8625954198473282,-0.4501953125,-0.03173828125,-0.241943359375,0.3689
0.9923664122137404,1.3587786259541985,-2.045801526717557,-0.45166015625,-0.032470703125,-0.239501953125,0.3706
0.8702290076335878,1.4045801526717556,-1.8778625954198473,-0.453369140625,-0.032470703125,-0.229248046875,0.37229999999999996
0.8396946564885496,1.3587786259541985,-1.8625954198473282,-0.44677734375,-0.028564453125,-0.24169921875,0.374
0.8702290076335878,1.5114503816793894,-1.9389312977099236,-0.452880859375,-0.02783203125,-0.23828125,0.3757
0.8854961832061069,1.4045801526717556,-1.7099236641221374,-0.453369140625,-0.031494140625,-0.23486328125,0.37739999999999996
0.8091603053435115,1.4351145038167938,-1.7709923664122138,-0.453125,-0.032470703125,-0.231689453125,0.3791
1.1450381679389312,1.450381679389313,-1.83206106870229,-0.451904296875,-0.0283203125,-0.236328125,0.38079999999999997
1.1603053435114503,1.7099236641221374,-1.9541984732824427,-0.45361328125,-0.030517578125,-0.240966796875,0.38249999999999995
0.916030534351145,1.633587786259542,-1.6030534351145038,-0.45654296875,-0.0263671875,-0.22705078125,0.3842
1.0229007633587786,1.5725190839694656,-1.6030534351145038,-0.446533203125,-0.02783203125,-0.23974609375,0.38589999999999997
0.9618320610687023,1.7709923664122138,-1.816793893129771,-0.443603515625,-0.031982421875,-0.240966796875,0.3876
1.1450381679389312,1.83206106870229,-1.7099236641221374,-0.448486328125,-0.0283203125,-0.237060546875,0.3893
1.1145038167938932,1.8931297709923665,-1.633587786259542,-0.450927734375,-0.02685546875,-0.2333984375,0.39099999999999996
1.1145038167938932,1.8625954198473282,-1.8473282442748091,-0.449462890625,-0.029296875,-0.23876953125,0.3927
1.251908396946565,1.6641221374045803,-1.8473282442748091,-0.447265625,-0.0283203125,-0.241943359375,0.3944
1.297709923664122,1.83206106870229,-1.5725190839694656,-0.454345703125,-0.0302734375,-0.239013671875,0.39609999999999995
1.099236641221374,1.6641221374045803,-1.618320610687023,-0.448486328125,-0.02783203125,-0.23291015625,0.3978
1.465648854961832,1.8015267175572518,-1.786259541984733,-0.446044921875,-0.03173828125,-0.227294921875,0.39949999999999997
1.5267175572519085,1.633587786259542,-1.6946564885496183,-0.44775390625,-0.027587890625,-0.237548828125,0.4012
1.4809160305343512,1.7251908396946565,-1.8015267175572518,-0.441162109375,-0.030517578125,-0.2373046875,0.4029
1.3129770992366412,1.6793893129770991,-1.7557251908396947,-0.443603515625,-0.0302734375,-0.226318359375,0.40459999999999996
1.5114503816793894,1.633587786259542,-1.786259541984733,-0.447265625,-0.028076171875,-0.236083984375,0.4063
1.6946564885496183,1.6793893129770991,-1.7099236641221374,-0.44287109375,-0.03125,-0.2265625,0.408
1.6793893129770991,1.7709923664122138,-1.8778625954198473,-0.447265625,-0.02978515625,-0.2353515625,0.40969999999999995
1.5572519083969465,1.5877862595419847,-1.8015267175572518,-0.445556640625,-0.032470703125,-0.240966796875,0.4114
1.6488549618320612,1.5419847328244274,-1.7557251908396947,-0.4462890625,-0.031982421875,-0.236572265625,0.41309999999999997
1.7557251908396947,1.5267175572519085,-1.618320610687023,-0.44384765625,-0.025634765625,-0.238525390625,0.4148
1.8931297709923665,1.5572519083969465,-1.7709923664122138,-0.44873046875,-0.023681640625,-0.234619140625,0.4165
1.7099236641221374,1.2671755725190839,-1.3129770992366412,-0.448974609375,-0.0302734375,-0.243408203125,0.41819999999999996
1.6488549618320612,1.282442748091603,-1.5419847328244274,-0.447509765625,-0.029296875,-0.235107421875,0.4199
1.7709923664122138,1.465648854961832,-1.3282442748091603,-0.44921875,-0.027099609375,-0.239990234375,0.4216
1.786259541984733,1.5725190839694656,-1.5725190839694656,-0.444580078125,-0.0263671875,-0.238525390625,0.42329999999999995
1.7557251908396947,1.4351145038167938,-1.3740458015267176,-0.44677734375,-0.030517578125,-0.240234375,0.425
1.8778625954198473,1.2366412213740459,-1.3282442748091603,-0.447509765625,-0.02783203125,-0.234130859375,0.42669999999999997
1.9389312977099236,1.1908396946564885,-1.3740458015267176,-0.454833984375,-0.0244140625,-0.23974609375,0.4284
1.8015267175572518,1.4045801526717556,-1.5725190839694656,-0.449462890625,-0.02783203125,-0.2451171875,0.4301
1.8778625954198473,1.3129770992366412,-1.099236641221374,-0.453369140625,-0.03076171875,-0.241455078125,0.43179999999999996
1.6793893129770991,1.3129770992366412,-1.3282442748091603,-0.447021484375,-0.03125,-0.226806640625,0.4335
1.8931297709923665,1.450381679389313,-1.282442748091603,-0.448486328125,-0.031005859375,-0.2373046875,0.4352
1.8015267175572518,1.3893129770992367,-1.297709923664122,-0.447021484375,-0.03173828125,-0.236328125,0.43689999999999996
1.8015267175572518,1.4961832061068703,-1.0229007633587786,-0.452880859375,-0.029541015625,-0.236328125,0.4386
1.9083969465648856,1.3893129770992367,-1.5267175572519085,-0.443603515625,-0.03125,-0.25439453125,0.44029999999999997
1.6641221374045803,1.450381679389313,-1.282442748091603,-0.444580078125,-0.028564453125,-0.23876953125,0.44199999999999995
1.7404580152671756,1.5419847328244274,-1.1297709923664123,-0.44140625,-0.02685546875,-0.241943359375,0.4437
1.8015267175572518,1.3893129770992367,-1.2671755725190839,-0.443603515625,-0.030029296875,-0.233154296875,0.44539999999999996
1.7709923664122138,1.2366412213740459,-1.4809160305343512,-0.448974609375,-0.02734375,-0.233642578125,0.4471
1.9236641221374047,1.3435114503816794,-1.297709923664122,-0.445556640625,-0.029296875,-0.2412109375,0.4488
1.9694656488549618,1.3129770992366412,-1.5114503816793894,-0.444580078125,-0.030029296875,-0.24560546875,0.45049999999999996
1.786259541984733,1.2213740458015268,-1.251908396946565,-0.44091796875,-0.03564453125,-0.2353515625,0.4522
1.83206106870229,1.0381679389312977,-1.6488549618320612,-0.445068359375,-0.0263671875,-0.234130859375,0.45389999999999997
1.9083969465648856,0.9618320610687023,-1.8625954198473282,-0.447509765625,-0.03125,-0.2333984375,0.45559999999999995
2.2442748091603053,0.7938931297709924,-1.8778625954198473,-0.445068359375,-0.025634765625,-0.23681640625,0.4573
2.1374045801526718,0.7022900763358778,-1.6030534351145038,-0.449462890625,-0.0302734375,-0.24267578125,0.45899999999999996
2.2595419847328246,0.5343511450381679,-2.0,-0.44873046875,-0.029541015625,-0.235107421875,0.4607
1.9694656488549618,0.549618320610687,-2.0,-0.442626953125,-0.027099609375,-0.2470703125,0.4624
2.183206106870229,0.6870229007633588,-1.8931297709923665,-0.451904296875,-0.032958984375,-0.2451171875,0.46409999999999996
2.3969465648854964,0.5801526717557252,-1.8931297709923665,-0.447265625,-0.029541015625,-0.24462890625,0.4658
2.351145038167939,0.5648854961832062,-2.0610687022900764,-0.4462890625,-0.0302734375,-0.22802734375,0.46749999999999997
2.3053435114503817,0.7786259541984732,-1.9694656488549618,-0.44970703125,-0.0283203125,-0.237060546875,0.46919999999999995
2.2748091603053435,0.7175572519083969,-1.9541984732824427,-0.44970703125,-0.02490234375,-0.23779296875,0.4709
2.2748091603053435,0.7633587786259542,-2.0916030534351147,-0.448974609375,-0.03173828125,-0.24072265625,0.47259999999999996
2.564885496183206,0.8549618320610687,-2.015267175572519,-0.452392578125,-0.031982421875,-0.2294921875,0.4743
2.366412213740458,0.8244274809160306,-2.030534351145038,-0.447998046875,-0.030029296875,-0.234619140625,0.476
2.1374045801526718,0.9007633587786259,-2.015267175572519,-0.44677734375,-0.027099609375,-0.239990234375,0.47769999999999996
2.366412213740458,0.9465648854961832,-2.2748091603053435,-0.44873046875,-0.030517578125,-0.23583984375,0.4794
2.2748091603053435,0.7633587786259542,-2.0610687022900764,-0.449462890625,-0.032470703125,-0.243408203125,0.48109999999999997
2.2442748091603053,0.7633587786259542,-2.030534351145038,-0.45458984375,-0.025634765625,-0.2412109375,0.48279999999999995
2.198473282442748,0.9618320610687023,-2.1068702290076335,-0.449462890625,-0.037353515625,-0.234130859375,0.4845
2.366412213740458,1.0229007633587786,-2.0916030534351147,-0.4521484375,-0.03759765625,-0.236083984375,0.48619999999999997
2.2290076335877864,1.0687022900763359,-2.015267175572519,-0.449951171875,-0.038330078125,-0.23486328125,0.4879
2.0763358778625953,0.8854961832061069,-1.786259541984733,-0.446533203125,-0.028564453125,-0.237548828125,0.4896
2.2290076335877864,0.7786259541984732,-1.83206106870229,-0.449462890625,-0.03173828125,-0.23876953125,0.49129999999999996
2.0916030534351147,0.8702290076335878,-1.8015267175572518,-0.4453125,-0.03564453125,-0.239013671875,0.493
2.122137404580153,0.8854961832061069,-1.8473282442748091,-0.447021484375,-0.033935546875,-0.238525390625,0.4947
2.0610687022900764,1.0534351145038168,-1.8931297709923665,-0.4501953125,-0.034423828125,-0.236328125,0.49639999999999995
1.8778625954198473,1.1145038167938932,-1.8625954198473282,-0.443603515625,-0.035400390625,-0.231689453125,0.4981
2.0916030534351147,1.1755725190839694,-1.7251908396946565,-0.44873046875,-0.036865234375,-0.23486328125,0.49979999999999997
2.030534351145038,1.2671755725190839,-1.7557251908396947,-0.4501953125,-0.032958984375,-0.2373046875,0.5015
2.0610687022900764,1.2366412213740459,-1.6641221374045803,-0.452880859375,-0.030517578125,-0.23291015625,0.5032
2.0763358778625953,1.1603053435114503,-1.5572519083969465,-0.45947265625,-0.029541015625,-0.239013671875,0.5049
2.0763358778625953,1.2366412213740459,-1.633587786259542,-0.449951171875,-0.02734375,-0.230712890625,0.5065999999999999
1.8625954198473282,1.3129770992366412,-1.633587786259542,-0.452392578125,-0.0302734375,-0.231689453125,0.5083
2.045801526717557,1.297709923664122,-1.5114503816793894,-0.45166015625,-0.033203125,-0.23828125,0.51
1.83206106870229,1.4961832061068703,-1.5572519083969465,-0.4521484375,-0.0361328125,-0.2265625,0.5116999999999999
2.1374045801526718,1.5114503816793894,-1.6793893129770991,-0.447265625,-0.0322265625,-0.237548828125,0.5134
2.015267175572519,1.5572519083969465,-1.4961832061068703,-0.453369140625,-0.033203125,-0.243896484375,0.5151
1.8015267175572518,1.4198473282442747,-1.5419847328244274,-0.449951171875,-0.02783203125,-0.241455078125,0.5167999999999999
1.9083969465648856,1.5267175572519085,-1.6030534351145038,-0.447998046875,-0.030517578125,-0.2412109375,0.5185
1.9083969465648856,1.5725190839694656,-1.4961832061068703,-0.447265625,-0.02685546875,-0.232177734375,0.5202
1.8778625954198473,1.5725190839694656,-1.4809160305343512,-0.45166015625,-0.03515625,-0.237548828125,0.5218999999999999
2.045801526717557,1.5572519083969465,-1.5419847328244274,-0.455322265625,-0.03173828125,-0.23681640625,0.5236
1.816793893129771,1.6946564885496183,-1.4961832061068703,-0.4560546875,-0.025390625,-0.241943359375,0.5253
1.8625954198473282,1.7099236641221374,-1.3893129770992367,-0.451416015625,-0.031005859375,-0.24072265625,0.527
1.9083969465648856,1.7099236641221374,-1.4809160305343512,-0.4501953125,-0.030517578125,-0.235595703125,0.5287
1.9083969465648856,1.7099236641221374,-1.6793893129770991,-0.44677734375,-0.032470703125,-0.2333984375,0.5304
2.030534351145038,1.6030534351145038,-1.465648854961832,-0.44970703125,-0.036865234375,-0.239013671875,0.5321
1.9389312977099236,1.5877862595419847,-1.5572519083969465,-0.44580078125,-0.03271484375,-0.243896484375,0.5337999999999999
2.0916030534351147,1.8015267175572518,-1.3893129770992367,-0.453125,-0.025634765625,-0.238037109375,0.5355
1.9694656488549618,1.7709923664122138,-1.5572519083969465,-0.45458984375,-0.029541015625,-0.243896484375,0.5372
2.2595419847328246,1.83206106870229,-1.4045801526717556,-0.455322265625,-0.032958984375,-0.23681640625,0.5388999999999999
2.213740458015267,2.0,-1.5114503816793894,-0.4501953125,-0.02978515625,-0.240234375,0.5406
1.8931297709923665,1.7709923664122138,-1.633587786259542,-0.446533203125,-0.031494140625,-0.233154296875,0.5423
1.7404580152671756,1.83206106870229,-1.5725190839694656,-0.446533203125,-0.034423828125,-0.239990234375,0.5439999999999999
1.9694656488549618,2.0916030534351147,-1.297709923664122,-0.44482421875,-0.031982421875,-0.235107421875,0.5457
1.9083969465648856,2.0916030534351147,-1.618320610687023,-0.44921875,-0.025634765625,-0.23291015625,0.5474
1.83206106870229,2.213740458015267,-1.4961832061068703,-0.44970703125,-0.025146484375,-0.237060546875,0.5490999999999999
1.9541984732824427,1.984732824427481,-1.5419847328244274,-0.44677734375,-0.033935546875,-0.225341796875,0.5508
2.0610687022900764,2.015267175572519,-1.4351145038167938,-0.44873046875,-0.03173828125,-0.2392578125,0.5525
1.6488549618320612,2.122137404580153,-1.5572519083969465,-0.44775390625,-0.037109375,-0.237548828125,0.5541999999999999
1.8625954198473282,2.1526717557251906,-1.5419847328244274,-0.439453125,-0.03466796875,-0.232421875,0.5559
1.786259541984733,2.2595419847328246,-1.5267175572519085,-0.448974609375,-0.03076171875,-0.2353515625,0.5576
1.83206106870229,2.1374045801526718,-1.5267175572519085,-0.447021484375,-0.03076171875,-0.22900390625,0.5593
1.9694656488549618,2.1374045801526718,-1.7404580152671756,-0.4462890625,-0.033935546875,-0.233642578125,0.5609999999999999
1.633587786259542,2.198473282442748,-1.4809160305343512,-0.4453125,-0.028564453125,-0.234619140625,0.5627
1.7099236641221374,2.183206106870229,-1.7557251908396947,-0.449951171875,-0.033447265625,-0.23486328125,0.5644
1.8931297709923665,2.030534351145038,-1.8473282442748091,-0.445068359375,-0.03173828125,-0.235107421875,0.5660999999999999
1.786259541984733,1.9694656488549618,-1.5267175572519085,-0.4501953125,-0.033935546875,-0.239990234375,0.5678
1.8778625954198473,2.0610687022900764,-1.4961832061068703,-0.4443359375,-0.03173828125,-0.238525390625,0.5695
1.786259541984733,2.0610687022900764,-1.7099236641221374,-0.448486328125,-0.03515625,-0.23828125,0.5711999999999999
1.7251908396946565,2.015267175572519,-1.6946564885496183,-0.451416015625,-0.0341796875,-0.22900390625,0.5729
1.6488549618320612,1.984732824427481,-1.7251908396946565,-0.453369140625,-0.031494140625,-0.245361328125,0.5746
1.6946564885496183,2.1374045801526718,-1.633587786259542,-0.442626953125,-0.03076171875,-0.238037109375,0.5762999999999999
1.786259541984733,1.9694656488549618,-1.7251908396946565,-0.444580078125,-0.03125,-0.239013671875,0.578
1.7251908396946565,1.83206106870229,-1.6641221374045803,-0.4462890625,-0.0361328125,-0.235595703125,0.5797
1.5419847328244274,1.8931297709923665,-1.6641221374045803,-0.441650390625,-0.035400390625,-0.24462890625,0.5813999999999999
1.7099236641221374,1.8015267175572518,-1.6641221374045803,-0.4453125,-0.037109375,-0.23974609375,0.5831
1.5114503816793894,1.6793893129770991,-1.7557251908396947,-0.446533203125,-0.0322265625,-0.239013671875,0.5848
1.5572519083969465,1.7099236641221374,-1.6793893129770991,-0.445556640625,-0.03173828125,-0.23828125,0.5865
1.633587786259542,1.6793893129770991,-1.8015267175572518,-0.443359375,-0.037841796875,-0.23974609375,0.5882
1.5877862595419847,1.6030534351145038,-1.6946564885496183,-0.441650390625,-0.039306640625,-0.236083984375,0.5899
1.5725190839694656,1.465648854961832,-1.6793893129770991,-0.443603515625,-0.038818359375,-0.23876953125,0.5916
1.618320610687023,1.5877862595419847,-1.7099236641221374,-0.44921875,-0.032470703125,-0.240966796875,0.5932999999999999
1.6793893129770991,1.5572519083969465,-1.786259541984733,-0.446044921875,-0.0341796875,-0.236572265625,0.595
1.7099236641221374,1.3893129770992367,-1.6793893129770991,-0.44580078125,-0.0390625,-0.23291015625,0.5967
1.5572519083969465,1.282442748091603,-1.7251908396946565,-0.443359375,-0.034423828125,-0.235595703125,0.5983999999999999
1.7557251908396947,1.3435114503816794,-1.816793893129771,-0.450927734375,-0.033935546875,-0.23974609375,0.6001
1.5572519083969465,1.297709923664122,-1.9389312977099236,-0.449951171875,-0.03076171875,-0.24462890625,0.6018
1.816793893129771,1.3129770992366412,-1.786259541984733,-0.446533203125,-0.03125,-0.235107421875,0.6034999999999999
1.8015267175572518,1.1297709923664123,-1.8473282442748091,-0.45068359375,-0.032958984375,-0.23876953125,0.6052
1.7557251908396947,1.099236641221374,-1.7404580152671756,-0.447509765625,-0.031005859375,-0.24072265625,0.6069
1.8015267175572518,1.3587786259541985,-1.8625954198473282,-0.444580078125,-0.028076171875,-0.23974609375,0.6085999999999999
1.7099236641221374,1.2061068702290076,-1.8778625954198473,-0.44677734375,-0.033203125,-0.2353515625,0.6103
1.9389312977099236,0.9770992366412213,-2.015267175572519,-0.44873046875,-0.031005859375,-0.24072265625,0.612
1.7404580152671756,1.0229007633587786,-1.786259541984733,-0.44970703125,-0.031982421875,-0.2421875,0.6136999999999999
1.7099236641221374,1.1755725190839694,-1.786259541984733,-0.453369140625,-0.028564453125,-0.23095703125,0.6154
1.9541984732824427,1.0534351145038168,-1.7557251908396947,-0.44873046875,-0.031982421875,-0.2265625,0.6171
1.8625954198473282,1.0687022900763359,-1.9083969465648856,-0.447021484375,-0.024169921875,-0.238037109375,0.6188
1.786259541984733,1.1145038167938932,-1.8625954198473282,-0.442138671875,-0.03662109375,-0.23583984375,0.6204999999999999
1.9389312977099236,1.1908396946564885,-1.816793893129771,-0.445068359375,-0.03271484375,-0.23193359375,0.6222
1.9389312977099236,1.251908396946565,-1.6793893129770991,-0.447998046875,-0.033935546875,-0.239501953125,0.6239
1.618320610687023,1.2061068702290076,-1.7557251908396947,-0.448486328125,-0.03955078125,-0.239990234375,0.6255999999999999
1.7251908396946565,1.0381679389312977,-1.4809160305343512,-0.444580078125,-0.033203125,-0.237548828125,0.6273
1.83206106870229,1.1755725190839694,-1.8015267175572518,-0.4482421875,-0.033447265625,-0.23974609375,0.629
1.786259541984733,1.4809160305343512,-1.6488549618320612,-0.44775390625,-0.03173828125,-0.232666015625,0.6306999999999999
1.7251908396946565,1.2213740458015268,-1.7557251908396947,-0.44775390625,-0.03125,-0.234619140625,0.6324
2.1374045801526718,1.1145038167938932,-1.5725190839694656,-0.447509765625,-0.029052734375,-0.249267578125,0.6341
1.8473282442748091,1.282442748091603,-1.7557251908396947,-0.447509765625,-0.032470703125,-0.23095703125,0.6357999999999999
1.8473282442748091,1.1297709923664123,-1.6946564885496183,-0.449951171875,-0.030517578125,-0.2392578125,0.6375
1.9541984732824427,1.282442748091603,-1.5419847328244274,-0.451416015625,-0.03076171875,-0.238525390625,0.6392
1.8625954198473282,1.2671755725190839,-1.4961832061068703,-0.4482421875,-0.03125,-0.235595703125,0.6408999999999999
1.786259541984733,1.2061068702290076,-1.5267175572519085,-0.452880859375,-0.030517578125,-0.243896484375,0.6426
1.7709923664122138,1.2366412213740459,-1.450381679389313,-0.450927734375,-0.037109375,-0.240478515625,0.6443
2.183206106870229,1.297709923664122,-1.5419847328244274,-0.446044921875,-0.03173828125,-0.235595703125,0.646
1.9389312977099236,1.251908396946565,-1.3435114503816794,-0.4443359375,-0.031982421875,-0.244384765625,0.6476999999999999
2.015267175572519,1.1297709923664123,-1.6641221374045803,-0.44677734375,-0.028564453125,-0.237060546875,0.6494
2.1374045801526718,1.2061068702290076,-1.3587786259541985,-0.44970703125,-0.0302734375,-0.239501953125,0.6511
1.816793893129771,1.3435114503816794,-1.3893129770992367,-0.447998046875,-0.032958984375,-0.239013671875,0.6527999999999999
2.030534351145038,1.251908396946565,-1.450381679389313,-0.447998046875,-0.034912109375,-0.23779296875,0.6545
2.0610687022900764,1.1603053435114503,-1.5419847328244274,-0.44775390625,-0.02978515625,-0.232666015625,0.6562
2.030534351145038,1.2061068702290076,-1.297709923664122,-0.450439453125,-0.02978515625,-0.23681640625,0.6578999999999999
1.9236641221374047,1.3587786259541985,-1.5114503816793894,-0.447509765625,-0.033447265625,-0.234619140625,0.6596
2.045801526717557,1.3129770992366412,-1.282442748091603,-0.448974609375,-0.03466796875,-0.238525390625,0.6613
2.1068702290076335,1.1450381679389312,-1.2366412213740459,-0.44384765625,-0.025634765625,-0.24072265625,0.6629999999999999
2.122137404580153,1.3129770992366412,-1.1908396946564885,-0.45068359375,-0.030029296875,-0.241455078125,0.6647
2.0763358778625953,1.3587786259541985,-1.4351145038167938,-0.451171875,-0.0322265625,-0.238525390625,0.6664
2.015267175572519,1.3282442748091603,-1.2061068702290076,-0.445556640625,-0.033447265625,-0.24072265625,0.6680999999999999
2.0916030534351147,1.3282442748091603,-1.4198473282442747,-0.452880859375,-0.0390625,-0.235107421875,0.6698
2.1068702290076335,1.297709923664122,-1.297709923664122,-0.4443359375,-0.033935546875,-0.236083984375,0.6715
2.0763358778625953,1.3435114503816794,-1.282442748091603,-0.4453125,-0.03271484375,-0.23291015625,0.6731999999999999
1.9389312977099236,1.3587786259541985,-1.450381679389313,-0.445556640625,-0.033935546875,-0.237060546875,0.6748999999999999
2.1374045801526718,1.465648854961832,-1.450381679389313,-0.453125,-0.0341796875,-0.23486328125,0.6766
2.183206106870229,1.3435114503816794,-1.1908396946564885,-0.450927734375,-0.036865234375,-0.241943359375,0.6783
1.984732824427481,1.5419847328244274,-1.282442748091603,-0.446044921875,-0.033203125,-0.232421875,0.6799999999999999
2.198473282442748,1.3893129770992367,-1.3282442748091603,-0.44677734375,-0.0390625,-0.237060546875,0.6817
2.0,1.3282442748091603,-1.251908396946565,-0.449462890625,-0.036865234375,-0.238525390625,0.6834
2.1068702290076335,1.1908396946564885,-1.1755725190839694,-0.44873046875,-0.031005859375,-0.237060546875,0.6850999999999999
1.9083969465648856,1.5267175572519085,-1.3435114503816794,-0.450439453125,-0.035888671875,-0.2333984375,0.6868
1.83206106870229,1.5725190839694656,-1.3129770992366412,-0.44189453125,-0.046630859375,-0.239501953125,0.6885
1.9694656488549618,1.633587786259542,-1.1145038167938932,-0.44775390625,-0.04052734375,-0.23193359375,0.6901999999999999
1.984732824427481,1.4351145038167938,-0.9923664122137404,-0.443603515625,-0.032470703125,-0.23583984375,0.6919
1.9236641221374047,1.297709923664122,-1.282442748091603,-0.45263671875,-0.036376953125,-0.2333984375,0.6936
1.786259541984733,1.3435114503816794,-1.099236641221374,-0.453369140625,-0.0341796875,-0.232666015625,0.6952999999999999
1.7251908396946565,1.3587786259541985,-1.2213740458015268,-0.4501953125,-0.033447265625,-0.240234375,0.697
1.6793893129770991,1.450381679389313,-1.099236641221374,-0.4423828125,-0.0322265625,-0.23486328125,0.6987
1.816793893129771,1.4809160305343512,-1.1145038167938932,-0.44140625,-0.030517578125,-0.23681640625,0.7003999999999999
1.5877862595419847,1.3435114503816794,-1.0076335877862594,-0.447021484375,-0.0361328125,-0.2412109375,0.7021
1.618320610687023,1.1755725190839694,-1.1450381679389312,-0.445068359375,-0.042236328125,-0.2392578125,0.7038
1.5725190839694656,1.450381679389313,-1.0687022900763359,-0.4482421875,-0.038818359375,-0.246337890625,0.7055
1.4961832061068703,1.633587786259542,-1.3129770992366412,-0.4453125,-0.0361328125,-0.235595703125,0.7071999999999999
1.5877862595419847,1.3893129770992367,-1.1145038167938932,-0.44677734375,-0.02978515625,-0.234619140625,0.7089
1.6488549618320612,1.4198473282442747,-1.083969465648855,-0.44482421875,-0.033203125,-0.230224609375,0.7106
1.3129770992366412,1.618320610687023,-1.0381679389312977,-0.447509765625,-0.03564453125,-0.234130859375,0.7122999999999999
1.465648854961832,1.4809160305343512,-1.1297709923664123,-0.4462890625,-0.03076171875,-0.2392578125,0.714
1.3587786259541985,1.3893129770992367,-1.282442748091603,-0.449951171875,-0.03173828125,-0.240966796875,0.7157
1.2213740458015268,1.3740458015267176,-0.9923664122137404,-0.450439453125,-0.0302734375,-0.241455078125,0.7173999999999999
1.297709923664122,1.3587786259541985,-1.1145038167938932,-0.444580078125,-0.033447265625,-0.23974609375,0.7191
1.4961832061068703,1.1450381679389312,-1.1755725190839694,-0.44384765625,-0.031005859375,-0.23291015625,0.7208
1.2213740458015268,1.3129770992366412,-1.083969465648855,-0.44384765625,-0.030029296875,-0.23291015625,0.7224999999999999
1.1603053435114503,1.297709923664122,-1.1908396946564885,-0.4423828125,-0.032958984375,-0.234130859375,0.7242
1.0076335877862594,1.251908396946565,-1.099236641221374,-0.444091796875,-0.03515625,-0.234619140625,0.7259
1.3282442748091603,1.3435114503816794,-1.0534351145038168,-0.44775390625,-0.033935546875,-0.241943359375,0.7275999999999999
1.1145038167938932,1.2671755725190839,-1.251908396946565,-0.449462890625,-0.030517578125,-0.2412109375,0.7293
1.1145038167938932,1.2366412213740459,-1.0534351145038168,-0.44970703125,-0.0322265625,-0.244873046875,0.731
1.2213740458015268,1.0076335877862594,-1.099236641221374,-0.44677734375,-0.031982421875,-0.238037109375,0.7326999999999999
1.0534351145038168,1.2671755725190839,-1.083969465648855,-0.444091796875,-0.0380859375,-0.236328125,0.7343999999999999
1.1297709923664123,1.099236641221374,-1.1908396946564885,-0.44970703125,-0.03515625,-0.2333984375,0.7361
1.1297709923664123,1.1145038167938932,-1.251908396946565,-0.445556640625,-0.03173828125,-0.2392578125,0.7378
1.0229007633587786,1.2061068702290076,-1.2671755725190839,-0.44677734375,-0.031005859375,-0.235595703125,0.7394999999999999
1.1297709923664123,1.083969465648855,-1.1908396946564885,-0.446044921875,-0.034423828125,-0.2451171875,0.7412
0.9465648854961832,0.9923664122137404,-1.2366412213740459,-0.444091796875,-0.028564453125,-0.232177734375,0.7429
0.9770992366412213,0.7938931297709924,-1.2671755725190839,-0.450927734375,-0.03125,-0.23876953125,0.7445999999999999
0.8244274809160306,0.9923664122137404,-1.1297709923664123,-0.44921875,-0.0419921875,-0.245361328125,0.7463
0.9312977099236641,0.8702290076335878,-0.9465648854961832,-0.449951171875,-0.035400390625,-0.242431640625,0.748
0.9770992366412213,0.8702290076335878,-1.1297709923664123,-0.44677734375,-0.031005859375,-0.234130859375,0.7496999999999999
0.8702290076335878,0.9007633587786259,-1.297709923664122,-0.452392578125,-0.031982421875,-0.2421875,0.7514
0.8244274809160306,0.8549618320610687,-1.2671755725190839,-0.447265625,-0.031494140625,-0.244873046875,0.7531
0.8549618320610687,0.8396946564885496,-1.2366412213740459,-0.449462890625,-0.031494140625,-0.237548828125,0.7547999999999999
0.9465648854961832,1.0381679389312977,-1.251908396946565,-0.44580078125,-0.033203125,-0.242431640625,0.7565
0.7480916030534351,0.9618320610687023,-1.2671755725190839,-0.451171875,-0.02880859375,-0.24462890625,0.7582
0.7786259541984732,0.8396946564885496,-1.297709923664122,-0.45361328125,-0.031494140625,-0.23193359375,0.7598999999999999
0.916030534351145,1.1450381679389312,-1.1908396946564885,-0.452880859375,-0.028564453125,-0.236083984375,0.7615999999999999
0.8549618320610687,0.9312977099236641,-1.4961832061068703,-0.449951171875,-0.0341796875,-0.226806640625,0.7633
0.9770992366412213,1.0229007633587786,-1.3129770992366412,-0.44775390625,-0.029541015625,-0.231201171875,0.7649999999999999
0.8244274809160306,0.8244274809160306,-1.2366412213740459,-0.451904296875,-0.030517578125,-0.23388671875,0.7666999999999999
0.916030534351145,0.8854961832061069,-1.2366412213740459,-0.450927734375,-0.028076171875,-0.24072265625,0.7684
0.9618320610687023,1.083969465648855,-1.1145038167938932,-0.449462890625,-0.034423828125,-0.2333984375,0.7701
0.8091603053435115,1.0076335877862594,-1.2213740458015268,-0.447021484375,-0.0302734375,-0.240234375,0.7717999999999999
0.8854961832061069,1.083969465648855,-1.3740458015267176,-0.447509765625,-0.033203125,-0.2412109375,0.7735
0.9923664122137404,0.9923664122137404,-1.4045801526717556,-0.44580078125,-0.03173828125,-0.22705078125,0.7752
0.6717557251908397,1.0687022900763359,-1.3129770992366412,-0.444580078125,-0.031005859375,-0.244873046875,0.7768999999999999
0.7175572519083969,1.083969465648855,-1.099236641221374,-0.44384765625,-0.03515625,-0.23876953125,0.7786
0.8396946564885496,0.9770992366412213,-1.5114503816793894,-0.445068359375,-0.03369140625,-0.241455078125,0.7803
0.8091603053435115,1.1297709923664123,-1.282442748091603,-0.446533203125,-0.03125,-0.241943359375,0.7819999999999999
0.9618320610687023,1.1297709923664123,-1.1603053435114503,-0.445556640625,-0.032958984375,-0.237060546875,0.7837
0.7480916030534351,1.1450381679389312,-1.3282442748091603,-0.4541015625,-0.03662109375,-0.235107421875,0.7854
0.732824427480916,0.9465648854961832,-1.1908396946564885,-0.44677734375,-0.0361328125,-0.2431640625,0.7870999999999999
0.8702290076335878,0.9618320610687023,-1.0381679389312977,-0.445556640625,-0.033447265625,-0.243896484375,0.7888
0.732824427480916,0.916030534351145,-1.282442748091603,-0.447265625,-0.029052734375,-0.239013671875,0.7905
0.7938931297709924,0.916030534351145,-1.2671755725190839,-0.448486328125,-0.03125,-0.231201171875,0.7921999999999999
0.8396946564885496,0.8091603053435115,-1.282442748091603,-0.44970703125,-0.030029296875,-0.2421875,0.7938999999999999
0.8702290076335878,0.9618320610687023,-1.1603053435114503,-0.451416015625,-0.028564453125,-0.22802734375,0.7956
0.9923664122137404,1.1145038167938932,-1.3740458015267176,-0.448486328125,-0.03076171875,-0.239013671875,0.7973
0.9465648854961832,1.1297709923664123,-1.1908396946564885,-0.44921875,-0.028564453125,-0.236083984375,0.7989999999999999
0.9312977099236641,0.9007633587786259,-1.3129770992366412,-0.44287109375,-0.03271484375,-0.229736328125,0.8007
0.9770992366412213,0.9770992366412213,-1.1755725190839694,-0.447265625,-0.033935546875,-0.243408203125,0.8024
0.9312977099236641,1.0534351145038168,-1.3435114503816794,-0.4443359375,-0.031005859375,-0.235595703125,0.8040999999999999
0.9007633587786259,1.0687022900763359,-1.1755725190839694,-0.447998046875,-0.02685546875,-0.245361328125,0.8058
0.9618320610687023,1.0687022900763359,-1.251908396946565,-0.447021484375,-0.026123046875,-0.2412109375,0.8075
0.8091603053435115,0.9923664122137404,-1.1908396946564885,-0.44873046875,-0.029296875,-0.240478515625,0.8091999999999999
0.8854961832061069,1.1145038167938932,-1.1450381679389312,-0.451416015625,-0.029052734375,-0.239501953125,0.8109
0.9923664122137404,1.1603053435114503,-1.083969465648855,-0.44970703125,-0.026123046875,-0.24560546875,0.8126
1.099236641221374,1.2213740458015268,-1.3893129770992367,-0.451904296875,-0.0322265625,-0.240966796875,0.8142999999999999
0.8396946564885496,1.083969465648855,-1.2061068702290076,-0.44580078125,-0.0302734375,-0.237548828125,0.816
0.9770992366412213,0.8854961832061069,-1.4809160305343512,-0.44873046875,-0.033447265625,-0.2412109375,0.8177
0.9465648854961832,1.1297709923664123,-1.2213740458015268,-0.44873046875,-0.03076171875,-0.23388671875,0.8193999999999999
1.1297709923664123,0.9923664122137404,-1.4198473282442747,-0.44921875,-0.034423828125,-0.243408203125,0.8210999999999999
1.1297709923664123,1.099236641221374,-1.2366412213740459,-0.445556640625,-0.031005859375,-0.240478515625,0.8228
0.9770992366412213,1.099236641221374,-1.297709923664122,-0.443603515625,-0.03125,-0.23681640625,0.8244999999999999
1.2061068702290076,1.0534351145038168,-1.2061068702290076,-0.442626953125,-0.030029296875,-0.2333984375,0.8261999999999999
1.4198473282442747,1.1297709923664123,-1.1297709923664123,-0.452880859375,-0.03369140625,-0.235107421875,0.8279
1.083969465648855,1.083969465648855,-1.1450381679389312,-0.446044921875,-0.03125,-0.240234375,0.8296
1.2213740458015268,1.099236641221374,-1.1297709923664123,-0.451904296875,-0.0283203125,-0.237548828125,0.8312999999999999
1.1908396946564885,0.9465648854961832,-1.1145038167938932,-0.447265625,-0.039306640625,-0.228759765625,0.833
1.2213740458015268,1.083969465648855,-1.083969465648855,-0.447021484375,-0.03466796875,-0.231201171875,0.8347
1.2671755725190839,0.9465648854961832,-1.2671755725190839,-0.443115234375,-0.0322265625,-0.23193359375,0.8363999999999999
1.2213740458015268,0.9923664122137404,-1.2213740458015268,-0.44580078125,-0.029541015625,-0.239990234375,0.8381
1.2366412213740459,0.9312977099236641,-1.1450381679389312,-0.443115234375,-0.02783203125,-0.23583984375,0.8398
1.3893129770992367,1.1297709923664123,-1.297709923664122,-0.448974609375,-0.0341796875,-0.246826171875,0.8414999999999999
1.5267175572519085,0.916030534351145,-1.1450381679389312,-0.4453125,-0.02294921875,-0.237060546875,0.8432
1.4045801526717556,0.9312977099236641,-1.2213740458015268,-0.449462890625,-0.03662109375,-0.2353515625,0.8449
1.4198473282442747,1.0687022900763359,-1.1755725190839694,-0.451904296875,-0.031982421875,-0.237060546875,0.8465999999999999
1.450381679389313,1.2061068702290076,-1.1908396946564885,-0.44775390625,-0.03173828125,-0.232421875,0.8482999999999999
1.3740458015267176,0.916030534351145,-1.0687022900763359,-0.44873046875,-0.03173828125,-0.237548828125,0.85
1.4045801526717556,0.9618320610687023,-1.282442748091603,-0.447509765625,-0.034912109375,-0.23193359375,0.8516999999999999
1.4045801526717556,1.083969465648855,-1.297709923664122,-0.44775390625,-0.032958984375,-0.22998046875,0.8533999999999999
1.5114503816793894,0.8396946564885496,-1.0229007633587786,-0.44775390625,-0.033447265625,-0.230224609375,0.8551
1.4961832061068703,1.2213740458015268,-1.1145038167938932,-0.448486328125,-0.032470703125,-0.227783203125,0.8568
1.5572519083969465,1.3282442748091603,-1.1297709923664123,-0.446044921875,-0.024169921875,-0.243896484375,0.8584999999999999
1.4045801526717556,0.9923664122137404,-1.0076335877862594,-0.44580078125,-0.032470703125,-0.236572265625,0.8602
1.4351145038167938,0.9923664122137404,-1.1297709923664123,-0.451171875,-0.03271484375,-0.230224609375,0.8619
1.282442748091603,1.1908396946564885,-1.099236641221374,-0.449462890625,-0.029541015625,-0.240234375,0.8635999999999999
1.3282442748091603,1.2061068702290076,-1.1755725190839694,-0.44970703125,-0.03076171875,-0.23583984375,0.8653
1.7099236641221374,1.1603053435114503,-1.1297709923664123,-0.44873046875,-0.029296875,-0.237060546875,0.867
1.7709923664122138,1.3740458015267176,-1.3587786259541985,-0.4423828125,-0.03076171875,-0.23681640625,0.8686999999999999
1.5572519083969465,1.3435114503816794,-1.297709923664122,-0.445556640625,-0.028564453125,-0.23974609375,0.8704
1.6641221374045803,1.3129770992366412,-1.2366412213740459,-0.450927734375,-0.035400390625,-0.234375,0.8721
1.6030534351145038,1.251908396946565,-0.9312977099236641,-0.447021484375,-0.035400390625,-0.234619140625,0.8737999999999999
1.4198473282442747,1.4045801526717556,-1.3282442748091603,-0.453857421875,-0.0322265625,-0.230712890625,0.8755
1.618320610687023,1.4045801526717556,-1.2671755725190839,-0.44921875,-0.028076171875,-0.236572265625,0.8772
1.7099236641221374,1.3893129770992367,-1.1755725190839694,-0.44482421875,-0.029296875,-0.236572265625,0.8788999999999999
1.6641221374045803,1.2061068702290076,-1.1755725190839694,-0.447265625,-0.030029296875,-0.245361328125,0.8805999999999999
1.6793893129770991,1.3129770992366412,-1.2213740458015268,-0.44580078125,-0.031494140625,-0.23486328125,0.8823
1.7709923664122138,1.3740458015267176,-1.282442748091603,-0.450439453125,-0.03125,-0.2373046875,0.8839999999999999
1.5877862595419847,1.1297709923664123,-1.2061068702290076,-0.44873046875,-0.031494140625,-0.23779296875,0.8856999999999999
1.7404580152671756,1.2366412213740459,-1.251908396946565,-0.45166015625,-0.02783203125,-0.230712890625,0.8874
1.7404580152671756,1.465648854961832,-1.2061068702290076,-0.447021484375,-0.0283203125,-0.238037109375,0.8891
1.8625954198473282,1.3587786259541985,-1.297709923664122,-0.4453125,-0.031005859375,-0.238525390625,0.8907999999999999
1.8473282442748091,1.297709923664122,-1.251908396946565,-0.443603515625,-0.032470703125,-0.241455078125,0.8925
1.8778625954198473,1.3435114503816794,-1.2061068702290076,-0.449951171875,-0.0302734375,-0.244873046875,0.8942
1.816793893129771,1.3282442748091603,-1.2366412213740459,-0.451904296875,-0.033935546875,-0.238525390625,0.8958999999999999
1.816793893129771,1.251908396946565,-1.2213740458015268,-0.44970703125,-0.029052734375,-0.228759765625,0.8976
1.7099236641221374,1.2213740458015268,-1.1908396946564885,-0.444580078125,-0.034423828125,-0.23193359375,0.8993
1.6641221374045803,1.3129770992366412,-1.3435114503816794,-0.44091796875,-0.030517578125,-0.23681640625,0.9009999999999999
1.618320610687023,1.4045801526717556,-1.297709923664122,-0.4462890625,-0.030517578125,-0.240234375,0.9027
1.6641221374045803,1.2061068702290076,-1.297709923664122,-0.448486328125,-0.033203125,-0.23486328125,0.9044
1.5725190839694656,1.1908396946564885,-1.2671755725190839,-0.451171875,-0.0361328125,-0.243408203125,0.9060999999999999
1.6030534351145038,1.0381679389312977,-1.0534351145038168,-0.4501953125,-0.0361328125,-0.238525390625,0.9077999999999999
1.6641221374045803,1.297709923664122,-1.1603053435114503,-0.44580078125,-0.03515625,-0.23486328125,0.9095
1.4809160305343512,1.1450381679389312,-1.297709923664122,-0.44482421875,-0.033935546875,-0.232177734375,0.9111999999999999
1.5572519083969465,1.0534351145038168,-1.1755725190839694,-0.44775390625,-0.03173828125,-0.236083984375,0.9128999999999999
1.6030534351145038,1.1603053435114503,-0.9465648854961832,-0.4482421875,-0.034912109375,-0.2392578125,0.9146
1.3129770992366412,1.1145038167938932,-1.0687022900763359,-0.44775390625,-0.0341796875,-0.236328125,0.9163
1.5877862595419847,1.083969465648855,-1.0381679389312977,-0.4521484375,-0.029296875,-0.243408203125,0.9179999999999999
1.465648854961832,1.0534351145038168,-0.9770992366412213,-0.443359375,-0.033935546875,-0.23681640625,0.9197
1.4045801526717556,1.3282442748091603,-0.9312977099236641,-0.44775390625,-0.033935546875,-0.2431640625,0.9214
1.297709923664122,1.2213740458015268,-0.9923664122137404,-0.450439453125,-0.032470703125,-0.240234375,0.9230999999999999
1.3435114503816794,0.9923664122137404,-1.0534351145038168,-0.445068359375,-0.0361328125,-0.237548828125,0.9248
1.3587786259541985,1.1297709923664123,-0.9007633587786259,-0.447998046875,-0.036865234375,-0.235595703125,0.9265
1.1908396946564885,0.9923664122137404,-0.9923664122137404,-0.451416015625,-0.035400390625,-0.23876953125,0.9281999999999999
1.282442748091603,1.3282442748091603,-1.0381679389312977,-0.445068359375,-0.029052734375,-0.236572265625,0.9299
1.1908396946564885,0.9770992366412213,-0.9770992366412213,-0.445556640625,-0.028564453125,-0.238525390625,0.9316
1.1297709923664123,0.9312977099236641,-0.9923664122137404,-0.446044921875,-0.0283203125,-0.2412109375,0.9332999999999999
1.2366412213740459,1.0534351145038168,-1.0381679389312977,-0.449462890625,-0.028564453125,-0.236083984375,0.9349999999999999
0.9923664122137404,0.916030534351145,-0.9923664122137404,-0.448974609375,-0.030517578125,-0.234130859375,0.9367
1.1908396946564885,0.9312977099236641,-0.9618320610687023,-0.4482421875,-0.037353515625,-0.24755859375,0.9383999999999999
1.2366412213740459,1.0229007633587786,-0.9923664122137404,-0.44580078125,-0.034912109375,-0.238525390625,0.9400999999999999
1.0076335877862594,0.916030534351145,-1.083969465648855,-0.44140625,-0.02685546875,-0.23681640625,0.9418
1.0381679389312977,0.732824427480916,-1.0534351145038168,-0.445556640625,-0.030029296875,-0.236083984375,0.9434999999999999
1.2671755725190839,0.9465648854961832,-1.2671755725190839,-0.443115234375,-0.035400390625,-0.234619140625,0.9451999999999999
1.251908396946565,0.8854961832061069,-1.0687022900763359,-0.44482421875,-0.032958984375,-0.235107421875,0.9469
1.1908396946564885,0.8854961832061069,-1.297709923664122,-0.44384765625,-0.035888671875,-0.2451171875,0.9486
1.0534351145038168,1.0534351145038168,-1.1908396946564885,-0.449462890625,-0.030517578125,-0.24072265625,0.9502999999999999
1.3129770992366412,1.0229007633587786,-1.282442748091603,-0.445068359375,-0.0341796875,-0.23388671875,0.952
1.3129770992366412,0.7480916030534351,-1.3435114503816794,-0.44775390625,-0.030517578125,-0.247802734375,0.9537
1.083969465648855,0.6717557251908397,-1.1908396946564885,-0.447021484375,-0.033203125,-0.23291015625,0.9553999999999999
1.1145038167938932,0.6870229007633588,-1.2366412213740459,-0.447998046875,-0.030029296875,-0.240234375,0.9571
1.3282442748091603,0.8091603053435115,-1.3282442748091603,-0.44775390625,-0.033203125,-0.22998046875,0.9588
1.1297709923664123,0.8244274809160306,-1.3282442748091603,-0.4482421875,-0.031005859375,-0.228515625,0.9604999999999999
1.099236641221374,0.6412213740458015,-1.4198473282442747,-0.442138671875,-0.038330078125,-0.23291015625,0.9621999999999999
1.099236641221374,0.5648854961832062,-1.297709923664122,-0.444091796875,-0.037841796875,-0.22265625,0.9639
1.297709923664122,0.9465648854961832,-1.5114503816793894,-0.457763671875,-0.030029296875,-0.24169921875,0.9655999999999999
1.2671755725190839,0.916030534351145,-1.5419847328244274,-0.44580078125,-0.03125,-0.240478515625,0.9672999999999999
1.099236641221374,0.9312977099236641,-1.5725190839694656,-0.447998046875,-0.029296875,-0.234375,0.969
1.0534351145038168,0.7633587786259542,-1.6030534351145038,-0.450439453125,-0.033935546875,-0.234375,0.9706999999999999
1.0534351145038168,0.8244274809160306,-1.5419847328244274,-0.456298828125,-0.030517578125,-0.239013671875,0.9723999999999999
1.1297709923664123,1.0381679389312977,-1.4351145038167938,-0.449462890625,-0.028564453125,-0.238525390625,0.9741
0.8091603053435115,0.9465648854961832,-1.5572519083969465,-0.447021484375,-0.030029296875,-0.229736328125,0.9758
0.8854961832061069,0.9923664122137404,-1.5572519083969465,-0.45166015625,-0.03466796875,-0.242431640625,0.9774999999999999
1.1908396946564885,1.1450381679389312,-1.6793893129770991,-0.45263671875,-0.031494140625,-0.2451171875,0.9792
1.2366412213740459,1.2213740458015268,-1.6488549618320612,-0.44873046875,-0.02880859375,-0.235595703125,0.9809
1.2061068702290076,1.2061068702290076,-1.7404580152671756,-0.4462890625,-0.031494140625,-0.237060546875,0.9825999999999999
1.0076335877862594,1.3129770992366412,-1.5877862595419847,-0.450927734375,-0.032958984375,-0.238525390625,0.9843
0.9923664122137404,1.099236641221374,-1.8931297709923665,-0.44775390625,-0.03271484375,-0.23974609375,0.986
1.1145038167938932,1.083969465648855,-1.8625954198473282,-0.447021484375,-0.033935546875,-0.242431640625,0.9876999999999999
1.1450381679389312,1.1908396946564885,-1.8778625954198473,-0.447021484375,-0.031005859375,-0.243408203125,0.9894
1.1450381679389312,1.2671755725190839,-1.8778625954198473,-0.446044921875,-0.031494140625,-0.2412109375,0.9911
1.0229007633587786,1.1450381679389312,-2.015267175572519,-0.44921875,-0.028564453125,-0.24267578125,0.9927999999999999
1.1145038167938932,1.1603053435114503,-1.9236641221374047,-0.447021484375,-0.033203125,-0.23828125,0.9944999999999999
1.2213740458015268,1.2213740458015268,-1.8778625954198473,-0.447509765625,-0.034423828125,-0.235595703125,0.9962
1.3893129770992367,1.1603053435114503,-2.015267175572519,-0.45166015625,-0.034912109375,-0.239013671875,0.9978999999999999
1.1603053435114503,1.2366412213740459,-2.0,-0.451171875,-0.0283203125,-0.236328125,0.9995999999999999
1.2671755725190839,1.251908396946565,-1.9694656488549618,-0.443115234375,-0.03173828125,-0.240234375,1.0012999999999999
1.450381679389313,1.251908396946565,-1.9694656488549618,-0.44677734375,-0.0283203125,-0.23291015625,1.003
1.2671755725190839,1.1603053435114503,-1.984732824427481,-0.4501953125,-0.029052734375,-0.243408203125,1.0047
1.3587786259541985,1.2213740458015268,-2.183206106870229,-0.447998046875,-0.032958984375,-0.23388671875,1.0064
1.4198473282442747,1.282442748091603,-2.0610687022900764,-0.448486328125,-0.029541015625,-0.236328125,1.0081
1.6488549618320612,1.3282442748091603,-1.9541984732824427,-0.44970703125,-0.03466796875,-0.232421875,1.0098
1.5114503816793894,1.3129770992366412,-1.9083969465648856,-0.457763671875,-0.0341796875,-0.232177734375,1.0114999999999998
1.4198473282442747,1.3740458015267176,-2.1068702290076335,-0.447509765625,-0.036865234375,-0.234375,1.0131999999999999
1.4809160305343512,1.450381679389313,-2.030534351145038,-0.451416015625,-0.0322265625,-0.228759765625,1.0149
1.4045801526717556,1.465648854961832,-1.8625954198473282,-0.449951171875,-0.02880859375,-0.23974609375,1.0166
1.633587786259542,1.5572519083969465,-1.7404580152671756,-0.446044921875,-0.030029296875,-0.234130859375,1.0183
1.7557251908396947,1.3893129770992367,-1.7557251908396947,-0.4462890625,-0.028076171875,-0.2451171875,1.02
2.0,1.3740458015267176,-1.8625954198473282,-0.45068359375,-0.02978515625,-0.237060546875,1.0217
1.6641221374045803,1.4961832061068703,-1.7251908396946565,-0.446533203125,-0.0322265625,-0.2353515625,1.0233999999999999
1.4961832061068703,1.5419847328244274,-1.9083969465648856,-0.44677734375,-0.03662109375,-0.23388671875,1.0251
1.7404580152671756,1.4809160305343512,-1.7099236641221374,-0.452392578125,-0.03271484375,-0.2431640625,1.0268
1.8473282442748091,1.3740458015267176,-1.7404580152671756,-0.451171875,-0.032958984375,-0.23486328125,1.0285
1.5725190839694656,1.450381679389313,-1.6030534351145038,-0.44775390625,-0.03076171875,-0.235595703125,1.0302
1.7557251908396947,1.5267175572519085,-1.4198473282442747,-0.446044921875,-0.027587890625,-0.23583984375,1.0319
1.8015267175572518,1.5572519083969465,-1.4961832061068703,-0.4501953125,-0.0302734375,-0.23291015625,1.0335999999999999
1.83206106870229,1.3893129770992367,-1.4198473282442747,-0.4501953125,-0.032470703125,-0.235595703125,1.0352999999999999
1.7404580152671756,1.4809160305343512,-1.5114503816793894,-0.448974609375,-0.033203125,-0.231689453125,1.037
1.9236641221374047,1.4045801526717556,-1.2061068702290076,-0.44921875,-0.03173828125,-0.234130859375,1.0387
1.8473282442748091,1.3282442748091603,-1.2213740458015268,-0.4501953125,-0.033935546875,-0.238037109375,1.0404
1.9236641221374047,1.3282442748091603,-1.297709923664122,-0.448486328125,-0.0341796875,-0.23828125,1.0421
1.816793893129771,1.4198473282442747,-1.083969465648855,-0.4482421875,-0.0322265625,-0.2421875,1.0437999999999998
1.7251908396946565,1.4809160305343512,-1.0534351145038168,-0.450439453125,-0.0322265625,-0.235107421875,1.0454999999999999
2.0610687022900764,1.4961832061068703,-1.2213740458015268,-0.44775390625,-0.03076171875,-0.238037109375,1.0472
2.16793893129771,1.450381679389313,-1.099236641221374,-0.445556640625,-0.031005859375,-0.236572265625,1.0489
2.1068702290076335,1.3587786259541985,-1.1450381679389312,-0.447998046875,-0.02978515625,-0.22998046875,1.0506
2.0763358778625953,1.4351145038167938,-1.1603053435114503,-0.442626953125,-0.029296875,-0.23681640625,1.0523
2.1374045801526718,1.6641221374045803,-1.1145038167938932,-0.44873046875,-0.029052734375,-0.238037109375,1.054
1.984732824427481,1.3893129770992367,-0.9923664122137404,-0.447509765625,-0.03271484375,-0.235595703125,1.0556999999999999
1.9541984732824427,1.3282442748091603,-1.3129770992366412,-0.449951171875,-0.034423828125,-0.232177734375,1.0574
2.1526717557251906,1.4809160305343512,-0.9007633587786259,-0.455322265625,-0.03271484375,-0.235595703125,1.0591
2.1374045801526718,1.5572519083969465,-0.9770992366412213,-0.447509765625,-0.029296875,-0.23974609375,1.0608
1.8778625954198473,1.5267175572519085,-0.9618320610687023,-0.451171875,-0.0302734375,-0.231201171875,1.0625
2.2748091603053435,1.450381679389313,-0.9465648854961832,-0.450927734375,-0.03173828125,-0.232421875,1.0642
1.8778625954198473,1.4045801526717556,-0.9923664122137404,-0.446044921875,-0.03369140625,-0.24560546875,1.0658999999999998
2.1526717557251906,1.3740458015267176,-0.9007633587786259,-0.44580078125,-0.036376953125,-0.23779296875,1.0675999999999999
2.015267175572519,1.4198473282442747,-0.7480916030534351,-0.4453125,-0.03173828125,-0.237548828125,1.0693
1.8473282442748091,1.3893129770992367,-0.9618320610687023,-0.44921875,-0.032470703125,-0.2392578125,1.071
2.015267175572519,1.5725190839694656,-0.7938931297709924,-0.444091796875,-0.034912109375,-0.2373046875,1.0727
2.0,1.5572519083969465,-0.9312977099236641,-0.445556640625,-0.030517578125,-0.236083984375,1.0744
1.9389312977099236,1.3282442748091603,-0.732824427480916,-0.447998046875,-0.03125,-0.22900390625,1.0760999999999998
1.8778625954198473,1.4198473282442747,-0.916030534351145,-0.447509765625,-0.032958984375,-0.2314453125,1.0777999999999999
1.984732824427481,1.5877862595419847,-0.7480916030534351,-0.44970703125,-0.029052734375,-0.241943359375,1.0795
1.618320610687023,1.5725190839694656,-0.8244274809160306,-0.452880859375,-0.036865234375,-0.232421875,1.0812
1.786259541984733,1.5114503816793894,-1.0076335877862594,-0.44580078125,-0.032958984375,-0.2373046875,1.0829
1.7557251908396947,1.6030534351145038,-0.8549618320610687,-0.44775390625,-0.031494140625,-0.236083984375,1.0846
1.618320610687023,1.6793893129770991,-0.9007633587786259,-0.45166015625,-0.032958984375,-0.241943359375,1.0863
1.618320610687023,1.5267175572519085,-0.8854961832061069,-0.443603515625,-0.031982421875,-0.243896484375,1.0879999999999999
1.7099236641221374,1.6793893129770991,-0.8549618320610687,-0.447021484375,-0.03662109375,-0.240234375,1.0897
1.6030534351145038,1.5725190839694656,-0.9312977099236641,-0.4443359375,-0.036376953125,-0.243408203125,1.0914
1.4809160305343512,1.5114503816793894,-1.0687022900763359,-0.45166015625,-0.038818359375,-0.23828125,1.0931
1.5267175572519085,1.633587786259542,-1.0534351145038168,-0.452392578125,-0.037109375,-0.23095703125,1.0948
1.450381679389313,1.4809160305343512,-0.8854961832061069,-0.44921875,-0.037109375,-0.232421875,1.0965
1.4809160305343512,1.450381679389313,-1.0381679389312977,-0.447021484375,-0.036376953125,-0.239013671875,1.0981999999999998
1.2366412213740459,1.6488549618320612,-1.2366412213740459,-0.444580078125,-0.032958984375,-0.237060546875,1.0998999999999999
1.1603053435114503,1.3740458015267176,-1.1908396946564885,-0.44873046875,-0.037841796875,-0.235107421875,1.1016
1.1145038167938932,1.5419847328244274,-0.8396946564885496,-0.449462890625,-0.03857421875,-0.235107421875,1.1033
1.2061068702290076,1.618320610687023,-1.2213740458015268,-0.451904296875,-0.03125,-0.238037109375,1.105
1.099236641221374,1.4351145038167938,-1.3282442748091603,-0.446044921875,-0.03564453125,-0.235595703125,1.1067
0.8854961832061069,1.6030534351145038,-1.2671755725190839,-0.442138671875,-0.031005859375,-0.24462890625,1.1083999999999998
1.0381679389312977,1.450381679389313,-1.1450381679389312,-0.443603515625,-0.039306640625,-0.2392578125,1.1100999999999999
0.8396946564885496,1.6030534351145038,-1.3587786259541985,-0.441162109375,-0.0283203125,-0.242919921875,1.1118
0.7938931297709924,1.4198473282442747,-1.2366412213740459,-0.44287109375,-0.031005859375,-0.229248046875,1.1135
0.7633587786259542,1.450381679389313,-1.3587786259541985,-0.44775390625,-0.03515625,-0.244384765625,1.1152
0.916030534351145,1.4961832061068703,-1.3282442748091603,-0.450439453125,-0.02880859375,-0.234130859375,1.1169
0.7175572519083969,1.4045801526717556,-1.4198473282442747,-0.4462890625,-0.032958984375,-0.242919921875,1.1186
0.5954198473282443,1.4045801526717556,-1.4198473282442747,-0.4462890625,-0.036865234375,-0.234375,1.1202999999999999
0.6564885496183206,1.450381679389313,-1.5419847328244274,-0.445556640625,-0.028564453125,-0.234130859375,1.1219999999999999
0.6412213740458015,1.4961832061068703,-1.5267175572519085,-0.447998046875,-0.03564453125,-0.24462890625,1.1237
0.3969465648854962,1.4198473282442747,-1.5267175572519085,-0.448974609375,-0.035888671875,-0.2451171875,1.1254
0.5648854961832062,1.3587786259541985,-1.450381679389313,-0.45068359375,-0.02978515625,-0.241943359375,1.1271
0.5648854961832062,1.4351145038167938,-1.5572519083969465,-0.444091796875,-0.029541015625,-0.23828125,1.1288
0.3969465648854962,1.282442748091603,-1.6030534351145038,-0.4521484375,-0.03662109375,-0.23681640625,1.1304999999999998
0.549618320610687,1.3893129770992367,-1.5877862595419847,-0.444091796875,-0.031005859375,-0.24462890625,1.1321999999999999
0.549618320610687,1.6030534351145038,-1.7099236641221374,-0.446533203125,-0.031494140625,-0.242919921875,1.1339
0.3511450381679389,1.5267175572519085,-1.6946564885496183,-0.45068359375,-0.0302734375,-0.237060546875,1.1356
0.5954198473282443,1.5419847328244274,-1.6030534351145038,-0.44921875,-0.031005859375,-0.23828125,1.1373
0.4122137404580153,1.297709923664122,-1.7099236641221374,-0.447021484375,-0.033203125,-0.243408203125,1.139
0.33587786259541985,1.282442748091603,-1.618320610687023,-0.45166015625,-0.03271484375,-0.23828125,1.1407
0.48854961832061067,1.4198473282442747,-1.7404580152671756,-0.44921875,-0.03515625,-0.2333984375,1.1423999999999999
0.42748091603053434,1.4198473282442747,-1.5572519083969465,-0.446533203125,-0.03125,-0.237060546875,1.1441
0.42748091603053434,1.4351145038167938,-1.7404580152671756,-0.4521484375,-0.02978515625,-0.234619140625,1.1458
0.48854961832061067,1.5572519083969465,-1.83206106870229,-0.449951171875,-0.029052734375,-0.236328125,1.1475
0.48854961832061067,1.5725190839694656,-1.6030534351145038,-0.44873046875,-0.028564453125,-0.239013671875,1.1492
0.5343511450381679,1.633587786259542,-1.7709923664122138,-0.447021484375,-0.0322265625,-0.2451171875,1.1509
0.6412213740458015,1.4809160305343512,-1.6641221374045803,-0.44921875,-0.0322265625,-0.247802734375,1.1525999999999998
0.6564885496183206,1.9236641221374047,-1.6488549618320612,-0.449462890625,-0.029541015625,-0.238037109375,1.1542999999999999
0.48854961832061067,1.786259541984733,-1.450381679389313,-0.445068359375,-0.031494140625,-0.229736328125,1.156
0.4732824427480916,1.816793893129771,-1.6488549618320612,-0.451416015625,-0.02880859375,-0.226318359375,1.1577
0.549618320610687,1.8473282442748091,-1.6030534351145038,-0.446533203125,-0.028076171875,-0.23193359375,1.1594
0.7633587786259542,1.9236641221374047,-1.786259541984733,-0.451904296875,-0.027099609375,-0.236572265625,1.1611
0.9312977099236641,1.9083969465648856,-1.6641221374045803,-0.4453125,-0.023681640625,-0.226318359375,1.1627999999999998
0.7022900763358778,2.045801526717557,-1.6488549618320612,-0.45166015625,-0.032958984375,-0.238525390625,1.1644999999999999
0.6106870229007634,1.9389312977099236,-1.6946564885496183,-0.448486328125,-0.03271484375,-0.237548828125,1.1662
0.5190839694656488,1.8625954198473282,-1.7099236641221374,-0.45166015625,-0.0283203125,-0.234619140625,1.1679
0.916030534351145,1.9389312977099236,-1.5419847328244274,-0.453125,-0.0283203125,-0.2373046875,1.1696
0.9923664122137404,1.984732824427481,-1.7404580152671756,-0.45166015625,-0.03515625,-0.236572265625,1.1713
0.7786259541984732,2.0,-1.6030534351145038,-0.450439453125,-0.031005859375,-0.234375,1.173
0.9465648854961832,2.0610687022900764,-1.6793893129770991,-0.451171875,-0.02294921875,-0.235595703125,1.1746999999999999
0.9007633587786259,2.0610687022900764,-1.7557251908396947,-0.447509765625,-0.02880859375,-0.236328125,1.1764
1.2671755725190839,2.1526717557251906,-1.7557251908396947,-0.447998046875,-0.028076171875,-0.2275390625,1.1781
1.3587786259541985,2.1068702290076335,-1.7557251908396947,-0.45068359375,-0.02783203125,-0.2392578125,1.1798
1.083969465648855,2.1526717557251906,-1.5419847328244274,-0.44775390625,-0.02587890625,-0.235595703125,1.1815
1.2213740458015268,2.183206106870229,-1.5725190839694656,-0.4443359375,-0.02880859375,-0.234619140625,1.1832
1.2366412213740459,2.2595419847328246,-1.5267175572519085,-0.448486328125,-0.03125,-0.235595703125,1.1848999999999998
1.282442748091603,2.2900763358778624,-1.3129770992366412,-0.4501953125,-0.025146484375,-0.235595703125,1.1865999999999999
1.465648854961832,2.3969465648854964,-1.6793893129770991,-0.449951171875,-0.030517578125,-0.2255859375,1.1883
1.465648854961832,2.4580152671755724,-1.3282442748091603,-0.449951171875,-0.0302734375,-0.235107421875,1.19
1.4961832061068703,2.366412213740458,-1.450381679389313,-0.44873046875,-0.03173828125,-0.236572265625,1.1917
1.6030534351145038,2.366412213740458,-1.3740458015267176,-0.443115234375,-0.029052734375,-0.235595703125,1.1934
1.6793893129770991,2.427480916030534,-1.4198473282442747,-0.44384765625,-0.03125,-0.240234375,1.1950999999999998
1.6641221374045803,2.2442748091603053,-1.4045801526717556,-0.447998046875,-0.029052734375,-0.235595703125,1.1967999999999999
1.7404580152671756,2.33587786259542,-1.3893129770992367,-0.444580078125,-0.029541015625,-0.236328125,1.1985
1.7251908396946565,2.0763358778625953,-1.3435114503816794,-0.4453125,-0.02685546875,-0.23388671875,1.2002
1.618320610687023,2.16793893129771,-1.3129770992366412,-0.4443359375,-0.033447265625,-0.23388671875,1.2019
1.8015267175572518,2.015267175572519,-1.2366412213740459,-0.44677734375,-0.033935546875,-0.245361328125,1.2036
1.83206106870229,2.16793893129771,-1.282442748091603,-0.44677734375,-0.02783203125,-0.241455078125,1.2053
2.0610687022900764,2.122137404580153,-1.251908396946565,-0.445068359375,-0.032470703125,-0.2333984375,1.2069999999999999
1.83206106870229,2.0,-1.4045801526717556,-0.44677734375,-0.031005859375,-0.24169921875,1.2086999999999999
1.8015267175572518,2.1374045801526718,-1.1908396946564885,-0.44677734375,-0.032470703125,-0.2412109375,1.2104
1.633587786259542,2.183206106870229,-1.2366412213740459,-0.446044921875,-0.0322265625,-0.2333984375,1.2121
1.8931297709923665,1.9083969465648856,-1.083969465648855,-0.448486328125,-0.026123046875,-0.244384765625,1.2138
1.83206106870229,2.0763358778625953,-1.1603053435114503,-0.44970703125,-0.0283203125,-0.23828125,1.2155
2.0,1.984732824427481,-1.099236641221374,-0.442626953125,-0.030029296875,-0.233154296875,1.2171999999999998
2.1068702290076335,2.122137404580153,-0.9770992366412213,-0.44189453125,-0.0283203125,-0.239990234375,1.2188999999999999
2.0,2.030534351145038,-0.8702290076335878,-0.446533203125,-0.03076171875,-0.2333984375,1.2206
2.045801526717557,2.2290076335877864,-1.1450381679389312,-0.447021484375,-0.028564453125,-0.2451171875,1.2223
1.7557251908396947,2.2595419847328246,-0.9923664122137404,-0.44677734375,-0.02978515625,-0.23828125,1.224
1.6793893129770991,2.015267175572519,-1.1603053435114503,-0.446533203125,-0.03173828125,-0.232421875,1.2257
1.8625954198473282,1.8931297709923665,-1.2061068702290076,-0.446044921875,-0.029052734375,-0.241943359375,1.2273999999999998
2.0916030534351147,1.8778625954198473,-1.251908396946565,-0.4462890625,-0.02734375,-0.229248046875,1.2290999999999999
1.984732824427481,1.8931297709923665,-1.1603053435114503,-0.4482421875,-0.02783203125,-0.232177734375,1.2308
2.0916030534351147,1.7557251908396947,-1.3587786259541985,-0.442626953125,-0.028076171875,-0.2373046875,1.2325
2.1068702290076335,1.6793893129770991,-1.4351145038167938,-0.447265625,-0.031494140625,-0.228759765625,1.2342
2.015267175572519,1.6946564885496183,-1.450381679389313,-0.445068359375,-0.029296875,-0.23876953125,1.2359
2.183206106870229,1.7404580152671756,-1.6946564885496183,-0.444580078125,-0.031982421875,-0.23583984375,1.2376
2.351145038167939,1.6793893129770991,-1.633587786259542,-0.449951171875,-0.025634765625,-0.24072265625,1.2392999999999998
2.1068702290076335,1.7099236641221374,-1.633587786259542,-0.447998046875,-0.030517578125,-0.241943359375,1.2409999999999999
2.5343511450381677,1.6641221374045803,-1.7404580152671756,-0.44775390625,-0.033447265625,-0.2392578125,1.2427
2.4122137404580153,1.816793893129771,-1.618320610687023,-0.451416015625,-0.029052734375,-0.23583984375,1.2444
2.3206106870229006,1.7557251908396947,-1.83206106870229,-0.44775390625,-0.03271484375,-0.24462890625,1.2461
2.2595419847328246,1.633587786259542,-1.633587786259542,-0.445068359375,-0.034423828125,-0.23876953125,1.2478
2.122137404580153,1.9694656488549618,-1.786259541984733,-0.449462890625,-0.029052734375,-0.23828125,1.2494999999999998
2.351145038167939,1.9694656488549618,-1.786259541984733,-0.447509765625,-0.027099609375,-0.24267578125,1.2511999999999999
2.381679389312977,1.8473282442748091,-1.9541984732824427,-0.4453125,-0.025634765625,-0.237060546875,1.2529
2.427480916030534,1.9236641221374047,-1.7557251908396947,-0.451171875,-0.037841796875,-0.230712890625,1.2546
2.4885496183206106,1.8625954198473282,-1.786259541984733,-0.443359375,-0.02685546875,-0.240234375,1.2563
2.381679389312977,2.015267175572519,-1.7709923664122138,-0.44775390625,-0.033935546875,-0.243896484375,1.258
2.5343511450381677,2.030534351145038,-1.786259541984733,-0.454833984375,-0.0322265625,-0.237548828125,1.2596999999999998
2.2900763358778624,1.9083969465648856,-1.633587786259542,-0.4423828125,-0.033203125,-0.24267578125,1.2613999999999999
2.3053435114503817,1.9236641221374047,-1.8473282442748091,-0.4462890625,-0.038818359375,-0.24072265625,1.2631
2.381679389312977,1.9236641221374047,-1.8625954198473282,-0.44677734375,-0.036376953125,-0.24658203125,1.2648
2.213740458015267,2.0763358778625953,-1.7251908396946565,-0.453125,-0.033447265625,-0.24072265625,1.2665
2.2900763358778624,1.83206106870229,-1.7099236641221374,-0.4462890625,-0.03564453125,-0.23046875,1.2682
2.381679389312977,1.8625954198473282,-1.9083969465648856,-0.448486328125,-0.037841796875,-0.23779296875,1.2699
2.1374045801526718,1.9541984732824427,-1.633587786259542,-0.44775390625,-0.038818359375,-0.23876953125,1.2715999999999998
2.1526717557251906,1.8931297709923665,-1.6793893129770991,-0.447509765625,-0.03369140625,-0.23291015625,1.2732999999999999
1.9083969465648856,1.8473282442748091,-1.6793893129770991,-0.443359375,-0.033447265625,-0.23828125,1.275
1.9389312977099236,1.8015267175572518,-1.6488549618320612,-0.447998046875,-0.030517578125,-0.243896484375,1.2767
1.984732824427481,2.030534351145038,-1.6030534351145038,-0.45068359375,-0.035888671875,-0.2333984375,1.2784
2.0,1.8778625954198473,-1.5419847328244274,-0.44580078125,-0.032470703125,-0.24560546875,1.2801
2.0763358778625953,1.9389312977099236,-1.465648854961832,-0.453125,-0.03564453125,-0.240478515625,1.2817999999999998
1.786259541984733,1.8931297709923665,-1.6946564885496183,-0.44580078125,-0.03173828125,-0.23486328125,1.2834999999999999
1.8931297709923665,2.015267175572519,-1.633587786259542,-0.451416015625,-0.038330078125,-0.236328125,1.2852
1.9541984732824427,2.0763358778625953,-1.5114503816793894,-0.452392578125,-0.03466796875,-0.2431640625,1.2869
1.816793893129771,1.8015267175572518,-1.450381679389313,-0.44580078125,-0.034912109375,-0.230712890625,1.2886
1.8778625954198473,1.9236641221374047,-1.5114503816793894,-0.447998046875,-0.03076171875,-0.240234375,1.2903
1.8473282442748091,2.045801526717557,-1.5267175572519085,-0.451171875,-0.035400390625,-0.235107421875,1.292
1.8778625954198473,1.9541984732824427,-1.5572519083969465,-0.448974609375,-0.03271484375,-0.234375,1.2936999999999999
1.816793893129771,1.8473282442748091,-1.618320610687023,-0.44970703125,-0.03271484375,-0.24072265625,1.2953999999999999
1.8931297709923665,2.0610687022900764,-1.7709923664122138,-0.445556640625,-0.02978515625,-0.23974609375,1.2971
1.8778625954198473,2.2595419847328246,-1.6641221374045803,-0.44970703125,-0.028564453125,-0.231689453125,1.2988
1.8778625954198473,1.984732824427481,-1.3740458015267176,-0.44287109375,-0.033447265625,-0.24560546875,1.3005
1.8778625954198473,1.8931297709923665,-1.6030534351145038,-0.447021484375,-0.03173828125,-0.23486328125,1.3022
1.786259541984733,1.9389312977099236,-1.6946564885496183,-0.44873046875,-0.034912109375,-0.232421875,1.3038999999999998
1.7709923664122138,2.0610687022900764,-1.618320610687023,-0.4404296875,-0.032958984375,-0.2333984375,1.3055999999999999
1.9389312977099236,2.0610687022900764,-1.4809160305343512,-0.44970703125,-0.03173828125,-0.238037109375,1.3073
1.8473282442748091,1.9541984732824427,-1.633587786259542,-0.44921875,-0.03369140625,-0.24365234375,1.309
1.7404580152671756,1.8778625954198473,-1.6793893129770991,-0.44677734375,-0.03466796875,-0.236328125,1.3107
2.015267175572519,1.984732824427481,-1.618320610687023,-0.443603515625,-0.03125,-0.2353515625,1.3124
1.8625954198473282,2.030534351145038,-1.4351145038167938,-0.44921875,-0.03564453125,-0.241943359375,1.3140999999999998
2.0,2.015267175572519,-1.7099236641221374,-0.44873046875,-0.034912109375,-0.237060546875,1.3157999999999999
1.816793893129771,1.9541984732824427,-1.7404580152671756,-0.446533203125,-0.032958984375,-0.23779296875,1.3175
1.8931297709923665,1.8473282442748091,-1.8015267175572518,-0.44384765625,-0.03271484375,-0.244384765625,1.3192
1.7557251908396947,1.7709923664122138,-1.6793893129770991,-0.447265625,-0.029296875,-0.247314453125,1.3209
1.7404580152671756,1.7099236641221374,-1.786259541984733,-0.447265625,-0.03369140625,-0.238525390625,1.3226
1.5725190839694656,1.7709923664122138,-1.9236641221374047,-0.442138671875,-0.03076171875,-0.23388671875,1.3243
1.7404580152671756,1.7251908396946565,-1.6793893129770991,-0.44580078125,-0.03515625,-0.239990234375,1.3259999999999998
1.633587786259542,1.816793893129771,-1.7099236641221374,-0.445068359375,-0.031005859375,-0.2373046875,1.3276999999999999
1.7404580152671756,1.7404580152671756,-1.8625954198473282,-0.44921875,-0.037109375,-0.237548828125,1.3294
1.6946564885496183,1.83206106870229,-1.5572519083969465,-0.446533203125,-0.032470703125,-0.234375,1.3311
1.6488549618320612,1.7709923664122138,-1.7557251908396947,-0.447021484375,-0.041015625,-0.231689453125,1.3328
1.6946564885496183,1.5419847328244274,-1.7557251908396947,-0.4462890625,-0.03564453125,-0.238525390625,1.3345
1.5877862595419847,1.7099236641221374,-1.633587786259542,-0.44775390625,-0.03515625,-0.23876953125,1.3361999999999998
1.5267175572519085,1.786259541984733,-1.6793893129770991,-0.443359375,-0.036865234375,-0.2373046875,1.3378999999999999
1.5725190839694656,1.816793893129771,-1.9236641221374047,-0.4443359375,-0.03466796875,-0.23193359375,1.3396
1.6793893129770991,1.7251908396946565,-1.6793893129770991,-0.44287109375,-0.0322265625,-0.237060546875,1.3413
1.5877862595419847,1.633587786259542,-1.6488549618320612,-0.44287109375,-0.03369140625,-0.23095703125,1.343
1.5725190839694656,1.6030534351145038,-1.8778625954198473,-0.4453125,-0.032470703125,-0.232421875,1.3447
1.5877862595419847,1.633587786259542,-1.7404580152671756,-0.447998046875,-0.03125,-0.238037109375,1.3463999999999998
1.4961832061068703,1.6030534351145038,-1.6488549618320612,-0.444580078125,-0.034423828125,-0.2333984375,1.3480999999999999
1.4045801526717556,1.618320610687023,-1.83206106870229,-0.44677734375,-0.033447265625,-0.232177734375,1.3497999999999999
1.5419847328244274,1.6488549618320612,-1.9083969465648856,-0.44580078125,-0.035400390625,-0.23681640625,1.3515
1.450381679389313,1.4961832061068703,-1.9389312977099236,-0.4423828125,-0.03125,-0.238525390625,1.3532
1.4198473282442747,1.4045801526717556,-1.83206106870229,-0.442626953125,-0.032958984375,-0.239990234375,1.3549
1.4198473282442747,1.4045801526717556,-1.8778625954198473,-0.444580078125,-0.034912109375,-0.23681640625,1.3566
1.3740458015267176,1.251908396946565,-1.7709923664122138,-0.44677734375,-0.035400390625,-0.23291015625,1.3582999999999998
1.3435114503816794,1.2366412213740459,-1.816793893129771,-0.445556640625,-0.033935546875,-0.24267578125,1.3599999999999999
1.4809160305343512,1.3129770992366412,-1.5877862595419847,-0.447265625,-0.02880859375,-0.240234375,1.3617
1.5419847328244274,1.282442748091603,-1.8778625954198473,-0.44677734375,-0.0361328125,-0.237060546875,1.3634
1.4198473282442747,1.251908396946565,-1.83206106870229,-0.444580078125,-0.0341796875,-0.24462890625,1.3651
1.3435114503816794,1.251908396946565,-1.9083969465648856,-0.442138671875,-0.031005859375,-0.234375,1.3668
1.297709923664122,1.297709923664122,-1.7404580152671756,-0.445068359375,-0.03076171875,-0.23193359375,1.3684999999999998
1.3740458015267176,1.282442748091603,-1.816793893129771,-0.447998046875,-0.03173828125,-0.23486328125,1.3701999999999999
1.282442748091603,1.251908396946565,-1.8625954198473282,-0.442626953125,-0.033447265625,-0.231689453125,1.3719
1.2366412213740459,1.2671755725190839,-1.9236641221374047,-0.44873046875,-0.0322265625,-0.234619140625,1.3736
1.2671755725190839,1.2671755725190839,-1.9541984732824427,-0.44677734375,-0.033935546875,-0.246337890625,1.3753
1.4198473282442747,1.2061068702290076,-1.9389312977099236,-0.44677734375,-0.032958984375,-0.24560546875,1.377
1.251908396946565,1.3282442748091603,-1.9083969465648856,-0.45068359375,-0.03369140625,-0.240478515625,1.3786999999999998
1.1603053435114503,1.5419847328244274,-2.0,-0.4423828125,-0.03076171875,-0.2333984375,1.3803999999999998
1.4045801526717556,1.2213740458015268,-1.816793893129771,-0.445068359375,-0.029052734375,-0.236572265625,1.3820999999999999
1.282442748091603,1.1297709923664123,-1.816793893129771,-0.447265625,-0.030029296875,-0.23193359375,1.3838
1.3282442748091603,1.4045801526717556,-2.0,-0.4453125,-0.0341796875,-0.24560546875,1.3855
1.5114503816793894,1.3282442748091603,-2.015267175572519,-0.448486328125,-0.037353515625,-0.246826171875,1.3872
1.4351145038167938,1.2061068702290076,-1.7404580152671756,-0.44384765625,-0.03466796875,-0.234375,1.3889
1.3740458015267176,1.2213740458015268,-1.9694656488549618,-0.448974609375,-0.026611328125,-0.241943359375,1.3905999999999998
1.3587786259541985,1.3740458015267176,-1.7404580152671756,-0.4482421875,-0.0322265625,-0.248046875,1.3922999999999999
1.3740458015267176,1.4198473282442747,-1.6793893129770991,-0.454833984375,-0.031494140625,-0.244873046875,1.394
1.618320610687023,1.297709923664122,-1.816793893129771,-0.44677734375,-0.031982421875,-0.231689453125,1.3957
1.3740458015267176,1.3435114503816794,-1.8473282442748091,-0.4443359375,-0.0302734375,-0.241455078125,1.3974
1.465648854961832,1.4198473282442747,-1.6641221374045803,-0.447998046875,-0.029296875,-0.24072265625,1.3991
1.4809160305343512,1.2213740458015268,-1.8473282442748091,-0.445068359375,-0.03857421875,-0.22998046875,1.4007999999999998
1.3282442748091603,1.3740458015267176,-1.6793893129770991,-0.4462890625,-0.034912109375,-0.238525390625,1.4024999999999999
1.4045801526717556,1.083969465648855,-1.8015267175572518,-0.447998046875,-0.0283203125,-0.2333984375,1.4042
1.5725190839694656,1.0687022900763359,-1.5877862595419847,-0.4501953125,-0.0341796875,-0.245361328125,1.4059
1.5877862595419847,1.083969465648855,-1.7251908396946565,-0.448486328125,-0.031982421875,-0.23583984375,1.4076
1.4198473282442747,1.2213740458015268,-1.6793893129770991,-0.450439453125,-0.0341796875,-0.229736328125,1.4093
1.4045801526717556,1.1755725190839694,-1.6641221374045803,-0.443115234375,-0.0361328125,-0.251220703125,1.411
1.5572519083969465,1.2061068702290076,-1.6030534351145038,-0.44091796875,-0.03125,-0.239990234375,1.4126999999999998
1.6030534351145038,1.1603053435114503,-1.6030534351145038,-0.450439453125,-0.02783203125,-0.25244140625,1.4143999999999999
1.6030534351145038,1.2213740458015268,-1.3129770992366412,-0.449462890625,-0.03125,-0.249755859375,1.4161
1.450381679389313,1.3435114503816794,-1.5572519083969465,-0.447509765625,-0.03515625,-0.240234375,1.4178
1.6793893129770991,1.1908396946564885,-1.450381679389313,-0.44921875,-0.028076171875,-0.236572265625,1.4195
1.5419847328244274,1.282442748091603,-1.5419847328244274,-0.450439453125,-0.03076171875,-0.24072265625,1.4212
1.5572519083969465,1.4045801526717556,-1.5572519083969465,-0.453125,-0.030517578125,-0.246337890625,1.4228999999999998
1.6793893129770991,1.3893129770992367,-1.3893129770992367,-0.452392578125,-0.0322265625,-0.23095703125,1.4245999999999999
1.6488549618320612,1.297709923664122,-1.4198473282442747,-0.453125,-0.034912109375,-0.237548828125,1.4263
1.83206106870229,1.3740458015267176,-1.6030534351145038,-0.44482421875,-0.032470703125,-0.2294921875,1.428
1.618320610687023,1.3740458015267176,-1.282442748091603,-0.446533203125,-0.03466796875,-0.233154296875,1.4297
1.633587786259542,1.4045801526717556,-1.4351145038167938,-0.447509765625,-0.030517578125,-0.240966796875,1.4314
1.786259541984733,1.4961832061068703,-1.1908396946564885,-0.448486328125,-0.03173828125,-0.247314453125,1.4330999999999998
1.7557251908396947,1.4809160305343512,-1.3587786259541985,-0.446533203125,-0.030029296875,-0.24169921875,1.4347999999999999
1.7099236641221374,1.5419847328244274,-1.282442748091603,-0.449462890625,-0.035888671875,-0.23095703125,1.4364999999999999
1.7404580152671756,1.3282442748091603,-1.4045801526717556,-0.447265625,-0.03564453125,-0.229736328125,1.4382
1.7709923664122138,1.4809160305343512,-1.1450381679389312,-0.45263671875,-0.03369140625,-0.242431640625,1.4399
1.7557251908396947,1.450381679389313,-1.099236641221374,-0.44580078125,-0.031494140625,-0.239013671875,1.4416
1.7557251908396947,1.251908396946565,-1.0076335877862594,-0.441650390625,-0.033447265625,-0.23779296875,1.4433
1.8015267175572518,1.4961832061068703,-1.251908396946565,-0.44482421875,-0.037353515625,-0.22802734375,1.4449999999999998
1.7557251908396947,1.4045801526717556,-1.083969465648855,-0.446044921875,-0.03125,-0.240478515625,1.4466999999999999
1.7709923664122138,1.465648854961832,-1.251908396946565,-0.451171875,-0.03125,-0.237060546875,1.4484
1.8625954198473282,1.465648854961832,-1.1145038167938932,-0.44775390625,-0.033447265625,-0.24560546875,1.4501
1.83206106870229,1.1755725190839694,-1.2671755725190839,-0.44677734375,-0.033935546875,-0.236572265625,1.4518
1.6793893129770991,1.3435114503816794,-1.2213740458015268,-0.4462890625,-0.03369140625,-0.232666015625,1.4535
1.8778625954198473,1.3587786259541985,-1.1755725190839694,-0.443603515625,-0.030517578125,-0.235107421875,1.4551999999999998
1.5419847328244274,1.282442748091603,-0.9770992366412213,-0.449462890625,-0.034912109375,-0.2421875,1.4568999999999999
1.633587786259542,1.297709923664122,-1.1145038167938932,-0.440673828125,-0.031494140625,-0.2373046875,1.4586
1.633587786259542,1.4045801526717556,-1.099236641221374,-0.443115234375,-0.03076171875,-0.23974609375,1.4603
1.6641221374045803,1.3587786259541985,-1.1755725190839694,-0.452392578125,-0.032958984375,-0.23876953125,1.462
1.7404580152671756,1.282442748091603,-1.251908396946565,-0.44091796875,-0.03466796875,-0.2412109375,1.4637
1.6641221374045803,1.4198473282442747,-1.1450381679389312,-0.446044921875,-0.033935546875,-0.237548828125,1.4653999999999998
1.6030534351145038,1.3740458015267176,-1.1908396946564885,-0.449462890625,-0.032958984375,-0.237548828125,1.4670999999999998
1.5877862595419847,1.4045801526717556,-1.083969465648855,-0.447509765625,-0.037109375,-0.242431640625,1.4687999999999999
1.5114503816793894,1.4198473282442747,-1.0076335877862594,-0.450439453125,-0.03662109375,-0.233642578125,1.4705
1.4809160305343512,1.3740458015267176,-1.0381679389312977,-0.451416015625,-0.033203125,-0.229248046875,1.4722
1.5725190839694656,1.3740458015267176,-1.3893129770992367,-0.451904296875,-0.03173828125,-0.234130859375,1.4739
1.450381679389313,1.4045801526717556,-1.2366412213740459,-0.44921875,-0.0322265625,-0.2314453125,1.4756
1.5419847328244274,1.282442748091603,-1.083969465648855,-0.445068359375,-0.03515625,-0.24169921875,1.4772999999999998
1.3893129770992367,1.450381679389313,-1.1908396946564885,-0.447998046875,-0.038818359375,-0.236083984375,1.4789999999999999
1.2061068702290076,1.3893129770992367,-1.099236641221374,-0.44384765625,-0.036865234375,-0.24462890625,1.4807
1.5419847328244274,1.3893129770992367,-1.1450381679389312,-0.44873046875,-0.0341796875,-0.244384765625,1.4824
1.4045801526717556,1.450381679389313,-1.1145038167938932,-0.4453125,-0.033203125,-0.2353515625,1.4841
1.2061068702290076,1.3587786259541985,-1.1908396946564885,-0.445556640625,-0.032958984375,-0.2412109375,1.4858
1.2061068702290076,1.2671755725190839,-1.1908396946564885,-0.44384765625,-0.0341796875,-0.237548828125,1.4874999999999998
1.2213740458015268,1.2671755725190839,-1.2213740458015268,-0.44970703125,-0.03515625,-0.241455078125,1.4891999999999999
1.251908396946565,1.4198473282442747,-1.2061068702290076,-0.449951171875,-0.03173828125,-0.242919921875,1.4909
1.1603053435114503,1.3587786259541985,-1.2213740458015268,-0.449951171875,-0.033203125,-0.24658203125,1.4926
1.1603053435114503,1.2061068702290076,-1.3435114503816794,-0.4462890625,-0.0322265625,-0.239013671875,1.4943
1.0076335877862594,1.3893129770992367,-1.3587786259541985,-0.445068359375,-0.03271484375,-0.23974609375,1.496
1.2061068702290076,1.3587786259541985,-1.083969465648855,-0.4482421875,-0.037841796875,-0.239501953125,1.4976999999999998
1.2366412213740459,1.2213740458015268,-1.2366412213740459,-0.4443359375,-0.03662109375,-0.240234375,1.4993999999999998
1.1145038167938932,1.1450381679389312,-1.2213740458015268,-0.44091796875,-0.03076171875,-0.24072265625,1.5010999999999999
1.1450381679389312,1.297709923664122,-1.2671755725190839,-0.447021484375,-0.03173828125,-0.237060546875,1.5028
1.0229007633587786,1.0229007633587786,-1.1450381679389312,-0.4443359375,-0.031005859375,-0.23779296875,1.5045
1.083969465648855,1.1755725190839694,-1.3587786259541985,-0.443115234375,-0.0302734375,-0.2392578125,1.5062
0.8854961832061069,1.1755725190839694,-1.2366412213740459,-0.445556640625,-0.03173828125,-0.234375,1.5079
0.8702290076335878,1.1297709923664123,-1.3893129770992367,-0.444580078125,-0.0283203125,-0.237060546875,1.5095999999999998
1.0076335877862594,1.2366412213740459,-1.4045801526717556,-0.449462890625,-0.0302734375,-0.23828125,1.5112999999999999
0.9770992366412213,1.1145038167938932,-1.2213740458015268,-0.439453125,-0.030517578125,-0.244140625,1.513
1.0381679389312977,0.7633587786259542,-1.450381679389313,-0.45361328125,-0.029052734375,-0.236083984375,1.5147
0.9770992366412213,0.8244274809160306,-1.4045801526717556,-0.44873046875,-0.02880859375,-0.239013671875,1.5164
0.8702290076335878,0.9923664122137404,-1.251908396946565,-0.4462890625,-0.03515625,-0.239990234375,1.5181
0.8244274809160306,0.9923664122137404,-1.251908396946565,-0.44775390625,-0.030029296875,-0.241943359375,1.5197999999999998
1.0687022900763359,1.1450381679389312,-1.5114503816793894,-0.44775390625,-0.02978515625,-0.24169921875,1.5214999999999999
0.9618320610687023,0.8549618320610687,-1.2366412213740459,-0.45068359375,-0.039306640625,-0.242431640625,1.5231999999999999
0.9618320610687023,0.9923664122137404,-1.282442748091603,-0.4501953125,-0.02880859375,-0.239013671875,1.5249
0.8702290076335878,0.8702290076335878,-1.2671755725190839,-0.44775390625,-0.029052734375,-0.23681640625,1.5266
0.8091603053435115,0.9465648854961832,-1.2061068702290076,-0.446533203125,-0.03271484375,-0.236572265625,1.5283
0.8854961832061069,0.8244274809160306,-1.1908396946564885,-0.444580078125,-0.03271484375,-0.23876953125,1.5299999999999998
0.8549618320610687,1.0381679389312977,-1.3893129770992367,-0.446044921875,-0.039306640625,-0.246826171875,1.5316999999999998
0.7022900763358778,0.9312977099236641,-1.3435114503816794,-0.4453125,-0.032958984375,-0.2373046875,1.5333999999999999
1.0229007633587786,0.8091603053435115,-1.3740458015267176,-0.44775390625,-0.032958984375,-0.23974609375,1.5351
0.8549618320610687,0.8702290076335878,-1.4198473282442747,-0.449951171875,-0.037109375,-0.24609375,1.5368
0.7022900763358778,0.8854961832061069,-1.450381679389313,-0.449462890625,-0.036376953125,-0.236083984375,1.5385
0.916030534351145,0.9007633587786259,-1.6030534351145038,-0.447998046875,-0.033935546875,-0.2333984375,1.5402
0.732824427480916,0.916030534351145,-1.4809160305343512,-0.444091796875,-0.033447265625,-0.238525390625,1.5418999999999998
0.8396946564885496,0.9770992366412213,-1.3740458015267176,-0.448486328125,-0.03271484375,-0.234619140625,1.5435999999999999
0.7633587786259542,0.8702290076335878,-1.3282442748091603,-0.4443359375,-0.03271484375,-0.24267578125,1.5453
0.4580152671755725,0.9465648854961832,-1.3282442748091603,-0.439697265625,-0.0390625,-0.233642578125,1.547
0.8396946564885496,0.9923664122137404,-1.5267175572519085,-0.449462890625,-0.03271484375,-0.23291015625,1.5487
0.8396946564885496,0.9770992366412213,-1.4351145038167938,-0.446044921875,-0.0390625,-0.233154296875,1.5504
0.5954198473282443,1.0381679389312977,-1.282442748091603,-0.448974609375,-0.0322265625,-0.236328125,1.5520999999999998
0.8396946564885496,1.0076335877862594,-1.251908396946565,-0.450927734375,-0.03369140625,-0.234375,1.5537999999999998
0.8702290076335878,0.8854961832061069,-1.251908396946565,-0.4482421875,-0.03125,-0.25,1.5554999999999999
0.7175572519083969,0.9923664122137404,-1.297709923664122,-0.446044921875,-0.0361328125,-0.24072265625,1.5572
0.9007633587786259,0.9923664122137404,-1.4045801526717556,-0.445556640625,-0.03466796875,-0.23974609375,1.5589
0.8854961832061069,0.9465648854961832,-1.2213740458015268,-0.449462890625,-0.02880859375,-0.22998046875,1.5606
0.7480916030534351,0.8702290076335878,-1.3435114503816794,-0.45068359375,-0.030029296875,-0.242431640625,1.5623
0.7633587786259542,0.9618320610687023,-1.1603053435114503,-0.447021484375,-0.036865234375,-0.24072265625,1.5639999999999998
0.916030534351145,0.8091603053435115,-1.450381679389313,-0.451171875,-0.034423828125,-0.238525390625,1.5656999999999999
0.8396946564885496,0.9007633587786259,-1.1603053435114503,-0.449951171875,-0.03515625,-0.241455078125,1.5674
0.8702290076335878,0.9312977099236641,-1.2061068702290076,-0.45068359375,-0.03271484375,-0.240234375,1.5691
0.9007633587786259,0.8549618320610687,-1.3893129770992367,-0.4462890625,-0.02783203125,-0.24462890625,1.5708
0.8244274809160306,1.1145038167938932,-1.4961832061068703,-0.44775390625,-0.03271484375,-0.244140625,1.5725
0.9618320610687023,1.0381679389312977,-1.282442748091603,-0.450439453125,-0.0322265625,-0.243896484375,1.5741999999999998
0.916030534351145,0.9007633587786259,-1.450381679389313,-0.446044921875,-0.030517578125,-0.238525390625,1.5758999999999999
0.9312977099236641,1.1908396946564885,-1.3893129770992367,-0.445556640625,-0.03173828125,-0.240966796875,1.5776
0.7786259541984732,1.083969465648855,-1.3587786259541985,-0.44580078125,-0.029052734375,-0.231201171875,1.5793
0.9770992366412213,0.9770992366412213,-1.1908396946564885,-0.443603515625,-0.034423828125,-0.23828125,1.581
0.8702290076335878,1.083969465648855,-1.282442748091603,-0.448974609375,-0.03271484375,-0.24462890625,1.5827
0.8244274809160306,1.2061068702290076,-1.2213740458015268,-0.44189453125,-0.03125,-0.235595703125,1.5843999999999998
1.2213740458015268,1.083969465648855,-1.3435114503816794,-0.447509765625,-0.031982421875,-0.232666015625,1.5860999999999998
0.9923664122137404,1.282442748091603,-1.2671755725190839,-0.44775390625,-0.034423828125,-0.2353515625,1.5877999999999999
0.8244274809160306,0.9312977099236641,-1.3740458015267176,-0.44970703125,-0.0302734375,-0.23193359375,1.5895
1.0687022900763359,1.0076335877862594,-1.3435114503816794,-0.451904296875,-0.034423828125,-0.240234375,1.5912
1.083969465648855,1.1603053435114503,-1.3587786259541985,-0.446044921875,-0.032470703125,-0.2333984375,1.5929
0.9618320610687023,1.099236641221374,-1.4045801526717556,-0.446044921875,-0.030517578125,-0.236572265625,1.5946
1.1603053435114503,1.1755725190839694,-1.465648854961832,-0.445556640625,-0.032958984375,-0.23193359375,1.5962999999999998
1.083969465648855,1.1145038167938932,-1.3129770992366412,-0.451171875,-0.030517578125,-0.23828125,1.5979999999999999
1.282442748091603,0.9770992366412213,-1.450381679389313,-0.447998046875,-0.0302734375,-0.235595703125,1.5997
1.3435114503816794,1.1145038167938932,-1.3893129770992367,-0.449951171875,-0.031005859375,-0.226806640625,1.6014
1.450381679389313,1.099236641221374,-1.618320610687023,-0.447509765625,-0.03076171875,-0.237060546875,1.6031
1.1297709923664123,0.9007633587786259,-1.3893129770992367,-0.448486328125,-0.033447265625,-0.240234375,1.6048
1.1145038167938932,1.0076335877862594,-1.4045801526717556,-0.4453125,-0.027587890625,-0.246337890625,1.6064999999999998
1.4351145038167938,1.083969465648855,-1.4809160305343512,-0.447265625,-0.030517578125,-0.23291015625,1.6081999999999999
1.3587786259541985,0.8091603053435115,-1.633587786259542,-0.448486328125,-0.03369140625,-0.2392578125,1.6098999999999999
1.1603053435114503,1.0076335877862594,-1.6030534351145038,-0.446044921875,-0.037109375,-0.2314453125,1.6116
1.3129770992366412,1.0381679389312977,-1.5725190839694656,-0.44921875,-0.03076171875,-0.232421875,1.6133
1.4351145038167938,1.0381679389312977,-1.297709923664122,-0.4443359375,-0.02783203125,-0.240234375,1.615
1.3282442748091603,1.0381679389312977,-1.450381679389313,-0.444091796875,-0.027587890625,-0.236572265625,1.6166999999999998
1.4351145038167938,0.9007633587786259,-1.4961832061068703,-0.447998046875,-0.0322265625,-0.23876953125,1.6183999999999998
1.4961832061068703,1.0229007633587786,-1.5267175572519085,-0.454833984375,-0.03125,-0.243896484375,1.6200999999999999
1.2671755725190839,1.0687022900763359,-1.5572519083969465,-0.4501953125,-0.03564453125,-0.2421875,1.6218
1.4351145038167938,1.0534351145038168,-1.5877862595419847,-0.44677734375,-0.032958984375,-0.23828125,1.6235
1.5419847328244274,0.9923664122137404,-1.2671755725190839,-0.451171875,-0.034423828125,-0.2314453125,1.6252
1.5114503816793894,1.1297709923664123,-1.4045801526717556,-0.445068359375,-0.0302734375,-0.235107421875,1.6269
1.4351145038167938,1.083969465648855,-1.5572519083969465,-0.446533203125,-0.02734375,-0.232666015625,1.6285999999999998
1.5877862595419847,1.0076335877862594,-1.4045801526717556,-0.44921875,-0.03125,-0.238525390625,1.6302999999999999
1.3740458015267176,1.0534351145038168,-1.3740458015267176,-0.445068359375,-0.028564453125,-0.23828125,1.632
1.5419847328244274,0.8549618320610687,-1.5267175572519085,-0.44775390625,-0.03173828125,-0.239990234375,1.6337
1.5877862595419847,0.9923664122137404,-1.3740458015267176,-0.450927734375,-0.035400390625,-0.237548828125,1.6354
1.4809160305343512,1.083969465648855,-1.5419847328244274,-0.44970703125,-0.029296875,-0.22900390625,1.6371
1.4961832061068703,0.8702290076335878,-1.5572519083969465,-0.44873046875,-0.033203125,-0.23681640625,1.6387999999999998
1.7404580152671756,1.0534351145038168,-1.5877862595419847,-0.445556640625,-0.028076171875,-0.242919921875,1.6404999999999998
1.8015267175572518,0.8549618320610687,-1.4045801526717556,-0.445068359375,-0.02783203125,-0.23828125,1.6421999999999999
1.633587786259542,0.8244274809160306,-1.5725190839694656,-0.447265625,-0.03173828125,-0.2353515625,1.6439
1.7251908396946565,0.8396946564885496,-1.5877862595419847,-0.44482421875,-0.0341796875,-0.237060546875,1.6456
1.5877862595419847,1.0076335877862594,-1.3435114503816794,-0.447265625,-0.035400390625,-0.24658203125,1.6473
1.6946564885496183,0.8702290076335878,-1.465648854961832,-0.444091796875,-0.034912109375,-0.23095703125,1.6489999999999998
1.7251908396946565,0.8702290076335878,-1.6030534351145038,-0.445556640625,-0.029541015625,-0.235595703125,1.6506999999999998
1.618320610687023,0.9007633587786259,-1.5572519083969465,-0.447021484375,-0.032470703125,-0.233642578125,1.6523999999999999
1.6488549618320612,0.9770992366412213,-1.618320610687023,-0.450439453125,-0.033447265625,-0.232177734375,1.6541
1.7251908396946565,0.8854961832061069,-1.5419847328244274,-0.45166015625,-0.02783203125,-0.237060546875,1.6558
1.7099236641221374,0.9618320610687023,-1.5877862595419847,-0.45068359375,-0.029296875,-0.23828125,1.6575
1.7557251908396947,1.1297709923664123,-1.4351145038167938,-0.444091796875,-0.027099609375,-0.248779296875,1.6592
1.6641221374045803,0.9770992366412213,-1.4351145038167938,-0.441650390625,-0.0361328125,-0.24951171875,1.6608999999999998
1.6488549618320612,1.0534351145038168,-1.3587786259541985,-0.4482421875,-0.03271484375,-0.231689453125,1.6625999999999999
1.7099236641221374,1.2366412213740459,-1.5267175572519085,-0.4462890625,-0.0361328125,-0.236083984375,1.6643
1.8625954198473282,1.1603053435114503,-1.4961832061068703,-0.45068359375,-0.0322265625,-0.240966796875,1.666
2.045801526717557,1.1603053435114503,-1.251908396946565,-0.45068359375,-0.034912109375,-0.232177734375,1.6677
1.816793893129771,1.1908396946564885,-1.5877862595419847,-0.447021484375,-0.029296875,-0.232177734375,1.6694
1.8931297709923665,1.1297709923664123,-1.5877862595419847,-0.448486328125,-0.03076171875,-0.22705078125,1.6710999999999998
1.7404580152671756,1.083969465648855,-1.465648854961832,-0.447265625,-0.034912109375,-0.24072265625,1.6727999999999998
1.7099236641221374,1.1297709923664123,-1.5572519083969465,-0.4482421875,-0.02734375,-0.233642578125,1.6744999999999999
1.5877862595419847,1.2061068702290076,-1.4045801526717556,-0.44970703125,-0.033447265625,-0.233154296875,1.6762
1.8778625954198473,1.2671755725190839,-1.450381679389313,-0.448486328125,-0.031494140625,-0.238525390625,1.6779
2.015267175572519,1.1297709923664123,-1.6030534351145038,-0.44970703125,-0.03369140625,-0.236083984375,1.6796
1.786259541984733,1.1908396946564885,-1.465648854961832,-0.447998046875,-0.032958984375,-0.23388671875,1.6813
1.6641221374045803,1.1755725190839694,-1.5572519083969465,-0.44287109375,-0.033935546875,-0.229736328125,1.6829999999999998
1.4809160305343512,1.2366412213740459,-1.5572519083969465,-0.44677734375,-0.030029296875,-0.240966796875,1.6846999999999999
1.5725190839694656,1.1908396946564885,-1.5114503816793894,-0.44970703125,-0.0263671875,-0.2451171875,1.6864
1.83206106870229,1.1603053435114503,-1.633587786259542,-0.446533203125,-0.03076171875,-0.2421875,1.6881
1.786259541984733,1.251908396946565,-1.5114503816793894,-0.45068359375,-0.031982421875,-0.2373046875,1.6898
1.8473282442748091,1.2671755725190839,-1.297709923664122,-0.444580078125,-0.03125,-0.246337890625,1.6915
1.7251908396946565,1.1450381679389312,-1.5114503816793894,-0.4423828125,-0.034912109375,-0.24462890625,1.6931999999999998
1.6641221374045803,1.4351145038167938,-1.450381679389313,-0.447509765625,-0.038330078125,-0.240478515625,1.6948999999999999
1.5419847328244274,1.4809160305343512,-1.3893129770992367,-0.4453125,-0.033447265625,-0.231689453125,1.6965999999999999
1.6793893129770991,1.2061068702290076,-1.3282442748091603,-0.442138671875,-0.032958984375,-0.229248046875,1.6983
1.7251908396946565,1.282442748091603,-1.297709923664122,-0.443603515625,-0.032470703125,-0.229736328125,1.7
1.6488549618320612,1.4045801526717556,-1.4351145038167938,-0.451171875,-0.032958984375,-0.24267578125,1.7017
1.5114503816793894,1.3282442748091603,-1.5267175572519085,-0.44873046875,-0.0380859375,-0.24658203125,1.7033999999999998
1.5114503816793894,1.4351145038167938,-1.4351145038167938,-0.4453125,-0.0322265625,-0.247802734375,1.7050999999999998
1.4045801526717556,1.2366412213740459,-1.3587786259541985,-0.44873046875,-0.032470703125,-0.242919921875,1.7067999999999999
1.5877862595419847,1.3282442748091603,-1.3587786259541985,-0.445556640625,-0.03125,-0.244873046875,1.7085
1.5419847328244274,1.3435114503816794,-1.4198473282442747,-0.448486328125,-0.034423828125,-0.231689453125,1.7102
1.5114503816793894,1.1908396946564885,-1.251908396946565,-0.445556640625,-0.033447265625,-0.234130859375,1.7119
1.1603053435114503,1.1603053435114503,-1.3587786259541985,-0.44677734375,-0.032470703125,-0.23876953125,1.7136
1.4809160305343512,1.2213740458015268,-1.3893129770992367,-0.443603515625,-0.035888671875,-0.239990234375,1.7152999999999998
1.4198473282442747,1.4961832061068703,-1.1908396946564885,-0.446533203125,-0.034912109375,-0.243408203125,1.7169999999999999
1.1297709923664123,1.297709923664122,-1.3129770992366412,-0.44873046875,-0.036865234375,-0.236328125,1.7187
0.9923664122137404,1.3282442748091603,-1.1603053435114503,-0.445556640625,-0.03515625,-0.23046875,1.7204
0.9007633587786259,1.3282442748091603,-1.297709923664122,-0.444091796875,-0.03564453125,-0.23291015625,1.7221
1.1450381679389312,1.3435114503816794,-1.2061068702290076,-0.447509765625,-0.032470703125,-0.234375,1.7238
1.0381679389312977,1.297709923664122,-1.099236641221374,-0.445068359375,-0.03271484375,-0.2431640625,1.7254999999999998
0.9007633587786259,1.282442748091603,-1.1908396946564885,-0.44580078125,-0.033935546875,-0.236083984375,1.7271999999999998
0.8396946564885496,1.297709923664122,-1.3282442748091603,-0.446533203125,-0.031982421875,-0.241943359375,1.7288999999999999
0.8854961832061069,1.3435114503816794,-1.099236641221374,-0.4453125,-0.029296875,-0.23583984375,1.7306
0.8549618320610687,1.2061068702290076,-1.1450381679389312,-0.44775390625,-0.035888671875,-0.23828125,1.7323
0.9465648854961832,1.1908396946564885,-1.6030534351145038,-0.447021484375,-0.037841796875,-0.236083984375,1.734
0.8396946564885496,1.2213740458015268,-1.1908396946564885,-0.447265625,-0.037353515625,-0.2421875,1.7356999999999998
0.9312977099236641,1.251908396946565,-1.3435114503816794,-0.448486328125,-0.033935546875,-0.23388671875,1.7373999999999998
0.8396946564885496,1.1297709923664123,-1.3129770992366412,-0.4453125,-0.033447265625,-0.234130859375,1.7390999999999999
0.9923664122137404,1.083969465648855,-1.3893129770992367,-0.448974609375,-0.035400390625,-0.22900390625,1.7408
0.8854961832061069,1.1755725190839694,-1.4351145038167938,-0.445068359375,-0.029541015625,-0.2294921875,1.7425
1.0076335877862594,1.2366412213740459,-1.4961832061068703,-0.44677734375,-0.0322265625,-0.23388671875,1.7442
1.0229007633587786,1.2061068702290076,-1.3435114503816794,-0.447265625,-0.0322265625,-0.236572265625,1.7459
0.9923664122137404,1.1603053435114503,-1.6641221374045803,-0.4453125,-0.03466796875,-0.242431640625,1.7475999999999998
0.8549618320610687,1.0534351145038168,-1.3282442748091603,-0.447021484375,-0.0322265625,-0.236328125,1.7492999999999999
0.9618320610687023,1.0229007633587786,-1.618320610687023,-0.446533203125,-0.03369140625,-0.240966796875,1.751
0.9312977099236641,0.916030534351145,-1.3893129770992367,-0.446533203125,-0.029052734375,-0.23974609375,1.7527
1.0687022900763359,0.9312977099236641,-1.5419847328244274,-0.443115234375,-0.031494140625,-0.237060546875,1.7544
1.0381679389312977,0.8854961832061069,-1.5877862595419847,-0.4423828125,-0.0302734375,-0.233642578125,1.7561
0.8396946564885496,0.8854961832061069,-1.4351145038167938,-0.44873046875,-0.03125,-0.24072265625,1.7577999999999998
1.0229007633587786,0.916030534351145,-1.5267175572519085,-0.446533203125,-0.0322265625,-0.24462890625,1.7594999999999998
0.7786259541984732,0.7022900763358778,-1.786259541984733,-0.445068359375,-0.02783203125,-0.2470703125,1.7611999999999999
1.099236641221374,0.8854961832061069,-1.6488549618320612,-0.445556640625,-0.029296875,-0.237548828125,1.7629
0.8702290076335878,0.916030534351145,-1.7709923664122138,-0.4453125,-0.031494140625,-0.239501953125,1.7646
0.8091603053435115,0.8702290076335878,-1.6488549618320612,-0.44921875,-0.0302734375,-0.237548828125,1.7663
1.0076335877862594,0.8702290076335878,-1.7404580152671756,-0.447509765625,-0.03125,-0.2412109375,1.7679999999999998
1.0076335877862594,0.8854961832061069,-1.6946564885496183,-0.4453125,-0.031005859375,-0.23388671875,1.7696999999999998
0.8854961832061069,0.8854961832061069,-1.83206106870229,-0.450927734375,-0.033203125,-0.24560546875,1.7713999999999999
0.8091603053435115,1.0687022900763359,-1.7709923664122138,-0.447998046875,-0.031494140625,-0.246337890625,1.7731
0.8854961832061069,0.9923664122137404,-1.8778625954198473,-0.45166015625,-0.031005859375,-0.245849609375,1.7748
1.1297709923664123,0.916030534351145,-1.984732824427481,-0.450439453125,-0.029541015625,-0.2451171875,1.7765
1.099236641221374,0.9923664122137404,-1.8473282442748091,-0.447265625,-0.030517578125,-0.24609375,1.7782
0.916030534351145,1.099236641221374,-1.8625954198473282,-0.447509765625,-0.02734375,-0.243408203125,1.7798999999999998
1.0534351145038168,1.1450381679389312,-2.030534351145038,-0.447265625,-0.0283203125,-0.23779296875,1.7815999999999999
1.0534351145038168,0.9770992366412213,-1.9694656488549618,-0.454345703125,-0.03173828125,-0.238525390625,1.7832999999999999
1.1755725190839694,1.2061068702290076,-1.9083969465648856,-0.447998046875,-0.034423828125,-0.246337890625,1.785
1.2213740458015268,1.282442748091603,-1.8625954198473282,-0.4453125,-0.03271484375,-0.244873046875,1.7867
1.2213740458015268,1.3282442748091603,-1.984732824427481,-0.44921875,-0.0322265625,-0.243896484375,1.7884
1.1145038167938932,1.1755725190839694,-1.9236641221374047,-0.44970703125,-0.02783203125,-0.23974609375,1.7900999999999998
1.3740458015267176,1.3282442748091603,-1.9083969465648856,-0.44921875,-0.0341796875,-0.2275390625,1.7917999999999998
