gyrox1,gyroy1,gyroz1,accelx1,accely1,accelz1,Time
0.4580152671755725,1.786259541984733,-1.0687022900763359,0.086181640625,-0.233154296875,-0.5703125,0.0
0.4122137404580153,1.9694656488549618,-1.0381679389312977,0.082275390625,-0.2314453125,-0.573974609375,0.0017
0.5343511450381679,1.8625954198473282,-1.1145038167938932,0.083251953125,-0.227783203125,-0.565673828125,0.0034
0.6870229007633588,1.5114503816793894,-1.1297709923664123,0.08447265625,-0.2314453125,-0.57080078125,0.0050999999999999995
0.6870229007633588,1.5267175572519085,-0.9770992366412213,0.08642578125,-0.2265625,-0.57666015625,0.0068
0.7786259541984732,1.3740458015267176,-1.083969465648855,0.085205078125,-0.231689453125,-0.573486328125,0.008499999999999999
0.7175572519083969,1.4809160305343512,-0.9923664122137404,0.084228515625,-0.228759765625,-0.568603515625,0.010199999999999999
0.9312977099236641,1.251908396946565,-0.9618320610687023,0.08740234375,-0.22998046875,-0.572509765625,0.011899999999999999
0.9007633587786259,1.2671755725190839,-1.1755725190839694,0.083251953125,-0.234375,-0.572998046875,0.0136
1.1297709923664123,1.3740458015267176,-1.0687022900763359,0.08203125,-0.23046875,-0.57763671875,0.0153
0.9007633587786259,1.297709923664122,-1.0534351145038168,0.0791015625,-0.229736328125,-0.572998046875,0.016999999999999998
0.916030534351145,1.2061068702290076,-1.1297709923664123,0.08056640625,-0.23291015625,-0.569580078125,0.018699999999999998
1.0076335877862594,1.3282442748091603,-0.9923664122137404,0.085693359375,-0.22412109375,-0.5703125,0.020399999999999998
0.9007633587786259,1.1145038167938932,-1.0687022900763359,0.08203125,-0.223388671875,-0.57373046875,0.022099999999999998
0.7175572519083969,1.2213740458015268,-1.3740458015267176,0.080322265625,-0.224365234375,-0.57275390625,0.023799999999999998
0.6564885496183206,1.0534351145038168,-1.083969465648855,0.081298828125,-0.226806640625,-0.567626953125,0.0255
0.6870229007633588,1.099236641221374,-1.1755725190839694,0.078369140625,-0.232421875,-0.570068359375,0.0272
0.6412213740458015,1.0229007633587786,-1.0534351145038168,0.08154296875,-0.2294921875,-0.564208984375,0.0289
0.4732824427480916,1.1603053435114503,-1.1908396946564885,0.080322265625,-0.231201171875,-0.5673828125,0.0306
0.5038167938931297,1.099236641221374,-1.099236641221374,0.0830078125,-0.231201171875,-0.568603515625,0.032299999999999995
0.5343511450381679,1.1297709923664123,-1.251908396946565,0.0859375,-0.230712890625,-0.576171875,0.033999999999999996
0.5038167938931297,1.083969465648855,-1.1755725190839694,0.084228515625,-0.228271484375,-0.5732421875,0.035699999999999996
0.32061068702290074,1.0687022900763359,-1.1603053435114503,0.082275390625,-0.236083984375,-0.570556640625,0.037399999999999996
0.5343511450381679,1.1755725190839694,-1.1145038167938932,0.08056640625,-0.23486328125,-0.574462890625,0.039099999999999996
0.366412213740458,0.8702290076335878,-1.282442748091603,0.083740234375,-0.23388671875,-0.568115234375,0.040799999999999996
0.5038167938931297,1.0534351145038168,-1.1450381679389312,0.08251953125,-0.23046875,-0.5751953125,0.042499999999999996
0.48854961832061067,1.1908396946564885,-1.2366412213740459,0.08056640625,-0.231689453125,-0.571044921875,0.044199999999999996
0.5954198473282443,0.8244274809160306,-1.1450381679389312,0.0771484375,-0.23388671875,-0.5654296875,0.045899999999999996
0.33587786259541985,0.9618320610687023,-1.2213740458015268,0.07861328125,-0.2333984375,-0.576904296875,0.047599999999999996
0.3511450381679389,0.916030534351145,-1.282442748091603,0.077880859375,-0.232421875,-0.570556640625,0.0493
0.3511450381679389,0.9923664122137404,-1.3893129770992367,0.078857421875,-0.232666015625,-0.573486328125,0.051
0.015267175572519083,1.0381679389312977,-1.2213740458015268,0.0869140625,-0.23095703125,-0.57568359375,0.0527
0.1984732824427481,0.9465648854961832,-1.6030534351145038,0.083251953125,-0.234619140625,-0.57373046875,0.0544
0.015267175572519083,0.8396946564885496,-1.3740458015267176,0.082275390625,-0.234619140625,-0.580810546875,0.0561
-0.061068702290076333,0.916030534351145,-1.5114503816793894,0.08154296875,-0.22900390625,-0.56982421875,0.0578
-0.015267175572519083,0.8549618320610687,-1.5267175572519085,0.078857421875,-0.23291015625,-0.565185546875,0.0595
-0.183206106870229,1.0229007633587786,-1.633587786259542,0.07763671875,-0.235107421875,-0.570556640625,0.0612
-0.16793893129770993,1.1450381679389312,-1.3740458015267176,0.078857421875,-0.23046875,-0.572021484375,0.0629
-0.3053435114503817,1.1297709923664123,-1.6488549618320612,0.076904296875,-0.227783203125,-0.56640625,0.06459999999999999
-0.21374045801526717,0.8702290076335878,-1.5419847328244274,0.0791015625,-0.229248046875,-0.576171875,0.0663
-0.33587786259541985,1.0229007633587786,-1.6793893129770991,0.080322265625,-0.23046875,-0.583251953125,0.06799999999999999
-0.366412213740458,1.1755725190839694,-1.5725190839694656,0.07763671875,-0.236083984375,-0.5712890625,0.0697
-0.3053435114503817,1.2061068702290076,-1.7251908396946565,0.078369140625,-0.23046875,-0.572265625,0.07139999999999999
-0.12213740458015267,1.0076335877862594,-1.7404580152671756,0.082275390625,-0.228759765625,-0.568359375,0.0731
-0.22900763358778625,1.0687022900763359,-1.6488549618320612,0.078857421875,-0.226318359375,-0.56591796875,0.07479999999999999
-0.2595419847328244,1.2671755725190839,-1.6641221374045803,0.07666015625,-0.225830078125,-0.568603515625,0.0765
-0.32061068702290074,0.9618320610687023,-1.8931297709923665,0.081787109375,-0.22900390625,-0.568603515625,0.07819999999999999
-0.15267175572519084,1.083969465648855,-1.6793893129770991,0.0830078125,-0.220947265625,-0.577392578125,0.0799
-0.22900763358778625,1.2366412213740459,-1.8931297709923665,0.08447265625,-0.2314453125,-0.56982421875,0.08159999999999999
-0.015267175572519083,1.0381679389312977,-1.8625954198473282,0.084228515625,-0.227783203125,-0.569091796875,0.0833
-0.12213740458015267,1.1145038167938932,-1.8015267175572518,0.081298828125,-0.221923828125,-0.573486328125,0.08499999999999999
-0.030534351145038167,1.4045801526717556,-1.633587786259542,0.083740234375,-0.224609375,-0.57275390625,0.0867
0.061068702290076333,1.282442748091603,-1.8473282442748091,0.085205078125,-0.22802734375,-0.572998046875,0.08839999999999999
-0.04580152671755725,1.099236641221374,-1.6030534351145038,0.08349609375,-0.221435546875,-0.574462890625,0.0901
0.12213740458015267,1.3893129770992367,-1.9083969465648856,0.08203125,-0.22509765625,-0.569091796875,0.09179999999999999
0.13740458015267176,1.4198473282442747,-1.8015267175572518,0.08154296875,-0.224853515625,-0.572998046875,0.0935
0.183206106870229,1.1450381679389312,-2.030534351145038,0.081298828125,-0.2294921875,-0.57421875,0.09519999999999999
0.3816793893129771,1.2671755725190839,-1.6488549618320612,0.086669921875,-0.225341796875,-0.570556640625,0.0969
0.42748091603053434,1.465648854961832,-1.83206106870229,0.08740234375,-0.219482421875,-0.57861328125,0.0986
0.5648854961832062,1.450381679389313,-1.9236641221374047,0.08642578125,-0.222412109375,-0.573486328125,0.1003
0.6717557251908397,1.450381679389313,-1.984732824427481,0.081298828125,-0.226806640625,-0.573486328125,0.102
0.6259541984732825,1.4809160305343512,-1.6946564885496183,0.087158203125,-0.231689453125,-0.57568359375,0.1037
0.8549618320610687,1.5419847328244274,-2.0,0.08544921875,-0.230224609375,-0.582275390625,0.1054
0.7786259541984732,1.5419847328244274,-1.984732824427481,0.084228515625,-0.227783203125,-0.575439453125,0.1071
0.7633587786259542,1.633587786259542,-1.8778625954198473,0.083740234375,-0.22900390625,-0.57080078125,0.1088
0.8396946564885496,1.6030534351145038,-1.7557251908396947,0.085205078125,-0.2294921875,-0.569580078125,0.11049999999999999
0.8854961832061069,1.465648854961832,-1.984732824427481,0.082763671875,-0.2275390625,-0.577880859375,0.1122
0.8549618320610687,1.5114503816793894,-1.8931297709923665,0.086181640625,-0.2265625,-0.576904296875,0.11389999999999999
0.8854961832061069,1.4809160305343512,-1.8778625954198473,0.0859375,-0.2265625,-0.56982421875,0.1156
0.8244274809160306,1.7099236641221374,-1.5725190839694656,0.079345703125,-0.23046875,-0.568115234375,0.11729999999999999
1.099236641221374,1.7709923664122138,-1.6793893129770991,0.087158203125,-0.23095703125,-0.5634765625,0.119
1.2671755725190839,1.6946564885496183,-1.5419847328244274,0.081787109375,-0.2265625,-0.568603515625,0.12069999999999999
1.1755725190839694,1.7709923664122138,-1.6641221374045803,0.083984375,-0.2265625,-0.561767578125,0.1224
1.2366412213740459,1.7099236641221374,-1.5572519083969465,0.085205078125,-0.225341796875,-0.572509765625,0.12409999999999999
1.1450381679389312,1.6793893129770991,-1.6030534351145038,0.084716796875,-0.22998046875,-0.57421875,0.1258
1.297709923664122,1.7099236641221374,-1.6488549618320612,0.083251953125,-0.23193359375,-0.572265625,0.1275
1.2366412213740459,1.6793893129770991,-1.6488549618320612,0.08447265625,-0.2275390625,-0.57177734375,0.12919999999999998
1.0687022900763359,1.6946564885496183,-1.465648854961832,0.08447265625,-0.224609375,-0.568359375,0.1309
1.0229007633587786,1.7099236641221374,-1.5572519083969465,0.089599609375,-0.2265625,-0.5693359375,0.1326
1.2671755725190839,1.6030534351145038,-1.6641221374045803,0.0849609375,-0.227294921875,-0.572509765625,0.1343
1.3740458015267176,1.633587786259542,-1.6030534351145038,0.078857421875,-0.232177734375,-0.578125,0.13599999999999998
1.083969465648855,1.5877862595419847,-1.5419847328244274,0.0859375,-0.227783203125,-0.576171875,0.1377
1.0076335877862594,1.7557251908396947,-1.3893129770992367,0.08251953125,-0.230712890625,-0.573486328125,0.1394
1.1145038167938932,1.786259541984733,-1.297709923664122,0.084228515625,-0.2265625,-0.572265625,0.1411
1.099236641221374,1.9541984732824427,-1.450381679389313,0.083740234375,-0.227294921875,-0.567138671875,0.14279999999999998
0.9618320610687023,2.015267175572519,-1.4809160305343512,0.0810546875,-0.228515625,-0.57763671875,0.1445
1.1450381679389312,2.1068702290076335,-1.4045801526717556,0.0830078125,-0.22509765625,-0.569091796875,0.1462
1.1755725190839694,2.015267175572519,-1.1755725190839694,0.084716796875,-0.2236328125,-0.572509765625,0.1479
1.251908396946565,1.8015267175572518,-1.4809160305343512,0.08447265625,-0.22412109375,-0.567626953125,0.14959999999999998
1.251908396946565,1.8625954198473282,-1.4809160305343512,0.084228515625,-0.2314453125,-0.572998046875,0.1513
1.3435114503816794,1.9236641221374047,-1.297709923664122,0.08154296875,-0.228271484375,-0.569091796875,0.153
1.4351145038167938,2.045801526717557,-1.1908396946564885,0.0771484375,-0.22998046875,-0.572998046875,0.1547
1.4045801526717556,1.8778625954198473,-1.3282442748091603,0.084716796875,-0.226318359375,-0.570556640625,0.15639999999999998
1.3587786259541985,1.9389312977099236,-1.251908396946565,0.081787109375,-0.22900390625,-0.5703125,0.1581
1.3282442748091603,2.0610687022900764,-1.3893129770992367,0.0869140625,-0.230712890625,-0.5732421875,0.1598
1.4351145038167938,1.9541984732824427,-1.3587786259541985,0.087646484375,-0.22998046875,-0.57177734375,0.1615
1.297709923664122,1.984732824427481,-1.251908396946565,0.082763671875,-0.226318359375,-0.56103515625,0.16319999999999998
1.297709923664122,1.9083969465648856,-1.3893129770992367,0.083251953125,-0.22509765625,-0.5751953125,0.1649
1.5419847328244274,1.9694656488549618,-1.0534351145038168,0.080810546875,-0.2294921875,-0.578125,0.1666
1.4351145038167938,1.8015267175572518,-1.1603053435114503,0.0849609375,-0.22119140625,-0.57177734375,0.16829999999999998
1.3893129770992367,1.9389312977099236,-1.1908396946564885,0.0888671875,-0.2314453125,-0.572998046875,0.16999999999999998
1.297709923664122,1.9236641221374047,-1.2061068702290076,0.0830078125,-0.2275390625,-0.575927734375,0.1717
1.251908396946565,1.7557251908396947,-1.1145038167938932,0.087158203125,-0.22998046875,-0.573486328125,0.1734
1.3587786259541985,1.7709923664122138,-1.2213740458015268,0.08642578125,-0.224853515625,-0.570556640625,0.17509999999999998
1.5419847328244274,1.6641221374045803,-1.297709923664122,0.08642578125,-0.228271484375,-0.5751953125,0.17679999999999998
1.5267175572519085,1.7404580152671756,-1.1603053435114503,0.089599609375,-0.2265625,-0.57177734375,0.1785
1.5114503816793894,1.6641221374045803,-1.1755725190839694,0.084228515625,-0.223388671875,-0.576416015625,0.1802
1.5877862595419847,1.816793893129771,-1.083969465648855,0.078857421875,-0.23095703125,-0.571044921875,0.18189999999999998
1.816793893129771,1.786259541984733,-0.8854961832061069,0.083740234375,-0.230224609375,-0.567626953125,0.18359999999999999
1.7404580152671756,1.816793893129771,-1.1755725190839694,0.0810546875,-0.228759765625,-0.57470703125,0.1853
1.6946564885496183,1.633587786259542,-0.9770992366412213,0.080322265625,-0.228515625,-0.572021484375,0.187
1.6641221374045803,1.7557251908396947,-1.0534351145038168,0.076171875,-0.230224609375,-0.5771484375,0.18869999999999998
1.6946564885496183,1.465648854961832,-0.8549618320610687,0.08349609375,-0.227294921875,-0.573486328125,0.19039999999999999
1.618320610687023,1.3587786259541985,-1.0076335877862594,0.077880859375,-0.220947265625,-0.559814453125,0.1921
1.633587786259542,1.618320610687023,-0.9618320610687023,0.076416015625,-0.228271484375,-0.566650390625,0.1938
1.5725190839694656,1.4198473282442747,-0.8854961832061069,0.084228515625,-0.23046875,-0.5654296875,0.19549999999999998
1.7404580152671756,1.4045801526717556,-0.9618320610687023,0.080322265625,-0.224609375,-0.56884765625,0.1972
1.5267175572519085,1.297709923664122,-1.1755725190839694,0.084228515625,-0.234375,-0.568359375,0.1989
1.5419847328244274,1.4961832061068703,-0.9465648854961832,0.079345703125,-0.224853515625,-0.573974609375,0.2006
1.4809160305343512,1.450381679389313,-1.3282442748091603,0.08056640625,-0.22900390625,-0.57373046875,0.20229999999999998
1.4809160305343512,1.465648854961832,-1.0229007633587786,0.078857421875,-0.226806640625,-0.569580078125,0.204
1.465648854961832,1.3282442748091603,-1.2366412213740459,0.083740234375,-0.228759765625,-0.5732421875,0.2057
1.5419847328244274,1.4045801526717556,-1.2213740458015268,0.08251953125,-0.228271484375,-0.569091796875,0.2074
1.5725190839694656,1.2366412213740459,-1.297709923664122,0.08544921875,-0.2265625,-0.572021484375,0.20909999999999998
1.618320610687023,1.450381679389313,-1.3282442748091603,0.0830078125,-0.22802734375,-0.573486328125,0.2108
1.7709923664122138,1.4351145038167938,-1.5725190839694656,0.0869140625,-0.2265625,-0.57080078125,0.2125
1.4045801526717556,1.1755725190839694,-1.3435114503816794,0.081787109375,-0.22998046875,-0.565185546875,0.2142
1.4198473282442747,1.3282442748091603,-1.3587786259541985,0.082275390625,-0.22607421875,-0.57275390625,0.21589999999999998
1.5877862595419847,1.465648854961832,-1.450381679389313,0.08056640625,-0.2275390625,-0.57470703125,0.2176
1.5572519083969465,1.3893129770992367,-1.5419847328244274,0.085205078125,-0.2275390625,-0.576904296875,0.2193
1.4809160305343512,1.3740458015267176,-1.450381679389313,0.081787109375,-0.229248046875,-0.575927734375,0.22099999999999997
1.282442748091603,1.3893129770992367,-1.4961832061068703,0.0849609375,-0.23291015625,-0.576904296875,0.22269999999999998
1.2061068702290076,1.3587786259541985,-1.3435114503816794,0.085205078125,-0.232177734375,-0.57666015625,0.2244
1.251908396946565,1.282442748091603,-1.450381679389313,0.08642578125,-0.2314453125,-0.58447265625,0.2261
1.2366412213740459,1.3893129770992367,-1.282442748091603,0.0849609375,-0.22900390625,-0.580322265625,0.22779999999999997
1.2061068702290076,1.3740458015267176,-1.282442748091603,0.081298828125,-0.23046875,-0.5771484375,0.22949999999999998
1.2671755725190839,1.297709923664122,-1.251908396946565,0.080810546875,-0.233642578125,-0.564453125,0.2312
1.2366412213740459,1.2671755725190839,-1.4351145038167938,0.081298828125,-0.230712890625,-0.564453125,0.2329
1.282442748091603,1.0687022900763359,-1.2366412213740459,0.08740234375,-0.233154296875,-0.56640625,0.23459999999999998
1.282442748091603,1.1297709923664123,-1.4961832061068703,0.0859375,-0.231689453125,-0.575439453125,0.23629999999999998
1.3587786259541985,1.1755725190839694,-1.2366412213740459,0.0849609375,-0.23388671875,-0.5791015625,0.238
0.9770992366412213,1.0229007633587786,-1.1145038167938932,0.088134765625,-0.228271484375,-0.58203125,0.2397
1.1755725190839694,0.8244274809160306,-1.4198473282442747,0.0869140625,-0.23046875,-0.570068359375,0.24139999999999998
1.1297709923664123,0.9007633587786259,-1.4961832061068703,0.086181640625,-0.229248046875,-0.573486328125,0.24309999999999998
0.9465648854961832,0.9770992366412213,-1.2671755725190839,0.085693359375,-0.228515625,-0.570068359375,0.2448
0.7633587786259542,0.7786259541984732,-1.4351145038167938,0.08203125,-0.230224609375,-0.571044921875,0.2465
0.7786259541984732,0.6870229007633588,-1.3435114503816794,0.086669921875,-0.231201171875,-0.57177734375,0.24819999999999998
0.8244274809160306,0.7022900763358778,-1.5267175572519085,0.088134765625,-0.227783203125,-0.571533203125,0.24989999999999998
0.7022900763358778,0.6412213740458015,-1.4961832061068703,0.081298828125,-0.22314453125,-0.57373046875,0.2516
0.7175572519083969,0.732824427480916,-1.465648854961832,0.07958984375,-0.232421875,-0.566650390625,0.25329999999999997
0.5038167938931297,0.8396946564885496,-1.4045801526717556,0.079833984375,-0.228515625,-0.573486328125,0.255
0.5190839694656488,0.8854961832061069,-1.6030534351145038,0.081298828125,-0.226806640625,-0.5791015625,0.2567
0.5038167938931297,0.8854961832061069,-1.3435114503816794,0.084716796875,-0.22802734375,-0.578857421875,0.25839999999999996
0.4732824427480916,0.8702290076335878,-1.3129770992366412,0.082275390625,-0.22509765625,-0.5693359375,0.2601
0.6106870229007634,0.8396946564885496,-1.3129770992366412,0.078369140625,-0.228759765625,-0.570068359375,0.2618
0.48854961832061067,0.8702290076335878,-1.5877862595419847,0.085205078125,-0.232177734375,-0.577392578125,0.2635
0.5190839694656488,0.8244274809160306,-1.465648854961832,0.086669921875,-0.231201171875,-0.578125,0.2652
0.6259541984732825,0.9770992366412213,-1.5419847328244274,0.083251953125,-0.230712890625,-0.572509765625,0.26689999999999997
0.5801526717557252,1.0381679389312977,-1.5572519083969465,0.081298828125,-0.227294921875,-0.578125,0.2686
0.5190839694656488,0.9923664122137404,-1.6030534351145038,0.080322265625,-0.227294921875,-0.5703125,0.2703
0.8091603053435115,0.9770992366412213,-1.6030534351145038,0.081298828125,-0.224365234375,-0.574951171875,0.27199999999999996
0.8244274809160306,0.8396946564885496,-1.465648854961832,0.087158203125,-0.224365234375,-0.56884765625,0.2737
0.7786259541984732,1.0076335877862594,-1.5725190839694656,0.09033203125,-0.229248046875,-0.566162109375,0.2754
0.6870229007633588,0.9312977099236641,-1.7099236641221374,0.089111328125,-0.22900390625,-0.56982421875,0.27709999999999996
0.8702290076335878,0.9465648854961832,-1.5725190839694656,0.087158203125,-0.233154296875,-0.573486328125,0.2788
0.8549618320610687,0.9007633587786259,-1.7099236641221374,0.086181640625,-0.2265625,-0.5712890625,0.28049999999999997
0.8854961832061069,0.732824427480916,-1.6946564885496183,0.08740234375,-0.22509765625,-0.5810546875,0.2822
1.0076335877862594,0.9007633587786259,-1.6030534351145038,0.0859375,-0.224853515625,-0.576171875,0.2839
0.8854961832061069,0.8549618320610687,-1.6488549618320612,0.09033203125,-0.2255859375,-0.5703125,0.28559999999999997
0.8244274809160306,0.8396946564885496,-1.7404580152671756,0.092041015625,-0.22314453125,-0.576416015625,0.2873
1.0687022900763359,0.916030534351145,-1.8625954198473282,0.086669921875,-0.2294921875,-0.571533203125,0.289
0.8854961832061069,0.8091603053435115,-1.8473282442748091,0.082763671875,-0.224365234375,-0.5751953125,0.29069999999999996
0.8244274809160306,0.8549618320610687,-1.83206106870229,0.081298828125,-0.226318359375,-0.57373046875,0.2924
0.9465648854961832,0.7633587786259542,-1.8625954198473282,0.08642578125,-0.228271484375,-0.5712890625,0.2941
0.9312977099236641,0.8549618320610687,-1.8625954198473282,0.0849609375,-0.22802734375,-0.572509765625,0.2958
1.0076335877862594,1.099236641221374,-1.9389312977099236,0.0869140625,-0.226318359375,-0.5751953125,0.2975
0.7633587786259542,0.916030534351145,-1.816793893129771,0.08740234375,-0.223388671875,-0.578125,0.29919999999999997
0.7633587786259542,0.9923664122137404,-1.8473282442748091,0.0869140625,-0.229248046875,-0.574462890625,0.3009
0.9923664122137404,1.2671755725190839,-1.6641221374045803,0.0830078125,-0.22509765625,-0.5703125,0.3026
0.8549618320610687,1.1145038167938932,-1.7709923664122138,0.0791015625,-0.2275390625,-0.5810546875,0.30429999999999996
0.8396946564885496,1.0381679389312977,-1.816793893129771,0.08056640625,-0.227783203125,-0.578369140625,0.306
0.8549618320610687,1.1145038167938932,-1.7251908396946565,0.08251953125,-0.22998046875,-0.573974609375,0.3077
0.916030534351145,1.2061068702290076,-1.8778625954198473,0.08642578125,-0.230224609375,-0.572998046875,0.3094
0.8549618320610687,1.1908396946564885,-1.83206106870229,0.08349609375,-0.227294921875,-0.57080078125,0.3111
1.0381679389312977,1.2213740458015268,-1.7251908396946565,0.087158203125,-0.231201171875,-0.57861328125,0.31279999999999997
1.083969465648855,1.2213740458015268,-1.8778625954198473,0.081298828125,-0.227783203125,-0.573974609375,0.3145
0.9770992366412213,1.282442748091603,-1.7099236641221374,0.09033203125,-0.226318359375,-0.576416015625,0.3162
1.1145038167938932,1.4198473282442747,-1.8625954198473282,0.085205078125,-0.228271484375,-0.576904296875,0.31789999999999996
1.1603053435114503,1.4045801526717556,-2.015267175572519,0.084228515625,-0.234375,-0.576416015625,0.3196
1.1145038167938932,1.3435114503816794,-1.9389312977099236,0.079833984375,-0.2255859375,-0.5771484375,0.3213
0.9618320610687023,1.3740458015267176,-1.83206106870229,0.08349609375,-0.2275390625,-0.57275390625,0.323
1.0381679389312977,1.4809160305343512,-1.9694656488549618,0.084716796875,-0.231689453125,-0.571533203125,0.3247
1.0076335877862594,1.5114503816793894,-2.045801526717557,0.08447265625,-0.227294921875,-0.57373046875,0.32639999999999997
0.9465648854961832,1.4045801526717556,-1.984732824427481,0.08984375,-0.222900390625,-0.572265625,0.3281
0.9465648854961832,1.465648854961832,-1.9541984732824427,0.080810546875,-0.22705078125,-0.577880859375,0.3298
0.8549618320610687,1.5572519083969465,-1.816793893129771,0.0849609375,-0.2255859375,-0.577880859375,0.33149999999999996
0.8854961832061069,1.6793893129770991,-2.0916030534351147,0.084228515625,-0.226318359375,-0.575927734375,0.3332
0.9923664122137404,1.7404580152671756,-1.816793893129771,0.08203125,-0.222900390625,-0.573486328125,0.3349
0.8549618320610687,1.9236641221374047,-1.9541984732824427,0.082275390625,-0.233642578125,-0.572509765625,0.33659999999999995
0.8854961832061069,1.9236641221374047,-1.9541984732824427,0.07373046875,-0.228271484375,-0.582275390625,0.3383
0.7022900763358778,1.9083969465648856,-1.7404580152671756,0.079833984375,-0.228271484375,-0.579345703125,0.33999999999999997
0.8244274809160306,1.7099236641221374,-1.8015267175572518,0.076904296875,-0.231201171875,-0.576904296875,0.3417
1.0381679389312977,1.816793893129771,-1.984732824427481,0.08056640625,-0.228515625,-0.571533203125,0.3434
1.0534351145038168,1.7557251908396947,-1.7557251908396947,0.08056640625,-0.22900390625,-0.57373046875,0.34509999999999996
1.083969465648855,1.8778625954198473,-1.8931297709923665,0.08349609375,-0.23046875,-0.569091796875,0.3468
0.8702290076335878,1.9083969465648856,-1.8473282442748091,0.0830078125,-0.2255859375,-0.578369140625,0.3485
0.9312977099236641,2.045801526717557,-1.9694656488549618,0.08154296875,-0.22998046875,-0.57763671875,0.35019999999999996
1.1297709923664123,1.9083969465648856,-1.8931297709923665,0.078125,-0.22802734375,-0.57080078125,0.3519
1.1755725190839694,1.83206106870229,-1.984732824427481,0.087890625,-0.228271484375,-0.58056640625,0.35359999999999997
1.0687022900763359,2.1374045801526718,-1.9083969465648856,0.087890625,-0.22998046875,-0.572998046875,0.3553
1.1450381679389312,1.8931297709923665,-2.030534351145038,0.08349609375,-0.2294921875,-0.575927734375,0.357
0.916030534351145,2.030534351145038,-1.83206106870229,0.080322265625,-0.226806640625,-0.5732421875,0.35869999999999996
0.9618320610687023,1.984732824427481,-2.0610687022900764,0.083740234375,-0.226318359375,-0.5712890625,0.3604
1.1755725190839694,1.984732824427481,-1.8625954198473282,0.075439453125,-0.228759765625,-0.5771484375,0.3621
0.8854961832061069,2.0916030534351147,-2.0916030534351147,0.084228515625,-0.226806640625,-0.573486328125,0.36379999999999996
0.916030534351145,2.16793893129771,-1.8931297709923665,0.086181640625,-0.226806640625,-0.57177734375,0.3655
1.0687022900763359,2.0763358778625953,-1.9541984732824427,0.087158203125,-0.226318359375,-0.56689453125,0.36719999999999997
1.1603053435114503,2.1374045801526718,-1.9236641221374047,0.08642578125,-0.2265625,-0.57763671875,0.3689
1.0534351145038168,2.16793893129771,-1.8931297709923665,0.08447265625,-0.23046875,-0.58203125,0.3706
0.9465648854961832,2.0763358778625953,-1.8931297709923665,0.0859375,-0.23486328125,-0.582275390625,0.37229999999999996
1.2671755725190839,2.1374045801526718,-1.984732824427481,0.085693359375,-0.2265625,-0.5849609375,0.374
1.2213740458015268,2.2900763358778624,-1.83206106870229,0.08544921875,-0.22998046875,-0.57568359375,0.3757
0.8244274809160306,2.0763358778625953,-1.8778625954198473,0.086669921875,-0.227294921875,-0.58544921875,0.37739999999999996
0.7175572519083969,2.183206106870229,-1.786259541984733,0.081787109375,-0.224609375,-0.57666015625,0.3791
0.7938931297709924,2.213740458015267,-2.045801526717557,0.08203125,-0.223876953125,-0.585205078125,0.38079999999999997
0.8549618320610687,2.183206106870229,-1.8473282442748091,0.08642578125,-0.22900390625,-0.577880859375,0.38249999999999995
0.8549618320610687,2.1374045801526718,-1.9541984732824427,0.084716796875,-0.226318359375,-0.57177734375,0.3842
0.6870229007633588,2.198473282442748,-1.9694656488549618,0.083984375,-0.23046875,-0.578369140625,0.38589999999999997
0.8854961832061069,2.1068702290076335,-2.0916030534351147,0.085205078125,-0.229248046875,-0.577880859375,0.3876
0.9618320610687023,1.9541984732824427,-1.8625954198473282,0.086181640625,-0.228515625,-0.570556640625,0.3893
0.916030534351145,1.9541984732824427,-2.030534351145038,0.079833984375,-0.231201171875,-0.573486328125,0.39099999999999996
0.9618320610687023,2.2290076335877864,-1.9694656488549618,0.079345703125,-0.22802734375,-0.579345703125,0.3927
0.8396946564885496,2.0,-1.83206106870229,0.086669921875,-0.221435546875,-0.572509765625,0.3944
1.0381679389312977,2.0610687022900764,-1.83206106870229,0.0869140625,-0.223876953125,-0.57421875,0.39609999999999995
1.2671755725190839,2.045801526717557,-2.015267175572519,0.084228515625,-0.229248046875,-0.574462890625,0.3978
1.1297709923664123,1.83206106870229,-1.9083969465648856,0.080078125,-0.228515625,-0.573486328125,0.39949999999999997
0.9770992366412213,1.9236641221374047,-2.045801526717557,0.080078125,-0.22705078125,-0.580810546875,0.4012
1.1145038167938932,2.030534351145038,-1.9389312977099236,0.083251953125,-0.229736328125,-0.5810546875,0.4029
1.0229007633587786,2.0,-2.213740458015267,0.07958984375,-0.227783203125,-0.5771484375,0.40459999999999996
0.8091603053435115,2.045801526717557,-1.9389312977099236,0.076171875,-0.2216796875,-0.579833984375,0.4063
0.6870229007633588,2.045801526717557,-2.183206106870229,0.0859375,-0.2294921875,-0.584228515625,0.408
0.5648854961832062,2.1068702290076335,-2.1068702290076335,0.0849609375,-0.2265625,-0.577880859375,0.40969999999999995
0.48854961832061067,2.0916030534351147,-2.16793893129771,0.0849609375,-0.224853515625,-0.578857421875,0.4114
0.4580152671755725,2.0916030534351147,-2.045801526717557,0.08349609375,-0.2294921875,-0.579345703125,0.41309999999999997
0.3053435114503817,2.0610687022900764,-2.198473282442748,0.08642578125,-0.22509765625,-0.577880859375,0.4148
0.44274809160305345,2.0,-1.9236641221374047,0.080322265625,-0.22900390625,-0.574951171875,0.4165
0.2900763358778626,2.183206106870229,-2.16793893129771,0.083251953125,-0.228515625,-0.575927734375,0.41819999999999996
0.42748091603053434,2.1374045801526718,-2.0610687022900764,0.08203125,-0.232666015625,-0.573486328125,0.4199
0.5190839694656488,2.16793893129771,-2.198473282442748,0.085205078125,-0.229248046875,-0.5791015625,0.4216
0.7633587786259542,2.3969465648854964,-2.0916030534351147,0.083740234375,-0.2294921875,-0.572998046875,0.42329999999999995
0.5648854961832062,2.2595419847328246,-2.0763358778625953,0.087158203125,-0.2255859375,-0.5751953125,0.425
0.732824427480916,2.198473282442748,-1.9389312977099236,0.083251953125,-0.2275390625,-0.576904296875,0.42669999999999997
0.8702290076335878,2.2748091603053435,-2.213740458015267,0.08642578125,-0.231689453125,-0.57275390625,0.4284
0.6717557251908397,2.2442748091603053,-2.030534351145038,0.082275390625,-0.22998046875,-0.56689453125,0.4301
0.48854961832061067,2.213740458015267,-2.3206106870229006,0.081787109375,-0.226806640625,-0.581298828125,0.43179999999999996
0.5801526717557252,2.4427480916030535,-2.183206106870229,0.080078125,-0.232177734375,-0.58154296875,0.4335
0.4732824427480916,2.3969465648854964,-2.2290076335877864,0.082275390625,-0.23046875,-0.581787109375,0.4352
0.42748091603053434,2.3053435114503817,-2.183206106870229,0.08056640625,-0.230712890625,-0.580322265625,0.43689999999999996
0.2900763358778626,2.3206106870229006,-2.1374045801526718,0.085205078125,-0.228759765625,-0.568603515625,0.4386
0.4580152671755725,2.50381679389313,-2.2442748091603053,0.07666015625,-0.2294921875,-0.57421875,0.44029999999999997
0.4732824427480916,2.4732824427480917,-2.1374045801526718,0.07958984375,-0.228759765625,-0.580078125,0.44199999999999995
-0.1984732824427481,2.763358778625954,-2.2442748091603053,0.08447265625,-0.231689453125,-0.57470703125,0.4437
0.13740458015267176,2.7022900763358777,-2.0916030534351147,0.087158203125,-0.2314453125,-0.574951171875,0.44539999999999996
0.10687022900763359,2.732824427480916,-2.0,0.08349609375,-0.22900390625,-0.5693359375,0.4471
-0.183206106870229,2.7022900763358777,-1.9541984732824427,0.08349609375,-0.23095703125,-0.570556640625,0.4488
0.061068702290076333,2.50381679389313,-2.030534351145038,0.080810546875,-0.225830078125,-0.58251953125,0.45049999999999996
0.15267175572519084,2.7480916030534353,-2.1068702290076335,0.080322265625,-0.227783203125,-0.587158203125,0.4522
0.10687022900763359,2.5801526717557253,-2.0610687022900764,0.081787109375,-0.230712890625,-0.575439453125,0.45389999999999997
-0.061068702290076333,2.549618320610687,-2.030534351145038,0.078125,-0.224609375,-0.568603515625,0.45559999999999995
0.07633587786259542,2.549618320610687,-2.2442748091603053,0.08203125,-0.228515625,-0.56689453125,0.4573
0.32061068702290074,2.5343511450381677,-2.030534351145038,0.08544921875,-0.23046875,-0.57080078125,0.45899999999999996
0.16793893129770993,2.381679389312977,-2.16793893129771,0.08349609375,-0.229248046875,-0.5751953125,0.4607
0.2748091603053435,2.4885496183206106,-2.0916030534351147,0.08056640625,-0.224609375,-0.57421875,0.4624
0.3053435114503817,2.3206106870229006,-2.2900763358778624,0.082763671875,-0.23193359375,-0.5703125,0.46409999999999996
0.3511450381679389,2.4122137404580153,-2.2748091603053435,0.0830078125,-0.23193359375,-0.578125,0.4658
0.3511450381679389,2.427480916030534,-2.33587786259542,0.08251953125,-0.227294921875,-0.568115234375,0.46749999999999997
0.12213740458015267,2.1526717557251906,-2.3053435114503817,0.082763671875,-0.23486328125,-0.5712890625,0.46919999999999995
0.030534351145038167,2.213740458015267,-2.381679389312977,0.08154296875,-0.227294921875,-0.57666015625,0.4709
0.2595419847328244,2.213740458015267,-2.2442748091603053,0.086181640625,-0.226318359375,-0.576416015625,0.47259999999999996
0.2595419847328244,2.1374045801526718,-2.2595419847328246,0.083740234375,-0.22509765625,-0.574951171875,0.4743
0.32061068702290074,2.1526717557251906,-2.2748091603053435,0.08349609375,-0.226806640625,-0.578125,0.476
0.3816793893129771,2.2442748091603053,-2.351145038167939,0.083984375,-0.224609375,-0.56982421875,0.47769999999999996
0.2900763358778626,2.045801526717557,-2.351145038167939,0.0791015625,-0.222900390625,-0.573974609375,0.4794
0.32061068702290074,2.16793893129771,-2.2900763358778624,0.081298828125,-0.221923828125,-0.574462890625,0.48109999999999997
0.183206106870229,2.198473282442748,-2.33587786259542,0.079833984375,-0.22900390625,-0.57470703125,0.48279999999999995
0.3969465648854962,2.0916030534351147,-2.33587786259542,0.078125,-0.227294921875,-0.58056640625,0.4845
0.24427480916030533,2.198473282442748,-2.2595419847328246,0.086181640625,-0.224609375,-0.574462890625,0.48619999999999997
0.15267175572519084,1.9236641221374047,-2.381679389312977,0.08349609375,-0.2255859375,-0.5703125,0.4879
0.21374045801526717,2.0,-2.519083969465649,0.0830078125,-0.227294921875,-0.580078125,0.4896
0.15267175572519084,2.045801526717557,-2.4732824427480917,0.0849609375,-0.226806640625,-0.576171875,0.49129999999999996
0.21374045801526717,1.8931297709923665,-2.2290076335877864,0.0771484375,-0.226318359375,-0.571044921875,0.493
0.1984732824427481,1.8931297709923665,-2.198473282442748,0.085205078125,-0.2236328125,-0.576171875,0.4947
0.2900763358778626,1.9541984732824427,-2.030534351145038,0.0859375,-0.22607421875,-0.575439453125,0.49639999999999995
0.2748091603053435,2.0,-2.183206106870229,0.085205078125,-0.227294921875,-0.572021484375,0.4981
0.0916030534351145,1.9541984732824427,-1.9694656488549618,0.0849609375,-0.2294921875,-0.5732421875,0.49979999999999997
0.16793893129770993,2.0763358778625953,-1.8625954198473282,0.0830078125,-0.226318359375,-0.574462890625,0.5015
0.32061068702290074,1.9541984732824427,-1.984732824427481,0.080078125,-0.228759765625,-0.57373046875,0.5032
0.061068702290076333,1.9694656488549618,-1.984732824427481,0.0849609375,-0.23388671875,-0.575439453125,0.5049
0.13740458015267176,2.198473282442748,-1.7099236641221374,0.083251953125,-0.230712890625,-0.57373046875,0.5065999999999999
0.0916030534351145,1.9694656488549618,-1.83206106870229,0.082763671875,-0.23291015625,-0.57080078125,0.5083
0.061068702290076333,2.0,-1.7099236641221374,0.08203125,-0.2236328125,-0.572509765625,0.51
0.10687022900763359,2.030534351145038,-1.6641221374045803,0.085693359375,-0.22998046875,-0.572021484375,0.5116999999999999
0.07633587786259542,2.1526717557251906,-1.6488549618320612,0.087158203125,-0.22900390625,-0.5751953125,0.5134
0.15267175572519084,2.122137404580153,-1.6946564885496183,0.080322265625,-0.22900390625,-0.570068359375,0.5151
-0.015267175572519083,2.0916030534351147,-1.3129770992366412,0.0810546875,-0.227294921875,-0.572021484375,0.5167999999999999
0.030534351145038167,2.1526717557251906,-1.3129770992366412,0.080322265625,-0.228515625,-0.572265625,0.5185
-0.15267175572519084,2.1526717557251906,-1.4045801526717556,0.08544921875,-0.22607421875,-0.568603515625,0.5202
-0.07633587786259542,2.122137404580153,-1.4961832061068703,0.0849609375,-0.227783203125,-0.571533203125,0.5218999999999999
-0.0916030534351145,2.16793893129771,-1.282442748091603,0.082275390625,-0.227783203125,-0.572265625,0.5236
-0.12213740458015267,2.2290076335877864,-1.4351145038167938,0.07763671875,-0.2255859375,-0.572509765625,0.5253
-0.2748091603053435,2.213740458015267,-1.4198473282442747,0.078857421875,-0.228271484375,-0.573486328125,0.527
-0.3816793893129771,2.0916030534351147,-1.3587786259541985,0.08447265625,-0.231201171875,-0.57080078125,0.5287
-0.366412213740458,2.030534351145038,-1.4351145038167938,0.084716796875,-0.229248046875,-0.5712890625,0.5304
-0.4122137404580153,2.1068702290076335,-1.5114503816793894,0.082763671875,-0.226806640625,-0.568603515625,0.5321
-0.7480916030534351,2.1374045801526718,-1.3740458015267176,0.0869140625,-0.22412109375,-0.5732421875,0.5337999999999999
-0.732824427480916,2.0763358778625953,-1.3129770992366412,0.08837890625,-0.22314453125,-0.5703125,0.5355
-0.732824427480916,2.213740458015267,-1.3435114503816794,0.0830078125,-0.2265625,-0.5712890625,0.5372
-0.6259541984732825,2.2290076335877864,-1.3740458015267176,0.084716796875,-0.2255859375,-0.573486328125,0.5388999999999999
-0.7175572519083969,2.0610687022900764,-1.297709923664122,0.083740234375,-0.228759765625,-0.56298828125,0.5406
-0.7175572519083969,2.0763358778625953,-1.3740458015267176,0.084716796875,-0.225341796875,-0.5673828125,0.5423
-0.549618320610687,2.0763358778625953,-1.2061068702290076,0.081298828125,-0.228271484375,-0.571533203125,0.5439999999999999
-0.6870229007633588,1.984732824427481,-1.3282442748091603,0.0810546875,-0.224853515625,-0.5703125,0.5457
-0.5801526717557252,2.045801526717557,-1.0687022900763359,0.07861328125,-0.2275390625,-0.575927734375,0.5474
-0.22900763358778625,2.030534351145038,-1.2213740458015268,0.083984375,-0.22705078125,-0.56640625,0.5490999999999999
0.030534351145038167,2.16793893129771,-1.1450381679389312,0.0849609375,-0.22705078125,-0.57421875,0.5508
-0.12213740458015267,2.030534351145038,-1.297709923664122,0.085693359375,-0.223876953125,-0.56982421875,0.5525
0.2748091603053435,1.984732824427481,-1.1145038167938932,0.083984375,-0.223876953125,-0.571044921875,0.5541999999999999
0.2900763358778626,2.0,-1.297709923664122,0.085205078125,-0.2197265625,-0.5771484375,0.5559
0.4580152671755725,1.8625954198473282,-1.1908396946564885,0.089111328125,-0.222412109375,-0.575439453125,0.5576
0.5801526717557252,1.8778625954198473,-1.3435114503816794,0.08203125,-0.221923828125,-0.57421875,0.5593
0.9770992366412213,1.9694656488549618,-1.1145038167938932,0.083984375,-0.2236328125,-0.57177734375,0.5609999999999999
0.8244274809160306,1.8473282442748091,-1.2671755725190839,0.08740234375,-0.22412109375,-0.5751953125,0.5627
0.9618320610687023,1.8015267175572518,-1.1145038167938932,0.078857421875,-0.22216796875,-0.580322265625,0.5644
1.1297709923664123,1.786259541984733,-1.3129770992366412,0.0830078125,-0.22119140625,-0.574951171875,0.5660999999999999
1.083969465648855,1.8015267175572518,-1.1603053435114503,0.080322265625,-0.2236328125,-0.57666015625,0.5678
1.1908396946564885,1.83206106870229,-1.099236641221374,0.0810546875,-0.222900390625,-0.56884765625,0.5695
1.1145038167938932,1.8778625954198473,-1.1145038167938932,0.08447265625,-0.220947265625,-0.572998046875,0.5711999999999999
1.1603053435114503,2.122137404580153,-1.5114503816793894,0.083984375,-0.219482421875,-0.566650390625,0.5729
1.1755725190839694,2.1068702290076335,-1.2366412213740459,0.0830078125,-0.224365234375,-0.5771484375,0.5746
1.3129770992366412,2.0763358778625953,-1.2671755725190839,0.081787109375,-0.228271484375,-0.5771484375,0.5762999999999999
1.0534351145038168,2.2442748091603053,-1.1755725190839694,0.081787109375,-0.23779296875,-0.572509765625,0.578
1.3587786259541985,2.2748091603053435,-1.297709923664122,0.07958984375,-0.236572265625,-0.56884765625,0.5797
1.2671755725190839,2.183206106870229,-1.251908396946565,0.087158203125,-0.23291015625,-0.5673828125,0.5813999999999999
1.1755725190839694,2.1374045801526718,-1.2366412213740459,0.081298828125,-0.228759765625,-0.57568359375,0.5831
1.0229007633587786,2.4580152671755724,-1.2061068702290076,0.08837890625,-0.228515625,-0.568603515625,0.5848
1.251908396946565,2.549618320610687,-1.0534351145038168,0.079345703125,-0.224853515625,-0.5693359375,0.5865
1.099236641221374,2.183206106870229,-1.1908396946564885,0.08349609375,-0.2314453125,-0.579833984375,0.5882
0.732824427480916,2.381679389312977,-1.2366412213740459,0.08251953125,-0.226806640625,-0.57763671875,0.5899
0.7480916030534351,2.732824427480916,-1.2061068702290076,0.083740234375,-0.23095703125,-0.576904296875,0.5916
0.9618320610687023,2.595419847328244,-0.9770992366412213,0.0830078125,-0.230712890625,-0.577392578125,0.5932999999999999
0.7786259541984732,2.687022900763359,-1.2366412213740459,0.086669921875,-0.230224609375,-0.5693359375,0.595
0.6259541984732825,2.564885496183206,-1.297709923664122,0.083251953125,-0.23193359375,-0.57470703125,0.5967
0.6717557251908397,2.5801526717557253,-0.8549618320610687,0.081298828125,-0.225830078125,-0.575439453125,0.5983999999999999
0.6106870229007634,2.5801526717557253,-1.1145038167938932,0.08447265625,-0.219482421875,-0.568603515625,0.6001
0.6717557251908397,2.4580152671755724,-0.9618320610687023,0.0888671875,-0.224365234375,-0.56591796875,0.6018
0.366412213740458,2.4122137404580153,-1.1603053435114503,0.08349609375,-0.227783203125,-0.578125,0.6034999999999999
0.5190839694656488,2.4885496183206106,-0.916030534351145,0.083984375,-0.2314453125,-0.576904296875,0.6052
0.4732824427480916,2.50381679389313,-1.0229007633587786,0.085693359375,-0.228271484375,-0.572998046875,0.6069
0.5343511450381679,2.4732824427480917,-1.0687022900763359,0.08251953125,-0.227294921875,-0.569091796875,0.6085999999999999
0.549618320610687,2.5343511450381677,-0.9770992366412213,0.08056640625,-0.2265625,-0.57861328125,0.6103
0.2595419847328244,2.564885496183206,-0.916030534351145,0.08056640625,-0.227783203125,-0.578857421875,0.612
0.4732824427480916,2.6259541984732824,-0.8244274809160306,0.087646484375,-0.227783203125,-0.5751953125,0.6136999999999999
0.3511450381679389,2.7022900763358777,-0.9312977099236641,0.082763671875,-0.227294921875,-0.569091796875,0.6154
0.3511450381679389,2.6717557251908395,-0.9007633587786259,0.0849609375,-0.231201171875,-0.57177734375,0.6171
0.48854961832061067,2.595419847328244,-1.0534351145038168,0.0859375,-0.23046875,-0.568359375,0.6188
0.6870229007633588,2.732824427480916,-0.9923664122137404,0.086181640625,-0.227783203125,-0.568359375,0.6204999999999999
0.6412213740458015,2.8244274809160306,-0.9312977099236641,0.08837890625,-0.224853515625,-0.566162109375,0.6222
0.6564885496183206,2.687022900763359,-1.0229007633587786,0.0888671875,-0.227783203125,-0.57373046875,0.6239
0.732824427480916,2.6259541984732824,-1.0076335877862594,0.085693359375,-0.224365234375,-0.573974609375,0.6255999999999999
0.8244274809160306,2.732824427480916,-0.8702290076335878,0.088623046875,-0.2216796875,-0.57275390625,0.6273
1.0534351145038168,2.549618320610687,-0.8396946564885496,0.086669921875,-0.23095703125,-0.56884765625,0.629
1.0229007633587786,2.4732824427480917,-1.0076335877862594,0.088134765625,-0.227783203125,-0.568359375,0.6306999999999999
1.0229007633587786,2.4122137404580153,-1.0229007633587786,0.0859375,-0.223876953125,-0.572021484375,0.6324
1.0687022900763359,2.6564885496183206,-0.8091603053435115,0.08349609375,-0.227783203125,-0.5703125,0.6341
1.2061068702290076,2.6259541984732824,-1.1297709923664123,0.087158203125,-0.2294921875,-0.5703125,0.6357999999999999
1.1908396946564885,2.50381679389313,-1.0381679389312977,0.091552734375,-0.22412109375,-0.564697265625,0.6375
1.1908396946564885,2.519083969465649,-0.9618320610687023,0.0859375,-0.228271484375,-0.570068359375,0.6392
0.9618320610687023,2.549618320610687,-1.0229007633587786,0.08642578125,-0.227783203125,-0.577392578125,0.6408999999999999
1.2061068702290076,2.4122137404580153,-0.9923664122137404,0.087158203125,-0.22509765625,-0.57861328125,0.6426
1.2366412213740459,2.351145038167939,-0.8396946564885496,0.09033203125,-0.225341796875,-0.56591796875,0.6443
0.9618320610687023,2.3053435114503817,-1.083969465648855,0.083984375,-0.218994140625,-0.5693359375,0.646
1.083969465648855,2.3969465648854964,-0.9007633587786259,0.083251953125,-0.221435546875,-0.571044921875,0.6476999999999999
0.916030534351145,2.427480916030534,-1.0381679389312977,0.08935546875,-0.228759765625,-0.57763671875,0.6494
0.6412213740458015,2.2595419847328246,-1.1145038167938932,0.08544921875,-0.228515625,-0.573974609375,0.6511
0.7175572519083969,2.2748091603053435,-1.099236641221374,0.084228515625,-0.226806640625,-0.576171875,0.6527999999999999
0.8396946564885496,2.1526717557251906,-0.9618320610687023,0.088623046875,-0.22705078125,-0.5693359375,0.6545
0.8854961832061069,2.122137404580153,-1.2671755725190839,0.091064453125,-0.227294921875,-0.576904296875,0.6562
0.5954198473282443,2.1526717557251906,-1.3740458015267176,0.0830078125,-0.22802734375,-0.573486328125,0.6578999999999999
0.7022900763358778,2.015267175572519,-1.2366412213740459,0.0849609375,-0.224365234375,-0.568359375,0.6596
0.8854961832061069,2.1526717557251906,-1.0076335877862594,0.08935546875,-0.2314453125,-0.580322265625,0.6613
0.6717557251908397,2.2748091603053435,-1.2213740458015268,0.08154296875,-0.228515625,-0.57763671875,0.6629999999999999
0.7480916030534351,2.33587786259542,-1.0229007633587786,0.0859375,-0.228515625,-0.5751953125,0.6647
0.6564885496183206,2.122137404580153,-1.2366412213740459,0.08447265625,-0.223876953125,-0.5732421875,0.6664
0.48854961832061067,2.2290076335877864,-1.1603053435114503,0.086181640625,-0.224365234375,-0.571044921875,0.6680999999999999
0.732824427480916,2.2595419847328246,-1.3435114503816794,0.08984375,-0.220703125,-0.5693359375,0.6698
0.4732824427480916,2.2442748091603053,-0.916030534351145,0.08642578125,-0.227294921875,-0.569091796875,0.6715
0.3511450381679389,2.0916030534351147,-1.0229007633587786,0.082275390625,-0.2236328125,-0.56884765625,0.6731999999999999
0.5343511450381679,2.122137404580153,-1.0076335877862594,0.083740234375,-0.22900390625,-0.57568359375,0.6748999999999999
0.549618320610687,2.2595419847328246,-1.099236641221374,0.089111328125,-0.225341796875,-0.567138671875,0.6766
0.16793893129770993,2.0916030534351147,-0.916030534351145,0.0859375,-0.22412109375,-0.569091796875,0.6783
0.1984732824427481,2.045801526717557,-1.0687022900763359,0.083740234375,-0.221923828125,-0.572998046875,0.6799999999999999
0.1984732824427481,2.0916030534351147,-0.9770992366412213,0.091064453125,-0.231689453125,-0.572021484375,0.6817
0.22900763358778625,2.213740458015267,-0.9465648854961832,0.08203125,-0.228515625,-0.57470703125,0.6834
0.07633587786259542,2.0610687022900764,-0.8091603053435115,0.085205078125,-0.226318359375,-0.576904296875,0.6850999999999999
-0.015267175572519083,2.1068702290076335,-0.8854961832061069,0.0869140625,-0.2216796875,-0.574462890625,0.6868
0.030534351145038167,2.4732824427480917,-0.8854961832061069,0.086669921875,-0.2216796875,-0.5849609375,0.6885
0.0916030534351145,2.2900763358778624,-0.8702290076335878,0.084716796875,-0.228271484375,-0.57470703125,0.6901999999999999
-0.030534351145038167,2.122137404580153,-0.8091603053435115,0.087890625,-0.223876953125,-0.575439453125,0.6919
0.0916030534351145,2.16793893129771,-1.0381679389312977,0.086669921875,-0.223876953125,-0.574462890625,0.6936
-0.07633587786259542,2.3206106870229006,-0.916030534351145,0.084228515625,-0.221923828125,-0.569091796875,0.6952999999999999
-0.030534351145038167,2.366412213740458,-0.8244274809160306,0.08447265625,-0.22705078125,-0.56982421875,0.697
0.04580152671755725,2.122137404580153,-0.7938931297709924,0.091064453125,-0.221923828125,-0.57421875,0.6987
0.015267175572519083,2.1374045801526718,-0.8702290076335878,0.084228515625,-0.22607421875,-0.5751953125,0.7003999999999999
-0.12213740458015267,2.2442748091603053,-0.8702290076335878,0.087890625,-0.22265625,-0.56640625,0.7021
0.15267175572519084,2.0916030534351147,-0.8244274809160306,0.087158203125,-0.224365234375,-0.575439453125,0.7038
0.061068702290076333,2.1068702290076335,-0.8396946564885496,0.0859375,-0.222900390625,-0.56591796875,0.7055
0.04580152671755725,2.1526717557251906,-0.8396946564885496,0.086669921875,-0.225830078125,-0.56689453125,0.7071999999999999
0.10687022900763359,2.030534351145038,-0.8549618320610687,0.089111328125,-0.22607421875,-0.570068359375,0.7089
0.16793893129770993,1.984732824427481,-0.9618320610687023,0.087646484375,-0.222900390625,-0.5712890625,0.7106
0.12213740458015267,2.030534351145038,-0.8854961832061069,0.08740234375,-0.228271484375,-0.578369140625,0.7122999999999999
0.1984732824427481,1.7709923664122138,-0.916030534351145,0.0927734375,-0.227294921875,-0.567626953125,0.714
0.7022900763358778,1.7251908396946565,-0.732824427480916,0.08740234375,-0.226806640625,-0.576904296875,0.7157
0.6564885496183206,1.633587786259542,-0.6870229007633588,0.0830078125,-0.22509765625,-0.5634765625,0.7173999999999999
0.6412213740458015,1.6030534351145038,-0.7480916030534351,0.08935546875,-0.22119140625,-0.5693359375,0.7191
0.8091603053435115,1.5572519083969465,-0.8091603053435115,0.091064453125,-0.225830078125,-0.568115234375,0.7208
0.8396946564885496,1.450381679389313,-0.6106870229007634,0.08935546875,-0.225341796875,-0.56884765625,0.7224999999999999
0.8854961832061069,1.5419847328244274,-0.8244274809160306,0.0927734375,-0.226318359375,-0.570556640625,0.7242
0.916030534351145,1.4198473282442747,-0.7480916030534351,0.09326171875,-0.22900390625,-0.574951171875,0.7259
0.9923664122137404,1.4045801526717556,-0.7480916030534351,0.086181640625,-0.227294921875,-0.570068359375,0.7275999999999999
1.0076335877862594,1.3129770992366412,-0.4732824427480916,0.088134765625,-0.228515625,-0.572021484375,0.7293
1.0076335877862594,1.251908396946565,-0.7022900763358778,0.089599609375,-0.23095703125,-0.572509765625,0.731
1.083969465648855,1.3740458015267176,-0.5801526717557252,0.086181640625,-0.229248046875,-0.5673828125,0.7326999999999999
1.1603053435114503,1.251908396946565,-0.5343511450381679,0.08056640625,-0.226318359375,-0.568359375,0.7343999999999999
1.2366412213740459,1.3740458015267176,-0.4122137404580153,0.07958984375,-0.22607421875,-0.571533203125,0.7361
1.0381679389312977,1.450381679389313,-0.44274809160305345,0.09130859375,-0.23486328125,-0.562744140625,0.7378
1.2366412213740459,1.3587786259541985,-0.3816793893129771,0.083984375,-0.230224609375,-0.5615234375,0.7394999999999999
1.5267175572519085,1.5419847328244274,-0.5343511450381679,0.083251953125,-0.22802734375,-0.57861328125,0.7412
1.6030534351145038,1.465648854961832,-0.3053435114503817,0.080810546875,-0.226806640625,-0.574462890625,0.7429
1.5267175572519085,1.6030534351145038,-0.32061068702290074,0.084716796875,-0.2275390625,-0.567138671875,0.7445999999999999
1.4961832061068703,1.618320610687023,-0.32061068702290074,0.08544921875,-0.22802734375,-0.572509765625,0.7463
1.6641221374045803,1.4809160305343512,-0.10687022900763359,0.084716796875,-0.230712890625,-0.572021484375,0.748
1.7557251908396947,1.4198473282442747,0.0,0.087646484375,-0.23486328125,-0.5732421875,0.7496999999999999
1.5572519083969465,1.5419847328244274,-0.12213740458015267,0.08544921875,-0.23388671875,-0.582275390625,0.7514
1.450381679389313,1.4961832061068703,-0.030534351145038167,0.07958984375,-0.2275390625,-0.581787109375,0.7531
1.5877862595419847,1.5725190839694656,-0.015267175572519083,0.083740234375,-0.230224609375,-0.57568359375,0.7547999999999999
1.450381679389313,1.5572519083969465,-0.0916030534351145,0.08984375,-0.23486328125,-0.574951171875,0.7565
1.282442748091603,1.4198473282442747,-0.12213740458015267,0.087646484375,-0.23486328125,-0.5712890625,0.7582
1.4045801526717556,1.5419847328244274,-0.16793893129770993,0.08203125,-0.23046875,-0.580078125,0.7598999999999999
1.2366412213740459,1.5267175572519085,-0.183206106870229,0.0888671875,-0.232421875,-0.56591796875,0.7615999999999999
0.9618320610687023,1.5725190839694656,-0.24427480916030533,0.086181640625,-0.22705078125,-0.571533203125,0.7633
0.9923664122137404,1.5572519083969465,-0.12213740458015267,0.087646484375,-0.224365234375,-0.57373046875,0.7649999999999999
0.8854961832061069,1.282442748091603,-0.2595419847328244,0.083740234375,-0.2275390625,-0.576904296875,0.7666999999999999
0.7480916030534351,1.4809160305343512,-0.2595419847328244,0.08837890625,-0.2294921875,-0.572021484375,0.7684
0.7480916030534351,1.4809160305343512,-0.5038167938931297,0.089599609375,-0.227783203125,-0.57275390625,0.7701
0.6564885496183206,1.3129770992366412,-0.3511450381679389,0.0849609375,-0.22998046875,-0.5712890625,0.7717999999999999
0.7480916030534351,1.2366412213740459,-0.5343511450381679,0.084228515625,-0.232177734375,-0.5703125,0.7735
0.549618320610687,1.297709923664122,-0.6412213740458015,0.08349609375,-0.228759765625,-0.575439453125,0.7752
0.549618320610687,1.2213740458015268,-0.7022900763358778,0.091064453125,-0.22119140625,-0.57373046875,0.7768999999999999
0.6259541984732825,1.1450381679389312,-0.5801526717557252,0.08837890625,-0.225830078125,-0.57177734375,0.7786
0.7022900763358778,1.0381679389312977,-0.7022900763358778,0.093017578125,-0.221923828125,-0.574462890625,0.7803
0.5190839694656488,1.2213740458015268,-0.6412213740458015,0.09228515625,-0.218017578125,-0.5751953125,0.7819999999999999
0.7022900763358778,1.0687022900763359,-0.916030534351145,0.08935546875,-0.22265625,-0.568115234375,0.7837
0.9312977099236641,0.9312977099236641,-0.8854961832061069,0.085693359375,-0.223388671875,-0.576171875,0.7854
0.8702290076335878,1.2061068702290076,-0.8396946564885496,0.087158203125,-0.2255859375,-0.5830078125,0.7870999999999999
1.0229007633587786,1.1755725190839694,-0.916030534351145,0.089599609375,-0.22705078125,-0.5751953125,0.7888
1.0381679389312977,1.2061068702290076,-0.9923664122137404,0.089599609375,-0.226318359375,-0.580078125,0.7905
1.083969465648855,1.2061068702290076,-1.1450381679389312,0.09033203125,-0.225341796875,-0.573486328125,0.7921999999999999
1.2213740458015268,1.0687022900763359,-1.2366412213740459,0.083251953125,-0.220458984375,-0.576171875,0.7938999999999999
0.8549618320610687,1.0534351145038168,-1.251908396946565,0.086181640625,-0.222412109375,-0.5751953125,0.7956
0.8244274809160306,1.2061068702290076,-1.2671755725190839,0.085693359375,-0.220458984375,-0.58349609375,0.7973
0.8549618320610687,1.3129770992366412,-1.4351145038167938,0.088623046875,-0.2158203125,-0.56689453125,0.7989999999999999
1.0687022900763359,1.251908396946565,-1.3129770992366412,0.091552734375,-0.218505859375,-0.57275390625,0.8007
0.9007633587786259,1.3129770992366412,-1.3129770992366412,0.091552734375,-0.224853515625,-0.5712890625,0.8024
1.0381679389312977,1.2366412213740459,-1.3893129770992367,0.08740234375,-0.22509765625,-0.577392578125,0.8040999999999999
1.083969465648855,1.450381679389313,-1.3282442748091603,0.0888671875,-0.22314453125,-0.57568359375,0.8058
0.7786259541984732,1.8015267175572518,-1.5725190839694656,0.089111328125,-0.220947265625,-0.57666015625,0.8075
0.5801526717557252,1.6488549618320612,-1.6641221374045803,0.08642578125,-0.22021484375,-0.568359375,0.8091999999999999
0.6870229007633588,1.7709923664122138,-1.465648854961832,0.08349609375,-0.222900390625,-0.568603515625,0.8109
0.5801526717557252,1.7709923664122138,-1.6641221374045803,0.086181640625,-0.22607421875,-0.56689453125,0.8126
0.549618320610687,1.8778625954198473,-1.7404580152671756,0.0869140625,-0.22314453125,-0.564453125,0.8142999999999999
0.42748091603053434,1.9236641221374047,-1.7251908396946565,0.088134765625,-0.2255859375,-0.568359375,0.816
0.44274809160305345,1.9236641221374047,-1.8015267175572518,0.091064453125,-0.22607421875,-0.57177734375,0.8177
0.4732824427480916,1.786259541984733,-1.6793893129770991,0.08544921875,-0.2236328125,-0.56640625,0.8193999999999999
0.5038167938931297,1.8473282442748091,-1.8625954198473282,0.088623046875,-0.22607421875,-0.559326171875,0.8210999999999999
0.5343511450381679,1.8015267175572518,-1.8625954198473282,0.084716796875,-0.226806640625,-0.57373046875,0.8228
0.5343511450381679,1.7709923664122138,-1.9389312977099236,0.0908203125,-0.22607421875,-0.574462890625,0.8244999999999999
0.6259541984732825,1.83206106870229,-2.0763358778625953,0.08642578125,-0.222412109375,-0.56982421875,0.8261999999999999
0.3511450381679389,1.7404580152671756,-2.030534351145038,0.0859375,-0.22705078125,-0.570556640625,0.8279
0.2900763358778626,1.8625954198473282,-2.015267175572519,0.08984375,-0.228271484375,-0.573486328125,0.8296
0.33587786259541985,2.0610687022900764,-2.198473282442748,0.0859375,-0.231201171875,-0.5732421875,0.8312999999999999
0.2595419847328244,1.8015267175572518,-2.1068702290076335,0.07958984375,-0.223388671875,-0.568603515625,0.833
0.1984732824427481,1.8473282442748091,-2.1526717557251906,0.0849609375,-0.230224609375,-0.57666015625,0.8347
0.015267175572519083,2.0763358778625953,-2.0,0.08251953125,-0.2314453125,-0.5771484375,0.8363999999999999
0.1984732824427481,2.0610687022900764,-2.2748091603053435,0.08837890625,-0.23291015625,-0.572509765625,0.8381
0.015267175572519083,2.122137404580153,-2.0916030534351147,0.082763671875,-0.227783203125,-0.57666015625,0.8398
0.0916030534351145,2.213740458015267,-2.1068702290076335,0.0869140625,-0.227783203125,-0.573974609375,0.8414999999999999
-0.15267175572519084,2.1526717557251906,-2.0610687022900764,0.083984375,-0.22705078125,-0.570556640625,0.8432
-0.0916030534351145,2.2595419847328246,-2.0763358778625953,0.083251953125,-0.229248046875,-0.56689453125,0.8449
0.0916030534351145,2.2290076335877864,-1.83206106870229,0.083984375,-0.225341796875,-0.5693359375,0.8465999999999999
0.1984732824427481,2.198473282442748,-2.045801526717557,0.08642578125,-0.22607421875,-0.564453125,0.8482999999999999
0.015267175572519083,2.427480916030534,-2.0610687022900764,0.09228515625,-0.226318359375,-0.5625,0.85
0.07633587786259542,2.4732824427480917,-2.1374045801526718,0.07958984375,-0.228515625,-0.572265625,0.8516999999999999
0.2595419847328244,2.549618320610687,-2.045801526717557,0.08154296875,-0.228271484375,-0.576171875,0.8533999999999999
0.16793893129770993,2.2595419847328246,-2.183206106870229,0.0888671875,-0.227783203125,-0.57763671875,0.8551
0.2748091603053435,2.2900763358778624,-1.8931297709923665,0.083984375,-0.22509765625,-0.56591796875,0.8568
0.5954198473282443,2.519083969465649,-1.9694656488549618,0.08935546875,-0.227294921875,-0.572021484375,0.8584999999999999
0.3511450381679389,2.427480916030534,-1.9083969465648856,0.088623046875,-0.226806640625,-0.57958984375,0.8602
0.3969465648854962,2.366412213740458,-1.8778625954198473,0.08544921875,-0.222412109375,-0.572021484375,0.8619
0.7786259541984732,2.3206106870229006,-2.015267175572519,0.084716796875,-0.2265625,-0.579833984375,0.8635999999999999
0.7175572519083969,2.381679389312977,-2.0610687022900764,0.08544921875,-0.227294921875,-0.576416015625,0.8653
0.7633587786259542,2.2900763358778624,-2.0,0.088623046875,-0.225341796875,-0.5634765625,0.867
0.8396946564885496,2.4122137404580153,-1.9083969465648856,0.085693359375,-0.22314453125,-0.56689453125,0.8686999999999999
0.7786259541984732,2.33587786259542,-1.8931297709923665,0.0869140625,-0.225830078125,-0.5634765625,0.8704
0.9465648854961832,2.2290076335877864,-1.7709923664122138,0.08837890625,-0.229248046875,-0.57666015625,0.8721
1.1145038167938932,2.1526717557251906,-1.7557251908396947,0.084716796875,-0.22607421875,-0.56982421875,0.8737999999999999
1.3129770992366412,2.0916030534351147,-1.7404580152671756,0.084228515625,-0.228759765625,-0.575927734375,0.8755
1.6793893129770991,2.122137404580153,-1.6030534351145038,0.09130859375,-0.22802734375,-0.5673828125,0.8772
1.5877862595419847,1.984732824427481,-1.8015267175572518,0.08642578125,-0.23291015625,-0.58203125,0.8788999999999999
1.5572519083969465,2.045801526717557,-1.5877862595419847,0.09130859375,-0.227294921875,-0.573974609375,0.8805999999999999
1.6641221374045803,2.045801526717557,-1.7099236641221374,0.088623046875,-0.22900390625,-0.569091796875,0.8823
1.8473282442748091,1.8625954198473282,-1.6641221374045803,0.087890625,-0.229248046875,-0.570556640625,0.8839999999999999
1.8778625954198473,1.83206106870229,-1.6946564885496183,0.0859375,-0.231689453125,-0.57421875,0.8856999999999999
1.786259541984733,1.8473282442748091,-1.5267175572519085,0.087890625,-0.228515625,-0.57177734375,0.8874
1.4809160305343512,1.8015267175572518,-1.465648854961832,0.0869140625,-0.22998046875,-0.57275390625,0.8891
1.6793893129770991,1.7099236641221374,-1.251908396946565,0.0859375,-0.222900390625,-0.574951171875,0.8907999999999999
1.7709923664122138,1.8625954198473282,-1.3282442748091603,0.085205078125,-0.224365234375,-0.5703125,0.8925
1.3282442748091603,1.8931297709923665,-1.3740458015267176,0.085205078125,-0.2265625,-0.567138671875,0.8942
1.4045801526717556,1.7251908396946565,-1.2671755725190839,0.0869140625,-0.229736328125,-0.57373046875,0.8958999999999999
1.3740458015267176,1.9083969465648856,-1.2213740458015268,0.08837890625,-0.2255859375,-0.5625,0.8976
0.9770992366412213,2.030534351145038,-1.251908396946565,0.0810546875,-0.229248046875,-0.56640625,0.8993
1.099236641221374,2.1068702290076335,-1.0687022900763359,0.08349609375,-0.23095703125,-0.5751953125,0.9009999999999999
1.2366412213740459,2.2290076335877864,-1.099236641221374,0.076904296875,-0.22998046875,-0.572998046875,0.9027
1.1755725190839694,2.122137404580153,-0.9923664122137404,0.081787109375,-0.2314453125,-0.5751953125,0.9044
1.099236641221374,2.030534351145038,-1.1755725190839694,0.0830078125,-0.226806640625,-0.567138671875,0.9060999999999999
0.9923664122137404,2.183206106870229,-1.0534351145038168,0.083251953125,-0.226318359375,-0.56640625,0.9077999999999999
0.9770992366412213,2.1068702290076335,-0.9770992366412213,0.082763671875,-0.2333984375,-0.5712890625,0.9095
0.9465648854961832,2.1374045801526718,-1.0534351145038168,0.08740234375,-0.224365234375,-0.574462890625,0.9111999999999999
1.0229007633587786,2.122137404580153,-1.2061068702290076,0.084228515625,-0.226806640625,-0.56494140625,0.9128999999999999
1.1145038167938932,2.0916030534351147,-0.8549618320610687,0.084716796875,-0.230712890625,-0.57080078125,0.9146
0.8549618320610687,2.16793893129771,-1.0229007633587786,0.086181640625,-0.222900390625,-0.570068359375,0.9163
0.9312977099236641,2.213740458015267,-1.0076335877862594,0.087646484375,-0.228515625,-0.581298828125,0.9179999999999999
1.0229007633587786,1.9694656488549618,-1.1450381679389312,0.08544921875,-0.2294921875,-0.572998046875,0.9197
1.0381679389312977,2.0763358778625953,-1.1145038167938932,0.084228515625,-0.226806640625,-0.573486328125,0.9214
0.9923664122137404,1.9694656488549618,-0.9770992366412213,0.086181640625,-0.22607421875,-0.57373046875,0.9230999999999999
0.9770992366412213,1.83206106870229,-1.0076335877862594,0.087646484375,-0.226806640625,-0.573486328125,0.9248
0.9923664122137404,1.9083969465648856,-1.099236641221374,0.084716796875,-0.223876953125,-0.57177734375,0.9265
1.0687022900763359,1.9236641221374047,-1.1755725190839694,0.088134765625,-0.225341796875,-0.573486328125,0.9281999999999999
1.0381679389312977,1.8625954198473282,-1.099236641221374,0.0849609375,-0.227783203125,-0.56982421875,0.9299
1.083969465648855,1.786259541984733,-1.297709923664122,0.085693359375,-0.22607421875,-0.569091796875,0.9316
1.1603053435114503,1.7709923664122138,-1.2213740458015268,0.086181640625,-0.225830078125,-0.580078125,0.9332999999999999
1.1450381679389312,1.8473282442748091,-1.251908396946565,0.085693359375,-0.224365234375,-0.572998046875,0.9349999999999999
1.099236641221374,1.8473282442748091,-1.0687022900763359,0.091064453125,-0.22412109375,-0.5771484375,0.9367
0.916030534351145,1.786259541984733,-1.099236641221374,0.0859375,-0.225341796875,-0.5693359375,0.9383999999999999
0.916030534351145,1.633587786259542,-1.0687022900763359,0.088623046875,-0.227783203125,-0.578369140625,0.9400999999999999
0.8854961832061069,1.6488549618320612,-1.2213740458015268,0.0810546875,-0.21875,-0.574462890625,0.9418
0.7633587786259542,1.8473282442748091,-1.2671755725190839,0.086181640625,-0.223876953125,-0.57177734375,0.9434999999999999
0.8396946564885496,1.6641221374045803,-1.083969465648855,0.087890625,-0.226318359375,-0.56787109375,0.9451999999999999
0.7938931297709924,1.7251908396946565,-1.1145038167938932,0.091552734375,-0.22412109375,-0.567626953125,0.9469
0.6106870229007634,1.7404580152671756,-1.1603053435114503,0.0888671875,-0.22412109375,-0.56591796875,0.9486
0.5190839694656488,1.816793893129771,-1.099236641221374,0.08447265625,-0.23046875,-0.56494140625,0.9502999999999999
0.6412213740458015,1.5877862595419847,-1.3282442748091603,0.087158203125,-0.225830078125,-0.5771484375,0.952
0.4732824427480916,1.4961832061068703,-1.3282442748091603,0.08154296875,-0.225830078125,-0.576171875,0.9537
0.5190839694656488,1.3282442748091603,-1.2213740458015268,0.087158203125,-0.2236328125,-0.576904296875,0.9553999999999999
0.6870229007633588,1.4809160305343512,-1.1297709923664123,0.08447265625,-0.2265625,-0.576904296875,0.9571
0.3816793893129771,1.2671755725190839,-1.1755725190839694,0.08447265625,-0.224853515625,-0.568603515625,0.9588
0.3511450381679389,1.1603053435114503,-1.2213740458015268,0.08740234375,-0.22802734375,-0.5771484375,0.9604999999999999
0.6106870229007634,1.1908396946564885,-1.083969465648855,0.08154296875,-0.22998046875,-0.572998046875,0.9621999999999999
0.5648854961832062,1.1908396946564885,-1.1603053435114503,0.087158203125,-0.228759765625,-0.570068359375,0.9639
0.3816793893129771,1.2061068702290076,-1.2213740458015268,0.085693359375,-0.22412109375,-0.56884765625,0.9655999999999999
0.2748091603053435,1.1297709923664123,-0.9770992366412213,0.081298828125,-0.2236328125,-0.56982421875,0.9672999999999999
0.5038167938931297,1.2213740458015268,-1.1755725190839694,0.084228515625,-0.228759765625,-0.578125,0.969
0.366412213740458,1.1603053435114503,-1.2671755725190839,0.09228515625,-0.2255859375,-0.567138671875,0.9706999999999999
0.2748091603053435,1.1297709923664123,-1.3282442748091603,0.089111328125,-0.2294921875,-0.57080078125,0.9723999999999999
0.3969465648854962,1.1755725190839694,-1.3282442748091603,0.087890625,-0.22265625,-0.57421875,0.9741
0.3511450381679389,1.3129770992366412,-1.2213740458015268,0.090087890625,-0.226806640625,-0.571533203125,0.9758
0.2748091603053435,1.4198473282442747,-1.4045801526717556,0.089111328125,-0.227294921875,-0.577392578125,0.9774999999999999
0.22900763358778625,1.2671755725190839,-1.4961832061068703,0.0908203125,-0.224365234375,-0.57080078125,0.9792
0.32061068702290074,1.4045801526717556,-1.2671755725190839,0.0859375,-0.221923828125,-0.568603515625,0.9809
0.7022900763358778,1.465648854961832,-1.4351145038167938,0.082275390625,-0.22509765625,-0.57373046875,0.9825999999999999
0.3511450381679389,1.251908396946565,-1.2213740458015268,0.085205078125,-0.224365234375,-0.5732421875,0.9843
0.32061068702290074,1.1450381679389312,-1.4961832061068703,0.0908203125,-0.224609375,-0.5751953125,0.986
0.44274809160305345,1.3435114503816794,-1.4198473282442747,0.0849609375,-0.2265625,-0.56884765625,0.9876999999999999
0.5343511450381679,1.1297709923664123,-1.282442748091603,0.084716796875,-0.228271484375,-0.57177734375,0.9894
0.4732824427480916,0.9465648854961832,-1.1908396946564885,0.085693359375,-0.227294921875,-0.566650390625,0.9911
0.3511450381679389,1.297709923664122,-1.3740458015267176,0.08642578125,-0.226318359375,-0.568115234375,0.9927999999999999
0.4580152671755725,1.1145038167938932,-1.3435114503816794,0.0888671875,-0.224853515625,-0.57568359375,0.9944999999999999
0.5343511450381679,1.0229007633587786,-1.465648854961832,0.086181640625,-0.224609375,-0.56103515625,0.9962
0.4580152671755725,1.0076335877862594,-1.2671755725190839,0.0888671875,-0.228271484375,-0.568115234375,0.9978999999999999
0.549618320610687,1.0534351145038168,-1.4198473282442747,0.0859375,-0.229248046875,-0.577880859375,0.9995999999999999
0.5038167938931297,1.099236641221374,-1.4045801526717556,0.0830078125,-0.2294921875,-0.566650390625,1.0012999999999999
0.6106870229007634,1.0687022900763359,-1.5114503816793894,0.088623046875,-0.230712890625,-0.562255859375,1.003
0.6870229007633588,0.8854961832061069,-1.3435114503816794,0.082275390625,-0.22509765625,-0.571533203125,1.0047
0.5648854961832062,1.0534351145038168,-1.5877862595419847,0.082763671875,-0.226806640625,-0.57666015625,1.0064
0.5038167938931297,1.1450381679389312,-1.4809160305343512,0.087158203125,-0.2294921875,-0.576904296875,1.0081
0.6259541984732825,1.1297709923664123,-1.4961832061068703,0.086181640625,-0.22802734375,-0.57275390625,1.0098
0.5190839694656488,0.9770992366412213,-1.4961832061068703,0.087158203125,-0.2255859375,-0.574462890625,1.0114999999999998
0.6717557251908397,0.9770992366412213,-1.4351145038167938,0.08203125,-0.230224609375,-0.564453125,1.0131999999999999
0.6412213740458015,1.0381679389312977,-1.465648854961832,0.085205078125,-0.2255859375,-0.568603515625,1.0149
0.42748091603053434,1.1603053435114503,-1.6488549618320612,0.0859375,-0.225341796875,-0.56787109375,1.0166
0.33587786259541985,1.2366412213740459,-1.4809160305343512,0.0869140625,-0.227294921875,-0.556884765625,1.0183
0.3816793893129771,1.3740458015267176,-1.4198473282442747,0.085205078125,-0.22607421875,-0.569580078125,1.02
0.5648854961832062,1.2366412213740459,-1.450381679389313,0.08349609375,-0.222900390625,-0.56884765625,1.0217
0.3053435114503817,1.3587786259541985,-1.5572519083969465,0.081298828125,-0.22607421875,-0.572509765625,1.0233999999999999
0.22900763358778625,1.4961832061068703,-1.3893129770992367,0.083251953125,-0.228271484375,-0.564453125,1.0251
0.2595419847328244,1.450381679389313,-1.3435114503816794,0.083740234375,-0.228759765625,-0.570068359375,1.0268
0.5190839694656488,1.4809160305343512,-1.450381679389313,0.081298828125,-0.22314453125,-0.576171875,1.0285
0.5190839694656488,1.4809160305343512,-1.4045801526717556,0.0849609375,-0.224609375,-0.564453125,1.0302
0.549618320610687,1.633587786259542,-1.3435114503816794,0.07861328125,-0.2294921875,-0.56005859375,1.0319
0.7022900763358778,1.4198473282442747,-1.3740458015267176,0.078369140625,-0.23193359375,-0.576904296875,1.0335999999999999
0.7786259541984732,1.5725190839694656,-1.2671755725190839,0.085693359375,-0.2294921875,-0.575439453125,1.0352999999999999
1.0534351145038168,1.5114503816793894,-1.4961832061068703,0.08544921875,-0.228759765625,-0.56591796875,1.037
1.1297709923664123,1.4351145038167938,-1.4045801526717556,0.084228515625,-0.227783203125,-0.561767578125,1.0387
1.1145038167938932,1.6030534351145038,-1.3893129770992367,0.08642578125,-0.232177734375,-0.57275390625,1.0404
1.3893129770992367,1.6946564885496183,-1.1297709923664123,0.088134765625,-0.22802734375,-0.572021484375,1.0421
1.633587786259542,1.6488549618320612,-1.1297709923664123,0.085205078125,-0.22412109375,-0.573974609375,1.0437999999999998
1.5725190839694656,1.4198473282442747,-1.0687022900763359,0.0859375,-0.230224609375,-0.567626953125,1.0454999999999999
1.3740458015267176,1.6641221374045803,-1.2366412213740459,0.0810546875,-0.225341796875,-0.5654296875,1.0472
1.7404580152671756,1.3893129770992367,-1.1145038167938932,0.0830078125,-0.225341796875,-0.562744140625,1.0489
1.5114503816793894,1.4809160305343512,-1.3129770992366412,0.082275390625,-0.230712890625,-0.573486328125,1.0506
1.3740458015267176,1.465648854961832,-1.251908396946565,0.080078125,-0.227294921875,-0.578125,1.0523
1.4809160305343512,1.465648854961832,-1.1297709923664123,0.082275390625,-0.227783203125,-0.57421875,1.054
1.5114503816793894,1.3435114503816794,-1.251908396946565,0.085693359375,-0.223876953125,-0.574951171875,1.0556999999999999
1.2671755725190839,1.4045801526717556,-1.1145038167938932,0.086181640625,-0.23486328125,-0.57568359375,1.0574
1.282442748091603,1.3587786259541985,-1.2366412213740459,0.08642578125,-0.22900390625,-0.568359375,1.0591
1.3587786259541985,1.2366412213740459,-1.3435114503816794,0.087890625,-0.231689453125,-0.560546875,1.0608
1.5572519083969465,1.3282442748091603,-1.4198473282442747,0.086181640625,-0.22900390625,-0.5673828125,1.0625
1.2366412213740459,1.3129770992366412,-1.3893129770992367,0.082763671875,-0.2255859375,-0.571533203125,1.0642
1.3435114503816794,1.3587786259541985,-1.5877862595419847,0.08203125,-0.223388671875,-0.57568359375,1.0658999999999998
1.5267175572519085,1.282442748091603,-1.5114503816793894,0.08984375,-0.231201171875,-0.572265625,1.0675999999999999
1.6030534351145038,1.2061068702290076,-1.5419847328244274,0.08642578125,-0.22509765625,-0.572021484375,1.0693
1.5725190839694656,1.251908396946565,-1.6488549618320612,0.0869140625,-0.225341796875,-0.572265625,1.071
1.6488549618320612,1.0076335877862594,-1.7099236641221374,0.0849609375,-0.22216796875,-0.57177734375,1.0727
1.5725190839694656,1.0229007633587786,-1.6946564885496183,0.087158203125,-0.22802734375,-0.5771484375,1.0744
1.7251908396946565,1.3435114503816794,-1.786259541984733,0.08447265625,-0.22216796875,-0.57470703125,1.0760999999999998
1.5419847328244274,1.099236641221374,-1.5877862595419847,0.087158203125,-0.22314453125,-0.57421875,1.0777999999999999
1.4961832061068703,1.1297709923664123,-1.5572519083969465,0.089599609375,-0.22412109375,-0.572998046875,1.0795
1.465648854961832,1.3435114503816794,-1.5419847328244274,0.087646484375,-0.227294921875,-0.576416015625,1.0812
1.4045801526717556,1.3435114503816794,-1.6030534351145038,0.091064453125,-0.22607421875,-0.57373046875,1.0829
1.5114503816793894,1.3129770992366412,-1.4351145038167938,0.084228515625,-0.2265625,-0.567138671875,1.0846
1.5572519083969465,1.5267175572519085,-1.3740458015267176,0.0859375,-0.228515625,-0.568359375,1.0863
1.618320610687023,1.5572519083969465,-1.450381679389313,0.0869140625,-0.2275390625,-0.570068359375,1.0879999999999999
1.5114503816793894,1.251908396946565,-1.450381679389313,0.08935546875,-0.23046875,-0.566162109375,1.0897
1.3587786259541985,1.3893129770992367,-1.3893129770992367,0.09375,-0.22900390625,-0.577880859375,1.0914
1.3587786259541985,1.297709923664122,-1.3435114503816794,0.08984375,-0.227294921875,-0.5625,1.0931
1.618320610687023,1.3587786259541985,-1.297709923664122,0.089111328125,-0.227783203125,-0.57177734375,1.0948
1.6488549618320612,1.3587786259541985,-1.3740458015267176,0.091552734375,-0.23046875,-0.568115234375,1.0965
1.6030534351145038,1.282442748091603,-1.4351145038167938,0.0830078125,-0.232666015625,-0.574462890625,1.0981999999999998
1.4351145038167938,1.3893129770992367,-1.3893129770992367,0.0810546875,-0.23046875,-0.572509765625,1.0998999999999999
1.5114503816793894,1.3740458015267176,-1.4198473282442747,0.089111328125,-0.23095703125,-0.572509765625,1.1016
1.4198473282442747,1.0687022900763359,-1.4809160305343512,0.08984375,-0.231689453125,-0.574462890625,1.1033
1.2366412213740459,1.1297709923664123,-1.3129770992366412,0.092041015625,-0.232421875,-0.573974609375,1.105
1.297709923664122,1.1755725190839694,-1.297709923664122,0.08740234375,-0.230712890625,-0.57373046875,1.1067
1.0687022900763359,1.1603053435114503,-1.3129770992366412,0.093994140625,-0.227783203125,-0.572509765625,1.1083999999999998
0.9312977099236641,1.2061068702290076,-1.3893129770992367,0.09130859375,-0.22802734375,-0.576171875,1.1100999999999999
1.0076335877862594,1.3129770992366412,-1.4045801526717556,0.090087890625,-0.229736328125,-0.569580078125,1.1118
0.9007633587786259,1.1450381679389312,-1.3893129770992367,0.091796875,-0.228271484375,-0.56787109375,1.1135
0.8396946564885496,1.3435114503816794,-1.1755725190839694,0.093505859375,-0.23095703125,-0.5693359375,1.1152
1.0229007633587786,1.297709923664122,-1.1297709923664123,0.0888671875,-0.23095703125,-0.572509765625,1.1169
0.9312977099236641,1.3893129770992367,-1.0534351145038168,0.087890625,-0.232421875,-0.568115234375,1.1186
0.9618320610687023,1.4351145038167938,-1.1145038167938932,0.093505859375,-0.22802734375,-0.568603515625,1.1202999999999999
0.8854961832061069,1.1908396946564885,-0.916030534351145,0.087646484375,-0.22607421875,-0.56884765625,1.1219999999999999
1.1297709923664123,1.2366412213740459,-1.0229007633587786,0.090576171875,-0.2275390625,-0.572509765625,1.1237
1.1145038167938932,1.2366412213740459,-0.8549618320610687,0.09130859375,-0.225341796875,-0.57177734375,1.1254
1.4045801526717556,1.1755725190839694,-1.0534351145038168,0.087890625,-0.222900390625,-0.567138671875,1.1271
1.4198473282442747,1.0076335877862594,-0.9618320610687023,0.0869140625,-0.230224609375,-0.57080078125,1.1288
1.3587786259541985,0.8854961832061069,-1.099236641221374,0.091552734375,-0.2275390625,-0.5771484375,1.1304999999999998
1.251908396946565,0.9770992366412213,-0.8244274809160306,0.088623046875,-0.22900390625,-0.57470703125,1.1321999999999999
1.5114503816793894,0.8549618320610687,-1.0381679389312977,0.093994140625,-0.23193359375,-0.57568359375,1.1339
1.7251908396946565,0.8244274809160306,-0.9770992366412213,0.087890625,-0.22412109375,-0.565673828125,1.1356
1.4809160305343512,0.9007633587786259,-1.0687022900763359,0.092529296875,-0.22412109375,-0.572265625,1.1373
1.4809160305343512,0.7022900763358778,-1.099236641221374,0.08740234375,-0.224853515625,-0.575927734375,1.139
1.7404580152671756,0.5648854961832062,-1.1908396946564885,0.087646484375,-0.2294921875,-0.5703125,1.1407
1.7251908396946565,0.6870229007633588,-1.0687022900763359,0.083984375,-0.22412109375,-0.574462890625,1.1423999999999999
2.0,0.732824427480916,-1.4045801526717556,0.0869140625,-0.22607421875,-0.565673828125,1.1441
1.9694656488549618,0.5801526717557252,-1.251908396946565,0.091796875,-0.226318359375,-0.567138671875,1.1458
1.984732824427481,0.48854961832061067,-1.2061068702290076,0.085205078125,-0.230712890625,-0.576416015625,1.1475
1.9389312977099236,0.5343511450381679,-1.3129770992366412,0.089111328125,-0.228271484375,-0.57958984375,1.1492
1.9541984732824427,0.549618320610687,-1.3435114503816794,0.0869140625,-0.2255859375,-0.565673828125,1.1509
2.0763358778625953,0.5801526717557252,-1.3587786259541985,0.088623046875,-0.226806640625,-0.575927734375,1.1525999999999998
2.0763358778625953,0.6259541984732825,-1.465648854961832,0.0888671875,-0.234375,-0.57275390625,1.1542999999999999
1.984732824427481,0.6564885496183206,-1.4198473282442747,0.08642578125,-0.228271484375,-0.57470703125,1.156
1.83206106870229,0.6259541984732825,-1.5572519083969465,0.08447265625,-0.228515625,-0.57080078125,1.1577
1.83206106870229,0.6412213740458015,-1.4045801526717556,0.087646484375,-0.226806640625,-0.568603515625,1.1594
1.6030534351145038,0.6717557251908397,-1.450381679389313,0.087158203125,-0.23095703125,-0.573974609375,1.1611
1.5267175572519085,0.549618320610687,-1.4809160305343512,0.0830078125,-0.231201171875,-0.570556640625,1.1627999999999998
1.4045801526717556,0.5954198473282443,-1.6641221374045803,0.089599609375,-0.2294921875,-0.5791015625,1.1644999999999999
1.5572519083969465,0.5648854961832062,-1.465648854961832,0.085205078125,-0.236083984375,-0.578857421875,1.1662
1.6030534351145038,0.48854961832061067,-1.5725190839694656,0.082763671875,-0.22900390625,-0.5751953125,1.1679
1.4045801526717556,0.5648854961832062,-1.7709923664122138,0.087646484375,-0.23388671875,-0.56884765625,1.1696
1.251908396946565,0.5648854961832062,-1.7709923664122138,0.087158203125,-0.228759765625,-0.582763671875,1.1713
1.2213740458015268,0.3511450381679389,-1.633587786259542,0.082275390625,-0.23095703125,-0.5771484375,1.173
1.1603053435114503,0.3511450381679389,-1.7251908396946565,0.091552734375,-0.22509765625,-0.576416015625,1.1746999999999999
1.1603053435114503,0.2748091603053435,-1.6641221374045803,0.087158203125,-0.233154296875,-0.576171875,1.1764
0.916030534351145,0.24427480916030533,-1.786259541984733,0.0859375,-0.23046875,-0.56787109375,1.1781
0.9312977099236641,0.2900763358778626,-1.6488549618320612,0.0888671875,-0.226806640625,-0.575927734375,1.1798
0.8244274809160306,0.2900763358778626,-1.6641221374045803,0.088134765625,-0.2294921875,-0.57763671875,1.1815
0.8091603053435115,0.44274809160305345,-1.8625954198473282,0.0849609375,-0.231689453125,-0.579833984375,1.1832
0.7175572519083969,0.2900763358778626,-1.8931297709923665,0.0869140625,-0.230224609375,-0.578857421875,1.1848999999999998
0.7480916030534351,0.2595419847328244,-1.7251908396946565,0.08935546875,-0.226318359375,-0.573974609375,1.1865999999999999
0.4732824427480916,0.44274809160305345,-1.7557251908396947,0.087158203125,-0.22607421875,-0.578857421875,1.1883
0.33587786259541985,0.24427480916030533,-1.816793893129771,0.09228515625,-0.22216796875,-0.574462890625,1.19
0.4122137404580153,0.3816793893129771,-2.0,0.08935546875,-0.231201171875,-0.585205078125,1.1917
0.48854961832061067,0.2900763358778626,-1.9389312977099236,0.08984375,-0.22265625,-0.578857421875,1.1934
0.21374045801526717,0.2595419847328244,-1.8778625954198473,0.089111328125,-0.225341796875,-0.576904296875,1.1950999999999998
0.061068702290076333,0.4122137404580153,-1.9541984732824427,0.09130859375,-0.22998046875,-0.570068359375,1.1967999999999999
0.21374045801526717,0.24427480916030533,-2.0916030534351147,0.08935546875,-0.226318359375,-0.572265625,1.1985
0.24427480916030533,0.16793893129770993,-1.9694656488549618,0.09130859375,-0.22900390625,-0.57568359375,1.2002
0.07633587786259542,0.12213740458015267,-2.0916030534351147,0.091796875,-0.23095703125,-0.569091796875,1.2019
0.183206106870229,0.061068702290076333,-1.9083969465648856,0.091552734375,-0.227294921875,-0.584228515625,1.2036
0.549618320610687,0.15267175572519084,-1.9389312977099236,0.09033203125,-0.22802734375,-0.5732421875,1.2053
0.48854961832061067,0.061068702290076333,-2.2900763358778624,0.088134765625,-0.223876953125,-0.576171875,1.2069999999999999
0.6412213740458015,-0.015267175572519083,-2.015267175572519,0.08837890625,-0.23095703125,-0.576171875,1.2086999999999999
0.7786259541984732,-0.15267175572519084,-2.0916030534351147,0.090576171875,-0.234619140625,-0.572998046875,1.2104
1.0076335877862594,-0.015267175572519083,-2.213740458015267,0.08984375,-0.232421875,-0.5693359375,1.2121
0.7786259541984732,-0.13740458015267176,-2.0610687022900764,0.087890625,-0.22802734375,-0.572509765625,1.2138
0.7786259541984732,-0.2748091603053435,-2.1068702290076335,0.090087890625,-0.22705078125,-0.5732421875,1.2155
0.8854961832061069,-0.16793893129770993,-2.030534351145038,0.094482421875,-0.225341796875,-0.5732421875,1.2171999999999998
1.0381679389312977,-0.13740458015267176,-2.0916030534351147,0.086181640625,-0.2294921875,-0.568115234375,1.2188999999999999
0.9923664122137404,-0.2748091603053435,-2.2900763358778624,0.082275390625,-0.23046875,-0.575439453125,1.2206
1.0534351145038168,-0.48854961832061067,-2.0,0.091796875,-0.2333984375,-0.56884765625,1.2223
1.251908396946565,-0.24427480916030533,-2.045801526717557,0.08642578125,-0.22998046875,-0.56787109375,1.224
1.3282442748091603,-0.061068702290076333,-1.786259541984733,0.08349609375,-0.230712890625,-0.570556640625,1.2257
1.1755725190839694,-0.07633587786259542,-2.015267175572519,0.083251953125,-0.2275390625,-0.572265625,1.2273999999999998
1.0076335877862594,-0.22900763358778625,-1.9694656488549618,0.088134765625,-0.23095703125,-0.57080078125,1.2290999999999999
1.0076335877862594,-0.15267175572519084,-1.8625954198473282,0.0859375,-0.22705078125,-0.576171875,1.2308
1.0381679389312977,-0.04580152671755725,-1.9083969465648856,0.080810546875,-0.229248046875,-0.5751953125,1.2325
1.1297709923664123,0.030534351145038167,-1.8931297709923665,0.082763671875,-0.227294921875,-0.572998046875,1.2342
0.7022900763358778,-0.04580152671755725,-1.8473282442748091,0.08837890625,-0.226318359375,-0.569091796875,1.2359
0.7938931297709924,0.13740458015267176,-1.7404580152671756,0.08740234375,-0.22607421875,-0.5703125,1.2376
0.8702290076335878,0.0916030534351145,-1.6488549618320612,0.08544921875,-0.224853515625,-0.576416015625,1.2392999999999998
0.8854961832061069,0.21374045801526717,-1.8931297709923665,0.08740234375,-0.231201171875,-0.575439453125,1.2409999999999999
0.6259541984732825,0.2900763358778626,-1.6641221374045803,0.08349609375,-0.2275390625,-0.573974609375,1.2427
0.8091603053435115,0.1984732824427481,-1.633587786259542,0.0888671875,-0.2236328125,-0.578125,1.2444
0.8854961832061069,0.366412213740458,-1.633587786259542,0.085205078125,-0.228759765625,-0.57763671875,1.2461
1.1450381679389312,0.48854961832061067,-1.7709923664122138,0.081298828125,-0.229248046875,-0.571044921875,1.2478
1.1908396946564885,0.549618320610687,-1.5114503816793894,0.08935546875,-0.231201171875,-0.56787109375,1.2494999999999998
1.2213740458015268,0.5648854961832062,-1.6030534351145038,0.091064453125,-0.23388671875,-0.5703125,1.2511999999999999
1.2671755725190839,0.5648854961832062,-1.6030534351145038,0.08447265625,-0.227783203125,-0.569580078125,1.2529
1.0534351145038168,0.6259541984732825,-1.6488549618320612,0.082763671875,-0.226806640625,-0.567626953125,1.2546
1.0687022900763359,0.732824427480916,-1.5572519083969465,0.087158203125,-0.234375,-0.572021484375,1.2563
1.0534351145038168,0.6259541984732825,-1.786259541984733,0.09033203125,-0.232666015625,-0.569091796875,1.258
0.916030534351145,0.5343511450381679,-1.633587786259542,0.084716796875,-0.231201171875,-0.561279296875,1.2596999999999998
0.7633587786259542,0.6412213740458015,-1.6946564885496183,0.081298828125,-0.2333984375,-0.565673828125,1.2613999999999999
0.6564885496183206,0.549618320610687,-1.6946564885496183,0.08642578125,-0.228515625,-0.57275390625,1.2631
0.7480916030534351,1.0687022900763359,-1.7404580152671756,0.08154296875,-0.234619140625,-0.57373046875,1.2648
0.6412213740458015,1.0229007633587786,-1.7099236641221374,0.082763671875,-0.231689453125,-0.572021484375,1.2665
0.5648854961832062,0.8854961832061069,-1.83206106870229,0.088623046875,-0.2294921875,-0.573974609375,1.2682
0.6717557251908397,0.9465648854961832,-1.7404580152671756,0.0849609375,-0.22705078125,-0.5771484375,1.2699
0.7633587786259542,0.9770992366412213,-1.7404580152671756,0.0908203125,-0.228515625,-0.558349609375,1.2715999999999998
0.7175572519083969,1.0076335877862594,-1.8015267175572518,0.086181640625,-0.227783203125,-0.572021484375,1.2732999999999999
0.7633587786259542,1.1908396946564885,-1.9236641221374047,0.084716796875,-0.231201171875,-0.573486328125,1.275
0.6412213740458015,1.0381679389312977,-1.6793893129770991,0.09033203125,-0.2265625,-0.571533203125,1.2767
0.5954198473282443,0.916030534351145,-1.7099236641221374,0.0810546875,-0.22509765625,-0.572509765625,1.2784
0.6106870229007634,1.083969465648855,-1.7557251908396947,0.088623046875,-0.234619140625,-0.583251953125,1.2801
0.549618320610687,1.083969465648855,-1.83206106870229,0.0849609375,-0.22705078125,-0.57080078125,1.2817999999999998
0.5343511450381679,1.0534351145038168,-1.6793893129770991,0.087890625,-0.2294921875,-0.565673828125,1.2834999999999999
0.732824427480916,1.0687022900763359,-1.8015267175572518,0.0908203125,-0.22607421875,-0.577392578125,1.2852
0.732824427480916,1.0076335877862594,-1.8931297709923665,0.08349609375,-0.221435546875,-0.57275390625,1.2869
0.8396946564885496,1.099236641221374,-1.9541984732824427,0.09228515625,-0.229736328125,-0.57568359375,1.2886
0.9770992366412213,1.282442748091603,-1.8015267175572518,0.092041015625,-0.2314453125,-0.571533203125,1.2903
1.0076335877862594,1.1145038167938932,-1.8625954198473282,0.082763671875,-0.228515625,-0.56494140625,1.292
1.3129770992366412,0.9465648854961832,-1.8015267175572518,0.088623046875,-0.227783203125,-0.57666015625,1.2936999999999999
1.5725190839694656,1.083969465648855,-1.9694656488549618,0.086181640625,-0.22802734375,-0.575927734375,1.2953999999999999
1.6793893129770991,0.8396946564885496,-1.9389312977099236,0.087158203125,-0.2275390625,-0.572998046875,1.2971
1.7557251908396947,0.916030534351145,-1.984732824427481,0.092041015625,-0.228271484375,-0.57666015625,1.2988
1.8778625954198473,1.0076335877862594,-2.183206106870229,0.0927734375,-0.223876953125,-0.572509765625,1.3005
2.015267175572519,1.0534351145038168,-2.381679389312977,0.07958984375,-0.224365234375,-0.580078125,1.3022
2.045801526717557,0.8702290076335878,-2.0763358778625953,0.087646484375,-0.223876953125,-0.567138671875,1.3038999999999998
1.9083969465648856,1.0687022900763359,-2.122137404580153,0.089599609375,-0.223388671875,-0.572021484375,1.3055999999999999
1.7251908396946565,1.2061068702290076,-2.2290076335877864,0.088623046875,-0.22412109375,-0.577392578125,1.3073
1.6946564885496183,1.1450381679389312,-2.2595419847328246,0.08056640625,-0.22412109375,-0.5869140625,1.309
1.7404580152671756,1.2366412213740459,-2.2900763358778624,0.082275390625,-0.2314453125,-0.576416015625,1.3107
1.7404580152671756,1.3893129770992367,-2.3969465648854964,0.0869140625,-0.2236328125,-0.574951171875,1.3124
1.633587786259542,1.4198473282442747,-2.3053435114503817,0.08935546875,-0.2255859375,-0.569091796875,1.3140999999999998
1.4809160305343512,1.4045801526717556,-2.4885496183206106,0.0849609375,-0.224609375,-0.5732421875,1.3157999999999999
1.5572519083969465,1.465648854961832,-2.351145038167939,0.081298828125,-0.22802734375,-0.574951171875,1.3175
1.282442748091603,1.3587786259541985,-2.33587786259542,0.086181640625,-0.226318359375,-0.572265625,1.3192
1.4961832061068703,1.3129770992366412,-2.2595419847328246,0.076904296875,-0.2294921875,-0.5751953125,1.3209
1.3740458015267176,1.5114503816793894,-2.122137404580153,0.079833984375,-0.232666015625,-0.573974609375,1.3226
1.297709923664122,1.7099236641221374,-2.198473282442748,0.087158203125,-0.23291015625,-0.571533203125,1.3243
1.1755725190839694,1.6793893129770991,-2.198473282442748,0.082763671875,-0.23046875,-0.572509765625,1.3259999999999998
1.1297709923664123,1.5572519083969465,-2.1526717557251906,0.088134765625,-0.227294921875,-0.572265625,1.3276999999999999
1.0687022900763359,1.8015267175572518,-2.2290076335877864,0.09033203125,-0.23095703125,-0.56396484375,1.3294
1.2366412213740459,1.786259541984733,-2.122137404580153,0.081787109375,-0.23095703125,-0.56787109375,1.3311
1.1603053435114503,1.7404580152671756,-2.198473282442748,0.078857421875,-0.23095703125,-0.573974609375,1.3328
0.9465648854961832,1.83206106870229,-1.9236641221374047,0.0791015625,-0.227294921875,-0.57080078125,1.3345
0.8702290076335878,1.8931297709923665,-2.030534351145038,0.084228515625,-0.230712890625,-0.577880859375,1.3361999999999998
0.9465648854961832,1.8473282442748091,-2.0,0.0849609375,-0.234375,-0.575439453125,1.3378999999999999
0.8702290076335878,2.0610687022900764,-2.030534351145038,0.08544921875,-0.233642578125,-0.572265625,1.3396
0.6870229007633588,1.7251908396946565,-1.8625954198473282,0.0849609375,-0.22802734375,-0.579833984375,1.3413
0.6564885496183206,1.816793893129771,-1.9541984732824427,0.08447265625,-0.233154296875,-0.580810546875,1.343
0.7480916030534351,2.015267175572519,-1.8931297709923665,0.08447265625,-0.226318359375,-0.574462890625,1.3447
0.4580152671755725,1.786259541984733,-1.984732824427481,0.08642578125,-0.2294921875,-0.5732421875,1.3463999999999998
0.5648854961832062,1.6946564885496183,-1.8015267175572518,0.086181640625,-0.2255859375,-0.571533203125,1.3480999999999999
0.366412213740458,1.8931297709923665,-1.9083969465648856,0.08837890625,-0.227783203125,-0.573974609375,1.3497999999999999
0.33587786259541985,1.8625954198473282,-1.5725190839694656,0.087158203125,-0.229736328125,-0.571044921875,1.3515
0.44274809160305345,1.6946564885496183,-1.6946564885496183,0.082763671875,-0.2216796875,-0.574462890625,1.3532
0.5038167938931297,1.8473282442748091,-1.7404580152671756,0.083740234375,-0.22802734375,-0.5751953125,1.3549
0.6870229007633588,1.8015267175572518,-1.7709923664122138,0.087158203125,-0.23046875,-0.57177734375,1.3566
0.6412213740458015,1.8625954198473282,-1.6488549618320612,0.08544921875,-0.230224609375,-0.572509765625,1.3582999999999998
1.0076335877862594,1.8778625954198473,-1.5419847328244274,0.083984375,-0.22705078125,-0.568115234375,1.3599999999999999
0.8091603053435115,1.8625954198473282,-1.5877862595419847,0.08154296875,-0.228515625,-0.574951171875,1.3617
1.0381679389312977,1.816793893129771,-1.465648854961832,0.083251953125,-0.228271484375,-0.5673828125,1.3634
1.1450381679389312,1.816793893129771,-1.3129770992366412,0.086181640625,-0.23046875,-0.574951171875,1.3651
1.2366412213740459,1.6793893129770991,-1.5419847328244274,0.083984375,-0.2275390625,-0.576416015625,1.3668
1.2061068702290076,1.8625954198473282,-1.3893129770992367,0.08740234375,-0.2255859375,-0.574951171875,1.3684999999999998
1.2671755725190839,1.816793893129771,-1.4045801526717556,0.08740234375,-0.227294921875,-0.56640625,1.3701999999999999
1.4961832061068703,1.633587786259542,-1.3129770992366412,0.08544921875,-0.22412109375,-0.567626953125,1.3719
1.1908396946564885,1.816793893129771,-1.3129770992366412,0.08837890625,-0.226318359375,-0.562744140625,1.3736
1.5267175572519085,1.6641221374045803,-1.0687022900763359,0.08203125,-0.221923828125,-0.56494140625,1.3753
1.3740458015267176,1.7557251908396947,-1.099236641221374,0.07861328125,-0.22705078125,-0.56201171875,1.377
1.1603053435114503,1.7404580152671756,-1.2213740458015268,0.082275390625,-0.22900390625,-0.571044921875,1.3786999999999998
1.3435114503816794,1.7709923664122138,-1.2061068702290076,0.08349609375,-0.221923828125,-0.564453125,1.3803999999999998
1.3435114503816794,1.7099236641221374,-1.251908396946565,0.083251953125,-0.224853515625,-0.574951171875,1.3820999999999999
1.4198473282442747,1.7251908396946565,-1.0381679389312977,0.084228515625,-0.228515625,-0.57080078125,1.3838
1.5877862595419847,1.6641221374045803,-1.0381679389312977,0.085205078125,-0.224365234375,-0.569580078125,1.3855
1.4351145038167938,1.4809160305343512,-1.1450381679389312,0.078857421875,-0.224853515625,-0.5751953125,1.3872
1.5725190839694656,1.465648854961832,-1.3435114503816794,0.0859375,-0.22119140625,-0.572265625,1.3889
1.5725190839694656,1.5877862595419847,-1.2366412213740459,0.078369140625,-0.220703125,-0.566162109375,1.3905999999999998
1.6641221374045803,1.3587786259541985,-1.0687022900763359,0.083740234375,-0.22216796875,-0.567138671875,1.3922999999999999
1.4351145038167938,1.2366412213740459,-0.9923664122137404,0.082275390625,-0.22021484375,-0.574462890625,1.394
1.4351145038167938,1.282442748091603,-1.1908396946564885,0.087158203125,-0.22314453125,-0.578125,1.3957
1.5114503816793894,1.1755725190839694,-1.1908396946564885,0.08349609375,-0.22412109375,-0.568603515625,1.3974
1.3893129770992367,1.1755725190839694,-1.2061068702290076,0.083251953125,-0.229248046875,-0.5791015625,1.3991
1.5114503816793894,1.3282442748091603,-1.1908396946564885,0.084716796875,-0.226318359375,-0.5693359375,1.4007999999999998
1.083969465648855,1.0381679389312977,-1.297709923664122,0.085693359375,-0.2255859375,-0.5693359375,1.4024999999999999
1.1297709923664123,1.1450381679389312,-1.1908396946564885,0.087890625,-0.2275390625,-0.5732421875,1.4042
1.1450381679389312,1.2213740458015268,-1.251908396946565,0.084716796875,-0.222900390625,-0.573486328125,1.4059
1.3129770992366412,1.1603053435114503,-1.1755725190839694,0.08642578125,-0.226806640625,-0.5703125,1.4076
1.083969465648855,1.0534351145038168,-1.1450381679389312,0.088623046875,-0.224609375,-0.576171875,1.4093
0.9465648854961832,1.0229007633587786,-1.1145038167938932,0.083740234375,-0.225830078125,-0.579345703125,1.411
1.083969465648855,0.9770992366412213,-1.2366412213740459,0.083251953125,-0.228759765625,-0.571533203125,1.4126999999999998
1.251908396946565,0.916030534351145,-1.0687022900763359,0.0869140625,-0.227294921875,-0.56591796875,1.4143999999999999
1.0687022900763359,0.7633587786259542,-1.2213740458015268,0.0859375,-0.229736328125,-0.57275390625,1.4161
1.297709923664122,0.732824427480916,-1.083969465648855,0.089111328125,-0.231201171875,-0.57177734375,1.4178
1.4198473282442747,0.7480916030534351,-1.099236641221374,0.087158203125,-0.231689453125,-0.570556640625,1.4195
1.2213740458015268,0.5343511450381679,-0.9923664122137404,0.085693359375,-0.22607421875,-0.566650390625,1.4212
1.297709923664122,0.44274809160305345,-1.2366412213740459,0.086669921875,-0.2236328125,-0.568359375,1.4228999999999998
1.251908396946565,0.5343511450381679,-1.0229007633587786,0.08203125,-0.227294921875,-0.57763671875,1.4245999999999999
1.2671755725190839,0.5648854961832062,-0.9007633587786259,0.087890625,-0.223876953125,-0.5634765625,1.4263
1.1755725190839694,0.32061068702290074,-0.9007633587786259,0.084228515625,-0.2255859375,-0.5712890625,1.428
1.083969465648855,0.3816793893129771,-1.0687022900763359,0.08642578125,-0.228759765625,-0.577392578125,1.4297
0.9007633587786259,0.33587786259541985,-0.8396946564885496,0.083984375,-0.2294921875,-0.57763671875,1.4314
0.8091603053435115,0.2900763358778626,-0.916030534351145,0.084228515625,-0.2294921875,-0.576416015625,1.4330999999999998
0.5190839694656488,0.33587786259541985,-0.8549618320610687,0.083740234375,-0.227783203125,-0.57275390625,1.4347999999999999
0.4732824427480916,0.3816793893129771,-0.9923664122137404,0.084228515625,-0.226806640625,-0.575927734375,1.4364999999999999
0.3511450381679389,0.2748091603053435,-0.8244274809160306,0.084716796875,-0.22607421875,-0.571044921875,1.4382
0.3969465648854962,0.3053435114503817,-1.0076335877862594,0.08056640625,-0.226806640625,-0.56982421875,1.4399
0.15267175572519084,0.1984732824427481,-0.9770992366412213,0.080322265625,-0.2294921875,-0.566650390625,1.4416
0.030534351145038167,0.183206106870229,-0.8854961832061069,0.08203125,-0.228759765625,-0.574462890625,1.4433
0.04580152671755725,0.2748091603053435,-0.8854961832061069,0.081298828125,-0.221923828125,-0.572998046875,1.4449999999999998
-0.15267175572519084,0.0916030534351145,-0.8244274809160306,0.080322265625,-0.228759765625,-0.5712890625,1.4466999999999999
0.0,0.12213740458015267,-0.7480916030534351,0.083984375,-0.226318359375,-0.57177734375,1.4484
-0.04580152671755725,0.366412213740458,-0.9618320610687023,0.079345703125,-0.229736328125,-0.5732421875,1.4501
0.13740458015267176,0.3053435114503817,-0.6870229007633588,0.080078125,-0.2275390625,-0.571044921875,1.4518
-0.0916030534351145,0.3816793893129771,-0.7633587786259542,0.0810546875,-0.22314453125,-0.57763671875,1.4535
-0.1984732824427481,0.3816793893129771,-0.8702290076335878,0.0849609375,-0.22509765625,-0.56982421875,1.4551999999999998
-0.183206106870229,0.4580152671755725,-1.0534351145038168,0.08447265625,-0.228271484375,-0.583251953125,1.4568999999999999
-0.07633587786259542,0.4580152671755725,-0.8549618320610687,0.080322265625,-0.231201171875,-0.562255859375,1.4586
-0.183206106870229,0.3511450381679389,-1.0076335877862594,0.083740234375,-0.23046875,-0.56396484375,1.4603
-0.030534351145038167,0.16793893129770993,-0.8702290076335878,0.07861328125,-0.227783203125,-0.577392578125,1.462
-0.061068702290076333,0.32061068702290074,-1.0229007633587786,0.08349609375,-0.2265625,-0.5810546875,1.4637
-0.13740458015267176,0.21374045801526717,-1.0534351145038168,0.082275390625,-0.228759765625,-0.57421875,1.4653999999999998
-0.15267175572519084,0.21374045801526717,-1.251908396946565,0.085693359375,-0.2255859375,-0.56982421875,1.4670999999999998
0.21374045801526717,0.3053435114503817,-0.8702290076335878,0.08203125,-0.22802734375,-0.568603515625,1.4687999999999999
0.10687022900763359,0.1984732824427481,-1.1297709923664123,0.087890625,-0.2236328125,-0.568115234375,1.4705
0.0,0.04580152671755725,-1.0076335877862594,0.0869140625,-0.228515625,-0.569091796875,1.4722
0.15267175572519084,-0.15267175572519084,-0.9618320610687023,0.08447265625,-0.226806640625,-0.5712890625,1.4739
0.5343511450381679,0.061068702290076333,-0.9312977099236641,0.0869140625,-0.227294921875,-0.5791015625,1.4756
0.6106870229007634,0.3511450381679389,-1.083969465648855,0.083251953125,-0.221435546875,-0.562744140625,1.4772999999999998
0.6412213740458015,0.16793893129770993,-1.0076335877862594,0.079345703125,-0.22607421875,-0.5703125,1.4789999999999999
0.6412213740458015,0.32061068702290074,-1.0381679389312977,0.08154296875,-0.22314453125,-0.5751953125,1.4807
0.8244274809160306,0.2748091603053435,-0.8702290076335878,0.08251953125,-0.227783203125,-0.572998046875,1.4824
0.7786259541984732,0.3969465648854962,-0.9007633587786259,0.08154296875,-0.22509765625,-0.578125,1.4841
0.6870229007633588,0.2900763358778626,-0.9007633587786259,0.08740234375,-0.229736328125,-0.5732421875,1.4858
0.8244274809160306,0.4732824427480916,-0.8702290076335878,0.085693359375,-0.22412109375,-0.572021484375,1.4874999999999998
0.916030534351145,0.5648854961832062,-0.6412213740458015,0.08544921875,-0.220947265625,-0.574462890625,1.4891999999999999
0.7480916030534351,0.3816793893129771,-0.9923664122137404,0.080078125,-0.224853515625,-0.577392578125,1.4909
0.7786259541984732,0.5038167938931297,-1.0381679389312977,0.0849609375,-0.22509765625,-0.562744140625,1.4926
0.8854961832061069,0.5801526717557252,-0.9770992366412213,0.08642578125,-0.224365234375,-0.5732421875,1.4943
0.916030534351145,0.6412213740458015,-0.9007633587786259,0.0810546875,-0.225341796875,-0.5732421875,1.496
0.9923664122137404,0.5343511450381679,-0.916030534351145,0.083740234375,-0.216796875,-0.569091796875,1.4976999999999998
1.1908396946564885,0.549618320610687,-0.916030534351145,0.084228515625,-0.224365234375,-0.572265625,1.4993999999999998
1.1145038167938932,0.732824427480916,-1.0687022900763359,0.0888671875,-0.224853515625,-0.57177734375,1.5010999999999999
0.8396946564885496,0.6870229007633588,-0.8854961832061069,0.088134765625,-0.230224609375,-0.56982421875,1.5028
1.251908396946565,0.6564885496183206,-1.1755725190839694,0.08837890625,-0.22705078125,-0.57275390625,1.5045
1.1145038167938932,0.6259541984732825,-1.0076335877862594,0.086181640625,-0.226806640625,-0.5634765625,1.5062
0.9923664122137404,0.8244274809160306,-1.1450381679389312,0.081298828125,-0.225830078125,-0.569580078125,1.5079
1.1755725190839694,0.7786259541984732,-1.2671755725190839,0.07958984375,-0.22802734375,-0.575927734375,1.5095999999999998
1.282442748091603,0.916030534351145,-1.2061068702290076,0.08251953125,-0.22216796875,-0.57177734375,1.5112999999999999
0.9007633587786259,0.8091603053435115,-1.1297709923664123,0.087646484375,-0.219970703125,-0.5703125,1.513
1.0381679389312977,0.8091603053435115,-1.3282442748091603,0.087158203125,-0.231201171875,-0.56689453125,1.5147
1.0687022900763359,0.8396946564885496,-1.1297709923664123,0.0888671875,-0.22265625,-0.579345703125,1.5164
0.9007633587786259,0.8854961832061069,-1.282442748091603,0.088623046875,-0.225830078125,-0.570556640625,1.5181
0.7938931297709924,1.0534351145038168,-1.099236641221374,0.087890625,-0.225341796875,-0.57763671875,1.5197999999999998
0.916030534351145,0.9465648854961832,-1.1603053435114503,0.086181640625,-0.225830078125,-0.576904296875,1.5214999999999999
0.7480916030534351,0.9312977099236641,-1.083969465648855,0.08984375,-0.229248046875,-0.56689453125,1.5231999999999999
0.9007633587786259,0.8549618320610687,-1.0687022900763359,0.086181640625,-0.2265625,-0.567626953125,1.5249
1.297709923664122,1.0076335877862594,-1.099236641221374,0.083740234375,-0.22509765625,-0.571044921875,1.5266
1.0687022900763359,1.0076335877862594,-1.1603053435114503,0.087646484375,-0.225341796875,-0.57275390625,1.5283
1.0076335877862594,0.8854961832061069,-0.8854961832061069,0.085693359375,-0.22705078125,-0.57080078125,1.5299999999999998
1.2671755725190839,0.8549618320610687,-1.0687022900763359,0.090576171875,-0.226318359375,-0.573486328125,1.5316999999999998
1.3893129770992367,0.9923664122137404,-0.9465648854961832,0.087646484375,-0.22509765625,-0.57080078125,1.5333999999999999
1.3129770992366412,0.6564885496183206,-0.8091603053435115,0.088623046875,-0.222900390625,-0.56396484375,1.5351
1.4809160305343512,0.7022900763358778,-0.8702290076335878,0.091552734375,-0.222412109375,-0.57421875,1.5368
1.465648854961832,0.6870229007633588,-0.9770992366412213,0.085693359375,-0.227294921875,-0.573486328125,1.5385
1.4198473282442747,0.5801526717557252,-1.0381679389312977,0.086669921875,-0.220458984375,-0.5751953125,1.5402
1.2671755725190839,0.5801526717557252,-1.1297709923664123,0.088623046875,-0.22705078125,-0.578125,1.5418999999999998
1.3740458015267176,0.5954198473282443,-0.8396946564885496,0.08642578125,-0.226806640625,-0.574951171875,1.5435999999999999
1.4809160305343512,0.6717557251908397,-0.9312977099236641,0.0830078125,-0.2255859375,-0.576416015625,1.5453
1.2213740458015268,0.6870229007633588,-1.0381679389312977,0.09130859375,-0.222900390625,-0.56884765625,1.547
1.450381679389313,0.6259541984732825,-0.8854961832061069,0.082763671875,-0.227783203125,-0.578125,1.5487
1.4351145038167938,0.5801526717557252,-1.0229007633587786,0.08447265625,-0.2294921875,-0.571044921875,1.5504
1.3282442748091603,0.5801526717557252,-1.0534351145038168,0.0869140625,-0.228271484375,-0.578857421875,1.5520999999999998
1.2366412213740459,0.5954198473282443,-1.0687022900763359,0.091064453125,-0.228759765625,-0.582275390625,1.5537999999999998
1.3893129770992367,0.5190839694656488,-0.9007633587786259,0.081298828125,-0.223876953125,-0.570556640625,1.5554999999999999
1.450381679389313,0.549618320610687,-1.0381679389312977,0.084716796875,-0.22509765625,-0.57080078125,1.5572
1.4198473282442747,0.4122137404580153,-1.0076335877862594,0.083740234375,-0.229248046875,-0.56884765625,1.5589
1.5267175572519085,0.366412213740458,-1.2213740458015268,0.08251953125,-0.228515625,-0.573486328125,1.5606
1.5267175572519085,0.33587786259541985,-1.251908396946565,0.07958984375,-0.22998046875,-0.566650390625,1.5623
1.4809160305343512,0.366412213740458,-1.1297709923664123,0.08203125,-0.229248046875,-0.5751953125,1.5639999999999998
1.6030534351145038,0.4122137404580153,-0.916030534351145,0.0859375,-0.219970703125,-0.575439453125,1.5656999999999999
1.4809160305343512,0.3053435114503817,-1.2061068702290076,0.087158203125,-0.229736328125,-0.57958984375,1.5674
1.450381679389313,0.22900763358778625,-1.2061068702290076,0.08544921875,-0.222900390625,-0.578857421875,1.5691
1.5725190839694656,0.2900763358778626,-1.3893129770992367,0.08251953125,-0.2265625,-0.567138671875,1.5708
1.251908396946565,0.16793893129770993,-1.1297709923664123,0.0859375,-0.227294921875,-0.56982421875,1.5725
1.465648854961832,0.21374045801526717,-1.251908396946565,0.08447265625,-0.223388671875,-0.575927734375,1.5741999999999998
1.297709923664122,0.0916030534351145,-1.297709923664122,0.082275390625,-0.23046875,-0.57763671875,1.5758999999999999
1.297709923664122,0.13740458015267176,-1.4961832061068703,0.086181640625,-0.225341796875,-0.576171875,1.5776
1.2061068702290076,-0.061068702290076333,-1.5114503816793894,0.079833984375,-0.226318359375,-0.580322265625,1.5793
1.3893129770992367,-0.030534351145038167,-1.5267175572519085,0.083740234375,-0.229736328125,-0.5771484375,1.581
1.1908396946564885,0.015267175572519083,-1.465648854961832,0.080078125,-0.22998046875,-0.572998046875,1.5827
1.4809160305343512,-0.1984732824427481,-1.618320610687023,0.080078125,-0.228271484375,-0.57177734375,1.5843999999999998
1.1908396946564885,0.04580152671755725,-1.3587786259541985,0.081298828125,-0.22412109375,-0.56982421875,1.5860999999999998
1.3435114503816794,-0.22900763358778625,-1.618320610687023,0.087890625,-0.22802734375,-0.579345703125,1.5877999999999999
1.1755725190839694,-0.22900763358778625,-1.465648854961832,0.083984375,-0.223876953125,-0.57666015625,1.5895
1.2366412213740459,-0.183206106870229,-1.7099236641221374,0.085205078125,-0.231201171875,-0.573486328125,1.5912
1.0076335877862594,-0.22900763358778625,-1.4198473282442747,0.07666015625,-0.22412109375,-0.568603515625,1.5929
1.1145038167938932,-0.2595419847328244,-1.8015267175572518,0.079833984375,-0.230712890625,-0.5703125,1.5946
1.083969465648855,-0.366412213740458,-1.7557251908396947,0.0859375,-0.232666015625,-0.567626953125,1.5962999999999998
1.0229007633587786,-0.366412213740458,-1.816793893129771,0.083740234375,-0.23046875,-0.574462890625,1.5979999999999999
1.1450381679389312,-0.32061068702290074,-1.6030534351145038,0.080322265625,-0.2275390625,-0.57763671875,1.5997
0.7786259541984732,-0.3816793893129771,-1.984732824427481,0.084716796875,-0.231201171875,-0.572998046875,1.6014
0.8244274809160306,-0.4122137404580153,-1.6946564885496183,0.082763671875,-0.232666015625,-0.573974609375,1.6031
0.8702290076335878,-0.4580152671755725,-1.9083969465648856,0.084228515625,-0.231201171875,-0.5693359375,1.6048
0.8854961832061069,-0.44274809160305345,-1.7251908396946565,0.08251953125,-0.231201171875,-0.5732421875,1.6064999999999998
0.7480916030534351,-0.5343511450381679,-1.7709923664122138,0.082763671875,-0.228759765625,-0.57177734375,1.6081999999999999
0.7175572519083969,-0.5343511450381679,-1.6793893129770991,0.08154296875,-0.228759765625,-0.586669921875,1.6098999999999999
0.5648854961832062,-0.3053435114503817,-1.9389312977099236,0.077880859375,-0.224609375,-0.578125,1.6116
0.6717557251908397,-0.12213740458015267,-1.5419847328244274,0.077880859375,-0.22705078125,-0.572265625,1.6133
0.7022900763358778,-0.2748091603053435,-1.9236641221374047,0.0791015625,-0.231689453125,-0.57470703125,1.615
0.5801526717557252,-0.44274809160305345,-1.7251908396946565,0.082763671875,-0.228271484375,-0.568603515625,1.6166999999999998
0.6564885496183206,-0.4122137404580153,-1.7099236641221374,0.087890625,-0.2314453125,-0.5712890625,1.6183999999999998
0.3969465648854962,-0.3511450381679389,-1.816793893129771,0.089599609375,-0.228271484375,-0.572509765625,1.6200999999999999
0.549618320610687,-0.21374045801526717,-1.7709923664122138,0.0869140625,-0.227783203125,-0.57763671875,1.6218
0.5954198473282443,-0.3511450381679389,-1.7099236641221374,0.08544921875,-0.227783203125,-0.564453125,1.6235
0.4732824427480916,-0.3816793893129771,-1.7404580152671756,0.085205078125,-0.232177734375,-0.57373046875,1.6252
0.2748091603053435,-0.2748091603053435,-1.7709923664122138,0.088134765625,-0.22607421875,-0.574951171875,1.6269
0.366412213740458,-0.42748091603053434,-1.9694656488549618,0.092041015625,-0.2255859375,-0.570068359375,1.6285999999999998
0.6564885496183206,-0.33587786259541985,-1.5725190839694656,0.091064453125,-0.219970703125,-0.567626953125,1.6302999999999999
0.3511450381679389,-0.15267175572519084,-1.7557251908396947,0.09375,-0.224853515625,-0.570556640625,1.632
0.366412213740458,-0.21374045801526717,-1.7251908396946565,0.091796875,-0.224365234375,-0.57470703125,1.6337
0.2595419847328244,-0.3969465648854962,-1.6488549618320612,0.08740234375,-0.22314453125,-0.5712890625,1.6354
0.5038167938931297,-0.366412213740458,-1.4351145038167938,0.092041015625,-0.228271484375,-0.571044921875,1.6371
0.7175572519083969,-0.21374045801526717,-1.5877862595419847,0.091796875,-0.227783203125,-0.572021484375,1.6387999999999998
0.7938931297709924,-0.3053435114503817,-1.4351145038167938,0.088623046875,-0.233154296875,-0.57373046875,1.6404999999999998
0.6259541984732825,-0.33587786259541985,-1.5572519083969465,0.085205078125,-0.2353515625,-0.5693359375,1.6421999999999999
0.5190839694656488,-0.32061068702290074,-1.3435114503816794,0.088134765625,-0.2294921875,-0.574462890625,1.6439
0.4580152671755725,-0.4580152671755725,-1.450381679389313,0.087646484375,-0.2333984375,-0.57080078125,1.6456
0.48854961832061067,-0.42748091603053434,-1.4045801526717556,0.086181640625,-0.233154296875,-0.567138671875,1.6473
0.44274809160305345,-0.3511450381679389,-1.3435114503816794,0.0888671875,-0.231689453125,-0.574951171875,1.6489999999999998
0.7633587786259542,-0.3053435114503817,-1.282442748091603,0.090576171875,-0.230224609375,-0.567626953125,1.6506999999999998
0.5648854961832062,-0.3969465648854962,-1.3740458015267176,0.087646484375,-0.232666015625,-0.56494140625,1.6523999999999999
0.366412213740458,-0.44274809160305345,-1.1603053435114503,0.09033203125,-0.224609375,-0.572509765625,1.6541
0.4122137404580153,-0.4122137404580153,-1.3129770992366412,0.08203125,-0.2333984375,-0.573974609375,1.6558
0.3511450381679389,-0.3511450381679389,-1.297709923664122,0.088134765625,-0.228515625,-0.573974609375,1.6575
0.3511450381679389,-0.44274809160305345,-1.3129770992366412,0.08447265625,-0.229248046875,-0.581298828125,1.6592
0.5648854961832062,-0.5038167938931297,-1.1603053435114503,0.087646484375,-0.232421875,-0.56640625,1.6608999999999998
0.366412213740458,-0.44274809160305345,-1.251908396946565,0.08251953125,-0.224365234375,-0.5810546875,1.6625999999999999
0.10687022900763359,-0.366412213740458,-1.3282442748091603,0.08203125,-0.22607421875,-0.5771484375,1.6643
0.22900763358778625,-0.3053435114503817,-1.3893129770992367,0.08642578125,-0.225830078125,-0.569580078125,1.666
0.48854961832061067,-0.366412213740458,-1.1145038167938932,0.08349609375,-0.22119140625,-0.572021484375,1.6677
0.32061068702290074,-0.366412213740458,-1.3129770992366412,0.0869140625,-0.226806640625,-0.57470703125,1.6694
0.5038167938931297,-0.366412213740458,-1.1755725190839694,0.083740234375,-0.225341796875,-0.580322265625,1.6710999999999998
0.16793893129770993,-0.21374045801526717,-1.1603053435114503,0.087646484375,-0.224609375,-0.579345703125,1.6727999999999998
0.4732824427480916,-0.16793893129770993,-1.1755725190839694,0.087890625,-0.226806640625,-0.57421875,1.6744999999999999
0.8854961832061069,-0.07633587786259542,-1.3893129770992367,0.0869140625,-0.22998046875,-0.581298828125,1.6762
1.0076335877862594,-0.2595419847328244,-1.3129770992366412,0.08935546875,-0.22314453125,-0.5751953125,1.6779
1.4351145038167938,-0.07633587786259542,-1.4198473282442747,0.087890625,-0.223876953125,-0.572021484375,1.6796
1.450381679389313,-0.015267175572519083,-1.3893129770992367,0.0869140625,-0.227294921875,-0.57861328125,1.6813
1.5114503816793894,-0.32061068702290074,-1.4198473282442747,0.089111328125,-0.22705078125,-0.577880859375,1.6829999999999998
1.5572519083969465,-0.2595419847328244,-1.7709923664122138,0.0908203125,-0.2216796875,-0.576171875,1.6846999999999999
2.045801526717557,-0.24427480916030533,-1.7251908396946565,0.087646484375,-0.219482421875,-0.577880859375,1.6864
2.0916030534351147,-0.1984732824427481,-1.8015267175572518,0.081787109375,-0.22607421875,-0.577880859375,1.6881
1.9541984732824427,-0.44274809160305345,-1.7557251908396947,0.083251953125,-0.223388671875,-0.56640625,1.6898
2.16793893129771,-0.8091603053435115,-1.7709923664122138,0.090087890625,-0.224365234375,-0.564453125,1.6915
2.2442748091603053,-0.7938931297709924,-1.984732824427481,0.08447265625,-0.228271484375,-0.576904296875,1.6931999999999998
2.381679389312977,-0.48854961832061067,-2.030534351145038,0.0859375,-0.228271484375,-0.579833984375,1.6948999999999999
2.50381679389313,-0.6870229007633588,-2.213740458015267,0.089111328125,-0.222412109375,-0.573486328125,1.6965999999999999
2.4885496183206106,-0.8854961832061069,-2.2442748091603053,0.0908203125,-0.228271484375,-0.572265625,1.6983
2.549618320610687,-0.8549618320610687,-2.2442748091603053,0.09326171875,-0.228271484375,-0.580322265625,1.7
2.4580152671755724,-0.8396946564885496,-2.33587786259542,0.087158203125,-0.229248046875,-0.572509765625,1.7017
2.3969465648854964,-0.9007633587786259,-2.3969465648854964,0.087646484375,-0.22216796875,-0.568603515625,1.7033999999999998
2.5343511450381677,-0.8396946564885496,-2.50381679389313,0.0849609375,-0.220947265625,-0.572021484375,1.7050999999999998
2.732824427480916,-0.6106870229007634,-2.6106870229007635,0.082763671875,-0.2294921875,-0.58447265625,1.7067999999999999
2.7786259541984735,-0.732824427480916,-2.5343511450381677,0.082763671875,-0.231201171875,-0.579833984375,1.7085
2.7938931297709924,-0.7175572519083969,-2.6412213740458017,0.085205078125,-0.229248046875,-0.576171875,1.7102
2.4885496183206106,-0.5801526717557252,-2.8091603053435112,0.08447265625,-0.2314453125,-0.580322265625,1.7119
2.6412213740458017,-0.6106870229007634,-2.8244274809160306,0.0810546875,-0.2333984375,-0.575439453125,1.7136
2.381679389312977,-0.5038167938931297,-2.8244274809160306,0.081787109375,-0.229248046875,-0.57275390625,1.7152999999999998
2.2748091603053435,-0.44274809160305345,-2.9770992366412212,0.082275390625,-0.231201171875,-0.57568359375,1.7169999999999999
2.3206106870229006,-0.3053435114503817,-3.099236641221374,0.08154296875,-0.234375,-0.575439453125,1.7187
2.3969465648854964,-0.24427480916030533,-3.0381679389312977,0.087646484375,-0.230712890625,-0.57666015625,1.7204
2.030534351145038,-0.183206106870229,-3.145038167938931,0.087158203125,-0.234375,-0.573486328125,1.7221
1.8473282442748091,-0.07633587786259542,-3.2061068702290076,0.0888671875,-0.23779296875,-0.583251953125,1.7238
1.8015267175572518,0.015267175572519083,-3.404580152671756,0.08837890625,-0.234619140625,-0.579833984375,1.7254999999999998
1.6946564885496183,0.04580152671755725,-3.312977099236641,0.0859375,-0.2314453125,-0.56689453125,1.7271999999999998
1.6793893129770991,0.183206106870229,-3.3740458015267176,0.08544921875,-0.23388671875,-0.57568359375,1.7288999999999999
1.5725190839694656,0.3816793893129771,-3.2061068702290076,0.0859375,-0.237548828125,-0.570556640625,1.7306
1.4198473282442747,0.3511450381679389,-3.3282442748091605,0.084716796875,-0.234619140625,-0.571533203125,1.7323
1.5114503816793894,0.48854961832061067,-3.267175572519084,0.090087890625,-0.23974609375,-0.5732421875,1.734
1.2671755725190839,0.7022900763358778,-3.404580152671756,0.0908203125,-0.234375,-0.57861328125,1.7356999999999998
1.2213740458015268,0.5343511450381679,-3.3282442748091605,0.087890625,-0.232666015625,-0.580322265625,1.7373999999999998
1.251908396946565,0.6870229007633588,-3.3282442748091605,0.087646484375,-0.232177734375,-0.579833984375,1.7390999999999999
0.9465648854961832,0.7633587786259542,-3.2977099236641223,0.0869140625,-0.231201171875,-0.569091796875,1.7408
0.9465648854961832,0.7938931297709924,-3.435114503816794,0.081787109375,-0.239990234375,-0.578125,1.7425
0.916030534351145,0.7938931297709924,-3.5267175572519083,0.088623046875,-0.23583984375,-0.569580078125,1.7442
0.8549618320610687,0.9923664122137404,-3.450381679389313,0.087890625,-0.23388671875,-0.562744140625,1.7459
0.6259541984732825,1.0076335877862594,-3.267175572519084,0.08984375,-0.23291015625,-0.56787109375,1.7475999999999998
0.33587786259541985,1.0229007633587786,-3.572519083969466,0.087646484375,-0.234619140625,-0.564697265625,1.7492999999999999
0.366412213740458,1.099236641221374,-3.7099236641221376,0.088623046875,-0.230712890625,-0.58154296875,1.751
0.549618320610687,1.2213740458015268,-3.6946564885496183,0.09130859375,-0.2353515625,-0.56787109375,1.7527
0.42748091603053434,1.2366412213740459,-3.435114503816794,0.084228515625,-0.232666015625,-0.569580078125,1.7544
0.2900763358778626,1.3129770992366412,-3.7557251908396947,0.089599609375,-0.230224609375,-0.56982421875,1.7561
0.3969465648854962,1.2671755725190839,-3.7557251908396947,0.08544921875,-0.228271484375,-0.57763671875,1.7577999999999998
0.3816793893129771,1.1908396946564885,-3.7251908396946565,0.08935546875,-0.2333984375,-0.572998046875,1.7594999999999998
0.15267175572519084,1.3587786259541985,-3.633587786259542,0.086181640625,-0.23046875,-0.57080078125,1.7611999999999999
0.16793893129770993,1.450381679389313,-3.6946564885496183,0.087890625,-0.226806640625,-0.5625,1.7629
0.10687022900763359,1.4961832061068703,-3.786259541984733,0.085693359375,-0.232421875,-0.563720703125,1.7646
0.061068702290076333,1.6030534351145038,-4.015267175572519,0.087158203125,-0.2265625,-0.572021484375,1.7663
0.13740458015267176,1.5419847328244274,-3.7709923664122136,0.086181640625,-0.234619140625,-0.5771484375,1.7679999999999998
0.3053435114503817,1.4045801526717556,-4.0,0.090087890625,-0.23388671875,-0.57568359375,1.7696999999999998
0.33587786259541985,1.3893129770992367,-3.969465648854962,0.087158203125,-0.229736328125,-0.580322265625,1.7713999999999999
0.24427480916030533,1.3435114503816794,-3.954198473282443,0.090087890625,-0.227294921875,-0.582275390625,1.7731
0.3816793893129771,1.3893129770992367,-4.106870229007634,0.095703125,-0.22705078125,-0.574951171875,1.7748
0.2748091603053435,1.3893129770992367,-4.213740458015267,0.09130859375,-0.22900390625,-0.576904296875,1.7765
0.2748091603053435,1.3129770992366412,-4.1679389312977095,0.087890625,-0.232421875,-0.574462890625,1.7782
0.4580152671755725,1.083969465648855,-4.33587786259542,0.09228515625,-0.226318359375,-0.58056640625,1.7798999999999998
0.3511450381679389,1.2213740458015268,-4.259541984732825,0.090576171875,-0.22802734375,-0.5732421875,1.7815999999999999
0.0916030534351145,1.297709923664122,-4.244274809160306,0.0927734375,-0.233154296875,-0.58056640625,1.7832999999999999
0.061068702290076333,1.2213740458015268,-4.213740458015267,0.093017578125,-0.22998046875,-0.578857421875,1.785
0.04580152671755725,1.1603053435114503,-4.473282442748092,0.088134765625,-0.223876953125,-0.563232421875,1.7867
-0.04580152671755725,1.083969465648855,-4.442748091603053,0.0859375,-0.22900390625,-0.573974609375,1.7884
0.0916030534351145,1.1450381679389312,-4.412213740458015,0.09228515625,-0.226806640625,-0.573486328125,1.7900999999999998
0.12213740458015267,0.9618320610687023,-4.351145038167939,0.089111328125,-0.228271484375,-0.571044921875,1.7917999999999998
-0.0916030534351145,0.9923664122137404,-4.458015267175573,0.08984375,-0.232666015625,-0.577880859375,1.7934999999999999
0.42748091603053434,0.916030534351145,-4.5038167938931295,0.093505859375,-0.230224609375,-0.57080078125,1.7952
0.12213740458015267,0.7175572519083969,-4.641221374045801,0.091552734375,-0.231201171875,-0.572509765625,1.7969
0.015267175572519083,0.9618320610687023,-4.473282442748092,0.092041015625,-0.232421875,-0.577880859375,1.7986
0.183206106870229,0.8244274809160306,-4.595419847328245,0.087158203125,-0.23095703125,-0.572998046875,1.8002999999999998
