gyrox1,gyroy1,gyroz1,accelx1,accely1,accelz1,Time
1.5267175572519085,0.24427480916030533,-1.3587786259541985,-0.422607421875,0.033447265625,-0.321533203125,0.0
1.3587786259541985,0.24427480916030533,-1.2671755725190839,-0.419921875,0.02978515625,-0.327392578125,0.0017
1.4961832061068703,0.21374045801526717,-1.2366412213740459,-0.419921875,0.03125,-0.320556640625,0.0034
1.5877862595419847,0.32061068702290074,-1.2213740458015268,-0.42041015625,0.036865234375,-0.319091796875,0.0050999999999999995
1.4045801526717556,0.24427480916030533,-1.1603053435114503,-0.41796875,0.02978515625,-0.322021484375,0.0068
1.5725190839694656,0.2748091603053435,-1.251908396946565,-0.420654296875,0.029296875,-0.322265625,0.008499999999999999
1.2671755725190839,0.5954198473282443,-1.282442748091603,-0.418701171875,0.03125,-0.3212890625,0.010199999999999999
1.3740458015267176,0.44274809160305345,-1.282442748091603,-0.42236328125,0.032470703125,-0.323974609375,0.011899999999999999
1.618320610687023,0.42748091603053434,-1.099236641221374,-0.41650390625,0.032958984375,-0.31982421875,0.0136
1.3129770992366412,0.42748091603053434,-1.1145038167938932,-0.421630859375,0.036865234375,-0.313720703125,0.0153
1.251908396946565,0.42748091603053434,-1.3129770992366412,-0.419921875,0.030029296875,-0.320556640625,0.016999999999999998
1.297709923664122,0.48854961832061067,-1.3740458015267176,-0.421630859375,0.03173828125,-0.31689453125,0.018699999999999998
1.297709923664122,0.6412213740458015,-1.3740458015267176,-0.422119140625,0.03173828125,-0.33056640625,0.020399999999999998
1.465648854961832,0.5190839694656488,-1.465648854961832,-0.423828125,0.036865234375,-0.31396484375,0.022099999999999998
1.282442748091603,0.5190839694656488,-1.465648854961832,-0.41259765625,0.027099609375,-0.3251953125,0.023799999999999998
1.3587786259541985,0.4732824427480916,-1.4351145038167938,-0.419677734375,0.03125,-0.320068359375,0.0255
1.3587786259541985,0.5954198473282443,-1.4351145038167938,-0.416015625,0.032958984375,-0.32470703125,0.0272
1.2671755725190839,0.6106870229007634,-1.7557251908396947,-0.42333984375,0.031982421875,-0.319580078125,0.0289
1.251908396946565,0.6564885496183206,-1.4961832061068703,-0.421875,0.034423828125,-0.317626953125,0.0306
1.2671755725190839,0.732824427480916,-1.7099236641221374,-0.419677734375,0.03466796875,-0.31591796875,0.032299999999999995
1.3282442748091603,0.6259541984732825,-1.5267175572519085,-0.419921875,0.033935546875,-0.316650390625,0.033999999999999996
1.3740458015267176,0.8091603053435115,-1.7099236641221374,-0.42041015625,0.0341796875,-0.3154296875,0.035699999999999996
1.2213740458015268,0.8244274809160306,-1.6793893129770991,-0.417236328125,0.03515625,-0.323974609375,0.037399999999999996
1.4198473282442747,0.6564885496183206,-1.633587786259542,-0.4189453125,0.032958984375,-0.32470703125,0.039099999999999996
1.1145038167938932,0.549618320610687,-1.6030534351145038,-0.416015625,0.032958984375,-0.323974609375,0.040799999999999996
1.4961832061068703,0.732824427480916,-1.6946564885496183,-0.417724609375,0.035400390625,-0.317626953125,0.042499999999999996
1.297709923664122,0.5648854961832062,-1.786259541984733,-0.4169921875,0.038818359375,-0.324462890625,0.044199999999999996
1.3740458015267176,0.42748091603053434,-1.8015267175572518,-0.416748046875,0.031005859375,-0.320556640625,0.045899999999999996
1.2671755725190839,0.44274809160305345,-1.4351145038167938,-0.420166015625,0.02978515625,-0.31591796875,0.047599999999999996
1.450381679389313,0.33587786259541985,-1.7557251908396947,-0.4189453125,0.032470703125,-0.326171875,0.0493
1.2061068702290076,0.44274809160305345,-1.5419847328244274,-0.420166015625,0.0341796875,-0.318359375,0.051
1.2366412213740459,0.44274809160305345,-1.5572519083969465,-0.41748046875,0.03125,-0.32421875,0.0527
1.3740458015267176,0.48854961832061067,-1.6488549618320612,-0.418212890625,0.032470703125,-0.3212890625,0.0544
0.9465648854961832,0.24427480916030533,-1.5572519083969465,-0.420654296875,0.032958984375,-0.325927734375,0.0561
1.2671755725190839,0.4580152671755725,-1.4809160305343512,-0.419921875,0.032470703125,-0.322998046875,0.0578
1.2671755725190839,0.7175572519083969,-1.6030534351145038,-0.422607421875,0.031005859375,-0.31787109375,0.0595
1.0229007633587786,0.8396946564885496,-1.450381679389313,-0.4189453125,0.036865234375,-0.3291015625,0.0612
0.9312977099236641,0.549618320610687,-1.4045801526717556,-0.421875,0.03369140625,-0.322998046875,0.0629
1.0381679389312977,0.5954198473282443,-1.5572519083969465,-0.420654296875,0.03369140625,-0.324462890625,0.06459999999999999
0.9007633587786259,0.7938931297709924,-1.6030534351145038,-0.419921875,0.035888671875,-0.318359375,0.0663
0.8702290076335878,0.5801526717557252,-1.5877862595419847,-0.420166015625,0.031494140625,-0.325927734375,0.06799999999999999
0.7786259541984732,0.6564885496183206,-1.6030534351145038,-0.4228515625,0.033203125,-0.316162109375,0.0697
0.9007633587786259,0.8244274809160306,-1.5419847328244274,-0.420166015625,0.03076171875,-0.323974609375,0.07139999999999999
1.0076335877862594,0.7175572519083969,-1.816793893129771,-0.420166015625,0.0341796875,-0.320556640625,0.0731
1.0687022900763359,0.6106870229007634,-1.5267175572519085,-0.415771484375,0.036376953125,-0.3134765625,0.07479999999999999
0.9312977099236641,0.4732824427480916,-1.5877862595419847,-0.419921875,0.033447265625,-0.320556640625,0.0765
1.099236641221374,0.6259541984732825,-1.6641221374045803,-0.420166015625,0.031982421875,-0.322021484375,0.07819999999999999
1.1145038167938932,0.6564885496183206,-1.8015267175572518,-0.421630859375,0.0390625,-0.3173828125,0.0799
1.1297709923664123,0.5801526717557252,-1.5419847328244274,-0.421875,0.0341796875,-0.3193359375,0.08159999999999999
1.1145038167938932,0.6412213740458015,-1.6946564885496183,-0.419189453125,0.035400390625,-0.317138671875,0.0833
1.3129770992366412,0.5038167938931297,-1.7251908396946565,-0.418212890625,0.02734375,-0.319580078125,0.08499999999999999
1.0687022900763359,0.7480916030534351,-1.8625954198473282,-0.41552734375,0.028564453125,-0.32275390625,0.0867
1.1297709923664123,0.5801526717557252,-1.6793893129770991,-0.419189453125,0.037353515625,-0.317626953125,0.08839999999999999
1.2671755725190839,0.4122137404580153,-1.7251908396946565,-0.4189453125,0.036376953125,-0.32666015625,0.0901
1.2671755725190839,0.6412213740458015,-1.5877862595419847,-0.417724609375,0.036865234375,-0.324951171875,0.09179999999999999
1.2671755725190839,0.7480916030534351,-1.8625954198473282,-0.422607421875,0.032470703125,-0.323974609375,0.0935
1.1450381679389312,0.5801526717557252,-1.83206106870229,-0.416259765625,0.03076171875,-0.31982421875,0.09519999999999999
1.1603053435114503,0.4122137404580153,-1.816793893129771,-0.41650390625,0.03662109375,-0.320068359375,0.0969
1.282442748091603,0.549618320610687,-1.6488549618320612,-0.42138671875,0.03369140625,-0.322265625,0.0986
1.2366412213740459,0.7022900763358778,-1.7709923664122138,-0.418212890625,0.032470703125,-0.321533203125,0.1003
1.1603053435114503,0.3969465648854962,-1.618320610687023,-0.420654296875,0.033447265625,-0.318115234375,0.102
1.251908396946565,0.549618320610687,-1.7404580152671756,-0.41943359375,0.027587890625,-0.318603515625,0.1037
1.450381679389313,0.6717557251908397,-1.7251908396946565,-0.41552734375,0.035888671875,-0.31494140625,0.1054
1.4198473282442747,0.6412213740458015,-1.6793893129770991,-0.421142578125,0.032470703125,-0.326171875,0.1071
1.3587786259541985,0.6717557251908397,-1.7099236641221374,-0.423095703125,0.033935546875,-0.32373046875,0.1088
1.251908396946565,0.6564885496183206,-1.6030534351145038,-0.42333984375,0.0302734375,-0.32177734375,0.11049999999999999
1.3129770992366412,0.6564885496183206,-1.5267175572519085,-0.421142578125,0.034423828125,-0.3271484375,0.1122
1.3893129770992367,0.8702290076335878,-1.6946564885496183,-0.421875,0.033203125,-0.31298828125,0.11389999999999999
1.2671755725190839,0.7633587786259542,-1.5114503816793894,-0.420166015625,0.03759765625,-0.322509765625,0.1156
1.3282442748091603,0.6412213740458015,-1.6946564885496183,-0.417724609375,0.03857421875,-0.322509765625,0.11729999999999999
1.3893129770992367,0.7175572519083969,-1.4961832061068703,-0.415771484375,0.03369140625,-0.32373046875,0.119
1.5419847328244274,0.6412213740458015,-1.618320610687023,-0.419677734375,0.031494140625,-0.323974609375,0.12069999999999999
1.3587786259541985,0.6717557251908397,-1.6030534351145038,-0.4169921875,0.0322265625,-0.317138671875,0.1224
1.4809160305343512,0.8244274809160306,-1.6946564885496183,-0.419189453125,0.030029296875,-0.3154296875,0.12409999999999999
1.6793893129770991,0.8702290076335878,-1.633587786259542,-0.42431640625,0.03759765625,-0.3134765625,0.1258
1.5267175572519085,0.8549618320610687,-1.5419847328244274,-0.423828125,0.028076171875,-0.33154296875,0.1275
1.3282442748091603,0.8549618320610687,-1.5114503816793894,-0.419189453125,0.030029296875,-0.314453125,0.12919999999999998
1.3740458015267176,0.9923664122137404,-1.5114503816793894,-0.420166015625,0.025390625,-0.3173828125,0.1309
1.5572519083969465,1.0534351145038168,-1.465648854961832,-0.421875,0.028076171875,-0.31494140625,0.1326
1.4045801526717556,0.8854961832061069,-1.5572519083969465,-0.424560546875,0.030517578125,-0.32080078125,0.1343
1.5419847328244274,0.7633587786259542,-1.4045801526717556,-0.421630859375,0.0341796875,-0.32568359375,0.13599999999999998
1.5114503816793894,0.8244274809160306,-1.4961832061068703,-0.41943359375,0.0400390625,-0.326171875,0.1377
1.5114503816793894,0.6564885496183206,-1.251908396946565,-0.41552734375,0.03466796875,-0.316162109375,0.1394
1.465648854961832,0.7938931297709924,-1.450381679389313,-0.421875,0.0380859375,-0.311767578125,0.1411
1.450381679389313,0.7786259541984732,-1.282442748091603,-0.41748046875,0.03662109375,-0.31689453125,0.14279999999999998
1.465648854961832,0.7480916030534351,-1.4809160305343512,-0.419677734375,0.035400390625,-0.31396484375,0.1445
1.4809160305343512,0.7938931297709924,-1.4351145038167938,-0.41796875,0.033203125,-0.31640625,0.1462
1.6488549618320612,0.7633587786259542,-1.3282442748091603,-0.42138671875,0.032470703125,-0.31640625,0.1479
1.5572519083969465,0.7938931297709924,-1.5419847328244274,-0.41943359375,0.034912109375,-0.3232421875,0.14959999999999998
1.5267175572519085,1.0229007633587786,-1.3282442748091603,-0.424072265625,0.032958984375,-0.321533203125,0.1513
1.6793893129770991,0.732824427480916,-1.282442748091603,-0.42431640625,0.032958984375,-0.3173828125,0.153
1.4809160305343512,0.8396946564885496,-1.3893129770992367,-0.420166015625,0.037841796875,-0.309814453125,0.1547
1.633587786259542,0.7786259541984732,-1.3435114503816794,-0.41845703125,0.038330078125,-0.3173828125,0.15639999999999998
1.6946564885496183,0.7633587786259542,-1.4351145038167938,-0.418212890625,0.033203125,-0.3203125,0.1581
1.7557251908396947,0.8091603053435115,-1.2671755725190839,-0.414306640625,0.037109375,-0.32421875,0.1598
1.9389312977099236,0.6870229007633588,-1.4351145038167938,-0.4208984375,0.032958984375,-0.320556640625,0.1615
1.83206106870229,0.9007633587786259,-1.4045801526717556,-0.423583984375,0.03662109375,-0.322021484375,0.16319999999999998
1.7557251908396947,0.8549618320610687,-1.465648854961832,-0.421630859375,0.03466796875,-0.322021484375,0.1649
1.6641221374045803,0.7175572519083969,-1.4198473282442747,-0.418701171875,0.03369140625,-0.3125,0.1666
1.8778625954198473,0.7480916030534351,-1.4198473282442747,-0.424072265625,0.034423828125,-0.31396484375,0.16829999999999998
1.8015267175572518,0.8244274809160306,-1.3740458015267176,-0.421142578125,0.034912109375,-0.317626953125,0.16999999999999998
1.83206106870229,0.7633587786259542,-1.251908396946565,-0.416259765625,0.034423828125,-0.31787109375,0.1717
1.9083969465648856,0.8091603053435115,-1.2213740458015268,-0.4140625,0.030517578125,-0.318603515625,0.1734
1.8931297709923665,0.9465648854961832,-1.465648854961832,-0.419189453125,0.03369140625,-0.313720703125,0.17509999999999998
1.8778625954198473,0.8244274809160306,-1.2366412213740459,-0.41748046875,0.035888671875,-0.31494140625,0.17679999999999998
2.0763358778625953,0.7786259541984732,-1.5877862595419847,-0.413818359375,0.031494140625,-0.31689453125,0.1785
1.8778625954198473,0.7938931297709924,-1.3587786259541985,-0.41845703125,0.033203125,-0.313720703125,0.1802
1.9694656488549618,0.8549618320610687,-1.3893129770992367,-0.4150390625,0.03662109375,-0.319580078125,0.18189999999999998
1.9236641221374047,0.8091603053435115,-1.3435114503816794,-0.418212890625,0.03369140625,-0.314453125,0.18359999999999999
1.9694656488549618,0.8854961832061069,-1.6030534351145038,-0.414306640625,0.031005859375,-0.3212890625,0.1853
1.8931297709923665,0.8549618320610687,-1.3282442748091603,-0.421142578125,0.033203125,-0.317626953125,0.187
2.0,0.8091603053435115,-1.3587786259541985,-0.41650390625,0.0341796875,-0.318115234375,0.18869999999999998
1.7251908396946565,1.0076335877862594,-1.3740458015267176,-0.42041015625,0.031005859375,-0.320068359375,0.19039999999999999
1.6946564885496183,0.916030534351145,-1.618320610687023,-0.419921875,0.0322265625,-0.31787109375,0.1921
2.0610687022900764,0.7786259541984732,-1.5267175572519085,-0.420166015625,0.029296875,-0.316650390625,0.1938
1.8473282442748091,0.9618320610687023,-1.3893129770992367,-0.4208984375,0.03466796875,-0.309814453125,0.19549999999999998
1.633587786259542,1.099236641221374,-1.6488549618320612,-0.41552734375,0.032470703125,-0.319580078125,0.1972
1.786259541984733,1.0381679389312977,-1.6030534351145038,-0.41845703125,0.02783203125,-0.322021484375,0.1989
1.786259541984733,0.916030534351145,-1.3282442748091603,-0.416748046875,0.035400390625,-0.31884765625,0.2006
1.8625954198473282,1.2061068702290076,-1.6488549618320612,-0.423828125,0.031005859375,-0.31787109375,0.20229999999999998
1.7251908396946565,0.916030534351145,-1.6641221374045803,-0.422607421875,0.0302734375,-0.32421875,0.204
1.7099236641221374,1.1755725190839694,-1.4045801526717556,-0.423583984375,0.030029296875,-0.316162109375,0.2057
1.83206106870229,1.0534351145038168,-1.5725190839694656,-0.4228515625,0.032958984375,-0.31884765625,0.2074
1.6488549618320612,1.2061068702290076,-1.6030534351145038,-0.42333984375,0.03515625,-0.318603515625,0.20909999999999998
1.618320610687023,1.1603053435114503,-1.4961832061068703,-0.41845703125,0.033447265625,-0.325927734375,0.2108
1.6488549618320612,1.083969465648855,-1.5572519083969465,-0.41650390625,0.032958984375,-0.31396484375,0.2125
1.7404580152671756,1.251908396946565,-1.6641221374045803,-0.420654296875,0.03271484375,-0.32275390625,0.2142
1.8473282442748091,1.2366412213740459,-1.5572519083969465,-0.420654296875,0.031982421875,-0.3251953125,0.21589999999999998
1.6946564885496183,1.4045801526717556,-1.4809160305343512,-0.422607421875,0.036865234375,-0.316650390625,0.2176
1.6793893129770991,1.3893129770992367,-1.618320610687023,-0.4208984375,0.029052734375,-0.32470703125,0.2193
1.5419847328244274,1.4198473282442747,-1.7099236641221374,-0.422119140625,0.027099609375,-0.318603515625,0.22099999999999997
1.786259541984733,1.3587786259541985,-1.5725190839694656,-0.417236328125,0.032958984375,-0.314453125,0.22269999999999998
1.816793893129771,1.3587786259541985,-1.6793893129770991,-0.419921875,0.02880859375,-0.3271484375,0.2244
1.7557251908396947,1.5877862595419847,-1.618320610687023,-0.41943359375,0.03173828125,-0.32763671875,0.2261
1.6030534351145038,1.3587786259541985,-1.5572519083969465,-0.424072265625,0.02734375,-0.31396484375,0.22779999999999997
1.5267175572519085,1.465648854961832,-1.465648854961832,-0.4189453125,0.037353515625,-0.31884765625,0.22949999999999998
1.6030534351145038,1.3435114503816794,-1.633587786259542,-0.419189453125,0.034423828125,-0.317138671875,0.2312
1.786259541984733,1.5877862595419847,-1.7251908396946565,-0.419677734375,0.031005859375,-0.3232421875,0.2329
1.7404580152671756,1.6488549618320612,-1.6030534351145038,-0.42138671875,0.0302734375,-0.318603515625,0.23459999999999998
1.618320610687023,1.4809160305343512,-1.6030534351145038,-0.423095703125,0.032958984375,-0.3173828125,0.23629999999999998
1.5419847328244274,1.5114503816793894,-1.7404580152671756,-0.4189453125,0.0263671875,-0.318359375,0.238
1.3129770992366412,1.7404580152671756,-1.8473282442748091,-0.417724609375,0.02978515625,-0.316162109375,0.2397
1.4198473282442747,1.5572519083969465,-1.816793893129771,-0.4189453125,0.02783203125,-0.31982421875,0.24139999999999998
1.4961832061068703,1.5267175572519085,-1.7099236641221374,-0.418212890625,0.02978515625,-0.321044921875,0.24309999999999998
1.7251908396946565,1.5725190839694656,-1.8015267175572518,-0.418701171875,0.0341796875,-0.3232421875,0.2448
1.465648854961832,1.6793893129770991,-1.633587786259542,-0.418701171875,0.02880859375,-0.318359375,0.2465
1.5572519083969465,1.7251908396946565,-1.8778625954198473,-0.421875,0.032958984375,-0.3154296875,0.24819999999999998
1.5114503816793894,1.5114503816793894,-1.633587786259542,-0.423095703125,0.026123046875,-0.316650390625,0.24989999999999998
1.2671755725190839,1.8015267175572518,-1.6641221374045803,-0.429443359375,0.03271484375,-0.31396484375,0.2516
1.4351145038167938,1.5877862595419847,-1.816793893129771,-0.424072265625,0.030517578125,-0.312744140625,0.25329999999999997
1.4961832061068703,1.7404580152671756,-1.816793893129771,-0.421875,0.029296875,-0.31689453125,0.255
1.3893129770992367,1.6030534351145038,-1.7099236641221374,-0.413330078125,0.0341796875,-0.3203125,0.2567
1.1908396946564885,1.7251908396946565,-1.9236641221374047,-0.421630859375,0.031494140625,-0.322265625,0.25839999999999996
1.3587786259541985,1.786259541984733,-1.7709923664122138,-0.416259765625,0.029052734375,-0.321044921875,0.2601
1.3740458015267176,1.6488549618320612,-1.6488549618320612,-0.421142578125,0.029296875,-0.32080078125,0.2618
1.3893129770992367,1.6641221374045803,-1.8625954198473282,-0.415771484375,0.02978515625,-0.315185546875,0.2635
1.3129770992366412,1.6641221374045803,-1.7709923664122138,-0.419677734375,0.02734375,-0.325439453125,0.2652
1.3435114503816794,1.618320610687023,-1.7251908396946565,-0.420654296875,0.03076171875,-0.33056640625,0.26689999999999997
1.099236641221374,1.6488549618320612,-1.8473282442748091,-0.419921875,0.032958984375,-0.316650390625,0.2686
1.282442748091603,1.7404580152671756,-1.8015267175572518,-0.41845703125,0.03271484375,-0.3125,0.2703
1.282442748091603,1.450381679389313,-1.7251908396946565,-0.420166015625,0.031005859375,-0.3173828125,0.27199999999999996
1.1755725190839694,1.5419847328244274,-1.6946564885496183,-0.41943359375,0.033203125,-0.32763671875,0.2737
1.4351145038167938,1.6793893129770991,-1.6793893129770991,-0.419189453125,0.029296875,-0.31787109375,0.2754
1.099236641221374,1.5419847328244274,-1.5725190839694656,-0.417236328125,0.0263671875,-0.318115234375,0.27709999999999996
1.2366412213740459,1.6030534351145038,-1.6641221374045803,-0.418212890625,0.032470703125,-0.3271484375,0.2788
1.297709923664122,1.5877862595419847,-1.633587786259542,-0.420654296875,0.0322265625,-0.31982421875,0.28049999999999997
1.2213740458015268,1.5114503816793894,-1.7557251908396947,-0.41796875,0.02978515625,-0.31591796875,0.2822
1.282442748091603,1.6030534351145038,-1.633587786259542,-0.4189453125,0.037353515625,-0.31787109375,0.2839
1.3740458015267176,1.6488549618320612,-1.633587786259542,-0.418701171875,0.0390625,-0.323486328125,0.28559999999999997
1.2671755725190839,1.6488549618320612,-1.786259541984733,-0.424072265625,0.031005859375,-0.320556640625,0.2873
1.2671755725190839,1.6488549618320612,-1.7251908396946565,-0.423583984375,0.029052734375,-0.308349609375,0.289
1.1755725190839694,1.5725190839694656,-1.5419847328244274,-0.413818359375,0.033447265625,-0.32275390625,0.29069999999999996
1.0229007633587786,1.5267175572519085,-1.6488549618320612,-0.41845703125,0.03369140625,-0.3203125,0.2924
1.0534351145038168,1.633587786259542,-1.4809160305343512,-0.41650390625,0.032958984375,-0.323486328125,0.2941
1.0687022900763359,1.633587786259542,-1.7099236641221374,-0.417236328125,0.036376953125,-0.320556640625,0.2958
1.3435114503816794,1.618320610687023,-1.4961832061068703,-0.4150390625,0.03173828125,-0.328369140625,0.2975
1.099236641221374,1.5267175572519085,-1.4351145038167938,-0.417724609375,0.03564453125,-0.322021484375,0.29919999999999997
1.1297709923664123,1.7099236641221374,-1.5572519083969465,-0.421630859375,0.032470703125,-0.32373046875,0.3009
1.2213740458015268,1.6488549618320612,-1.3893129770992367,-0.4228515625,0.03173828125,-0.320068359375,0.3026
1.0229007633587786,1.7404580152671756,-1.3893129770992367,-0.420166015625,0.0341796875,-0.32470703125,0.30429999999999996
1.1297709923664123,1.6641221374045803,-1.5725190839694656,-0.414306640625,0.036865234375,-0.3134765625,0.306
1.1450381679389312,1.6488549618320612,-1.5419847328244274,-0.4189453125,0.033203125,-0.321533203125,0.3077
0.9312977099236641,1.7709923664122138,-1.5114503816793894,-0.421875,0.0302734375,-0.32421875,0.3094
1.251908396946565,1.7251908396946565,-1.4809160305343512,-0.4189453125,0.030029296875,-0.32080078125,0.3111
1.282442748091603,1.618320610687023,-1.3893129770992367,-0.416259765625,0.031982421875,-0.315185546875,0.31279999999999997
1.1603053435114503,1.6793893129770991,-1.282442748091603,-0.41162109375,0.028076171875,-0.3251953125,0.3145
1.3129770992366412,1.7709923664122138,-1.633587786259542,-0.414306640625,0.02880859375,-0.319091796875,0.3162
1.2671755725190839,1.8625954198473282,-1.3587786259541985,-0.42236328125,0.033203125,-0.3173828125,0.31789999999999996
1.297709923664122,1.9694656488549618,-1.4045801526717556,-0.419921875,0.029541015625,-0.326171875,0.3196
1.2213740458015268,1.6488549618320612,-1.2671755725190839,-0.4189453125,0.03076171875,-0.331298828125,0.3213
1.1297709923664123,1.9083969465648856,-1.5419847328244274,-0.41796875,0.031005859375,-0.31689453125,0.323
1.0076335877862594,1.786259541984733,-1.2366412213740459,-0.415283203125,0.030517578125,-0.325927734375,0.3247
1.251908396946565,1.7709923664122138,-1.3282442748091603,-0.41845703125,0.030029296875,-0.32958984375,0.32639999999999997
1.1908396946564885,1.6488549618320612,-1.1908396946564885,-0.419921875,0.034912109375,-0.32275390625,0.3281
1.3282442748091603,1.786259541984733,-1.3435114503816794,-0.4208984375,0.030029296875,-0.3212890625,0.3298
1.1603053435114503,1.7251908396946565,-1.251908396946565,-0.41650390625,0.03564453125,-0.317626953125,0.33149999999999996
1.3435114503816794,1.9541984732824427,-1.2671755725190839,-0.4140625,0.04052734375,-0.316162109375,0.3332
0.9770992366412213,1.816793893129771,-1.1603053435114503,-0.415283203125,0.03662109375,-0.319580078125,0.3349
1.3893129770992367,1.816793893129771,-1.3282442748091603,-0.42529296875,0.031005859375,-0.325439453125,0.33659999999999995
1.3893129770992367,1.9083969465648856,-1.2671755725190839,-0.4228515625,0.02685546875,-0.3134765625,0.3383
1.2061068702290076,1.8778625954198473,-1.3435114503816794,-0.421630859375,0.035888671875,-0.3251953125,0.33999999999999997
1.2366412213740459,1.9541984732824427,-1.3282442748091603,-0.416259765625,0.0361328125,-0.32470703125,0.3417
1.3435114503816794,1.6488549618320612,-1.3129770992366412,-0.420654296875,0.03515625,-0.328369140625,0.3434
1.1908396946564885,1.6793893129770991,-1.0687022900763359,-0.418212890625,0.031494140625,-0.31884765625,0.34509999999999996
1.282442748091603,1.8778625954198473,-1.3740458015267176,-0.420166015625,0.0341796875,-0.327880859375,0.3468
1.2671755725190839,1.83206106870229,-1.3893129770992367,-0.421630859375,0.033203125,-0.32177734375,0.3485
1.297709923664122,1.7404580152671756,-1.4351145038167938,-0.417236328125,0.034423828125,-0.32421875,0.35019999999999996
1.297709923664122,1.8778625954198473,-1.2213740458015268,-0.42236328125,0.031982421875,-0.317138671875,0.3519
1.1145038167938932,1.9083969465648856,-1.3282442748091603,-0.417724609375,0.033203125,-0.322509765625,0.35359999999999997
1.3893129770992367,1.8625954198473282,-1.1755725190839694,-0.4169921875,0.03271484375,-0.322998046875,0.3553
1.297709923664122,1.816793893129771,-1.2671755725190839,-0.414794921875,0.035888671875,-0.31787109375,0.357
1.4351145038167938,1.984732824427481,-1.297709923664122,-0.419921875,0.036376953125,-0.315673828125,0.35869999999999996
1.297709923664122,1.816793893129771,-1.4045801526717556,-0.413330078125,0.031494140625,-0.320556640625,0.3604
1.2366412213740459,1.9541984732824427,-1.3282442748091603,-0.41943359375,0.02978515625,-0.321044921875,0.3621
1.5572519083969465,1.8931297709923665,-1.2366412213740459,-0.421142578125,0.02880859375,-0.32763671875,0.36379999999999996
1.2366412213740459,1.9083969465648856,-0.9312977099236641,-0.417236328125,0.0322265625,-0.325439453125,0.3655
1.2061068702290076,1.9236641221374047,-1.282442748091603,-0.416015625,0.0302734375,-0.322509765625,0.36719999999999997
1.5877862595419847,1.8778625954198473,-1.083969465648855,-0.41650390625,0.03564453125,-0.32568359375,0.3689
1.5267175572519085,1.984732824427481,-1.0229007633587786,-0.41796875,0.03466796875,-0.326171875,0.3706
1.282442748091603,1.9236641221374047,-1.1450381679389312,-0.416748046875,0.03271484375,-0.328369140625,0.37229999999999996
1.3740458015267176,1.8473282442748091,-1.0534351145038168,-0.413818359375,0.03076171875,-0.3203125,0.374
1.3893129770992367,1.8778625954198473,-1.1755725190839694,-0.414794921875,0.027099609375,-0.329345703125,0.3757
1.3587786259541985,1.7557251908396947,-1.1755725190839694,-0.418212890625,0.030517578125,-0.323486328125,0.37739999999999996
1.251908396946565,1.6946564885496183,-1.0076335877862594,-0.42041015625,0.0244140625,-0.327880859375,0.3791
1.3435114503816794,1.8625954198473282,-1.1755725190839694,-0.418701171875,0.034912109375,-0.315673828125,0.38079999999999997
1.5267175572519085,1.8015267175572518,-1.083969465648855,-0.419677734375,0.028564453125,-0.31884765625,0.38249999999999995
1.4351145038167938,1.6488549618320612,-1.3282442748091603,-0.419677734375,0.0302734375,-0.326416015625,0.3842
1.4351145038167938,1.9389312977099236,-1.1755725190839694,-0.421142578125,0.03369140625,-0.31787109375,0.38589999999999997
1.3587786259541985,1.816793893129771,-1.251908396946565,-0.41796875,0.03466796875,-0.319091796875,0.3876
1.5572519083969465,1.8625954198473282,-1.2366412213740459,-0.419921875,0.0341796875,-0.329345703125,0.3893
1.3587786259541985,1.8473282442748091,-1.4198473282442747,-0.41552734375,0.041259765625,-0.323486328125,0.39099999999999996
1.5114503816793894,2.045801526717557,-1.3435114503816794,-0.423828125,0.033203125,-0.320556640625,0.3927
1.4351145038167938,2.030534351145038,-1.4809160305343512,-0.421630859375,0.032470703125,-0.32421875,0.3944
1.450381679389313,2.015267175572519,-1.3587786259541985,-0.422607421875,0.036865234375,-0.325927734375,0.39609999999999995
1.297709923664122,2.0916030534351147,-1.5114503816793894,-0.424072265625,0.0341796875,-0.32958984375,0.3978
1.4198473282442747,2.0916030534351147,-1.083969465648855,-0.424072265625,0.031005859375,-0.3212890625,0.39949999999999997
1.5877862595419847,2.183206106870229,-1.5267175572519085,-0.424560546875,0.029296875,-0.327392578125,0.4012
1.4351145038167938,2.3053435114503817,-1.3893129770992367,-0.41943359375,0.034912109375,-0.322998046875,0.4029
1.4045801526717556,2.50381679389313,-1.4045801526717556,-0.423828125,0.034912109375,-0.3212890625,0.40459999999999996
1.465648854961832,2.33587786259542,-1.2213740458015268,-0.419189453125,0.02880859375,-0.31982421875,0.4063
1.3435114503816794,2.16793893129771,-1.1297709923664123,-0.41796875,0.029296875,-0.32275390625,0.408
1.5419847328244274,2.3969465648854964,-0.9770992366412213,-0.419189453125,0.038818359375,-0.31787109375,0.40969999999999995
1.3893129770992367,2.33587786259542,-1.2366412213740459,-0.419189453125,0.037841796875,-0.32177734375,0.4114
1.4961832061068703,2.2290076335877864,-1.1755725190839694,-0.42236328125,0.02978515625,-0.32080078125,0.41309999999999997
1.3740458015267176,2.0610687022900764,-1.2213740458015268,-0.418701171875,0.033203125,-0.322265625,0.4148
1.5725190839694656,2.16793893129771,-1.3740458015267176,-0.41796875,0.03271484375,-0.315185546875,0.4165
1.4351145038167938,2.2442748091603053,-1.4351145038167938,-0.412109375,0.032470703125,-0.320068359375,0.41819999999999996
1.6030534351145038,2.183206106870229,-1.2213740458015268,-0.41796875,0.026611328125,-0.322265625,0.4199
1.4809160305343512,2.2595419847328246,-1.4198473282442747,-0.418701171875,0.030517578125,-0.3125,0.4216
1.618320610687023,2.183206106870229,-1.4198473282442747,-0.419921875,0.031494140625,-0.329833984375,0.42329999999999995
1.4198473282442747,2.366412213740458,-1.297709923664122,-0.416748046875,0.03466796875,-0.31787109375,0.425
1.3740458015267176,2.2290076335877864,-1.0076335877862594,-0.41552734375,0.030029296875,-0.313720703125,0.42669999999999997
1.3893129770992367,2.2748091603053435,-1.1908396946564885,-0.42431640625,0.035400390625,-0.321533203125,0.4284
1.4045801526717556,2.381679389312977,-0.9618320610687023,-0.419921875,0.02734375,-0.320068359375,0.4301
1.2213740458015268,2.381679389312977,-0.916030534351145,-0.414306640625,0.02978515625,-0.3212890625,0.43179999999999996
1.2213740458015268,2.381679389312977,-0.7938931297709924,-0.415283203125,0.0322265625,-0.323486328125,0.4335
1.2061068702290076,2.198473282442748,-0.8854961832061069,-0.41552734375,0.029052734375,-0.3291015625,0.4352
1.1145038167938932,2.351145038167939,-0.8244274809160306,-0.41748046875,0.028076171875,-0.3232421875,0.43689999999999996
1.1450381679389312,2.122137404580153,-0.9465648854961832,-0.416259765625,0.03125,-0.320556640625,0.4386
1.1297709923664123,2.2900763358778624,-0.7633587786259542,-0.41748046875,0.03271484375,-0.32568359375,0.44029999999999997
1.1297709923664123,2.213740458015267,-1.0229007633587786,-0.4150390625,0.03759765625,-0.33056640625,0.44199999999999995
1.1145038167938932,2.2595419847328246,-0.916030534351145,-0.419677734375,0.041748046875,-0.327880859375,0.4437
1.1297709923664123,2.183206106870229,-1.1603053435114503,-0.420654296875,0.032958984375,-0.324951171875,0.44539999999999996
1.3435114503816794,2.0610687022900764,-1.0381679389312977,-0.413330078125,0.0341796875,-0.322509765625,0.4471
1.1755725190839694,2.213740458015267,-1.2213740458015268,-0.419921875,0.0361328125,-0.32275390625,0.4488
1.0381679389312977,2.1068702290076335,-1.2671755725190839,-0.417724609375,0.039306640625,-0.3193359375,0.45049999999999996
1.1908396946564885,2.1526717557251906,-1.450381679389313,-0.4189453125,0.03466796875,-0.312744140625,0.4522
1.251908396946565,2.1526717557251906,-1.3740458015267176,-0.419189453125,0.040283203125,-0.320556640625,0.45389999999999997
1.2366412213740459,2.1068702290076335,-1.4961832061068703,-0.420166015625,0.03662109375,-0.3212890625,0.45559999999999995
1.4961832061068703,1.984732824427481,-1.5725190839694656,-0.417724609375,0.027099609375,-0.319091796875,0.4573
1.282442748091603,1.984732824427481,-1.7557251908396947,-0.41796875,0.035400390625,-0.319091796875,0.45899999999999996
1.5877862595419847,2.0763358778625953,-1.7099236641221374,-0.418212890625,0.036865234375,-0.3203125,0.4607
1.618320610687023,1.816793893129771,-2.015267175572519,-0.419189453125,0.033203125,-0.322998046875,0.4624
1.5877862595419847,1.9236641221374047,-1.9236641221374047,-0.419189453125,0.03515625,-0.325439453125,0.46409999999999996
1.7251908396946565,1.7709923664122138,-2.0763358778625953,-0.413818359375,0.033447265625,-0.326904296875,0.4658
1.3435114503816794,1.7709923664122138,-2.0916030534351147,-0.411376953125,0.04345703125,-0.3251953125,0.46749999999999997
1.450381679389313,1.6946564885496183,-2.0916030534351147,-0.41845703125,0.034423828125,-0.320068359375,0.46919999999999995
1.8931297709923665,1.6793893129770991,-2.0,-0.415771484375,0.033203125,-0.330810546875,0.4709
1.6488549618320612,1.7099236641221374,-2.198473282442748,-0.421142578125,0.037841796875,-0.32568359375,0.47259999999999996
1.5419847328244274,1.633587786259542,-2.0,-0.418701171875,0.034423828125,-0.3232421875,0.4743
1.7709923664122138,1.6030534351145038,-2.2595419847328246,-0.4150390625,0.02978515625,-0.33544921875,0.476
1.6488549618320612,1.450381679389313,-2.16793893129771,-0.41455078125,0.035400390625,-0.32470703125,0.47769999999999996
1.9236641221374047,1.6030534351145038,-2.1068702290076335,-0.424072265625,0.036376953125,-0.3232421875,0.4794
1.83206106870229,1.6641221374045803,-2.122137404580153,-0.416748046875,0.032470703125,-0.31884765625,0.48109999999999997
1.6946564885496183,1.786259541984733,-2.366412213740458,-0.420166015625,0.02978515625,-0.321533203125,0.48279999999999995
1.7709923664122138,1.786259541984733,-2.1526717557251906,-0.416748046875,0.0302734375,-0.322021484375,0.4845
1.83206106870229,1.786259541984733,-2.0610687022900764,-0.4169921875,0.032958984375,-0.327880859375,0.48619999999999997
1.6946564885496183,1.8015267175572518,-2.045801526717557,-0.413330078125,0.03076171875,-0.320556640625,0.4879
1.7404580152671756,1.816793893129771,-2.1374045801526718,-0.413330078125,0.03125,-0.319580078125,0.4896
1.7099236641221374,1.83206106870229,-2.045801526717557,-0.41650390625,0.032470703125,-0.313720703125,0.49129999999999996
1.7709923664122138,1.9236641221374047,-2.015267175572519,-0.4140625,0.031494140625,-0.324951171875,0.493
1.8015267175572518,1.8931297709923665,-2.1068702290076335,-0.417236328125,0.030029296875,-0.324462890625,0.4947
1.9083969465648856,1.6793893129770991,-2.030534351145038,-0.413818359375,0.03125,-0.3271484375,0.49639999999999995
1.618320610687023,1.6030534351145038,-2.030534351145038,-0.4150390625,0.03369140625,-0.327880859375,0.4981
1.7251908396946565,1.5267175572519085,-1.8625954198473282,-0.415283203125,0.03515625,-0.324462890625,0.49979999999999997
1.6793893129770991,1.465648854961832,-1.9083969465648856,-0.415283203125,0.03271484375,-0.32568359375,0.5015
1.6641221374045803,1.5877862595419847,-1.984732824427481,-0.4111328125,0.03515625,-0.328857421875,0.5032
1.6488549618320612,1.8015267175572518,-2.015267175572519,-0.41259765625,0.03076171875,-0.326416015625,0.5049
1.8778625954198473,1.465648854961832,-1.8473282442748091,-0.419921875,0.030029296875,-0.326904296875,0.5065999999999999
1.7251908396946565,1.3435114503816794,-1.8778625954198473,-0.418701171875,0.037109375,-0.32421875,0.5083
1.5725190839694656,1.465648854961832,-2.015267175572519,-0.4140625,0.035400390625,-0.329345703125,0.51
1.6946564885496183,1.633587786259542,-1.984732824427481,-0.414306640625,0.034912109375,-0.319091796875,0.5116999999999999
1.7404580152671756,1.4961832061068703,-2.1374045801526718,-0.4130859375,0.034423828125,-0.322021484375,0.5134
1.4198473282442747,1.4961832061068703,-1.9389312977099236,-0.4208984375,0.02685546875,-0.319580078125,0.5151
1.4198473282442747,1.4351145038167938,-1.8931297709923665,-0.419921875,0.031005859375,-0.3173828125,0.5167999999999999
1.6946564885496183,1.2061068702290076,-1.984732824427481,-0.4130859375,0.033203125,-0.315185546875,0.5185
1.4809160305343512,1.251908396946565,-1.8625954198473282,-0.4169921875,0.0322265625,-0.3134765625,0.5202
1.5419847328244274,1.1145038167938932,-1.6641221374045803,-0.419677734375,0.033935546875,-0.313720703125,0.5218999999999999
1.5114503816793894,0.9923664122137404,-1.7709923664122138,-0.41845703125,0.03125,-0.3232421875,0.5236
1.786259541984733,1.1297709923664123,-1.7557251908396947,-0.41650390625,0.036376953125,-0.329833984375,0.5253
1.7404580152671756,1.1450381679389312,-1.83206106870229,-0.41162109375,0.036376953125,-0.3203125,0.527
1.6030534351145038,1.0687022900763359,-1.7251908396946565,-0.411865234375,0.036376953125,-0.321044921875,0.5287
1.8931297709923665,0.9465648854961832,-1.7251908396946565,-0.422607421875,0.0283203125,-0.32275390625,0.5304
1.7099236641221374,0.8244274809160306,-1.7404580152671756,-0.419677734375,0.0302734375,-0.3232421875,0.5321
1.618320610687023,1.0381679389312977,-1.6641221374045803,-0.420654296875,0.0341796875,-0.321044921875,0.5337999999999999
1.618320610687023,0.9312977099236641,-1.8015267175572518,-0.41650390625,0.031982421875,-0.328369140625,0.5355
1.6641221374045803,0.9618320610687023,-1.9083969465648856,-0.417724609375,0.032470703125,-0.322021484375,0.5372
1.786259541984733,1.0534351145038168,-1.8015267175572518,-0.420166015625,0.03173828125,-0.3173828125,0.5388999999999999
2.030534351145038,0.9923664122137404,-1.5114503816793894,-0.41796875,0.02685546875,-0.327392578125,0.5406
2.030534351145038,0.7633587786259542,-1.7099236641221374,-0.412353515625,0.0322265625,-0.3203125,0.5423
1.633587786259542,0.8396946564885496,-1.7099236641221374,-0.415771484375,0.036865234375,-0.3212890625,0.5439999999999999
1.984732824427481,0.8549618320610687,-1.297709923664122,-0.410400390625,0.03173828125,-0.3251953125,0.5457
2.015267175572519,0.7786259541984732,-1.4351145038167938,-0.4140625,0.03564453125,-0.316162109375,0.5474
2.030534351145038,0.7480916030534351,-1.4045801526717556,-0.416748046875,0.036376953125,-0.32080078125,0.5490999999999999
2.015267175572519,0.7786259541984732,-1.450381679389313,-0.41064453125,0.032470703125,-0.326904296875,0.5508
2.015267175572519,0.9007633587786259,-1.450381679389313,-0.419921875,0.029541015625,-0.33251953125,0.5525
2.015267175572519,0.7480916030534351,-1.5267175572519085,-0.42236328125,0.026611328125,-0.3203125,0.5541999999999999
1.7251908396946565,0.8396946564885496,-1.5572519083969465,-0.417724609375,0.029541015625,-0.319580078125,0.5559
1.9083969465648856,0.8854961832061069,-1.3893129770992367,-0.416748046875,0.0322265625,-0.318603515625,0.5576
2.015267175572519,0.732824427480916,-1.3740458015267176,-0.417724609375,0.032470703125,-0.326171875,0.5593
2.0916030534351147,1.0687022900763359,-1.3435114503816794,-0.417724609375,0.0341796875,-0.32666015625,0.5609999999999999
1.9083969465648856,1.099236641221374,-1.5114503816793894,-0.41845703125,0.03173828125,-0.32275390625,0.5627
2.045801526717557,1.083969465648855,-1.4045801526717556,-0.421875,0.032470703125,-0.31787109375,0.5644
1.8015267175572518,0.9007633587786259,-1.297709923664122,-0.422607421875,0.03369140625,-0.318603515625,0.5660999999999999
2.045801526717557,1.1603053435114503,-1.3129770992366412,-0.423828125,0.0322265625,-0.321533203125,0.5678
1.8778625954198473,1.083969465648855,-1.1755725190839694,-0.4140625,0.03076171875,-0.32421875,0.5695
1.7557251908396947,1.083969465648855,-1.0534351145038168,-0.412109375,0.02978515625,-0.32763671875,0.5711999999999999
1.9694656488549618,1.1450381679389312,-0.9770992366412213,-0.4208984375,0.031494140625,-0.324951171875,0.5729
1.83206106870229,1.083969465648855,-1.2366412213740459,-0.414794921875,0.03564453125,-0.321533203125,0.5746
1.8473282442748091,1.297709923664122,-1.282442748091603,-0.41845703125,0.0380859375,-0.318603515625,0.5762999999999999
1.8015267175572518,1.3587786259541985,-0.8396946564885496,-0.418701171875,0.03515625,-0.324951171875,0.578
1.6030534351145038,1.3740458015267176,-0.9923664122137404,-0.422607421875,0.034912109375,-0.321044921875,0.5797
1.7404580152671756,1.297709923664122,-1.0381679389312977,-0.414794921875,0.032958984375,-0.32470703125,0.5813999999999999
1.633587786259542,1.4351145038167938,-1.1145038167938932,-0.416748046875,0.036376953125,-0.32861328125,0.5831
1.6641221374045803,1.3282442748091603,-1.0381679389312977,-0.418701171875,0.02880859375,-0.3203125,0.5848
1.4351145038167938,1.450381679389313,-0.9923664122137404,-0.41845703125,0.031982421875,-0.322509765625,0.5865
1.8015267175572518,1.4351145038167938,-1.0381679389312977,-0.418701171875,0.029541015625,-0.32275390625,0.5882
1.786259541984733,1.5267175572519085,-1.1450381679389312,-0.41650390625,0.030517578125,-0.3251953125,0.5899
1.5267175572519085,1.297709923664122,-0.916030534351145,-0.421630859375,0.025390625,-0.32470703125,0.5916
1.6030534351145038,1.2213740458015268,-1.1450381679389312,-0.414794921875,0.0302734375,-0.32275390625,0.5932999999999999
1.6641221374045803,1.6793893129770991,-1.0687022900763359,-0.419677734375,0.033447265625,-0.324951171875,0.595
1.633587786259542,1.5877862595419847,-1.297709923664122,-0.417236328125,0.03515625,-0.32421875,0.5967
1.4809160305343512,1.3129770992366412,-1.0381679389312977,-0.423095703125,0.034423828125,-0.32568359375,0.5983999999999999
1.450381679389313,1.5114503816793894,-1.099236641221374,-0.42236328125,0.03125,-0.3203125,0.6001
1.6641221374045803,1.6030534351145038,-1.099236641221374,-0.41943359375,0.0341796875,-0.319091796875,0.6018
1.5725190839694656,1.618320610687023,-1.2213740458015268,-0.424072265625,0.032958984375,-0.31689453125,0.6034999999999999
1.450381679389313,1.3587786259541985,-1.2061068702290076,-0.421142578125,0.0341796875,-0.322998046875,0.6052
1.5572519083969465,1.4961832061068703,-1.2061068702290076,-0.420654296875,0.03857421875,-0.321533203125,0.6069
1.3129770992366412,1.4809160305343512,-1.2671755725190839,-0.419677734375,0.031005859375,-0.328369140625,0.6085999999999999
1.465648854961832,1.6793893129770991,-1.2671755725190839,-0.411376953125,0.030517578125,-0.311767578125,0.6103
1.5114503816793894,1.5877862595419847,-1.2061068702290076,-0.419189453125,0.02978515625,-0.31982421875,0.612
1.5114503816793894,1.618320610687023,-1.282442748091603,-0.421875,0.02978515625,-0.32861328125,0.6136999999999999
1.3129770992366412,1.5267175572519085,-1.450381679389313,-0.41650390625,0.033203125,-0.326416015625,0.6154
1.5114503816793894,1.7099236641221374,-1.450381679389313,-0.423095703125,0.03173828125,-0.322509765625,0.6171
1.465648854961832,1.6030534351145038,-1.5572519083969465,-0.424560546875,0.034423828125,-0.32763671875,0.6188
1.3435114503816794,1.6641221374045803,-1.5572519083969465,-0.422607421875,0.029296875,-0.316650390625,0.6204999999999999
1.4045801526717556,1.5572519083969465,-1.4045801526717556,-0.418212890625,0.031005859375,-0.319091796875,0.6222
1.297709923664122,1.5114503816793894,-1.4961832061068703,-0.417236328125,0.031982421875,-0.3154296875,0.6239
1.5114503816793894,1.6641221374045803,-1.5419847328244274,-0.419677734375,0.03369140625,-0.324951171875,0.6255999999999999
1.2671755725190839,1.6641221374045803,-1.6488549618320612,-0.419677734375,0.030517578125,-0.32421875,0.6273
1.2213740458015268,1.6641221374045803,-1.4961832061068703,-0.418701171875,0.031494140625,-0.32568359375,0.629
1.1297709923664123,1.4809160305343512,-1.6946564885496183,-0.419921875,0.03466796875,-0.3271484375,0.6306999999999999
0.9465648854961832,1.450381679389313,-1.6641221374045803,-0.415283203125,0.034912109375,-0.3193359375,0.6324
1.2366412213740459,1.4198473282442747,-1.8625954198473282,-0.41455078125,0.0361328125,-0.3271484375,0.6341
1.3740458015267176,1.450381679389313,-1.7099236641221374,-0.414794921875,0.029052734375,-0.3271484375,0.6357999999999999
1.3282442748091603,1.3587786259541985,-1.633587786259542,-0.414794921875,0.033203125,-0.321533203125,0.6375
1.1145038167938932,1.4351145038167938,-1.5725190839694656,-0.4091796875,0.03076171875,-0.3232421875,0.6392
1.3129770992366412,1.2366412213740459,-1.83206106870229,-0.416748046875,0.03271484375,-0.31640625,0.6408999999999999
1.3282442748091603,1.1297709923664123,-1.5419847328244274,-0.4150390625,0.03076171875,-0.323486328125,0.6426
1.0076335877862594,1.099236641221374,-1.465648854961832,-0.420654296875,0.03076171875,-0.322509765625,0.6443
1.1145038167938932,1.099236641221374,-1.618320610687023,-0.418701171875,0.031494140625,-0.318359375,0.646
1.1450381679389312,1.099236641221374,-1.6793893129770991,-0.418701171875,0.028076171875,-0.324462890625,0.6476999999999999
1.0534351145038168,1.1908396946564885,-1.618320610687023,-0.419189453125,0.0302734375,-0.325927734375,0.6494
1.297709923664122,1.1450381679389312,-1.5572519083969465,-0.419677734375,0.033935546875,-0.325927734375,0.6511
1.1755725190839694,1.1603053435114503,-1.5267175572519085,-0.41552734375,0.033203125,-0.319091796875,0.6527999999999999
0.9312977099236641,1.2213740458015268,-1.6030534351145038,-0.421875,0.0341796875,-0.31982421875,0.6545
1.1603053435114503,1.3129770992366412,-1.6488549618320612,-0.4189453125,0.03125,-0.326171875,0.6562
1.0076335877862594,1.4045801526717556,-1.633587786259542,-0.420654296875,0.029296875,-0.315673828125,0.6578999999999999
0.8702290076335878,1.3282442748091603,-1.633587786259542,-0.42138671875,0.03369140625,-0.32470703125,0.6596
0.9923664122137404,1.2213740458015268,-1.7251908396946565,-0.4248046875,0.03564453125,-0.328369140625,0.6613
0.9007633587786259,1.2366412213740459,-1.786259541984733,-0.4208984375,0.031982421875,-0.326416015625,0.6629999999999999
0.9465648854961832,1.3435114503816794,-1.7557251908396947,-0.416015625,0.0283203125,-0.320068359375,0.6647
1.1145038167938932,1.4351145038167938,-1.7709923664122138,-0.4091796875,0.032470703125,-0.321044921875,0.6664
1.0687022900763359,1.2671755725190839,-1.633587786259542,-0.41455078125,0.031982421875,-0.320068359375,0.6680999999999999
0.9923664122137404,1.1450381679389312,-1.786259541984733,-0.42138671875,0.02880859375,-0.322021484375,0.6698
1.0381679389312977,1.1450381679389312,-2.0610687022900764,-0.410888671875,0.036376953125,-0.32421875,0.6715
1.2671755725190839,1.1450381679389312,-1.83206106870229,-0.414306640625,0.035400390625,-0.315673828125,0.6731999999999999
1.297709923664122,1.1450381679389312,-2.0,-0.417724609375,0.0341796875,-0.325927734375,0.6748999999999999
1.1450381679389312,1.099236641221374,-1.786259541984733,-0.421630859375,0.0302734375,-0.31640625,0.6766
1.297709923664122,1.1297709923664123,-1.9083969465648856,-0.41552734375,0.0361328125,-0.32080078125,0.6783
1.450381679389313,1.083969465648855,-1.8625954198473282,-0.41650390625,0.035400390625,-0.322021484375,0.6799999999999999
1.450381679389313,1.0076335877862594,-2.0,-0.41259765625,0.036376953125,-0.33056640625,0.6817
1.5114503816793894,1.1145038167938932,-1.8931297709923665,-0.4130859375,0.037109375,-0.3232421875,0.6834
1.5419847328244274,0.9618320610687023,-1.9236641221374047,-0.41845703125,0.03271484375,-0.326416015625,0.6850999999999999
1.4045801526717556,0.8396946564885496,-2.0,-0.42041015625,0.034912109375,-0.32421875,0.6868
1.4198473282442747,0.8854961832061069,-2.16793893129771,-0.411865234375,0.034423828125,-0.320068359375,0.6885
1.5267175572519085,0.9312977099236641,-1.816793893129771,-0.422607421875,0.0390625,-0.32470703125,0.6901999999999999
1.633587786259542,0.8091603053435115,-1.9389312977099236,-0.416259765625,0.033935546875,-0.320556640625,0.6919
1.7251908396946565,0.9465648854961832,-1.7709923664122138,-0.41455078125,0.03466796875,-0.32568359375,0.6936
1.6793893129770991,0.916030534351145,-2.0,-0.41552734375,0.030029296875,-0.322509765625,0.6952999999999999
1.6030534351145038,0.9312977099236641,-1.7709923664122138,-0.42041015625,0.036865234375,-0.327392578125,0.697
1.8473282442748091,1.099236641221374,-1.9236641221374047,-0.423095703125,0.036376953125,-0.3232421875,0.6987
1.6488549618320612,1.0687022900763359,-1.6488549618320612,-0.415771484375,0.034423828125,-0.330078125,0.7003999999999999
1.8625954198473282,0.9007633587786259,-1.786259541984733,-0.417236328125,0.031494140625,-0.319091796875,0.7021
1.8931297709923665,1.0229007633587786,-1.7251908396946565,-0.4150390625,0.03466796875,-0.315673828125,0.7038
1.7404580152671756,1.1755725190839694,-1.9541984732824427,-0.4169921875,0.0380859375,-0.3203125,0.7055
1.8015267175572518,0.9923664122137404,-1.5572519083969465,-0.417724609375,0.02978515625,-0.326171875,0.7071999999999999
1.6946564885496183,0.9465648854961832,-1.6641221374045803,-0.4150390625,0.033203125,-0.32177734375,0.7089
1.9541984732824427,1.1145038167938932,-1.8625954198473282,-0.415771484375,0.03662109375,-0.322509765625,0.7106
1.984732824427481,1.0076335877862594,-1.633587786259542,-0.418212890625,0.036376953125,-0.3212890625,0.7122999999999999
1.8931297709923665,0.9618320610687023,-1.450381679389313,-0.421630859375,0.032470703125,-0.31591796875,0.714
1.9694656488549618,1.0381679389312977,-1.5877862595419847,-0.420166015625,0.031005859375,-0.32373046875,0.7157
1.8778625954198473,0.9618320610687023,-1.465648854961832,-0.417724609375,0.03564453125,-0.317626953125,0.7173999999999999
1.9694656488549618,1.0229007633587786,-1.5114503816793894,-0.417724609375,0.029541015625,-0.3154296875,0.7191
1.8625954198473282,0.9312977099236641,-1.4961832061068703,-0.42041015625,0.0322265625,-0.326171875,0.7208
1.8778625954198473,0.9007633587786259,-1.450381679389313,-0.4189453125,0.033935546875,-0.3193359375,0.7224999999999999
2.183206106870229,0.916030534351145,-1.4961832061068703,-0.42236328125,0.0341796875,-0.319580078125,0.7242
2.0610687022900764,1.0229007633587786,-1.465648854961832,-0.41845703125,0.035888671875,-0.3212890625,0.7259
2.030534351145038,1.083969465648855,-1.2061068702290076,-0.41748046875,0.033447265625,-0.31884765625,0.7275999999999999
2.16793893129771,1.1450381679389312,-1.5572519083969465,-0.417724609375,0.0341796875,-0.3291015625,0.7293
2.1526717557251906,1.099236641221374,-1.3435114503816794,-0.41943359375,0.03564453125,-0.32470703125,0.731
2.0610687022900764,1.2061068702290076,-1.3893129770992367,-0.417236328125,0.02734375,-0.317138671875,0.7326999999999999
2.0916030534351147,1.099236641221374,-1.4198473282442747,-0.41455078125,0.037353515625,-0.319091796875,0.7343999999999999
2.0,1.0687022900763359,-1.3435114503816794,-0.420166015625,0.03515625,-0.32177734375,0.7361
2.1068702290076335,1.0687022900763359,-1.2671755725190839,-0.4208984375,0.0302734375,-0.3173828125,0.7378
1.9541984732824427,0.9465648854961832,-1.2061068702290076,-0.42138671875,0.02880859375,-0.313720703125,0.7394999999999999
1.984732824427481,1.1145038167938932,-1.0534351145038168,-0.41259765625,0.03076171875,-0.328369140625,0.7412
1.9389312977099236,1.083969465648855,-1.1450381679389312,-0.418212890625,0.0322265625,-0.3232421875,0.7429
2.16793893129771,1.0076335877862594,-1.1603053435114503,-0.4150390625,0.028564453125,-0.315673828125,0.7445999999999999
2.2900763358778624,1.083969465648855,-1.2213740458015268,-0.41845703125,0.03369140625,-0.320556640625,0.7463
1.9694656488549618,1.0687022900763359,-1.1603053435114503,-0.420166015625,0.03173828125,-0.31884765625,0.748
1.786259541984733,0.9465648854961832,-1.3740458015267176,-0.41943359375,0.032958984375,-0.3232421875,0.7496999999999999
1.9389312977099236,1.1603053435114503,-1.099236641221374,-0.418701171875,0.034912109375,-0.328369140625,0.7514
1.8473282442748091,1.1908396946564885,-1.1145038167938932,-0.414794921875,0.03955078125,-0.31396484375,0.7531
2.030534351145038,1.0381679389312977,-1.0381679389312977,-0.41650390625,0.036376953125,-0.3271484375,0.7547999999999999
2.0,1.0076335877862594,-1.282442748091603,-0.422607421875,0.0302734375,-0.3203125,0.7565
2.030534351145038,1.0381679389312977,-1.2671755725190839,-0.41796875,0.0380859375,-0.32421875,0.7582
2.0,1.083969465648855,-1.251908396946565,-0.4169921875,0.032470703125,-0.3173828125,0.7598999999999999
1.8625954198473282,1.1450381679389312,-1.099236641221374,-0.41552734375,0.030517578125,-0.322021484375,0.7615999999999999
2.1526717557251906,0.9618320610687023,-1.1145038167938932,-0.4169921875,0.03271484375,-0.322998046875,0.7633
2.0763358778625953,0.9770992366412213,-1.099236641221374,-0.41845703125,0.028076171875,-0.31640625,0.7649999999999999
1.8931297709923665,1.1297709923664123,-1.297709923664122,-0.422119140625,0.02783203125,-0.323486328125,0.7666999999999999
1.9541984732824427,0.9770992366412213,-1.1145038167938932,-0.420654296875,0.030517578125,-0.322265625,0.7684
1.7557251908396947,0.9923664122137404,-1.3129770992366412,-0.417236328125,0.0244140625,-0.333740234375,0.7701
1.7557251908396947,1.083969465648855,-1.083969465648855,-0.418701171875,0.03759765625,-0.322265625,0.7717999999999999
1.6793893129770991,1.099236641221374,-1.1297709923664123,-0.42236328125,0.033203125,-0.32470703125,0.7735
1.816793893129771,1.083969465648855,-1.1450381679389312,-0.41650390625,0.03125,-0.326904296875,0.7752
1.8931297709923665,0.9923664122137404,-1.1603053435114503,-0.419921875,0.02685546875,-0.32763671875,0.7768999999999999
1.83206106870229,0.9312977099236641,-1.251908396946565,-0.41943359375,0.03466796875,-0.32080078125,0.7786
1.6793893129770991,0.9007633587786259,-1.3282442748091603,-0.4150390625,0.029052734375,-0.3212890625,0.7803
1.5877862595419847,1.1297709923664123,-1.0534351145038168,-0.419677734375,0.02880859375,-0.319580078125,0.7819999999999999
1.5419847328244274,1.1297709923664123,-1.3129770992366412,-0.422607421875,0.032470703125,-0.3291015625,0.7837
1.6030534351145038,0.9007633587786259,-1.3435114503816794,-0.422119140625,0.0302734375,-0.32470703125,0.7854
1.4809160305343512,1.0229007633587786,-1.4045801526717556,-0.4208984375,0.02880859375,-0.31787109375,0.7870999999999999
1.3129770992366412,1.0534351145038168,-1.282442748091603,-0.415283203125,0.029296875,-0.319580078125,0.7888
1.4961832061068703,1.1755725190839694,-1.3129770992366412,-0.41650390625,0.027099609375,-0.3251953125,0.7905
1.3435114503816794,1.2671755725190839,-1.2061068702290076,-0.41748046875,0.029541015625,-0.32763671875,0.7921999999999999
1.3129770992366412,1.0229007633587786,-1.297709923664122,-0.42138671875,0.03125,-0.3203125,0.7938999999999999
1.2366412213740459,1.083969465648855,-1.4045801526717556,-0.423583984375,0.029541015625,-0.319091796875,0.7956
1.3740458015267176,0.9312977099236641,-1.3435114503816794,-0.41748046875,0.030029296875,-0.3251953125,0.7973
1.2061068702290076,0.9618320610687023,-1.3129770992366412,-0.419677734375,0.03125,-0.328369140625,0.7989999999999999
1.1908396946564885,1.1145038167938932,-1.5572519083969465,-0.423095703125,0.033203125,-0.312255859375,0.8007
1.1908396946564885,0.9465648854961832,-1.3587786259541985,-0.421875,0.03369140625,-0.3212890625,0.8024
1.1603053435114503,0.9618320610687023,-1.4045801526717556,-0.418212890625,0.028076171875,-0.3193359375,0.8040999999999999
1.1450381679389312,0.9465648854961832,-1.4351145038167938,-0.415771484375,0.032470703125,-0.329833984375,0.8058
1.2061068702290076,0.8549618320610687,-1.4809160305343512,-0.415771484375,0.02490234375,-0.331787109375,0.8075
1.0687022900763359,1.083969465648855,-1.3435114503816794,-0.419921875,0.029541015625,-0.327880859375,0.8091999999999999
1.0687022900763359,0.916030534351145,-1.3740458015267176,-0.418212890625,0.0302734375,-0.3173828125,0.8109
1.1603053435114503,0.9465648854961832,-1.4809160305343512,-0.41845703125,0.030029296875,-0.3251953125,0.8126
1.1297709923664123,0.9923664122137404,-1.6641221374045803,-0.41845703125,0.02880859375,-0.320556640625,0.8142999999999999
1.099236641221374,0.8549618320610687,-1.4809160305343512,-0.418212890625,0.02978515625,-0.32275390625,0.816
1.1603053435114503,0.9465648854961832,-1.6946564885496183,-0.419921875,0.02880859375,-0.31201171875,0.8177
0.9923664122137404,0.9770992366412213,-1.6488549618320612,-0.41650390625,0.0361328125,-0.32421875,0.8193999999999999
1.0076335877862594,0.9923664122137404,-1.618320610687023,-0.42138671875,0.02978515625,-0.312744140625,0.8210999999999999
1.1755725190839694,0.9007633587786259,-1.6641221374045803,-0.419189453125,0.03564453125,-0.326904296875,0.8228
0.9312977099236641,0.7633587786259542,-1.5725190839694656,-0.41943359375,0.03564453125,-0.322998046875,0.8244999999999999
1.1450381679389312,0.7022900763358778,-1.6488549618320612,-0.413330078125,0.031494140625,-0.325927734375,0.8261999999999999
1.1450381679389312,0.8549618320610687,-1.816793893129771,-0.418212890625,0.034423828125,-0.316162109375,0.8279
0.9618320610687023,0.916030534351145,-1.6641221374045803,-0.41796875,0.02880859375,-0.327392578125,0.8296
0.9618320610687023,0.732824427480916,-1.8778625954198473,-0.416015625,0.035400390625,-0.323974609375,0.8312999999999999
1.0229007633587786,0.8396946564885496,-1.633587786259542,-0.4169921875,0.02880859375,-0.32275390625,0.833
0.8396946564885496,0.7938931297709924,-1.7557251908396947,-0.418701171875,0.02734375,-0.32421875,0.8347
1.1145038167938932,0.8702290076335878,-1.7557251908396947,-0.415283203125,0.035888671875,-0.32373046875,0.8363999999999999
1.1145038167938932,0.7633587786259542,-1.8015267175572518,-0.417236328125,0.032958984375,-0.322265625,0.8381
1.0687022900763359,0.732824427480916,-1.6488549618320612,-0.4150390625,0.03466796875,-0.3271484375,0.8398
0.9007633587786259,0.7633587786259542,-1.9541984732824427,-0.4150390625,0.031005859375,-0.32568359375,0.8414999999999999
0.8854961832061069,0.732824427480916,-1.8625954198473282,-0.410888671875,0.0283203125,-0.32958984375,0.8432
1.1908396946564885,0.916030534351145,-1.6946564885496183,-0.4140625,0.0341796875,-0.325927734375,0.8449
1.0534351145038168,0.8854961832061069,-1.6641221374045803,-0.415283203125,0.028564453125,-0.314453125,0.8465999999999999
1.0381679389312977,0.7633587786259542,-1.618320610687023,-0.421142578125,0.030029296875,-0.327880859375,0.8482999999999999
1.0381679389312977,0.7175572519083969,-1.6793893129770991,-0.4208984375,0.0263671875,-0.31982421875,0.85
1.083969465648855,0.8702290076335878,-1.8625954198473282,-0.420166015625,0.028076171875,-0.322509765625,0.8516999999999999
1.099236641221374,0.8854961832061069,-1.7709923664122138,-0.416748046875,0.027587890625,-0.32421875,0.8533999999999999
1.1297709923664123,0.8091603053435115,-1.5725190839694656,-0.421630859375,0.03515625,-0.32861328125,0.8551
1.0076335877862594,0.8549618320610687,-1.7557251908396947,-0.416748046875,0.03173828125,-0.326904296875,0.8568
0.8091603053435115,0.8244274809160306,-1.8473282442748091,-0.4189453125,0.035888671875,-0.325439453125,0.8584999999999999
1.1908396946564885,0.7633587786259542,-1.7251908396946565,-0.416259765625,0.033935546875,-0.3271484375,0.8602
1.083969465648855,0.7175572519083969,-1.83206106870229,-0.413818359375,0.029052734375,-0.31884765625,0.8619
1.0076335877862594,0.7633587786259542,-1.8015267175572518,-0.419921875,0.03173828125,-0.319091796875,0.8635999999999999
1.1755725190839694,0.7633587786259542,-1.7251908396946565,-0.41552734375,0.03466796875,-0.318603515625,0.8653
1.450381679389313,0.9007633587786259,-1.7404580152671756,-0.420654296875,0.035400390625,-0.32421875,0.867
1.297709923664122,0.7175572519083969,-1.816793893129771,-0.419189453125,0.031005859375,-0.32373046875,0.8686999999999999
1.1145038167938932,0.6717557251908397,-1.7099236641221374,-0.419677734375,0.03369140625,-0.327880859375,0.8704
1.1755725190839694,0.8396946564885496,-1.816793893129771,-0.4169921875,0.033203125,-0.3212890625,0.8721
1.1297709923664123,0.8091603053435115,-1.786259541984733,-0.41943359375,0.03125,-0.322509765625,0.8737999999999999
1.5267175572519085,0.7786259541984732,-1.7709923664122138,-0.417236328125,0.03662109375,-0.3232421875,0.8755
1.4045801526717556,0.916030534351145,-1.5114503816793894,-0.42138671875,0.029296875,-0.3232421875,0.8772
1.2213740458015268,0.8396946564885496,-1.5267175572519085,-0.41845703125,0.031982421875,-0.328369140625,0.8788999999999999
1.3129770992366412,0.7633587786259542,-1.618320610687023,-0.423095703125,0.03076171875,-0.322265625,0.8805999999999999
1.450381679389313,0.8702290076335878,-1.633587786259542,-0.4169921875,0.036865234375,-0.32568359375,0.8823
1.282442748091603,0.9312977099236641,-1.5114503816793894,-0.41796875,0.03662109375,-0.323486328125,0.8839999999999999
1.3282442748091603,0.9465648854961832,-1.5267175572519085,-0.42138671875,0.03369140625,-0.3173828125,0.8856999999999999
1.4198473282442747,0.8549618320610687,-1.6793893129770991,-0.420166015625,0.03271484375,-0.316650390625,0.8874
1.4198473282442747,0.8244274809160306,-1.5419847328244274,-0.416015625,0.03125,-0.328369140625,0.8891
1.5419847328244274,0.8854961832061069,-1.5419847328244274,-0.420654296875,0.030517578125,-0.31640625,0.8907999999999999
1.4961832061068703,1.0076335877862594,-1.6793893129770991,-0.4228515625,0.03466796875,-0.322998046875,0.8925
1.3893129770992367,0.8396946564885496,-1.5725190839694656,-0.416015625,0.035888671875,-0.322509765625,0.8942
1.5877862595419847,1.0076335877862594,-1.5725190839694656,-0.417724609375,0.03515625,-0.322021484375,0.8958999999999999
1.7251908396946565,1.0076335877862594,-1.3740458015267176,-0.416259765625,0.0302734375,-0.32373046875,0.8976
1.633587786259542,1.0229007633587786,-1.3893129770992367,-0.415771484375,0.0341796875,-0.325439453125,0.8993
1.618320610687023,0.8549618320610687,-1.297709923664122,-0.423095703125,0.03369140625,-0.320068359375,0.9009999999999999
1.6946564885496183,0.8091603053435115,-1.1450381679389312,-0.42138671875,0.03466796875,-0.326904296875,0.9027
1.6946564885496183,0.9465648854961832,-1.2671755725190839,-0.419677734375,0.034423828125,-0.317626953125,0.9044
1.4961832061068703,0.7480916030534351,-1.3129770992366412,-0.41552734375,0.03076171875,-0.320068359375,0.9060999999999999
1.5114503816793894,0.7633587786259542,-1.3129770992366412,-0.413818359375,0.032958984375,-0.318115234375,0.9077999999999999
1.7709923664122138,0.8702290076335878,-1.099236641221374,-0.416015625,0.02880859375,-0.31103515625,0.9095
1.8778625954198473,0.8244274809160306,-1.297709923664122,-0.42041015625,0.030517578125,-0.32177734375,0.9111999999999999
1.6030534351145038,0.9465648854961832,-1.1450381679389312,-0.420654296875,0.03369140625,-0.318359375,0.9128999999999999
1.7099236641221374,0.8396946564885496,-1.297709923664122,-0.41552734375,0.03076171875,-0.325927734375,0.9146
1.8931297709923665,0.9465648854961832,-1.3129770992366412,-0.419677734375,0.0302734375,-0.322998046875,0.9163
1.8931297709923665,1.0076335877862594,-1.2366412213740459,-0.419189453125,0.03515625,-0.3193359375,0.9179999999999999
1.786259541984733,0.8091603053435115,-0.9923664122137404,-0.416015625,0.031494140625,-0.319580078125,0.9197
1.786259541984733,1.0381679389312977,-1.251908396946565,-0.41650390625,0.03125,-0.318603515625,0.9214
1.8625954198473282,0.6412213740458015,-1.1603053435114503,-0.414794921875,0.03125,-0.318359375,0.9230999999999999
1.7251908396946565,0.7786259541984732,-1.1755725190839694,-0.41796875,0.03564453125,-0.31787109375,0.9248
1.8931297709923665,0.7633587786259542,-1.0381679389312977,-0.42236328125,0.0322265625,-0.32666015625,0.9265
1.9694656488549618,0.7633587786259542,-1.099236641221374,-0.4150390625,0.03271484375,-0.326416015625,0.9281999999999999
1.8625954198473282,1.1145038167938932,-1.2061068702290076,-0.41943359375,0.03271484375,-0.318603515625,0.9299
1.9083969465648856,1.083969465648855,-1.1450381679389312,-0.41748046875,0.03076171875,-0.31787109375,0.9316
1.7404580152671756,0.732824427480916,-1.0381679389312977,-0.414794921875,0.03515625,-0.319580078125,0.9332999999999999
1.6793893129770991,0.7938931297709924,-1.099236641221374,-0.41650390625,0.034912109375,-0.330078125,0.9349999999999999
1.8473282442748091,0.7786259541984732,-0.8854961832061069,-0.417236328125,0.03076171875,-0.32763671875,0.9367
1.7251908396946565,0.7480916030534351,-1.099236641221374,-0.417724609375,0.028076171875,-0.32080078125,0.9383999999999999
2.015267175572519,0.9770992366412213,-1.1450381679389312,-0.41650390625,0.0322265625,-0.322509765625,0.9400999999999999
1.8015267175572518,0.8854961832061069,-1.2061068702290076,-0.4140625,0.027587890625,-0.31884765625,0.9418
1.7251908396946565,0.7022900763358778,-1.0687022900763359,-0.41845703125,0.026123046875,-0.319580078125,0.9434999999999999
1.8625954198473282,0.8396946564885496,-1.251908396946565,-0.41650390625,0.032958984375,-0.329345703125,0.9451999999999999
1.984732824427481,0.8702290076335878,-1.2061068702290076,-0.41845703125,0.03515625,-0.3291015625,0.9469
1.618320610687023,0.7938931297709924,-1.083969465648855,-0.4130859375,0.029296875,-0.325927734375,0.9486
1.9389312977099236,0.7175572519083969,-1.2671755725190839,-0.416748046875,0.03173828125,-0.3203125,0.9502999999999999
1.8473282442748091,0.7480916030534351,-1.0381679389312977,-0.41748046875,0.031005859375,-0.317138671875,0.952
1.6946564885496183,0.6870229007633588,-1.0534351145038168,-0.41943359375,0.03271484375,-0.31884765625,0.9537
1.7709923664122138,0.7480916030534351,-1.1145038167938932,-0.4169921875,0.028076171875,-0.32421875,0.9553999999999999
1.5572519083969465,0.6259541984732825,-1.083969465648855,-0.42041015625,0.02685546875,-0.32763671875,0.9571
1.7557251908396947,0.7633587786259542,-1.099236641221374,-0.416748046875,0.03271484375,-0.32080078125,0.9588
1.7404580152671756,0.6870229007633588,-0.916030534351145,-0.414794921875,0.032958984375,-0.324951171875,0.9604999999999999
1.8015267175572518,0.48854961832061067,-1.1908396946564885,-0.416748046875,0.03564453125,-0.323974609375,0.9621999999999999
1.83206106870229,0.6717557251908397,-1.1297709923664123,-0.421142578125,0.03271484375,-0.3291015625,0.9639
1.618320610687023,0.7786259541984732,-1.0381679389312977,-0.417724609375,0.02685546875,-0.326171875,0.9655999999999999
1.7251908396946565,0.549618320610687,-1.2366412213740459,-0.418212890625,0.0302734375,-0.328857421875,0.9672999999999999
1.7404580152671756,0.6870229007633588,-1.3435114503816794,-0.417724609375,0.029541015625,-0.316650390625,0.969
1.633587786259542,0.7175572519083969,-1.083969465648855,-0.423583984375,0.0263671875,-0.31494140625,0.9706999999999999
1.7404580152671756,0.8396946564885496,-1.2061068702290076,-0.421875,0.034423828125,-0.3232421875,0.9723999999999999
1.6946564885496183,0.8702290076335878,-1.3282442748091603,-0.420654296875,0.034912109375,-0.320068359375,0.9741
1.7251908396946565,0.8091603053435115,-1.3740458015267176,-0.422119140625,0.028564453125,-0.322265625,0.9758
1.6793893129770991,0.5954198473282443,-1.5114503816793894,-0.41455078125,0.02978515625,-0.320556640625,0.9774999999999999
1.3740458015267176,0.8244274809160306,-1.3282442748091603,-0.420166015625,0.029296875,-0.328369140625,0.9792
1.5419847328244274,0.7480916030534351,-1.297709923664122,-0.42041015625,0.03173828125,-0.3193359375,0.9809
1.6641221374045803,0.6564885496183206,-1.4045801526717556,-0.421630859375,0.030029296875,-0.32080078125,0.9825999999999999
1.6030534351145038,0.6870229007633588,-1.2366412213740459,-0.419921875,0.027099609375,-0.32568359375,0.9843
1.4198473282442747,0.9465648854961832,-1.3740458015267176,-0.41748046875,0.02978515625,-0.32421875,0.986
1.5572519083969465,0.732824427480916,-1.3893129770992367,-0.419189453125,0.034912109375,-0.32373046875,0.9876999999999999
1.4351145038167938,0.7938931297709924,-1.3587786259541985,-0.415771484375,0.031005859375,-0.330078125,0.9894
1.4198473282442747,0.7786259541984732,-1.3129770992366412,-0.41552734375,0.0283203125,-0.317138671875,0.9911
1.2213740458015268,0.8549618320610687,-1.3893129770992367,-0.418212890625,0.030517578125,-0.326416015625,0.9927999999999999
1.3740458015267176,0.7786259541984732,-1.1755725190839694,-0.423095703125,0.029052734375,-0.323974609375,0.9944999999999999
1.251908396946565,0.9770992366412213,-1.2366412213740459,-0.41943359375,0.033935546875,-0.321533203125,0.9962
1.282442748091603,0.8702290076335878,-1.1297709923664123,-0.414306640625,0.032958984375,-0.313720703125,0.9978999999999999
1.1603053435114503,1.0076335877862594,-1.3740458015267176,-0.41845703125,0.02978515625,-0.3232421875,0.9995999999999999
1.0534351145038168,0.916030534351145,-1.1603053435114503,-0.4169921875,0.031494140625,-0.323486328125,1.0012999999999999
1.0381679389312977,0.9618320610687023,-1.1297709923664123,-0.414794921875,0.03076171875,-0.319091796875,1.003
1.2213740458015268,0.8549618320610687,-0.9465648854961832,-0.4130859375,0.03271484375,-0.319580078125,1.0047
1.099236641221374,0.8854961832061069,-1.0381679389312977,-0.416259765625,0.031982421875,-0.31689453125,1.0064
1.0381679389312977,0.8854961832061069,-0.9312977099236641,-0.416748046875,0.032470703125,-0.319091796875,1.0081
0.8244274809160306,0.9465648854961832,-0.8854961832061069,-0.418701171875,0.036376953125,-0.3212890625,1.0098
0.6870229007633588,0.8396946564885496,-0.8702290076335878,-0.41943359375,0.030029296875,-0.323486328125,1.0114999999999998
0.7633587786259542,0.8244274809160306,-1.0076335877862594,-0.42236328125,0.0322265625,-0.3193359375,1.0131999999999999
0.7633587786259542,0.7938931297709924,-0.8396946564885496,-0.41650390625,0.031982421875,-0.324462890625,1.0149
0.7175572519083969,0.8702290076335878,-1.0534351145038168,-0.414794921875,0.029052734375,-0.31787109375,1.0166
0.6412213740458015,0.8396946564885496,-0.7938931297709924,-0.417724609375,0.033935546875,-0.32177734375,1.0183
0.6106870229007634,0.7786259541984732,-1.0687022900763359,-0.41650390625,0.030517578125,-0.30908203125,1.02
0.7786259541984732,0.6564885496183206,-0.8396946564885496,-0.42138671875,0.028076171875,-0.32421875,1.0217
0.6106870229007634,0.9618320610687023,-0.7633587786259542,-0.421875,0.032958984375,-0.32568359375,1.0233999999999999
0.3511450381679389,0.9312977099236641,-0.7175572519083969,-0.427001953125,0.023681640625,-0.326171875,1.0251
0.4732824427480916,0.916030534351145,-0.9007633587786259,-0.420166015625,0.030029296875,-0.3193359375,1.0268
0.549618320610687,0.9618320610687023,-0.9618320610687023,-0.415771484375,0.034912109375,-0.32763671875,1.0285
0.48854961832061067,0.9770992366412213,-0.9770992366412213,-0.418212890625,0.032470703125,-0.321533203125,1.0302
0.5648854961832062,0.7938931297709924,-0.8549618320610687,-0.41796875,0.033203125,-0.31787109375,1.0319
0.6106870229007634,1.1145038167938932,-0.8702290076335878,-0.42578125,0.0322265625,-0.327392578125,1.0335999999999999
0.6106870229007634,1.099236641221374,-0.9618320610687023,-0.423583984375,0.035888671875,-0.330322265625,1.0352999999999999
0.48854961832061067,0.9312977099236641,-1.297709923664122,-0.4189453125,0.03369140625,-0.31103515625,1.037
0.5190839694656488,0.7938931297709924,-1.251908396946565,-0.416748046875,0.03125,-0.323974609375,1.0387
0.4732824427480916,1.0076335877862594,-1.5725190839694656,-0.419677734375,0.03125,-0.31396484375,1.0404
0.732824427480916,0.8549618320610687,-1.3587786259541985,-0.4208984375,0.0341796875,-0.329345703125,1.0421
0.5343511450381679,0.6870229007633588,-1.4961832061068703,-0.420166015625,0.0390625,-0.322998046875,1.0437999999999998
0.7633587786259542,0.7786259541984732,-1.5877862595419847,-0.41650390625,0.03857421875,-0.32373046875,1.0454999999999999
0.8091603053435115,0.8244274809160306,-1.9236641221374047,-0.417724609375,0.033447265625,-0.32568359375,1.0472
0.7022900763358778,0.6412213740458015,-1.9389312977099236,-0.415771484375,0.03076171875,-0.322021484375,1.0489
0.8854961832061069,0.732824427480916,-1.8778625954198473,-0.421875,0.031982421875,-0.324462890625,1.0506
0.9770992366412213,0.6106870229007634,-1.9694656488549618,-0.42041015625,0.037353515625,-0.32470703125,1.0523
0.8396946564885496,0.5801526717557252,-2.1526717557251906,-0.413330078125,0.03125,-0.332763671875,1.054
0.8396946564885496,0.549618320610687,-2.0610687022900764,-0.415771484375,0.03955078125,-0.323974609375,1.0556999999999999
1.2366412213740459,0.6870229007633588,-2.2290076335877864,-0.419677734375,0.032958984375,-0.3154296875,1.0574
1.450381679389313,0.7633587786259542,-1.984732824427481,-0.418212890625,0.037109375,-0.322021484375,1.0591
1.1450381679389312,0.7938931297709924,-2.1374045801526718,-0.419189453125,0.0341796875,-0.3271484375,1.0608
1.2213740458015268,0.7786259541984732,-2.16793893129771,-0.419677734375,0.037353515625,-0.3251953125,1.0625
1.3129770992366412,0.7022900763358778,-2.4122137404580153,-0.4228515625,0.03955078125,-0.3203125,1.0642
1.3435114503816794,0.7022900763358778,-2.0,-0.41845703125,0.041748046875,-0.326171875,1.0658999999999998
1.465648854961832,0.6870229007633588,-2.16793893129771,-0.41845703125,0.036865234375,-0.315673828125,1.0675999999999999
1.6641221374045803,0.7633587786259542,-2.122137404580153,-0.419921875,0.034423828125,-0.315673828125,1.0693
1.3893129770992367,0.7175572519083969,-2.1526717557251906,-0.41650390625,0.033203125,-0.318603515625,1.071
1.2366412213740459,0.7175572519083969,-2.2290076335877864,-0.414306640625,0.03515625,-0.317626953125,1.0727
1.4351145038167938,0.7786259541984732,-2.1374045801526718,-0.4150390625,0.02880859375,-0.31640625,1.0744
1.4809160305343512,0.732824427480916,-2.0916030534351147,-0.4150390625,0.031494140625,-0.32470703125,1.0760999999999998
1.4198473282442747,0.732824427480916,-2.2290076335877864,-0.4150390625,0.030029296875,-0.322021484375,1.0777999999999999
1.4961832061068703,0.6870229007633588,-1.984732824427481,-0.421142578125,0.032958984375,-0.323974609375,1.0795
1.4961832061068703,0.8549618320610687,-1.9541984732824427,-0.417724609375,0.033203125,-0.3310546875,1.0812
1.618320610687023,0.7480916030534351,-1.9236641221374047,-0.421142578125,0.03271484375,-0.313232421875,1.0829
1.7099236641221374,0.6870229007633588,-2.0610687022900764,-0.414794921875,0.03466796875,-0.322265625,1.0846
1.4198473282442747,0.7022900763358778,-1.8931297709923665,-0.416015625,0.03076171875,-0.319580078125,1.0863
1.6946564885496183,0.7022900763358778,-1.9083969465648856,-0.418212890625,0.033447265625,-0.326904296875,1.0879999999999999
1.7557251908396947,0.6412213740458015,-1.83206106870229,-0.42041015625,0.03369140625,-0.3251953125,1.0897
1.4045801526717556,0.6259541984732825,-1.8931297709923665,-0.423828125,0.033203125,-0.322021484375,1.0914
1.7251908396946565,0.6564885496183206,-1.786259541984733,-0.42333984375,0.031494140625,-0.326416015625,1.0931
1.6641221374045803,0.6717557251908397,-1.9236641221374047,-0.415771484375,0.033935546875,-0.325927734375,1.0948
1.5877862595419847,0.7022900763358778,-1.9541984732824427,-0.416748046875,0.02978515625,-0.325439453125,1.0965
1.618320610687023,0.7022900763358778,-1.9236641221374047,-0.42041015625,0.028564453125,-0.32177734375,1.0981999999999998
1.7404580152671756,0.549618320610687,-1.6793893129770991,-0.4228515625,0.0322265625,-0.31640625,1.0998999999999999
1.6488549618320612,0.549618320610687,-2.030534351145038,-0.416748046875,0.035400390625,-0.321044921875,1.1016
1.5877862595419847,0.5954198473282443,-1.7557251908396947,-0.41259765625,0.033447265625,-0.320556640625,1.1033
1.8015267175572518,0.4732824427480916,-1.7099236641221374,-0.416015625,0.032470703125,-0.32080078125,1.105
1.7709923664122138,0.4732824427480916,-1.6641221374045803,-0.417724609375,0.0322265625,-0.3203125,1.1067
1.8931297709923665,0.5038167938931297,-1.6946564885496183,-0.41552734375,0.031494140625,-0.32470703125,1.1083999999999998
1.83206106870229,0.6412213740458015,-1.618320610687023,-0.420166015625,0.032470703125,-0.32861328125,1.1100999999999999
1.8778625954198473,0.3969465648854962,-1.7709923664122138,-0.41357421875,0.031005859375,-0.32421875,1.1118
1.8473282442748091,0.3053435114503817,-1.6641221374045803,-0.4208984375,0.03466796875,-0.32568359375,1.1135
1.9236641221374047,0.33587786259541985,-1.618320610687023,-0.416748046875,0.037109375,-0.32373046875,1.1152
2.1068702290076335,0.4122137404580153,-1.5572519083969465,-0.41796875,0.035888671875,-0.3125,1.1169
1.8931297709923665,0.366412213740458,-1.5114503816793894,-0.418212890625,0.03369140625,-0.3232421875,1.1186
1.9541984732824427,0.10687022900763359,-1.4198473282442747,-0.419677734375,0.032958984375,-0.321533203125,1.1202999999999999
1.984732824427481,0.15267175572519084,-1.633587786259542,-0.419189453125,0.0322265625,-0.312255859375,1.1219999999999999
1.9541984732824427,0.3511450381679389,-1.3893129770992367,-0.419921875,0.037353515625,-0.322265625,1.1237
2.122137404580153,0.22900763358778625,-1.5419847328244274,-0.42041015625,0.03076171875,-0.319580078125,1.1254
2.3053435114503817,0.10687022900763359,-1.297709923664122,-0.41845703125,0.032958984375,-0.32275390625,1.1271
2.030534351145038,0.2900763358778626,-1.4809160305343512,-0.418701171875,0.03271484375,-0.318603515625,1.1288
2.2442748091603053,0.16793893129770993,-1.3435114503816794,-0.423583984375,0.0361328125,-0.322998046875,1.1304999999999998
2.213740458015267,0.0916030534351145,-1.5877862595419847,-0.419677734375,0.025634765625,-0.31103515625,1.1321999999999999
2.1374045801526718,0.16793893129770993,-1.1603053435114503,-0.417724609375,0.029052734375,-0.3154296875,1.1339
2.1374045801526718,0.04580152671755725,-1.3435114503816794,-0.416015625,0.03369140625,-0.31591796875,1.1356
2.122137404580153,0.04580152671755725,-1.3740458015267176,-0.41650390625,0.03173828125,-0.3173828125,1.1373
2.2900763358778624,0.15267175572519084,-1.3435114503816794,-0.424072265625,0.0322265625,-0.323486328125,1.139
2.2900763358778624,0.22900763358778625,-1.1603053435114503,-0.418701171875,0.031494140625,-0.31884765625,1.1407
2.351145038167939,0.16793893129770993,-1.2213740458015268,-0.418212890625,0.031005859375,-0.319580078125,1.1423999999999999
2.2442748091603053,0.10687022900763359,-1.1908396946564885,-0.4189453125,0.0322265625,-0.314697265625,1.1441
2.1526717557251906,0.15267175572519084,-1.1145038167938932,-0.417724609375,0.02978515625,-0.32177734375,1.1458
2.122137404580153,0.3053435114503817,-1.0687022900763359,-0.418212890625,0.028564453125,-0.324462890625,1.1475
2.3053435114503817,0.0916030534351145,-1.0381679389312977,-0.421142578125,0.02880859375,-0.31201171875,1.1492
2.1526717557251906,0.3053435114503817,-1.1145038167938932,-0.418212890625,0.030517578125,-0.312255859375,1.1509
2.0763358778625953,0.21374045801526717,-1.1603053435114503,-0.41357421875,0.032958984375,-0.325927734375,1.1525999999999998
1.9541984732824427,0.24427480916030533,-0.8244274809160306,-0.418212890625,0.027099609375,-0.31884765625,1.1542999999999999
2.2442748091603053,0.4122137404580153,-0.9923664122137404,-0.419921875,0.03759765625,-0.321044921875,1.156
1.9389312977099236,0.3816793893129771,-0.9465648854961832,-0.4150390625,0.027587890625,-0.31787109375,1.1577
1.9541984732824427,0.4580152671755725,-0.9312977099236641,-0.4228515625,0.029296875,-0.326904296875,1.1594
2.0916030534351147,0.42748091603053434,-0.7480916030534351,-0.421630859375,0.0302734375,-0.332275390625,1.1611
2.030534351145038,0.5038167938931297,-0.9923664122137404,-0.420654296875,0.035400390625,-0.32080078125,1.1627999999999998
1.8015267175572518,0.549618320610687,-0.8396946564885496,-0.422607421875,0.029296875,-0.3232421875,1.1644999999999999
1.816793893129771,0.6412213740458015,-0.7633587786259542,-0.4228515625,0.029541015625,-0.323486328125,1.1662
1.8625954198473282,0.5343511450381679,-0.6259541984732825,-0.419677734375,0.02880859375,-0.32080078125,1.1679
1.7709923664122138,0.6564885496183206,-0.7938931297709924,-0.418212890625,0.034423828125,-0.3203125,1.1696
1.6488549618320612,0.6564885496183206,-0.6412213740458015,-0.422607421875,0.0322265625,-0.314697265625,1.1713
1.6793893129770991,0.7786259541984732,-0.8244274809160306,-0.424072265625,0.033203125,-0.324951171875,1.173
1.7251908396946565,0.9770992366412213,-0.7786259541984732,-0.420166015625,0.0322265625,-0.318359375,1.1746999999999999
1.4351145038167938,0.9770992366412213,-0.8244274809160306,-0.422119140625,0.0283203125,-0.31884765625,1.1764
1.4351145038167938,0.916030534351145,-0.732824427480916,-0.419189453125,0.0244140625,-0.31298828125,1.1781
1.5267175572519085,0.8854961832061069,-0.8244274809160306,-0.421630859375,0.034912109375,-0.322021484375,1.1798
1.1297709923664123,0.9465648854961832,-0.6564885496183206,-0.422607421875,0.0322265625,-0.33056640625,1.1815
1.4045801526717556,1.1908396946564885,-0.7633587786259542,-0.421630859375,0.028076171875,-0.326416015625,1.1832
1.4961832061068703,1.0534351145038168,-0.9312977099236641,-0.41943359375,0.035400390625,-0.317138671875,1.1848999999999998
1.3740458015267176,1.0687022900763359,-0.9312977099236641,-0.421875,0.03369140625,-0.32275390625,1.1865999999999999
1.465648854961832,1.1755725190839694,-0.7022900763358778,-0.41943359375,0.03076171875,-0.318359375,1.1883
0.9465648854961832,1.3435114503816794,-0.7480916030534351,-0.421875,0.029541015625,-0.317626953125,1.19
1.1145038167938932,1.282442748091603,-0.8244274809160306,-0.422607421875,0.028076171875,-0.319091796875,1.1917
1.1450381679389312,1.1908396946564885,-0.9923664122137404,-0.41845703125,0.032470703125,-0.3203125,1.1934
1.099236641221374,1.0229007633587786,-0.9007633587786259,-0.4189453125,0.029296875,-0.314208984375,1.1950999999999998
1.0229007633587786,1.3282442748091603,-1.0229007633587786,-0.421875,0.02880859375,-0.330322265625,1.1967999999999999
0.9770992366412213,1.251908396946565,-1.1145038167938932,-0.417724609375,0.030517578125,-0.326171875,1.1985
0.9770992366412213,1.1603053435114503,-0.9465648854961832,-0.42041015625,0.03759765625,-0.3193359375,1.2002
0.8396946564885496,1.0381679389312977,-0.9770992366412213,-0.419921875,0.02978515625,-0.3173828125,1.2019
0.8854961832061069,1.3129770992366412,-1.1145038167938932,-0.41650390625,0.031494140625,-0.31396484375,1.2036
0.9465648854961832,1.3129770992366412,-1.1908396946564885,-0.4189453125,0.026611328125,-0.32275390625,1.2053
0.8396946564885496,1.2061068702290076,-1.3129770992366412,-0.419677734375,0.029052734375,-0.31787109375,1.2069999999999999
0.732824427480916,1.3740458015267176,-1.251908396946565,-0.419189453125,0.028076171875,-0.31640625,1.2086999999999999
0.6259541984732825,1.3587786259541985,-1.4198473282442747,-0.4169921875,0.029296875,-0.318115234375,1.2104
0.7022900763358778,1.2213740458015268,-1.465648854961832,-0.420654296875,0.030517578125,-0.3193359375,1.2121
0.7022900763358778,1.4045801526717556,-1.3740458015267176,-0.419677734375,0.03173828125,-0.321533203125,1.2138
0.5954198473282443,1.3587786259541985,-1.5725190839694656,-0.420654296875,0.03076171875,-0.326904296875,1.2155
0.7480916030534351,1.282442748091603,-1.7099236641221374,-0.41845703125,0.033447265625,-0.3212890625,1.2171999999999998
0.7175572519083969,1.3587786259541985,-1.5267175572519085,-0.421630859375,0.035400390625,-0.321533203125,1.2188999999999999
0.5343511450381679,1.083969465648855,-1.618320610687023,-0.417724609375,0.03271484375,-0.324462890625,1.2206
0.6106870229007634,1.099236641221374,-1.6030534351145038,-0.416748046875,0.0390625,-0.32080078125,1.2223
0.6870229007633588,1.3129770992366412,-1.4351145038167938,-0.4208984375,0.03369140625,-0.321533203125,1.224
0.5190839694656488,1.3435114503816794,-1.618320610687023,-0.417236328125,0.0341796875,-0.322021484375,1.2257
0.6870229007633588,0.9770992366412213,-1.6488549618320612,-0.417724609375,0.03466796875,-0.3232421875,1.2273999999999998
0.549618320610687,1.2671755725190839,-1.4351145038167938,-0.41748046875,0.031494140625,-0.316162109375,1.2290999999999999
0.5648854961832062,1.099236641221374,-1.5877862595419847,-0.41943359375,0.031494140625,-0.312744140625,1.2308
0.5954198473282443,1.0687022900763359,-1.4351145038167938,-0.41650390625,0.035888671875,-0.3212890625,1.2325
0.3511450381679389,1.0687022900763359,-1.4198473282442747,-0.424072265625,0.035400390625,-0.319091796875,1.2342
0.48854961832061067,1.2061068702290076,-1.4045801526717556,-0.4248046875,0.029296875,-0.316162109375,1.2359
0.732824427480916,1.2671755725190839,-1.4045801526717556,-0.420166015625,0.032958984375,-0.312744140625,1.2376
0.4732824427480916,1.2061068702290076,-1.6641221374045803,-0.4208984375,0.03515625,-0.321533203125,1.2392999999999998
0.2748091603053435,1.1297709923664123,-1.4809160305343512,-0.42041015625,0.028564453125,-0.321533203125,1.2409999999999999
0.3511450381679389,1.2061068702290076,-1.450381679389313,-0.426513671875,0.034423828125,-0.31884765625,1.2427
0.4580152671755725,1.5419847328244274,-1.4198473282442747,-0.417724609375,0.030517578125,-0.32470703125,1.2444
0.32061068702290074,1.3740458015267176,-1.4809160305343512,-0.423095703125,0.040283203125,-0.323486328125,1.2461
0.3816793893129771,1.282442748091603,-1.5267175572519085,-0.419921875,0.03125,-0.330810546875,1.2478
0.2900763358778626,1.450381679389313,-1.5877862595419847,-0.420166015625,0.036376953125,-0.3291015625,1.2494999999999998
0.48854961832061067,1.3435114503816794,-1.3740458015267176,-0.4208984375,0.030029296875,-0.31884765625,1.2511999999999999
0.549618320610687,1.3129770992366412,-1.465648854961832,-0.42041015625,0.037841796875,-0.32470703125,1.2529
0.6870229007633588,1.4198473282442747,-1.6030534351145038,-0.417724609375,0.036376953125,-0.32275390625,1.2546
0.7022900763358778,1.297709923664122,-1.6488549618320612,-0.41650390625,0.0263671875,-0.322509765625,1.2563
0.5954198473282443,1.3129770992366412,-1.7404580152671756,-0.4150390625,0.035888671875,-0.3203125,1.258
0.5648854961832062,1.4809160305343512,-1.6488549618320612,-0.4189453125,0.0341796875,-0.321044921875,1.2596999999999998
0.7938931297709924,1.251908396946565,-1.7404580152671756,-0.419189453125,0.033935546875,-0.327880859375,1.2613999999999999
0.9312977099236641,1.2366412213740459,-1.618320610687023,-0.41943359375,0.034912109375,-0.318359375,1.2631
1.0381679389312977,1.450381679389313,-1.8625954198473282,-0.4189453125,0.033447265625,-0.31787109375,1.2648
1.099236641221374,1.2671755725190839,-1.7557251908396947,-0.4189453125,0.037109375,-0.31298828125,1.2665
1.0534351145038168,1.1297709923664123,-1.6946564885496183,-0.419189453125,0.029052734375,-0.319091796875,1.2682
1.0381679389312977,1.3129770992366412,-1.83206106870229,-0.41845703125,0.03125,-0.313720703125,1.2699
1.0534351145038168,1.099236641221374,-1.83206106870229,-0.420654296875,0.0341796875,-0.3154296875,1.2715999999999998
1.0076335877862594,1.1908396946564885,-1.6946564885496183,-0.4169921875,0.03759765625,-0.323486328125,1.2732999999999999
1.4351145038167938,1.1145038167938932,-1.7557251908396947,-0.421875,0.037353515625,-0.3232421875,1.275
1.3435114503816794,1.1603053435114503,-1.786259541984733,-0.41845703125,0.03662109375,-0.31494140625,1.2767
1.282442748091603,1.083969465648855,-1.7557251908396947,-0.42236328125,0.035400390625,-0.322509765625,1.2784
1.3587786259541985,1.2366412213740459,-1.5419847328244274,-0.422119140625,0.036865234375,-0.323486328125,1.2801
1.6030534351145038,1.251908396946565,-1.7709923664122138,-0.4228515625,0.03662109375,-0.312255859375,1.2817999999999998
1.5877862595419847,1.3435114503816794,-1.465648854961832,-0.416259765625,0.035888671875,-0.32421875,1.2834999999999999
1.6488549618320612,1.5114503816793894,-1.5419847328244274,-0.423828125,0.03564453125,-0.326904296875,1.2852
1.5725190839694656,1.4961832061068703,-1.6946564885496183,-0.4228515625,0.031494140625,-0.32470703125,1.2869
1.8473282442748091,1.450381679389313,-1.5114503816793894,-0.422607421875,0.032470703125,-0.324462890625,1.2886
1.83206106870229,1.3587786259541985,-1.5114503816793894,-0.42138671875,0.033935546875,-0.320556640625,1.2903
1.6488549618320612,1.633587786259542,-1.4961832061068703,-0.421875,0.03076171875,-0.319580078125,1.292
1.8015267175572518,1.5572519083969465,-1.297709923664122,-0.41796875,0.033203125,-0.318603515625,1.2936999999999999
1.9236641221374047,1.3893129770992367,-1.4961832061068703,-0.416259765625,0.033203125,-0.3095703125,1.2953999999999999
1.9083969465648856,1.4809160305343512,-1.5572519083969465,-0.41162109375,0.026611328125,-0.314453125,1.2971
1.8931297709923665,1.6030534351145038,-1.4351145038167938,-0.41455078125,0.02880859375,-0.322021484375,1.2988
1.9541984732824427,1.5572519083969465,-1.2061068702290076,-0.414794921875,0.031494140625,-0.316162109375,1.3005
2.0,1.4045801526717556,-1.3893129770992367,-0.414306640625,0.03173828125,-0.318359375,1.3022
1.984732824427481,1.4198473282442747,-1.3129770992366412,-0.420654296875,0.033203125,-0.319091796875,1.3038999999999998
2.030534351145038,1.6793893129770991,-1.2366412213740459,-0.417236328125,0.03369140625,-0.3251953125,1.3055999999999999
2.3053435114503817,1.5572519083969465,-1.282442748091603,-0.419677734375,0.03564453125,-0.3203125,1.3073
2.198473282442748,1.3740458015267176,-1.282442748091603,-0.418212890625,0.036865234375,-0.312255859375,1.309
2.122137404580153,1.4961832061068703,-1.1908396946564885,-0.42041015625,0.0380859375,-0.31787109375,1.3107
2.015267175572519,1.5877862595419847,-1.0687022900763359,-0.413330078125,0.03173828125,-0.323486328125,1.3124
2.213740458015267,1.7709923664122138,-1.2366412213740459,-0.41748046875,0.032958984375,-0.32666015625,1.3140999999999998
2.0610687022900764,1.4198473282442747,-1.2061068702290076,-0.419921875,0.0322265625,-0.324951171875,1.3157999999999999
2.1526717557251906,1.5114503816793894,-1.3893129770992367,-0.423583984375,0.031494140625,-0.319091796875,1.3175
2.2748091603053435,1.633587786259542,-0.9618320610687023,-0.417724609375,0.029052734375,-0.31640625,1.3192
2.2595419847328246,1.4961832061068703,-1.2366412213740459,-0.421630859375,0.03076171875,-0.322021484375,1.3209
2.2900763358778624,1.4961832061068703,-1.2213740458015268,-0.4189453125,0.03369140625,-0.319580078125,1.3226
2.183206106870229,1.5572519083969465,-1.1297709923664123,-0.420654296875,0.028076171875,-0.3203125,1.3243
2.2900763358778624,1.6793893129770991,-0.9618320610687023,-0.420166015625,0.029296875,-0.315185546875,1.3259999999999998
2.1068702290076335,1.6641221374045803,-1.1145038167938932,-0.416748046875,0.035888671875,-0.3271484375,1.3276999999999999
2.0610687022900764,1.5419847328244274,-1.0229007633587786,-0.4208984375,0.02978515625,-0.3291015625,1.3294
1.9694656488549618,1.7404580152671756,-1.1145038167938932,-0.41748046875,0.030029296875,-0.3212890625,1.3311
2.198473282442748,1.5419847328244274,-1.2061068702290076,-0.41748046875,0.0263671875,-0.324462890625,1.3328
2.183206106870229,1.4809160305343512,-1.1145038167938932,-0.421630859375,0.028564453125,-0.31640625,1.3345
2.2290076335877864,1.5114503816793894,-1.0381679389312977,-0.412841796875,0.032470703125,-0.324951171875,1.3361999999999998
2.3206106870229006,1.633587786259542,-1.1450381679389312,-0.417724609375,0.03173828125,-0.319091796875,1.3378999999999999
2.0916030534351147,1.5267175572519085,-0.8396946564885496,-0.4150390625,0.025146484375,-0.31982421875,1.3396
1.9389312977099236,1.4961832061068703,-1.083969465648855,-0.413818359375,0.02880859375,-0.3232421875,1.3413
2.1374045801526718,1.5877862595419847,-0.9923664122137404,-0.416259765625,0.033447265625,-0.318603515625,1.343
2.122137404580153,1.5725190839694656,-1.1297709923664123,-0.4228515625,0.033935546875,-0.3173828125,1.3447
2.1068702290076335,1.4045801526717556,-1.297709923664122,-0.41015625,0.034912109375,-0.3232421875,1.3463999999999998
2.015267175572519,1.4045801526717556,-1.0381679389312977,-0.41748046875,0.031494140625,-0.327392578125,1.3480999999999999
2.0610687022900764,1.450381679389313,-1.0229007633587786,-0.4208984375,0.02783203125,-0.320068359375,1.3497999999999999
2.030534351145038,1.5267175572519085,-1.0687022900763359,-0.420654296875,0.033935546875,-0.33203125,1.3515
1.9541984732824427,1.5419847328244274,-1.083969465648855,-0.420166015625,0.0283203125,-0.32373046875,1.3532
1.984732824427481,1.465648854961832,-1.0687022900763359,-0.418212890625,0.034912109375,-0.321044921875,1.3549
1.9694656488549618,1.297709923664122,-1.0229007633587786,-0.423095703125,0.0361328125,-0.31591796875,1.3566
1.8015267175572518,1.3893129770992367,-1.297709923664122,-0.4140625,0.033447265625,-0.3193359375,1.3582999999999998
1.8778625954198473,1.5114503816793894,-1.0381679389312977,-0.417724609375,0.03466796875,-0.31494140625,1.3599999999999999
1.9083969465648856,1.633587786259542,-1.2061068702290076,-0.420166015625,0.029541015625,-0.326904296875,1.3617
1.8473282442748091,1.4961832061068703,-1.1603053435114503,-0.414306640625,0.029296875,-0.3251953125,1.3634
1.9236641221374047,1.618320610687023,-1.297709923664122,-0.414794921875,0.0302734375,-0.332275390625,1.3651
1.7404580152671756,1.4045801526717556,-1.083969465648855,-0.421875,0.028564453125,-0.317138671875,1.3668
1.6793893129770991,1.4809160305343512,-1.3435114503816794,-0.4150390625,0.030029296875,-0.32568359375,1.3684999999999998
1.7251908396946565,1.3893129770992367,-1.2061068702290076,-0.42138671875,0.03271484375,-0.32177734375,1.3701999999999999
1.7251908396946565,1.5572519083969465,-1.3129770992366412,-0.418212890625,0.03564453125,-0.32470703125,1.3719
1.5877862595419847,1.5572519083969465,-1.4351145038167938,-0.417236328125,0.026123046875,-0.317626953125,1.3736
1.4961832061068703,1.4809160305343512,-1.4198473282442747,-0.422119140625,0.0302734375,-0.324462890625,1.3753
1.3282442748091603,1.5725190839694656,-1.2671755725190839,-0.419189453125,0.029296875,-0.326904296875,1.377
1.5877862595419847,1.3893129770992367,-1.465648854961832,-0.421875,0.031982421875,-0.31787109375,1.3786999999999998
1.450381679389313,1.4045801526717556,-1.3893129770992367,-0.423095703125,0.034912109375,-0.32470703125,1.3803999999999998
1.4198473282442747,1.465648854961832,-1.6030534351145038,-0.420654296875,0.038330078125,-0.314453125,1.3820999999999999
1.251908396946565,1.6030534351145038,-1.3893129770992367,-0.41650390625,0.031005859375,-0.3154296875,1.3838
1.2213740458015268,1.3435114503816794,-1.450381679389313,-0.417724609375,0.03466796875,-0.329833984375,1.3855
1.1755725190839694,1.450381679389313,-1.297709923664122,-0.41748046875,0.028076171875,-0.322021484375,1.3872
1.3893129770992367,1.5419847328244274,-1.5114503816793894,-0.415283203125,0.027587890625,-0.327880859375,1.3889
1.1908396946564885,1.4198473282442747,-1.450381679389313,-0.41748046875,0.027099609375,-0.322021484375,1.3905999999999998
0.9923664122137404,1.4198473282442747,-1.4809160305343512,-0.420166015625,0.02734375,-0.324462890625,1.3922999999999999
1.1297709923664123,1.4351145038167938,-1.3282442748091603,-0.420654296875,0.03076171875,-0.330322265625,1.394
1.0381679389312977,1.4351145038167938,-1.5114503816793894,-0.416015625,0.03662109375,-0.320068359375,1.3957
1.0381679389312977,1.5572519083969465,-1.3587786259541985,-0.41650390625,0.03173828125,-0.32080078125,1.3974
1.2366412213740459,1.3282442748091603,-1.5877862595419847,-0.418701171875,0.02880859375,-0.315185546875,1.3991
0.9770992366412213,1.3893129770992367,-1.5267175572519085,-0.418701171875,0.031494140625,-0.3193359375,1.4007999999999998
1.0534351145038168,1.465648854961832,-1.6641221374045803,-0.421875,0.035888671875,-0.327392578125,1.4024999999999999
1.0076335877862594,1.4809160305343512,-1.618320610687023,-0.417236328125,0.02978515625,-0.32470703125,1.4042
1.0381679389312977,1.3587786259541985,-1.5725190839694656,-0.41796875,0.028076171875,-0.317138671875,1.4059
0.9618320610687023,1.1755725190839694,-1.7557251908396947,-0.420654296875,0.0302734375,-0.322021484375,1.4076
1.099236641221374,1.3435114503816794,-1.6030534351145038,-0.41748046875,0.034912109375,-0.32421875,1.4093
1.0229007633587786,1.4198473282442747,-1.5572519083969465,-0.4169921875,0.03369140625,-0.31787109375,1.411
0.916030534351145,1.2671755725190839,-1.7251908396946565,-0.416015625,0.028564453125,-0.327392578125,1.4126999999999998
1.0534351145038168,1.4351145038167938,-1.618320610687023,-0.42138671875,0.0322265625,-0.32666015625,1.4143999999999999
1.0687022900763359,1.450381679389313,-1.7709923664122138,-0.41552734375,0.031982421875,-0.324462890625,1.4161
0.9007633587786259,1.3893129770992367,-1.5572519083969465,-0.4169921875,0.032958984375,-0.334716796875,1.4178
1.0076335877862594,1.1603053435114503,-1.6030534351145038,-0.41552734375,0.028564453125,-0.325439453125,1.4195
1.0687022900763359,1.4961832061068703,-1.6030534351145038,-0.4189453125,0.0263671875,-0.321044921875,1.4212
0.9770992366412213,1.450381679389313,-1.6793893129770991,-0.4189453125,0.033203125,-0.3193359375,1.4228999999999998
1.1603053435114503,1.297709923664122,-1.83206106870229,-0.412353515625,0.02880859375,-0.322021484375,1.4245999999999999
1.083969465648855,1.3587786259541985,-1.7557251908396947,-0.42333984375,0.035400390625,-0.322509765625,1.4263
0.9923664122137404,1.297709923664122,-1.8015267175572518,-0.418212890625,0.032470703125,-0.321044921875,1.428
1.0076335877862594,1.5114503816793894,-1.83206106870229,-0.42236328125,0.033447265625,-0.32177734375,1.4297
0.8854961832061069,1.297709923664122,-1.786259541984733,-0.418212890625,0.03466796875,-0.317138671875,1.4314
0.9007633587786259,1.282442748091603,-1.9236641221374047,-0.4189453125,0.031494140625,-0.31884765625,1.4330999999999998
1.3893129770992367,1.3740458015267176,-1.786259541984733,-0.4130859375,0.03369140625,-0.322021484375,1.4347999999999999
0.8396946564885496,1.3435114503816794,-1.7557251908396947,-0.41845703125,0.031494140625,-0.323486328125,1.4364999999999999
1.1145038167938932,1.3893129770992367,-1.8931297709923665,-0.41552734375,0.036376953125,-0.326904296875,1.4382
1.3740458015267176,1.5114503816793894,-1.8625954198473282,-0.419921875,0.0322265625,-0.31103515625,1.4399
1.0381679389312977,1.1450381679389312,-1.6030534351145038,-0.422119140625,0.03466796875,-0.315185546875,1.4416
0.9465648854961832,1.2366412213740459,-1.8931297709923665,-0.4228515625,0.034423828125,-0.3173828125,1.4433
1.099236641221374,1.3129770992366412,-1.6946564885496183,-0.417236328125,0.03271484375,-0.324462890625,1.4449999999999998
1.2061068702290076,1.5877862595419847,-1.786259541984733,-0.417724609375,0.031494140625,-0.318603515625,1.4466999999999999
1.2213740458015268,1.450381679389313,-1.7557251908396947,-0.422607421875,0.02978515625,-0.32275390625,1.4484
1.2671755725190839,1.3740458015267176,-1.8015267175572518,-0.421630859375,0.02978515625,-0.319580078125,1.4501
1.3587786259541985,1.282442748091603,-1.618320610687023,-0.421875,0.036865234375,-0.325439453125,1.4518
1.1450381679389312,1.5267175572519085,-1.8625954198473282,-0.417724609375,0.033935546875,-0.3212890625,1.4535
1.282442748091603,1.465648854961832,-1.786259541984733,-0.4150390625,0.031982421875,-0.315185546875,1.4551999999999998
1.1603053435114503,1.3435114503816794,-1.9389312977099236,-0.422607421875,0.031982421875,-0.324951171875,1.4568999999999999
1.3129770992366412,1.282442748091603,-1.8473282442748091,-0.416748046875,0.03515625,-0.325927734375,1.4586
1.3282442748091603,1.2671755725190839,-1.7557251908396947,-0.421142578125,0.03515625,-0.321533203125,1.4603
1.5877862595419847,1.3282442748091603,-1.6641221374045803,-0.4169921875,0.0322265625,-0.316650390625,1.462
1.3740458015267176,1.3740458015267176,-1.786259541984733,-0.417724609375,0.032958984375,-0.31982421875,1.4637
1.3129770992366412,1.4045801526717556,-1.7557251908396947,-0.421630859375,0.029052734375,-0.324951171875,1.4653999999999998
1.3587786259541985,1.297709923664122,-1.6793893129770991,-0.41943359375,0.0341796875,-0.321533203125,1.4670999999999998
1.7709923664122138,1.2671755725190839,-1.5267175572519085,-0.420166015625,0.030029296875,-0.3232421875,1.4687999999999999
1.5419847328244274,1.297709923664122,-1.6946564885496183,-0.41748046875,0.03564453125,-0.320556640625,1.4705
1.4045801526717556,1.4198473282442747,-1.5572519083969465,-0.41845703125,0.03759765625,-0.321533203125,1.4722
1.7099236641221374,1.3740458015267176,-1.6793893129770991,-0.42578125,0.032958984375,-0.3212890625,1.4739
1.618320610687023,1.3129770992366412,-1.5725190839694656,-0.419921875,0.032958984375,-0.31982421875,1.4756
1.5725190839694656,1.5267175572519085,-1.5725190839694656,-0.416748046875,0.036865234375,-0.327392578125,1.4772999999999998
1.633587786259542,1.4198473282442747,-1.5419847328244274,-0.41943359375,0.034912109375,-0.322998046875,1.4789999999999999
1.5725190839694656,1.4045801526717556,-1.5114503816793894,-0.41748046875,0.036376953125,-0.32861328125,1.4807
1.6946564885496183,1.4961832061068703,-1.3740458015267176,-0.422607421875,0.037353515625,-0.32373046875,1.4824
1.6793893129770991,1.465648854961832,-1.4351145038167938,-0.423583984375,0.03466796875,-0.3232421875,1.4841
1.6488549618320612,1.4351145038167938,-1.450381679389313,-0.418212890625,0.031005859375,-0.324462890625,1.4858
1.9694656488549618,1.4961832061068703,-1.633587786259542,-0.41943359375,0.028076171875,-0.333740234375,1.4874999999999998
1.6641221374045803,1.3740458015267176,-1.3740458015267176,-0.412353515625,0.03271484375,-0.321044921875,1.4891999999999999
2.030534351145038,1.618320610687023,-1.5267175572519085,-0.41845703125,0.032958984375,-0.316650390625,1.4909
1.8931297709923665,1.5877862595419847,-1.3129770992366412,-0.419189453125,0.03271484375,-0.32421875,1.4926
2.015267175572519,1.6488549618320612,-1.4809160305343512,-0.423828125,0.033203125,-0.322509765625,1.4943
1.786259541984733,1.6488549618320612,-1.2061068702290076,-0.41552734375,0.02978515625,-0.325439453125,1.496
1.7709923664122138,1.618320610687023,-1.3435114503816794,-0.419677734375,0.033935546875,-0.320556640625,1.4976999999999998
1.9083969465648856,1.5114503816793894,-1.5572519083969465,-0.416259765625,0.032958984375,-0.324951171875,1.4993999999999998
2.0916030534351147,1.618320610687023,-1.3893129770992367,-0.41748046875,0.033447265625,-0.322509765625,1.5010999999999999
1.816793893129771,1.4045801526717556,-1.3893129770992367,-0.419921875,0.034912109375,-0.32373046875,1.5028
2.0,1.5419847328244274,-1.297709923664122,-0.418212890625,0.03369140625,-0.3154296875,1.5045
1.9083969465648856,1.4809160305343512,-1.282442748091603,-0.415283203125,0.036376953125,-0.322021484375,1.5062
1.816793893129771,1.3893129770992367,-1.3282442748091603,-0.413818359375,0.0341796875,-0.326904296875,1.5079
1.9236641221374047,1.618320610687023,-1.297709923664122,-0.416259765625,0.03125,-0.3193359375,1.5095999999999998
2.183206106870229,1.450381679389313,-1.297709923664122,-0.421875,0.0322265625,-0.32666015625,1.5112999999999999
1.8931297709923665,1.6030534351145038,-1.3129770992366412,-0.410400390625,0.037109375,-0.3203125,1.513
1.9541984732824427,1.6641221374045803,-1.2671755725190839,-0.4189453125,0.032958984375,-0.327392578125,1.5147
2.0763358778625953,1.4809160305343512,-1.3587786259541985,-0.419677734375,0.031982421875,-0.322265625,1.5164
1.984732824427481,1.4809160305343512,-1.3129770992366412,-0.4169921875,0.031494140625,-0.32421875,1.5181
1.816793893129771,1.4198473282442747,-1.2061068702290076,-0.41796875,0.030029296875,-0.3212890625,1.5197999999999998
2.030534351145038,1.450381679389313,-1.4045801526717556,-0.41552734375,0.02978515625,-0.325439453125,1.5214999999999999
1.8778625954198473,1.3740458015267176,-1.1603053435114503,-0.417236328125,0.033935546875,-0.31982421875,1.5231999999999999
1.9541984732824427,1.5114503816793894,-1.099236641221374,-0.418212890625,0.034423828125,-0.322265625,1.5249
2.0763358778625953,1.4045801526717556,-1.1908396946564885,-0.41943359375,0.031982421875,-0.313720703125,1.5266
2.0916030534351147,1.4045801526717556,-1.4351145038167938,-0.420654296875,0.03076171875,-0.3193359375,1.5283
1.9694656488549618,1.4045801526717556,-1.2061068702290076,-0.417724609375,0.033203125,-0.320068359375,1.5299999999999998
1.9694656488549618,1.4961832061068703,-1.3435114503816794,-0.412353515625,0.0302734375,-0.330322265625,1.5316999999999998
2.0610687022900764,1.3740458015267176,-1.251908396946565,-0.4130859375,0.0263671875,-0.329345703125,1.5333999999999999
1.9541984732824427,1.282442748091603,-1.4045801526717556,-0.414306640625,0.03271484375,-0.315185546875,1.5351
1.984732824427481,1.297709923664122,-1.282442748091603,-0.416015625,0.029541015625,-0.321533203125,1.5368
1.816793893129771,1.1755725190839694,-1.3587786259541985,-0.41650390625,0.03173828125,-0.31787109375,1.5385
1.9083969465648856,1.297709923664122,-1.3435114503816794,-0.4208984375,0.031982421875,-0.31494140625,1.5402
1.9083969465648856,1.3282442748091603,-1.3740458015267176,-0.414306640625,0.02880859375,-0.32177734375,1.5418999999999998
1.9236641221374047,1.450381679389313,-1.3129770992366412,-0.416015625,0.031005859375,-0.32421875,1.5435999999999999
1.9541984732824427,1.2213740458015268,-1.3129770992366412,-0.4169921875,0.02880859375,-0.32763671875,1.5453
1.9236641221374047,1.1603053435114503,-1.1908396946564885,-0.418701171875,0.032470703125,-0.324462890625,1.547
1.6793893129770991,1.251908396946565,-1.282442748091603,-0.411376953125,0.031982421875,-0.31982421875,1.5487
2.0,1.3282442748091603,-1.3129770992366412,-0.414794921875,0.031494140625,-0.320556640625,1.5504
1.8625954198473282,1.2061068702290076,-1.3282442748091603,-0.4208984375,0.03125,-0.322021484375,1.5520999999999998
1.7709923664122138,1.0534351145038168,-1.2061068702290076,-0.416748046875,0.025634765625,-0.31787109375,1.5537999999999998
1.7557251908396947,1.0229007633587786,-1.2061068702290076,-0.42041015625,0.028076171875,-0.320068359375,1.5554999999999999
1.5114503816793894,1.2061068702290076,-1.2061068702290076,-0.41357421875,0.03076171875,-0.323974609375,1.5572
1.7099236641221374,1.0687022900763359,-1.2671755725190839,-0.415283203125,0.032470703125,-0.32470703125,1.5589
1.786259541984733,1.1450381679389312,-1.1450381679389312,-0.41357421875,0.036865234375,-0.322021484375,1.5606
1.7099236641221374,0.9618320610687023,-1.3129770992366412,-0.4169921875,0.0263671875,-0.326171875,1.5623
1.6030534351145038,0.9770992366412213,-1.5267175572519085,-0.41748046875,0.03173828125,-0.320068359375,1.5639999999999998
1.5725190839694656,1.083969465648855,-1.5572519083969465,-0.41796875,0.027587890625,-0.330078125,1.5656999999999999
1.5877862595419847,1.1908396946564885,-1.1908396946564885,-0.41796875,0.023681640625,-0.33203125,1.5674
1.6030534351145038,1.099236641221374,-1.3282442748091603,-0.4189453125,0.03076171875,-0.322998046875,1.5691
1.5877862595419847,1.1755725190839694,-1.5419847328244274,-0.421142578125,0.02587890625,-0.329833984375,1.5708
1.618320610687023,1.1450381679389312,-1.450381679389313,-0.425537109375,0.029296875,-0.325439453125,1.5725
1.4809160305343512,1.1145038167938932,-1.4198473282442747,-0.42138671875,0.033935546875,-0.3310546875,1.5741999999999998
1.5877862595419847,1.0534351145038168,-1.4198473282442747,-0.420654296875,0.0283203125,-0.32861328125,1.5758999999999999
1.5572519083969465,1.1450381679389312,-1.450381679389313,-0.420654296875,0.029052734375,-0.32275390625,1.5776
1.5267175572519085,1.1755725190839694,-1.3893129770992367,-0.41845703125,0.03369140625,-0.321044921875,1.5793
1.4198473282442747,1.1145038167938932,-1.5419847328244274,-0.422119140625,0.03173828125,-0.32373046875,1.581
1.4809160305343512,1.297709923664122,-1.4961832061068703,-0.42236328125,0.0341796875,-0.326171875,1.5827
1.5725190839694656,1.2366412213740459,-1.4045801526717556,-0.42333984375,0.038330078125,-0.3232421875,1.5843999999999998
1.4198473282442747,0.9312977099236641,-1.3587786259541985,-0.414306640625,0.0380859375,-0.322509765625,1.5860999999999998
1.3435114503816794,1.1603053435114503,-1.450381679389313,-0.416015625,0.029296875,-0.324951171875,1.5877999999999999
1.3129770992366412,1.3129770992366412,-1.3129770992366412,-0.41552734375,0.02685546875,-0.321533203125,1.5895
1.4045801526717556,1.4351145038167938,-1.251908396946565,-0.416748046875,0.02978515625,-0.327392578125,1.5912
1.251908396946565,1.2671755725190839,-1.5419847328244274,-0.417236328125,0.031005859375,-0.3154296875,1.5929
1.4045801526717556,1.3282442748091603,-1.4961832061068703,-0.418212890625,0.03173828125,-0.323486328125,1.5946
1.297709923664122,1.282442748091603,-1.465648854961832,-0.421875,0.026611328125,-0.322998046875,1.5962999999999998
1.3282442748091603,1.2213740458015268,-1.3129770992366412,-0.416015625,0.033447265625,-0.3291015625,1.5979999999999999
1.3129770992366412,1.2213740458015268,-1.4809160305343512,-0.418212890625,0.032958984375,-0.32958984375,1.5997
1.099236641221374,1.3740458015267176,-1.633587786259542,-0.42333984375,0.034423828125,-0.324462890625,1.6014
1.1297709923664123,1.3282442748091603,-1.2366412213740459,-0.418701171875,0.029052734375,-0.3251953125,1.6031
1.1755725190839694,1.3129770992366412,-1.3740458015267176,-0.41748046875,0.02880859375,-0.320068359375,1.6048
1.1908396946564885,1.1908396946564885,-1.1145038167938932,-0.41455078125,0.028564453125,-0.32470703125,1.6064999999999998
0.9465648854961832,1.1450381679389312,-1.1297709923664123,-0.411376953125,0.04052734375,-0.3251953125,1.6081999999999999
0.9618320610687023,1.3129770992366412,-1.2061068702290076,-0.4169921875,0.03125,-0.336181640625,1.6098999999999999
1.282442748091603,1.3129770992366412,-1.3129770992366412,-0.41748046875,0.0302734375,-0.322021484375,1.6116
0.9312977099236641,1.1297709923664123,-1.083969465648855,-0.41845703125,0.031005859375,-0.314697265625,1.6133
0.8702290076335878,1.1145038167938932,-1.1908396946564885,-0.419189453125,0.028564453125,-0.32421875,1.615
0.8702290076335878,1.251908396946565,-0.9923664122137404,-0.421142578125,0.026123046875,-0.324462890625,1.6166999999999998
0.8702290076335878,1.1450381679389312,-1.1603053435114503,-0.420166015625,0.03369140625,-0.31884765625,1.6183999999999998
0.8854961832061069,1.251908396946565,-0.9923664122137404,-0.418701171875,0.036376953125,-0.3193359375,1.6200999999999999
0.8091603053435115,1.282442748091603,-1.0534351145038168,-0.414306640625,0.033447265625,-0.32275390625,1.6218
0.9618320610687023,1.1450381679389312,-1.0534351145038168,-0.416748046875,0.03271484375,-0.315673828125,1.6235
0.5954198473282443,1.282442748091603,-1.0076335877862594,-0.416748046875,0.036376953125,-0.319580078125,1.6252
0.8854961832061069,1.2061068702290076,-1.1450381679389312,-0.41845703125,0.035400390625,-0.324951171875,1.6269
0.7938931297709924,1.450381679389313,-1.2213740458015268,-0.420654296875,0.033447265625,-0.319091796875,1.6285999999999998
0.8549618320610687,1.4961832061068703,-1.1603053435114503,-0.421630859375,0.031982421875,-0.326171875,1.6302999999999999
0.9007633587786259,1.450381679389313,-1.2671755725190839,-0.421142578125,0.037353515625,-0.326171875,1.632
1.0229007633587786,1.4198473282442747,-1.2213740458015268,-0.422607421875,0.027099609375,-0.327392578125,1.6337
0.9312977099236641,1.2366412213740459,-1.4809160305343512,-0.420166015625,0.03662109375,-0.324951171875,1.6354
0.7938931297709924,1.3282442748091603,-1.5419847328244274,-0.414794921875,0.031005859375,-0.328125,1.6371
1.0687022900763359,1.1755725190839694,-1.5419847328244274,-0.414306640625,0.03125,-0.323486328125,1.6387999999999998
0.916030534351145,1.282442748091603,-1.7099236641221374,-0.420654296875,0.035888671875,-0.316650390625,1.6404999999999998
1.1450381679389312,1.1603053435114503,-1.7251908396946565,-0.4208984375,0.042236328125,-0.32275390625,1.6421999999999999
1.1145038167938932,1.0076335877862594,-1.7404580152671756,-0.4169921875,0.04150390625,-0.328125,1.6439
1.2061068702290076,1.0381679389312977,-1.83206106870229,-0.41650390625,0.0390625,-0.317626953125,1.6456
1.3587786259541985,1.0534351145038168,-2.198473282442748,-0.414794921875,0.039794921875,-0.32763671875,1.6473
1.465648854961832,0.9923664122137404,-2.122137404580153,-0.414794921875,0.040283203125,-0.32275390625,1.6489999999999998
1.5114503816793894,0.9465648854961832,-2.045801526717557,-0.41357421875,0.031005859375,-0.321533203125,1.6506999999999998
1.3740458015267176,0.8091603053435115,-2.2900763358778624,-0.424072265625,0.036376953125,-0.32080078125,1.6523999999999999
1.4045801526717556,0.8854961832061069,-2.213740458015267,-0.415771484375,0.034912109375,-0.322998046875,1.6541
1.633587786259542,0.9465648854961832,-2.366412213740458,-0.416748046875,0.036376953125,-0.3212890625,1.6558
1.4198473282442747,0.8244274809160306,-2.213740458015267,-0.417724609375,0.039306640625,-0.326171875,1.6575
1.6641221374045803,0.9923664122137404,-2.2748091603053435,-0.418212890625,0.0390625,-0.3232421875,1.6592
1.7557251908396947,0.9770992366412213,-2.122137404580153,-0.42041015625,0.03173828125,-0.316650390625,1.6608999999999998
1.633587786259542,1.0076335877862594,-2.381679389312977,-0.422607421875,0.038818359375,-0.318115234375,1.6625999999999999
1.7251908396946565,0.8091603053435115,-2.2290076335877864,-0.417236328125,0.0302734375,-0.329833984375,1.6643
1.8473282442748091,1.083969465648855,-2.3053435114503817,-0.41796875,0.032958984375,-0.322265625,1.666
1.8473282442748091,1.099236641221374,-2.2442748091603053,-0.4130859375,0.03662109375,-0.327880859375,1.6677
1.816793893129771,1.099236641221374,-2.1374045801526718,-0.4169921875,0.036376953125,-0.32177734375,1.6694
1.8625954198473282,1.099236641221374,-2.3206106870229006,-0.41748046875,0.037353515625,-0.322021484375,1.6710999999999998
1.8931297709923665,1.1603053435114503,-2.2442748091603053,-0.417724609375,0.033935546875,-0.315185546875,1.6727999999999998
1.9694656488549618,1.0229007633587786,-2.183206106870229,-0.420654296875,0.039306640625,-0.32275390625,1.6744999999999999
1.8931297709923665,1.0381679389312977,-2.381679389312977,-0.41845703125,0.0341796875,-0.314208984375,1.6762
1.9694656488549618,1.0076335877862594,-2.16793893129771,-0.418701171875,0.031982421875,-0.321044921875,1.6779
2.16793893129771,0.7175572519083969,-2.4580152671755724,-0.414794921875,0.03662109375,-0.323486328125,1.6796
2.0610687022900764,0.7480916030534351,-2.2748091603053435,-0.41455078125,0.03369140625,-0.322998046875,1.6813
1.9083969465648856,0.7786259541984732,-2.2900763358778624,-0.417724609375,0.034912109375,-0.311767578125,1.6829999999999998
2.030534351145038,0.7480916030534351,-2.2748091603053435,-0.41748046875,0.03466796875,-0.3134765625,1.6846999999999999
2.1374045801526718,0.8244274809160306,-2.33587786259542,-0.416015625,0.029296875,-0.3232421875,1.6864
2.1068702290076335,0.8244274809160306,-2.4122137404580153,-0.416259765625,0.035888671875,-0.3173828125,1.6881
2.16793893129771,0.5801526717557252,-2.3206106870229006,-0.4150390625,0.03515625,-0.314208984375,1.6898
1.984732824427481,0.6412213740458015,-2.366412213740458,-0.41552734375,0.033447265625,-0.3251953125,1.6915
2.2442748091603053,0.5038167938931297,-2.351145038167939,-0.41455078125,0.03466796875,-0.32177734375,1.6931999999999998
2.2442748091603053,0.7022900763358778,-2.198473282442748,-0.417236328125,0.039306640625,-0.3232421875,1.6948999999999999
1.9541984732824427,0.5343511450381679,-2.427480916030534,-0.41845703125,0.033203125,-0.32275390625,1.6965999999999999
2.0,0.549618320610687,-2.3053435114503817,-0.419921875,0.033203125,-0.318603515625,1.6983
2.213740458015267,0.5648854961832062,-2.33587786259542,-0.41650390625,0.03759765625,-0.319580078125,1.7
2.198473282442748,0.6717557251908397,-2.33587786259542,-0.41650390625,0.03564453125,-0.313232421875,1.7017
2.351145038167939,0.5648854961832062,-2.2595419847328246,-0.41748046875,0.03515625,-0.328125,1.7033999999999998
2.50381679389313,0.5343511450381679,-2.213740458015267,-0.41748046875,0.0322265625,-0.31103515625,1.7050999999999998
2.4427480916030535,0.4732824427480916,-2.2900763358778624,-0.41552734375,0.031494140625,-0.31005859375,1.7067999999999999
2.366412213740458,0.2748091603053435,-2.0610687022900764,-0.41796875,0.034423828125,-0.323486328125,1.7085
2.4427480916030535,0.12213740458015267,-2.2290076335877864,-0.418212890625,0.033935546875,-0.315673828125,1.7102
2.5343511450381677,0.2748091603053435,-2.2442748091603053,-0.416748046875,0.03515625,-0.33251953125,1.7119
2.7938931297709924,0.33587786259541985,-2.198473282442748,-0.4140625,0.03759765625,-0.320068359375,1.7136
2.763358778625954,0.15267175572519084,-1.984732824427481,-0.413818359375,0.036376953125,-0.319580078125,1.7152999999999998
2.687022900763359,0.15267175572519084,-2.2290076335877864,-0.416015625,0.03759765625,-0.318603515625,1.7169999999999999
2.8702290076335877,0.22900763358778625,-2.2748091603053435,-0.419189453125,0.0361328125,-0.324951171875,1.7187
2.7786259541984735,0.015267175572519083,-2.366412213740458,-0.414306640625,0.039794921875,-0.321044921875,1.7204
3.053435114503817,-0.10687022900763359,-2.16793893129771,-0.419189453125,0.041259765625,-0.3154296875,1.7221
3.145038167938931,0.15267175572519084,-2.33587786259542,-0.419677734375,0.03955078125,-0.32666015625,1.7238
3.0381679389312977,0.32061068702290074,-2.1526717557251906,-0.41796875,0.037353515625,-0.32177734375,1.7254999999999998
3.1297709923664123,0.22900763358778625,-2.351145038167939,-0.415771484375,0.03515625,-0.324462890625,1.7271999999999998
3.1603053435114505,0.21374045801526717,-2.198473282442748,-0.419921875,0.035888671875,-0.32421875,1.7288999999999999
3.0229007633587788,0.183206106870229,-2.3206106870229006,-0.418701171875,0.03173828125,-0.321044921875,1.7306
2.946564885496183,0.12213740458015267,-2.2748091603053435,-0.417724609375,0.033447265625,-0.31787109375,1.7323
3.236641221374046,0.061068702290076333,-2.4732824427480917,-0.416259765625,0.037353515625,-0.3173828125,1.734
3.1755725190839694,0.15267175572519084,-2.045801526717557,-0.4208984375,0.030517578125,-0.32958984375,1.7356999999999998
3.312977099236641,0.13740458015267176,-2.366412213740458,-0.4208984375,0.03564453125,-0.31982421875,1.7373999999999998
3.4198473282442747,0.366412213740458,-2.366412213740458,-0.420166015625,0.03076171875,-0.320556640625,1.7390999999999999
3.267175572519084,0.13740458015267176,-2.183206106870229,-0.419189453125,0.031982421875,-0.318603515625,1.7408
3.49618320610687,0.16793893129770993,-2.2748091603053435,-0.421142578125,0.033203125,-0.3193359375,1.7425
3.3893129770992365,0.3816793893129771,-2.4732824427480917,-0.41748046875,0.03173828125,-0.317138671875,1.7442
3.236641221374046,0.4732824427480916,-2.16793893129771,-0.41796875,0.03515625,-0.317138671875,1.7459
3.450381679389313,0.24427480916030533,-2.3053435114503817,-0.416259765625,0.031005859375,-0.3203125,1.7475999999999998
3.3893129770992365,0.366412213740458,-2.1526717557251906,-0.42041015625,0.03662109375,-0.318115234375,1.7492999999999999
3.480916030534351,0.3969465648854962,-2.2748091603053435,-0.42041015625,0.039794921875,-0.31982421875,1.751
3.267175572519084,0.15267175572519084,-2.198473282442748,-0.419921875,0.034912109375,-0.318603515625,1.7527
3.267175572519084,0.33587786259541985,-2.3969465648854964,-0.42138671875,0.03271484375,-0.322021484375,1.7544
3.450381679389313,0.3969465648854962,-2.1526717557251906,-0.42236328125,0.0302734375,-0.320556640625,1.7561
3.1603053435114505,0.4122137404580153,-2.4427480916030535,-0.41650390625,0.03955078125,-0.32421875,1.7577999999999998
3.312977099236641,0.42748091603053434,-2.2748091603053435,-0.421875,0.036376953125,-0.32421875,1.7594999999999998
3.480916030534351,0.549618320610687,-2.3053435114503817,-0.41748046875,0.03125,-0.31982421875,1.7611999999999999
3.2977099236641223,0.48854961832061067,-2.2748091603053435,-0.419921875,0.035888671875,-0.32080078125,1.7629
3.2977099236641223,0.5343511450381679,-2.427480916030534,-0.41796875,0.031005859375,-0.32373046875,1.7646
3.3740458015267176,0.4580152671755725,-2.3969465648854964,-0.416748046875,0.03466796875,-0.319091796875,1.7663
3.3740458015267176,0.6870229007633588,-2.549618320610687,-0.419677734375,0.035400390625,-0.315673828125,1.7679999999999998
3.312977099236641,0.732824427480916,-2.198473282442748,-0.4208984375,0.03515625,-0.32568359375,1.7696999999999998
3.282442748091603,0.5648854961832062,-2.717557251908397,-0.42236328125,0.03662109375,-0.315185546875,1.7713999999999999
3.282442748091603,0.7480916030534351,-2.381679389312977,-0.42236328125,0.0341796875,-0.322998046875,1.7731
3.3740458015267176,0.7480916030534351,-2.3969465648854964,-0.4150390625,0.03466796875,-0.319091796875,1.7748
3.2061068702290076,0.8091603053435115,-2.3969465648854964,-0.421142578125,0.041259765625,-0.3203125,1.7765
3.236641221374046,0.8702290076335878,-2.687022900763359,-0.419189453125,0.036865234375,-0.31201171875,1.7782
3.4198473282442747,0.6717557251908397,-2.687022900763359,-0.421630859375,0.03271484375,-0.3203125,1.7798999999999998
3.572519083969466,0.8091603053435115,-2.6106870229007635,-0.41845703125,0.03076171875,-0.315673828125,1.7815999999999999
3.1603053435114505,0.8854961832061069,-2.900763358778626,-0.418212890625,0.038818359375,-0.32421875,1.7832999999999999
3.450381679389313,1.0076335877862594,-2.931297709923664,-0.423828125,0.03759765625,-0.32470703125,1.785
3.435114503816794,1.0534351145038168,-2.7938931297709924,-0.41748046875,0.033203125,-0.320068359375,1.7867
3.3587786259541983,1.0687022900763359,-3.099236641221374,-0.422607421875,0.03369140625,-0.310791015625,1.7884
3.450381679389313,1.2671755725190839,-3.0229007633587788,-0.41748046875,0.0341796875,-0.3125,1.7900999999999998
3.404580152671756,1.083969465648855,-3.1908396946564888,-0.415283203125,0.034912109375,-0.32373046875,1.7917999999999998
3.648854961832061,1.2061068702290076,-3.114503816793893,-0.421630859375,0.038330078125,-0.325927734375,1.7934999999999999
3.4198473282442747,1.282442748091603,-3.3587786259541983,-0.420654296875,0.0361328125,-0.32275390625,1.7952
3.480916030534351,1.3129770992366412,-3.5572519083969465,-0.427978515625,0.0283203125,-0.323974609375,1.7969
3.6793893129770994,1.2061068702290076,-3.572519083969466,-0.41259765625,0.039794921875,-0.328369140625,1.7986
3.633587786259542,1.2366412213740459,-3.7404580152671754,-0.42041015625,0.037353515625,-0.3212890625,1.8002999999999998
3.83206106870229,1.282442748091603,-3.633587786259542,-0.41748046875,0.03857421875,-0.323486328125,1.8019999999999998
3.9083969465648853,1.297709923664122,-3.6030534351145036,-0.416748046875,0.033935546875,-0.315673828125,1.8036999999999999
3.83206106870229,1.3435114503816794,-3.8625954198473282,-0.42333984375,0.037109375,-0.323974609375,1.8054
3.969465648854962,1.1145038167938932,-3.648854961832061,-0.417724609375,0.042236328125,-0.324951171875,1.8071
