gyrox1,gyroy1,gyroz1,accelx1,accely1,accelz1,Time
1.3740458015267176,1.5114503816793894,-1.465648854961832,-0.44873046875,-0.025634765625,-0.255126953125,0.0
1.282442748091603,1.4045801526717556,-1.465648854961832,-0.44140625,-0.02685546875,-0.247314453125,0.0017
1.099236641221374,1.5267175572519085,-1.5419847328244274,-0.44287109375,-0.024658203125,-0.24853515625,0.0034
1.4351145038167938,1.5572519083969465,-1.465648854961832,-0.44482421875,-0.031494140625,-0.25,0.0050999999999999995
1.4198473282442747,1.618320610687023,-1.5725190839694656,-0.447021484375,-0.02685546875,-0.2470703125,0.0068
1.1908396946564885,1.450381679389313,-1.618320610687023,-0.44384765625,-0.02783203125,-0.245849609375,0.008499999999999999
1.282442748091603,1.465648854961832,-1.5267175572519085,-0.440185546875,-0.027587890625,-0.24462890625,0.010199999999999999
1.4351145038167938,1.5419847328244274,-1.5572519083969465,-0.443603515625,-0.028564453125,-0.249755859375,0.011899999999999999
1.465648854961832,1.5877862595419847,-1.4961832061068703,-0.44677734375,-0.024169921875,-0.255859375,0.0136
1.1450381679389312,1.5572519083969465,-1.6030534351145038,-0.4453125,-0.029541015625,-0.24951171875,0.0153
1.282442748091603,1.5114503816793894,-1.3893129770992367,-0.44580078125,-0.0302734375,-0.23779296875,0.016999999999999998
1.4045801526717556,1.4961832061068703,-1.3893129770992367,-0.4482421875,-0.023193359375,-0.243896484375,0.018699999999999998
1.4045801526717556,1.6030534351145038,-1.5877862595419847,-0.450927734375,-0.0244140625,-0.248291015625,0.020399999999999998
1.3893129770992367,1.5572519083969465,-1.3740458015267176,-0.447998046875,-0.02978515625,-0.248291015625,0.022099999999999998
1.4351145038167938,1.5114503816793894,-1.5267175572519085,-0.444580078125,-0.02587890625,-0.247802734375,0.023799999999999998
1.3282442748091603,1.5725190839694656,-1.5725190839694656,-0.449951171875,-0.029052734375,-0.249267578125,0.0255
1.3129770992366412,1.5267175572519085,-1.4809160305343512,-0.44921875,-0.0283203125,-0.253173828125,0.0272
1.2213740458015268,1.633587786259542,-1.3282442748091603,-0.443603515625,-0.026611328125,-0.25048828125,0.0289
1.2366412213740459,1.4809160305343512,-1.3740458015267176,-0.447509765625,-0.0283203125,-0.253662109375,0.0306
1.3893129770992367,1.618320610687023,-1.4809160305343512,-0.447265625,-0.027587890625,-0.24853515625,0.032299999999999995
1.4351145038167938,1.5267175572519085,-1.4961832061068703,-0.44384765625,-0.025390625,-0.251953125,0.033999999999999996
1.3740458015267176,1.5114503816793894,-1.2366412213740459,-0.44384765625,-0.026123046875,-0.24072265625,0.035699999999999996
1.5267175572519085,1.4809160305343512,-1.3893129770992367,-0.44580078125,-0.025390625,-0.243896484375,0.037399999999999996
1.5114503816793894,1.3435114503816794,-1.465648854961832,-0.44677734375,-0.0283203125,-0.253662109375,0.039099999999999996
1.5877862595419847,1.5114503816793894,-1.3893129770992367,-0.44482421875,-0.02490234375,-0.2490234375,0.040799999999999996
1.465648854961832,1.5572519083969465,-1.297709923664122,-0.4423828125,-0.02734375,-0.24560546875,0.042499999999999996
1.6641221374045803,1.3893129770992367,-1.450381679389313,-0.44482421875,-0.025390625,-0.246826171875,0.044199999999999996
1.4351145038167938,1.6488549618320612,-1.2671755725190839,-0.443359375,-0.027587890625,-0.2509765625,0.045899999999999996
1.4961832061068703,1.4809160305343512,-1.3740458015267176,-0.445556640625,-0.02734375,-0.2421875,0.047599999999999996
1.7404580152671756,1.4198473282442747,-1.2671755725190839,-0.4501953125,-0.025390625,-0.244873046875,0.0493
1.5572519083969465,1.4809160305343512,-1.251908396946565,-0.443603515625,-0.02294921875,-0.240478515625,0.051
1.5114503816793894,1.5877862595419847,-1.282442748091603,-0.445556640625,-0.0234375,-0.24169921875,0.0527
1.816793893129771,1.282442748091603,-1.2671755725190839,-0.443115234375,-0.027587890625,-0.2451171875,0.0544
1.786259541984733,1.3587786259541985,-1.2061068702290076,-0.44921875,-0.027587890625,-0.251220703125,0.0561
1.3435114503816794,1.4351145038167938,-1.251908396946565,-0.444091796875,-0.02294921875,-0.244873046875,0.0578
1.5267175572519085,1.450381679389313,-1.4351145038167938,-0.44091796875,-0.022216796875,-0.248779296875,0.0595
1.7709923664122138,1.6030534351145038,-1.3587786259541985,-0.443603515625,-0.026123046875,-0.24853515625,0.0612
1.4198473282442747,1.5419847328244274,-1.1603053435114503,-0.440185546875,-0.030517578125,-0.24072265625,0.0629
1.7557251908396947,1.4809160305343512,-1.3282442748091603,-0.445068359375,-0.020751953125,-0.252197265625,0.06459999999999999
1.6946564885496183,1.450381679389313,-1.2671755725190839,-0.449462890625,-0.0244140625,-0.255126953125,0.0663
1.5419847328244274,1.7404580152671756,-1.099236641221374,-0.445556640625,-0.026123046875,-0.25439453125,0.06799999999999999
1.5267175572519085,1.5572519083969465,-1.0381679389312977,-0.4443359375,-0.0302734375,-0.249267578125,0.0697
1.465648854961832,1.5572519083969465,-1.2061068702290076,-0.443359375,-0.024658203125,-0.25439453125,0.07139999999999999
1.4961832061068703,1.3282442748091603,-1.2213740458015268,-0.446044921875,-0.028564453125,-0.251953125,0.0731
1.4961832061068703,1.3740458015267176,-1.1755725190839694,-0.444580078125,-0.0322265625,-0.2529296875,0.07479999999999999
1.4961832061068703,1.4809160305343512,-1.282442748091603,-0.4443359375,-0.0283203125,-0.2578125,0.0765
1.6488549618320612,1.5267175572519085,-1.1755725190839694,-0.44580078125,-0.02978515625,-0.242919921875,0.07819999999999999
1.5877862595419847,1.4809160305343512,-1.297709923664122,-0.44580078125,-0.0302734375,-0.2451171875,0.0799
1.4809160305343512,1.618320610687023,-1.282442748091603,-0.44482421875,-0.027099609375,-0.24853515625,0.08159999999999999
1.7099236641221374,1.5419847328244274,-1.3893129770992367,-0.441650390625,-0.025634765625,-0.23681640625,0.0833
1.7099236641221374,1.3740458015267176,-1.2366412213740459,-0.443603515625,-0.0302734375,-0.247802734375,0.08499999999999999
1.618320610687023,1.6030534351145038,-1.1297709923664123,-0.448974609375,-0.0302734375,-0.255126953125,0.0867
1.6641221374045803,1.5267175572519085,-1.3129770992366412,-0.443359375,-0.024169921875,-0.2451171875,0.08839999999999999
1.6793893129770991,1.4045801526717556,-1.2366412213740459,-0.4462890625,-0.030517578125,-0.25146484375,0.0901
1.6030534351145038,1.6030534351145038,-1.2366412213740459,-0.44287109375,-0.024169921875,-0.250244140625,0.09179999999999999
1.7099236641221374,1.450381679389313,-1.1908396946564885,-0.442138671875,-0.021240234375,-0.25439453125,0.0935
1.6030534351145038,1.5572519083969465,-1.3435114503816794,-0.443359375,-0.02734375,-0.2548828125,0.09519999999999999
1.6488549618320612,1.4809160305343512,-1.3893129770992367,-0.4462890625,-0.03173828125,-0.251708984375,0.0969
1.5114503816793894,1.3435114503816794,-1.3282442748091603,-0.4453125,-0.03369140625,-0.2529296875,0.0986
1.6488549618320612,1.2671755725190839,-1.450381679389313,-0.4453125,-0.02734375,-0.24462890625,0.1003
1.5572519083969465,1.297709923664122,-1.4045801526717556,-0.440185546875,-0.02587890625,-0.260009765625,0.102
1.4198473282442747,1.282442748091603,-1.2671755725190839,-0.4453125,-0.029541015625,-0.24462890625,0.1037
1.5419847328244274,1.2366412213740459,-1.282442748091603,-0.44287109375,-0.024658203125,-0.244384765625,0.1054
1.5267175572519085,1.4045801526717556,-1.4809160305343512,-0.4462890625,-0.03125,-0.248046875,0.1071
1.4198473282442747,1.4351145038167938,-1.3129770992366412,-0.44189453125,-0.028564453125,-0.249755859375,0.1088
1.5572519083969465,1.3893129770992367,-1.5114503816793894,-0.442138671875,-0.03076171875,-0.247314453125,0.11049999999999999
1.5877862595419847,1.282442748091603,-1.5877862595419847,-0.43994140625,-0.031982421875,-0.258544921875,0.1122
1.4809160305343512,1.450381679389313,-1.4045801526717556,-0.441162109375,-0.021240234375,-0.245361328125,0.11389999999999999
1.5877862595419847,1.450381679389313,-1.1297709923664123,-0.4404296875,-0.0244140625,-0.248046875,0.1156
1.5267175572519085,1.5267175572519085,-1.282442748091603,-0.44189453125,-0.030029296875,-0.25146484375,0.11729999999999999
1.3282442748091603,1.2061068702290076,-1.2671755725190839,-0.443603515625,-0.032958984375,-0.248291015625,0.119
1.4045801526717556,1.297709923664122,-1.3435114503816794,-0.447265625,-0.0302734375,-0.254638671875,0.12069999999999999
1.3740458015267176,1.3893129770992367,-1.3587786259541985,-0.43994140625,-0.0234375,-0.24658203125,0.1224
1.5267175572519085,1.1908396946564885,-1.3740458015267176,-0.446044921875,-0.02783203125,-0.24658203125,0.12409999999999999
1.2671755725190839,1.1603053435114503,-1.1755725190839694,-0.44287109375,-0.023681640625,-0.25048828125,0.1258
1.297709923664122,1.251908396946565,-1.297709923664122,-0.443603515625,-0.026611328125,-0.245849609375,0.1275
1.297709923664122,1.3129770992366412,-1.1755725190839694,-0.446044921875,-0.0263671875,-0.254638671875,0.12919999999999998
1.2061068702290076,1.1145038167938932,-1.282442748091603,-0.4462890625,-0.029052734375,-0.240478515625,0.1309
1.1908396946564885,1.1450381679389312,-0.9770992366412213,-0.44140625,-0.029296875,-0.24169921875,0.1326
1.0687022900763359,1.1145038167938932,-1.0229007633587786,-0.44091796875,-0.026611328125,-0.243896484375,0.1343
1.297709923664122,1.1603053435114503,-1.1297709923664123,-0.443359375,-0.030029296875,-0.255859375,0.13599999999999998
1.3282442748091603,1.0534351145038168,-0.9923664122137404,-0.444091796875,-0.027099609375,-0.25537109375,0.1377
1.251908396946565,1.0229007633587786,-1.1603053435114503,-0.445556640625,-0.028564453125,-0.246826171875,0.1394
1.251908396946565,1.0381679389312977,-1.0687022900763359,-0.447998046875,-0.029052734375,-0.2421875,0.1411
1.3587786259541985,0.9618320610687023,-1.2366412213740459,-0.445556640625,-0.0244140625,-0.241455078125,0.14279999999999998
1.2061068702290076,0.8702290076335878,-1.3282442748091603,-0.44287109375,-0.0263671875,-0.24755859375,0.1445
1.3435114503816794,1.0229007633587786,-0.8396946564885496,-0.4482421875,-0.02880859375,-0.2470703125,0.1462
1.5572519083969465,1.1145038167938932,-1.1908396946564885,-0.443603515625,-0.025390625,-0.247802734375,0.1479
1.4045801526717556,1.1603053435114503,-0.9465648854961832,-0.443115234375,-0.029541015625,-0.25244140625,0.14959999999999998
1.0534351145038168,1.2671755725190839,-1.083969465648855,-0.447509765625,-0.02880859375,-0.251953125,0.1513
1.3435114503816794,1.297709923664122,-1.1145038167938932,-0.450439453125,-0.025390625,-0.253173828125,0.153
1.5267175572519085,1.2061068702290076,-1.1908396946564885,-0.449462890625,-0.020751953125,-0.250732421875,0.1547
1.465648854961832,1.251908396946565,-1.0229007633587786,-0.451416015625,-0.0302734375,-0.247314453125,0.15639999999999998
1.3740458015267176,1.1908396946564885,-1.2213740458015268,-0.455078125,-0.024658203125,-0.2548828125,0.1581
1.3129770992366412,1.4351145038167938,-1.3282442748091603,-0.449462890625,-0.018798828125,-0.2470703125,0.1598
1.3893129770992367,1.5877862595419847,-1.251908396946565,-0.447998046875,-0.024169921875,-0.25146484375,0.1615
1.6641221374045803,1.4809160305343512,-0.9770992366412213,-0.451171875,-0.0234375,-0.246826171875,0.16319999999999998
1.450381679389313,1.6030534351145038,-1.3435114503816794,-0.44775390625,-0.029052734375,-0.248046875,0.1649
1.633587786259542,1.6030534351145038,-1.3129770992366412,-0.44384765625,-0.02587890625,-0.247314453125,0.1666
1.7404580152671756,1.7557251908396947,-1.4045801526717556,-0.44775390625,-0.02392578125,-0.258056640625,0.16829999999999998
1.5877862595419847,1.7404580152671756,-1.3129770992366412,-0.44775390625,-0.024658203125,-0.25341796875,0.16999999999999998
1.7099236641221374,1.7709923664122138,-1.5725190839694656,-0.444091796875,-0.026611328125,-0.250732421875,0.1717
1.7099236641221374,1.786259541984733,-1.4809160305343512,-0.447021484375,-0.022216796875,-0.252685546875,0.1734
1.786259541984733,1.7709923664122138,-1.633587786259542,-0.443603515625,-0.02392578125,-0.25732421875,0.17509999999999998
1.8625954198473282,1.6793893129770991,-1.3282442748091603,-0.443603515625,-0.0224609375,-0.249755859375,0.17679999999999998
1.786259541984733,1.5114503816793894,-1.633587786259542,-0.44091796875,-0.0224609375,-0.2509765625,0.1785
1.8778625954198473,1.450381679389313,-1.618320610687023,-0.441650390625,-0.02978515625,-0.23828125,0.1802
1.9236641221374047,1.618320610687023,-1.7099236641221374,-0.43798828125,-0.024169921875,-0.255126953125,0.18189999999999998
1.9083969465648856,1.5114503816793894,-1.8015267175572518,-0.435791015625,-0.028076171875,-0.25,0.18359999999999999
2.0610687022900764,1.297709923664122,-1.7709923664122138,-0.441650390625,-0.02587890625,-0.246826171875,0.1853
2.1374045801526718,1.297709923664122,-1.9389312977099236,-0.440673828125,-0.026611328125,-0.246337890625,0.187
2.0916030534351147,1.3893129770992367,-1.8931297709923665,-0.4384765625,-0.02880859375,-0.249267578125,0.18869999999999998
2.0763358778625953,1.1908396946564885,-1.8473282442748091,-0.441650390625,-0.02490234375,-0.246826171875,0.19039999999999999
2.1068702290076335,1.3282442748091603,-1.6488549618320612,-0.443603515625,-0.0283203125,-0.254638671875,0.1921
2.0,1.251908396946565,-1.6641221374045803,-0.447265625,-0.030029296875,-0.251220703125,0.1938
2.030534351145038,0.9923664122137404,-1.8473282442748091,-0.4423828125,-0.031005859375,-0.249755859375,0.19549999999999998
2.183206106870229,0.9923664122137404,-1.7099236641221374,-0.444091796875,-0.022216796875,-0.251220703125,0.1972
2.0610687022900764,0.9770992366412213,-1.7709923664122138,-0.445068359375,-0.024658203125,-0.25390625,0.1989
2.198473282442748,0.9770992366412213,-1.5877862595419847,-0.4404296875,-0.031494140625,-0.2578125,0.2006
2.1526717557251906,0.9312977099236641,-1.7099236641221374,-0.44482421875,-0.025390625,-0.2568359375,0.20229999999999998
2.045801526717557,0.6870229007633588,-1.5877862595419847,-0.448486328125,-0.029541015625,-0.248046875,0.204
2.030534351145038,0.7480916030534351,-1.5877862595419847,-0.444091796875,-0.031982421875,-0.250244140625,0.2057
2.1526717557251906,0.6564885496183206,-1.5877862595419847,-0.44384765625,-0.029541015625,-0.242919921875,0.2074
2.045801526717557,0.7175572519083969,-1.786259541984733,-0.447021484375,-0.02783203125,-0.258056640625,0.20909999999999998
1.8625954198473282,0.7480916030534351,-1.5267175572519085,-0.44921875,-0.028564453125,-0.2568359375,0.2108
2.0,0.7633587786259542,-1.5267175572519085,-0.44482421875,-0.029296875,-0.2548828125,0.2125
1.9694656488549618,0.6412213740458015,-1.5419847328244274,-0.4453125,-0.0283203125,-0.251708984375,0.2142
1.7709923664122138,0.6870229007633588,-1.465648854961832,-0.44775390625,-0.030029296875,-0.24853515625,0.21589999999999998
2.16793893129771,0.732824427480916,-1.4045801526717556,-0.442626953125,-0.02734375,-0.249755859375,0.2176
1.9541984732824427,0.5801526717557252,-1.5419847328244274,-0.44677734375,-0.027587890625,-0.2548828125,0.2193
1.9083969465648856,0.5343511450381679,-1.4351145038167938,-0.447509765625,-0.024658203125,-0.25341796875,0.22099999999999997
2.030534351145038,0.48854961832061067,-1.4198473282442747,-0.447021484375,-0.0263671875,-0.255859375,0.22269999999999998
1.8931297709923665,0.7022900763358778,-1.4961832061068703,-0.445068359375,-0.023193359375,-0.25634765625,0.2244
1.8625954198473282,0.4732824427480916,-1.3129770992366412,-0.44775390625,-0.026611328125,-0.2509765625,0.2261
1.9083969465648856,0.48854961832061067,-1.4198473282442747,-0.447265625,-0.025390625,-0.25439453125,0.22779999999999997
2.0916030534351147,0.4580152671755725,-1.450381679389313,-0.444580078125,-0.027587890625,-0.242919921875,0.22949999999999998
1.9541984732824427,0.44274809160305345,-1.3893129770992367,-0.447021484375,-0.02734375,-0.24853515625,0.2312
1.7404580152671756,0.4732824427480916,-1.618320610687023,-0.4501953125,-0.03125,-0.24560546875,0.2329
1.9694656488549618,0.33587786259541985,-1.3893129770992367,-0.44677734375,-0.023193359375,-0.24755859375,0.23459999999999998
1.984732824427481,0.4122137404580153,-1.3740458015267176,-0.4453125,-0.03125,-0.25439453125,0.23629999999999998
1.9389312977099236,0.5038167938931297,-1.3740458015267176,-0.445068359375,-0.031494140625,-0.25390625,0.238
1.9083969465648856,0.6106870229007634,-1.5419847328244274,-0.442626953125,-0.02978515625,-0.247314453125,0.2397
1.7709923664122138,0.3511450381679389,-1.3282442748091603,-0.440185546875,-0.026123046875,-0.242431640625,0.24139999999999998
1.9389312977099236,0.3969465648854962,-1.5725190839694656,-0.44580078125,-0.026123046875,-0.24755859375,0.24309999999999998
2.0,0.7938931297709924,-1.3587786259541985,-0.443603515625,-0.029541015625,-0.244873046875,0.2448
1.984732824427481,0.3969465648854962,-1.450381679389313,-0.439453125,-0.02734375,-0.250244140625,0.2465
1.8778625954198473,0.3969465648854962,-1.4961832061068703,-0.445556640625,-0.027099609375,-0.250244140625,0.24819999999999998
1.7404580152671756,0.5038167938931297,-1.5114503816793894,-0.4462890625,-0.02783203125,-0.246337890625,0.24989999999999998
1.9236641221374047,0.5954198473282443,-1.4961832061068703,-0.444091796875,-0.025146484375,-0.248291015625,0.2516
1.786259541984733,0.549618320610687,-1.5572519083969465,-0.44140625,-0.028076171875,-0.254150390625,0.25329999999999997
1.5419847328244274,0.6717557251908397,-1.450381679389313,-0.445068359375,-0.0322265625,-0.254150390625,0.255
1.7099236641221374,0.5190839694656488,-1.786259541984733,-0.4453125,-0.03173828125,-0.248046875,0.2567
1.9236641221374047,0.5954198473282443,-1.4809160305343512,-0.44287109375,-0.0283203125,-0.24609375,0.25839999999999996
1.6793893129770991,0.5648854961832062,-1.5114503816793894,-0.44677734375,-0.030517578125,-0.2451171875,0.2601
1.7557251908396947,0.6106870229007634,-1.3435114503816794,-0.449951171875,-0.03173828125,-0.248779296875,0.2618
1.7251908396946565,0.7633587786259542,-1.4961832061068703,-0.44873046875,-0.026611328125,-0.254638671875,0.2635
1.6946564885496183,0.6106870229007634,-1.4045801526717556,-0.44677734375,-0.0302734375,-0.249267578125,0.2652
1.5877862595419847,0.7480916030534351,-1.4961832061068703,-0.4423828125,-0.028564453125,-0.25439453125,0.26689999999999997
1.5419847328244274,0.7786259541984732,-1.4351145038167938,-0.447998046875,-0.026123046875,-0.25048828125,0.2686
1.4961832061068703,0.5954198473282443,-1.4045801526717556,-0.44482421875,-0.032958984375,-0.24951171875,0.2703
1.465648854961832,0.6870229007633588,-1.5267175572519085,-0.443603515625,-0.02978515625,-0.244873046875,0.27199999999999996
1.465648854961832,0.8549618320610687,-1.6641221374045803,-0.44580078125,-0.033935546875,-0.246826171875,0.2737
1.5572519083969465,0.8854961832061069,-1.4351145038167938,-0.44775390625,-0.029541015625,-0.25244140625,0.2754
1.4351145038167938,0.7786259541984732,-1.6641221374045803,-0.44140625,-0.02197265625,-0.253662109375,0.27709999999999996
1.4045801526717556,0.8244274809160306,-1.4809160305343512,-0.447021484375,-0.03076171875,-0.243896484375,0.2788
1.3740458015267176,0.9618320610687023,-1.5114503816793894,-0.447509765625,-0.0322265625,-0.24853515625,0.28049999999999997
1.3129770992366412,0.916030534351145,-1.4809160305343512,-0.446044921875,-0.029296875,-0.25244140625,0.2822
1.4045801526717556,0.7175572519083969,-1.6030534351145038,-0.446044921875,-0.03076171875,-0.254150390625,0.2839
1.2061068702290076,0.7480916030534351,-1.3435114503816794,-0.448486328125,-0.030517578125,-0.245361328125,0.28559999999999997
1.251908396946565,0.916030534351145,-1.4809160305343512,-0.44384765625,-0.02783203125,-0.248291015625,0.2873
1.4198473282442747,0.9923664122137404,-1.5725190839694656,-0.44580078125,-0.031005859375,-0.244140625,0.289
1.2213740458015268,0.8396946564885496,-1.5267175572519085,-0.44775390625,-0.026611328125,-0.243896484375,0.29069999999999996
1.0687022900763359,0.9007633587786259,-1.3282442748091603,-0.44677734375,-0.02490234375,-0.23828125,0.2924
1.3282442748091603,0.916030534351145,-1.6030534351145038,-0.442626953125,-0.024169921875,-0.241943359375,0.2941
1.4045801526717556,1.1297709923664123,-1.4809160305343512,-0.451171875,-0.029296875,-0.25244140625,0.2958
1.0381679389312977,0.9007633587786259,-1.5572519083969465,-0.450927734375,-0.02734375,-0.245849609375,0.2975
1.1450381679389312,0.7633587786259542,-1.4045801526717556,-0.445556640625,-0.02734375,-0.2626953125,0.29919999999999997
1.4809160305343512,0.8396946564885496,-1.5267175572519085,-0.44482421875,-0.0302734375,-0.2470703125,0.3009
1.0687022900763359,0.732824427480916,-1.5419847328244274,-0.44921875,-0.030029296875,-0.247314453125,0.3026
1.099236641221374,0.7175572519083969,-1.4961832061068703,-0.447998046875,-0.028076171875,-0.253662109375,0.30429999999999996
1.0534351145038168,0.9312977099236641,-1.4198473282442747,-0.45068359375,-0.0224609375,-0.247802734375,0.306
1.1145038167938932,0.9007633587786259,-1.5572519083969465,-0.447998046875,-0.02734375,-0.24609375,0.3077
1.1297709923664123,0.8702290076335878,-1.4961832061068703,-0.442626953125,-0.0283203125,-0.2451171875,0.3094
0.9923664122137404,0.9770992366412213,-1.465648854961832,-0.447998046875,-0.025146484375,-0.256591796875,0.3111
1.0229007633587786,0.916030534351145,-1.4045801526717556,-0.445068359375,-0.02099609375,-0.2509765625,0.31279999999999997
1.1145038167938932,1.0229007633587786,-1.6030534351145038,-0.447509765625,-0.02734375,-0.251953125,0.3145
0.9465648854961832,0.9007633587786259,-1.251908396946565,-0.4501953125,-0.024658203125,-0.249267578125,0.3162
0.916030534351145,0.916030534351145,-1.5114503816793894,-0.445556640625,-0.029052734375,-0.248779296875,0.31789999999999996
0.9007633587786259,0.916030534351145,-1.251908396946565,-0.454345703125,-0.0322265625,-0.2490234375,0.3196
1.1908396946564885,0.9923664122137404,-1.3740458015267176,-0.4453125,-0.029052734375,-0.24658203125,0.3213
0.8396946564885496,0.9618320610687023,-1.4198473282442747,-0.443359375,-0.027587890625,-0.2509765625,0.323
0.9923664122137404,1.0687022900763359,-1.5114503816793894,-0.447998046875,-0.0234375,-0.25146484375,0.3247
0.8091603053435115,0.8396946564885496,-1.4045801526717556,-0.446044921875,-0.022705078125,-0.248779296875,0.32639999999999997
1.0076335877862594,0.9312977099236641,-1.4809160305343512,-0.44921875,-0.029541015625,-0.256591796875,0.3281
1.0687022900763359,1.0687022900763359,-1.251908396946565,-0.44677734375,-0.029296875,-0.2529296875,0.3298
0.9312977099236641,0.9465648854961832,-1.2061068702290076,-0.4482421875,-0.02978515625,-0.248291015625,0.33149999999999996
1.099236641221374,0.9770992366412213,-1.3435114503816794,-0.4462890625,-0.02880859375,-0.240234375,0.3332
0.9465648854961832,0.9923664122137404,-1.4961832061068703,-0.442138671875,-0.025146484375,-0.2451171875,0.3349
0.8854961832061069,1.0381679389312977,-1.3740458015267176,-0.449951171875,-0.02392578125,-0.247314453125,0.33659999999999995
0.732824427480916,1.0381679389312977,-1.2213740458015268,-0.445556640625,-0.028076171875,-0.24755859375,0.3383
1.1145038167938932,1.0381679389312977,-1.3740458015267176,-0.44775390625,-0.0263671875,-0.241455078125,0.33999999999999997
1.0076335877862594,0.8702290076335878,-1.2366412213740459,-0.451904296875,-0.031982421875,-0.236328125,0.3417
0.9312977099236641,0.8244274809160306,-1.2213740458015268,-0.442138671875,-0.02978515625,-0.249267578125,0.3434
0.9312977099236641,0.8091603053435115,-1.083969465648855,-0.44775390625,-0.02490234375,-0.24609375,0.34509999999999996
1.251908396946565,0.7786259541984732,-1.251908396946565,-0.449951171875,-0.029541015625,-0.2470703125,0.3468
1.1145038167938932,0.9312977099236641,-1.297709923664122,-0.4501953125,-0.025634765625,-0.251953125,0.3485
1.2366412213740459,0.9923664122137404,-1.2366412213740459,-0.44580078125,-0.029052734375,-0.24560546875,0.35019999999999996
0.9923664122137404,0.7786259541984732,-1.3435114503816794,-0.443603515625,-0.0244140625,-0.253173828125,0.3519
1.0076335877862594,0.8702290076335878,-1.3740458015267176,-0.446044921875,-0.0341796875,-0.242919921875,0.35359999999999997
1.2671755725190839,0.9312977099236641,-1.3129770992366412,-0.4462890625,-0.026123046875,-0.251708984375,0.3553
1.1755725190839694,0.8549618320610687,-1.2671755725190839,-0.44775390625,-0.025634765625,-0.2509765625,0.357
1.2671755725190839,0.7022900763358778,-1.4198473282442747,-0.4482421875,-0.02490234375,-0.240478515625,0.35869999999999996
1.2671755725190839,0.7633587786259542,-1.282442748091603,-0.449462890625,-0.027587890625,-0.251708984375,0.3604
1.3893129770992367,0.8854961832061069,-1.282442748091603,-0.44677734375,-0.027099609375,-0.24609375,0.3621
1.3435114503816794,1.0687022900763359,-1.297709923664122,-0.445068359375,-0.031005859375,-0.250732421875,0.36379999999999996
1.3893129770992367,0.916030534351145,-1.1145038167938932,-0.441650390625,-0.026123046875,-0.243896484375,0.3655
1.3893129770992367,0.8702290076335878,-1.1603053435114503,-0.447021484375,-0.028564453125,-0.24169921875,0.36719999999999997
1.450381679389313,1.0687022900763359,-1.1755725190839694,-0.437744140625,-0.026123046875,-0.25,0.3689
1.2366412213740459,0.8091603053435115,-1.3282442748091603,-0.441650390625,-0.02880859375,-0.249267578125,0.3706
1.2213740458015268,0.7480916030534351,-1.251908396946565,-0.44140625,-0.032958984375,-0.25,0.37229999999999996
1.3435114503816794,0.732824427480916,-1.3740458015267176,-0.441162109375,-0.025634765625,-0.251708984375,0.374
1.4198473282442747,0.5801526717557252,-0.916030534351145,-0.445068359375,-0.03076171875,-0.24609375,0.3757
1.465648854961832,0.6106870229007634,-1.251908396946565,-0.44287109375,-0.030517578125,-0.244384765625,0.37739999999999996
1.297709923664122,0.5190839694656488,-1.0229007633587786,-0.448486328125,-0.02685546875,-0.24560546875,0.3791
1.2366412213740459,0.4732824427480916,-0.9465648854961832,-0.44921875,-0.02587890625,-0.25390625,0.38079999999999997
1.450381679389313,0.48854961832061067,-0.9465648854961832,-0.446044921875,-0.02587890625,-0.2548828125,0.38249999999999995
1.3587786259541985,0.549618320610687,-0.8854961832061069,-0.449951171875,-0.02783203125,-0.255126953125,0.3842
1.2671755725190839,0.8091603053435115,-0.8702290076335878,-0.445068359375,-0.025390625,-0.247314453125,0.38589999999999997
1.282442748091603,0.7633587786259542,-1.0229007633587786,-0.447509765625,-0.03173828125,-0.249267578125,0.3876
1.4198473282442747,0.7633587786259542,-0.9007633587786259,-0.449951171875,-0.02685546875,-0.251708984375,0.3893
1.3435114503816794,0.7786259541984732,-0.7633587786259542,-0.447509765625,-0.02685546875,-0.252685546875,0.39099999999999996
1.4198473282442747,0.9007633587786259,-0.5954198473282443,-0.44970703125,-0.02685546875,-0.24658203125,0.3927
1.6488549618320612,1.1603053435114503,-0.7633587786259542,-0.4560546875,-0.027099609375,-0.241943359375,0.3944
1.3129770992366412,1.2061068702290076,-0.7633587786259542,-0.450439453125,-0.025634765625,-0.244384765625,0.39609999999999995
1.1297709923664123,1.1755725190839694,-0.8396946564885496,-0.454833984375,-0.02783203125,-0.247314453125,0.3978
1.3435114503816794,1.4351145038167938,-0.6870229007633588,-0.45556640625,-0.025634765625,-0.24951171875,0.39949999999999997
1.2213740458015268,1.450381679389313,-0.7786259541984732,-0.451416015625,-0.0263671875,-0.249267578125,0.4012
1.1603053435114503,1.4045801526717556,-0.7022900763358778,-0.45068359375,-0.0341796875,-0.259033203125,0.4029
1.0229007633587786,1.4351145038167938,-0.9007633587786259,-0.447265625,-0.0283203125,-0.249755859375,0.40459999999999996
1.1755725190839694,1.6793893129770991,-0.8854961832061069,-0.44970703125,-0.02490234375,-0.245849609375,0.4063
1.3587786259541985,1.5877862595419847,-0.9312977099236641,-0.44921875,-0.02685546875,-0.24755859375,0.408
1.1908396946564885,1.8015267175572518,-0.7480916030534351,-0.447021484375,-0.025390625,-0.25244140625,0.40969999999999995
1.3435114503816794,1.7251908396946565,-0.8091603053435115,-0.4462890625,-0.0283203125,-0.251220703125,0.4114
1.2366412213740459,1.8473282442748091,-0.8854961832061069,-0.446044921875,-0.017578125,-0.252197265625,0.41309999999999997
1.297709923664122,1.8015267175572518,-1.099236641221374,-0.44482421875,-0.02587890625,-0.248291015625,0.4148
1.3129770992366412,1.786259541984733,-1.0076335877862594,-0.44921875,-0.026611328125,-0.25732421875,0.4165
1.251908396946565,1.816793893129771,-1.2213740458015268,-0.449951171875,-0.020263671875,-0.25,0.41819999999999996
1.4809160305343512,1.7099236641221374,-0.9618320610687023,-0.446533203125,-0.0244140625,-0.24755859375,0.4199
1.2213740458015268,1.7099236641221374,-1.1145038167938932,-0.4482421875,-0.02734375,-0.251953125,0.4216
1.2061068702290076,1.786259541984733,-1.2213740458015268,-0.444580078125,-0.027099609375,-0.244140625,0.42329999999999995
1.3893129770992367,1.7404580152671756,-1.3282442748091603,-0.44287109375,-0.0244140625,-0.243408203125,0.425
1.5114503816793894,1.6793893129770991,-1.3129770992366412,-0.43896484375,-0.0283203125,-0.2529296875,0.42669999999999997
1.3282442748091603,1.8778625954198473,-1.450381679389313,-0.441650390625,-0.0263671875,-0.259033203125,0.4284
1.4045801526717556,1.984732824427481,-1.3435114503816794,-0.451416015625,-0.025634765625,-0.25,0.4301
1.4351145038167938,2.1068702290076335,-1.3893129770992367,-0.446044921875,-0.023681640625,-0.25634765625,0.43179999999999996
1.6030534351145038,1.9389312977099236,-1.5267175572519085,-0.44580078125,-0.031982421875,-0.2548828125,0.4335
1.6030534351145038,2.1374045801526718,-1.6641221374045803,-0.443359375,-0.0224609375,-0.248046875,0.4352
1.4198473282442747,2.213740458015267,-1.4198473282442747,-0.4453125,-0.019775390625,-0.249267578125,0.43689999999999996
1.3740458015267176,2.427480916030534,-1.450381679389313,-0.440185546875,-0.028564453125,-0.25244140625,0.4386
1.5725190839694656,2.2290076335877864,-1.5419847328244274,-0.447021484375,-0.02880859375,-0.25146484375,0.44029999999999997
1.450381679389313,2.16793893129771,-1.6030534351145038,-0.4453125,-0.0283203125,-0.249267578125,0.44199999999999995
1.4351145038167938,2.4732824427480917,-1.5419847328244274,-0.451416015625,-0.030517578125,-0.249267578125,0.4437
1.297709923664122,2.2290076335877864,-1.6641221374045803,-0.45166015625,-0.023193359375,-0.2548828125,0.44539999999999996
1.3129770992366412,2.2442748091603053,-1.4961832061068703,-0.447998046875,-0.031494140625,-0.251953125,0.4471
1.3282442748091603,2.16793893129771,-1.7709923664122138,-0.4462890625,-0.022216796875,-0.250244140625,0.4488
1.465648854961832,2.2442748091603053,-1.6030534351145038,-0.44580078125,-0.026123046875,-0.2412109375,0.45049999999999996
1.3893129770992367,2.2595419847328246,-1.618320610687023,-0.448974609375,-0.018310546875,-0.249755859375,0.4522
1.251908396946565,2.16793893129771,-1.6641221374045803,-0.4443359375,-0.0302734375,-0.243896484375,0.45389999999999997
1.2213740458015268,2.1526717557251906,-1.5725190839694656,-0.44287109375,-0.033203125,-0.25732421875,0.45559999999999995
0.9465648854961832,2.1068702290076335,-1.5267175572519085,-0.447265625,-0.026611328125,-0.253662109375,0.4573
1.099236641221374,2.3053435114503817,-1.7557251908396947,-0.446044921875,-0.028564453125,-0.249755859375,0.45899999999999996
1.282442748091603,2.2900763358778624,-1.5877862595419847,-0.442138671875,-0.026123046875,-0.2490234375,0.4607
1.0229007633587786,2.015267175572519,-1.5572519083969465,-0.44287109375,-0.025390625,-0.250732421875,0.4624
1.3129770992366412,1.9236641221374047,-1.5114503816793894,-0.4453125,-0.02392578125,-0.248046875,0.46409999999999996
1.450381679389313,2.015267175572519,-1.6641221374045803,-0.44287109375,-0.028564453125,-0.25927734375,0.4658
1.2366412213740459,2.1374045801526718,-1.4961832061068703,-0.443603515625,-0.02587890625,-0.260986328125,0.46749999999999997
1.3740458015267176,2.198473282442748,-1.816793893129771,-0.447021484375,-0.02734375,-0.249267578125,0.46919999999999995
1.251908396946565,2.0610687022900764,-1.7251908396946565,-0.451416015625,-0.03076171875,-0.26513671875,0.4709
1.3129770992366412,2.2595419847328246,-1.7099236641221374,-0.4443359375,-0.02587890625,-0.249267578125,0.47259999999999996
1.2366412213740459,2.2442748091603053,-1.6793893129770991,-0.442626953125,-0.024169921875,-0.24853515625,0.4743
1.1755725190839694,2.2595419847328246,-1.786259541984733,-0.446044921875,-0.03173828125,-0.257080078125,0.476
1.3282442748091603,2.183206106870229,-1.5877862595419847,-0.446044921875,-0.02978515625,-0.255615234375,0.47769999999999996
1.2213740458015268,2.2442748091603053,-1.8015267175572518,-0.446533203125,-0.029541015625,-0.256591796875,0.4794
1.0687022900763359,2.0610687022900764,-1.7251908396946565,-0.449462890625,-0.027587890625,-0.2548828125,0.48109999999999997
1.1908396946564885,2.0,-1.8473282442748091,-0.44091796875,-0.022705078125,-0.255615234375,0.48279999999999995
1.0381679389312977,2.045801526717557,-1.5419847328244274,-0.4423828125,-0.02294921875,-0.25390625,0.4845
1.1755725190839694,2.122137404580153,-1.5877862595419847,-0.44189453125,-0.027099609375,-0.2509765625,0.48619999999999997
1.3129770992366412,2.0763358778625953,-1.6488549618320612,-0.4462890625,-0.022705078125,-0.24462890625,0.4879
1.297709923664122,2.2290076335877864,-1.8625954198473282,-0.4453125,-0.026123046875,-0.252685546875,0.4896
1.3587786259541985,2.1526717557251906,-1.5572519083969465,-0.44287109375,-0.027587890625,-0.243896484375,0.49129999999999996
1.1603053435114503,1.9694656488549618,-1.6641221374045803,-0.442626953125,-0.02783203125,-0.25146484375,0.493
1.3893129770992367,2.0916030534351147,-1.633587786259542,-0.44873046875,-0.029052734375,-0.246337890625,0.4947
1.0229007633587786,2.1068702290076335,-1.633587786259542,-0.440673828125,-0.022705078125,-0.24365234375,0.49639999999999995
1.1450381679389312,1.8625954198473282,-1.633587786259542,-0.443603515625,-0.027587890625,-0.2392578125,0.4981
0.9770992366412213,2.030534351145038,-1.7251908396946565,-0.447265625,-0.032958984375,-0.249267578125,0.49979999999999997
1.1755725190839694,2.16793893129771,-1.4961832061068703,-0.439697265625,-0.0283203125,-0.252197265625,0.5015
1.282442748091603,1.8473282442748091,-1.6793893129770991,-0.439697265625,-0.027587890625,-0.251708984375,0.5032
1.282442748091603,2.1068702290076335,-1.786259541984733,-0.4443359375,-0.02490234375,-0.2421875,0.5049
1.2213740458015268,2.0916030534351147,-1.465648854961832,-0.442138671875,-0.0263671875,-0.24267578125,0.5065999999999999
1.083969465648855,1.9083969465648856,-1.5114503816793894,-0.440673828125,-0.03662109375,-0.250732421875,0.5083
1.2366412213740459,1.816793893129771,-1.5267175572519085,-0.443115234375,-0.0302734375,-0.248291015625,0.51
1.083969465648855,1.8473282442748091,-1.5725190839694656,-0.444580078125,-0.028076171875,-0.260009765625,0.5116999999999999
1.0534351145038168,1.8473282442748091,-1.5725190839694656,-0.443603515625,-0.0283203125,-0.25244140625,0.5134
1.4351145038167938,1.7557251908396947,-1.4045801526717556,-0.4453125,-0.0263671875,-0.248779296875,0.5151
1.2671755725190839,1.7099236641221374,-1.6793893129770991,-0.440185546875,-0.028564453125,-0.25146484375,0.5167999999999999
1.0229007633587786,1.8625954198473282,-1.5114503816793894,-0.43896484375,-0.02880859375,-0.2490234375,0.5185
1.3129770992366412,1.9083969465648856,-1.4961832061068703,-0.443359375,-0.02783203125,-0.250732421875,0.5202
1.1603053435114503,1.7404580152671756,-1.4045801526717556,-0.4443359375,-0.0263671875,-0.251708984375,0.5218999999999999
1.083969465648855,1.618320610687023,-1.4351145038167938,-0.44384765625,-0.01953125,-0.25390625,0.5236
1.3282442748091603,1.7404580152671756,-1.3435114503816794,-0.44091796875,-0.0283203125,-0.255615234375,0.5253
1.297709923664122,1.618320610687023,-1.5419847328244274,-0.4501953125,-0.026611328125,-0.25732421875,0.527
1.2061068702290076,1.7099236641221374,-1.2213740458015268,-0.44287109375,-0.026123046875,-0.256591796875,0.5287
1.2671755725190839,1.633587786259542,-1.4961832061068703,-0.447021484375,-0.02197265625,-0.251220703125,0.5304
1.282442748091603,1.5114503816793894,-1.3740458015267176,-0.4453125,-0.027587890625,-0.249267578125,0.5321
1.2671755725190839,1.5267175572519085,-1.3129770992366412,-0.44384765625,-0.025146484375,-0.2509765625,0.5337999999999999
1.2213740458015268,1.4809160305343512,-1.1908396946564885,-0.445068359375,-0.02490234375,-0.253662109375,0.5355
1.2061068702290076,1.4198473282442747,-1.2671755725190839,-0.4443359375,-0.0302734375,-0.247314453125,0.5372
1.2366412213740459,1.4045801526717556,-1.2671755725190839,-0.4443359375,-0.02685546875,-0.259033203125,0.5388999999999999
1.3740458015267176,1.4809160305343512,-1.1603053435114503,-0.446533203125,-0.0322265625,-0.248291015625,0.5406
1.2671755725190839,1.5419847328244274,-1.2366412213740459,-0.447509765625,-0.029541015625,-0.246337890625,0.5423
1.3129770992366412,1.3587786259541985,-1.3587786259541985,-0.443603515625,-0.025390625,-0.25634765625,0.5439999999999999
1.2061068702290076,1.465648854961832,-1.2213740458015268,-0.445068359375,-0.024658203125,-0.2578125,0.5457
1.1908396946564885,1.3435114503816794,-1.2671755725190839,-0.444580078125,-0.02685546875,-0.25830078125,0.5474
1.3129770992366412,1.3740458015267176,-1.1450381679389312,-0.447265625,-0.0263671875,-0.2578125,0.5490999999999999
1.3587786259541985,1.3282442748091603,-1.251908396946565,-0.44384765625,-0.02685546875,-0.25537109375,0.5508
1.2366412213740459,1.465648854961832,-1.1297709923664123,-0.446533203125,-0.027587890625,-0.2451171875,0.5525
1.3435114503816794,1.3893129770992367,-1.3282442748091603,-0.443359375,-0.0322265625,-0.247802734375,0.5541999999999999
1.2366412213740459,1.2213740458015268,-0.9465648854961832,-0.43798828125,-0.025634765625,-0.25537109375,0.5559
1.1297709923664123,1.4809160305343512,-1.0381679389312977,-0.43505859375,-0.027587890625,-0.255126953125,0.5576
1.282442748091603,1.3282442748091603,-1.0076335877862594,-0.441162109375,-0.024658203125,-0.251220703125,0.5593
1.1755725190839694,1.2213740458015268,-1.1297709923664123,-0.444091796875,-0.029052734375,-0.254638671875,0.5609999999999999
1.4045801526717556,1.465648854961832,-0.8702290076335878,-0.445556640625,-0.024169921875,-0.251708984375,0.5627
1.251908396946565,1.5419847328244274,-1.1450381679389312,-0.444091796875,-0.0244140625,-0.2451171875,0.5644
1.2061068702290076,1.4351145038167938,-1.1450381679389312,-0.44287109375,-0.0283203125,-0.25,0.5660999999999999
1.4198473282442747,1.4351145038167938,-1.1450381679389312,-0.445556640625,-0.02685546875,-0.248291015625,0.5678
1.1145038167938932,1.3740458015267176,-0.9618320610687023,-0.446533203125,-0.0322265625,-0.25048828125,0.5695
1.4198473282442747,1.3893129770992367,-1.1755725190839694,-0.445556640625,-0.02783203125,-0.25244140625,0.5711999999999999
1.3129770992366412,1.4351145038167938,-0.9465648854961832,-0.44482421875,-0.030517578125,-0.254150390625,0.5729
1.3129770992366412,1.3435114503816794,-1.0687022900763359,-0.44482421875,-0.027587890625,-0.247802734375,0.5746
1.5572519083969465,1.3587786259541985,-0.8854961832061069,-0.44482421875,-0.026123046875,-0.2451171875,0.5762999999999999
1.251908396946565,1.1603053435114503,-1.1603053435114503,-0.4423828125,-0.0244140625,-0.249267578125,0.578
1.2213740458015268,1.2366412213740459,-1.0381679389312977,-0.444580078125,-0.025634765625,-0.2470703125,0.5797
1.3740458015267176,1.297709923664122,-1.2671755725190839,-0.445556640625,-0.027099609375,-0.259033203125,0.5813999999999999
1.3129770992366412,1.2366412213740459,-1.0381679389312977,-0.444580078125,-0.025390625,-0.25537109375,0.5831
1.5114503816793894,1.3740458015267176,-1.083969465648855,-0.445068359375,-0.0263671875,-0.254638671875,0.5848
1.4198473282442747,1.3893129770992367,-1.083969465648855,-0.44384765625,-0.02783203125,-0.248779296875,0.5865
1.3435114503816794,1.5725190839694656,-1.0229007633587786,-0.44775390625,-0.02734375,-0.252685546875,0.5882
1.4045801526717556,1.465648854961832,-0.8244274809160306,-0.4443359375,-0.02734375,-0.25146484375,0.5899
1.2671755725190839,1.2213740458015268,-1.1145038167938932,-0.44580078125,-0.02978515625,-0.25390625,0.5916
1.5572519083969465,1.465648854961832,-1.083969465648855,-0.44580078125,-0.02783203125,-0.255615234375,0.5932999999999999
1.3587786259541985,1.282442748091603,-1.0229007633587786,-0.4521484375,-0.026123046875,-0.2470703125,0.595
1.4198473282442747,1.2213740458015268,-0.9618320610687023,-0.447509765625,-0.02587890625,-0.252685546875,0.5967
1.450381679389313,1.297709923664122,-1.1297709923664123,-0.448486328125,-0.02392578125,-0.25,0.5983999999999999
1.4961832061068703,1.4198473282442747,-1.0687022900763359,-0.445068359375,-0.025390625,-0.247314453125,0.6001
1.6488549618320612,1.2061068702290076,-1.297709923664122,-0.44921875,-0.024658203125,-0.242919921875,0.6018
1.450381679389313,1.297709923664122,-0.8549618320610687,-0.44482421875,-0.024169921875,-0.240478515625,0.6034999999999999
1.450381679389313,1.2213740458015268,-1.0076335877862594,-0.44580078125,-0.02587890625,-0.251220703125,0.6052
1.6793893129770991,1.2061068702290076,-0.9618320610687023,-0.445068359375,-0.026611328125,-0.2470703125,0.6069
1.465648854961832,1.3893129770992367,-1.0381679389312977,-0.443115234375,-0.027587890625,-0.2529296875,0.6085999999999999
1.5419847328244274,1.1908396946564885,-0.9618320610687023,-0.448486328125,-0.02685546875,-0.249755859375,0.6103
1.7404580152671756,1.4198473282442747,-1.1755725190839694,-0.448974609375,-0.02685546875,-0.253662109375,0.612
1.4045801526717556,1.3435114503816794,-0.916030534351145,-0.439453125,-0.02294921875,-0.251220703125,0.6136999999999999
1.4809160305343512,1.3587786259541985,-1.1297709923664123,-0.4443359375,-0.023681640625,-0.254638671875,0.6154
1.5877862595419847,1.4045801526717556,-1.1755725190839694,-0.446533203125,-0.027099609375,-0.244384765625,0.6171
1.5725190839694656,1.3587786259541985,-1.1297709923664123,-0.449951171875,-0.021728515625,-0.247802734375,0.6188
1.4961832061068703,1.1908396946564885,-1.1908396946564885,-0.448974609375,-0.02783203125,-0.2509765625,0.6204999999999999
1.6641221374045803,1.297709923664122,-1.2213740458015268,-0.44287109375,-0.024658203125,-0.252197265625,0.6222
1.5725190839694656,1.4045801526717556,-1.1755725190839694,-0.447998046875,-0.02490234375,-0.248291015625,0.6239
1.6946564885496183,1.1755725190839694,-1.0381679389312977,-0.443115234375,-0.027099609375,-0.248291015625,0.6255999999999999
1.633587786259542,1.2213740458015268,-1.099236641221374,-0.4521484375,-0.029296875,-0.2578125,0.6273
1.6793893129770991,1.0229007633587786,-1.297709923664122,-0.44384765625,-0.025146484375,-0.2607421875,0.629
1.7251908396946565,1.1145038167938932,-1.099236641221374,-0.447021484375,-0.029296875,-0.247314453125,0.6306999999999999
1.7099236641221374,1.2671755725190839,-1.2213740458015268,-0.447265625,-0.0263671875,-0.25390625,0.6324
1.5114503816793894,1.2366412213740459,-1.083969465648855,-0.44482421875,-0.029541015625,-0.25048828125,0.6341
1.83206106870229,1.1755725190839694,-1.1908396946564885,-0.44482421875,-0.019775390625,-0.24267578125,0.6357999999999999
1.816793893129771,1.1297709923664123,-1.1908396946564885,-0.441162109375,-0.02685546875,-0.2529296875,0.6375
1.8931297709923665,1.1450381679389312,-1.0534351145038168,-0.443603515625,-0.023681640625,-0.2568359375,0.6392
1.7099236641221374,1.1755725190839694,-1.1603053435114503,-0.44580078125,-0.0205078125,-0.2509765625,0.6408999999999999
1.5877862595419847,1.1603053435114503,-1.2061068702290076,-0.442626953125,-0.0244140625,-0.250732421875,0.6426
1.7251908396946565,1.1603053435114503,-1.1145038167938932,-0.448486328125,-0.025634765625,-0.245849609375,0.6443
1.786259541984733,1.1450381679389312,-1.1297709923664123,-0.447021484375,-0.025146484375,-0.255126953125,0.646
1.8931297709923665,1.1755725190839694,-1.1908396946564885,-0.448974609375,-0.025390625,-0.244873046875,0.6476999999999999
1.6946564885496183,1.0076335877862594,-1.1755725190839694,-0.449462890625,-0.023681640625,-0.24951171875,0.6494
1.9694656488549618,1.083969465648855,-1.0534351145038168,-0.44580078125,-0.02490234375,-0.253173828125,0.6511
2.0763358778625953,1.0381679389312977,-1.1450381679389312,-0.44384765625,-0.01953125,-0.248779296875,0.6527999999999999
1.8473282442748091,0.916030534351145,-1.0687022900763359,-0.44189453125,-0.025390625,-0.253173828125,0.6545
1.786259541984733,1.1603053435114503,-1.0076335877862594,-0.447265625,-0.0322265625,-0.25390625,0.6562
1.9236641221374047,1.1755725190839694,-1.099236641221374,-0.444580078125,-0.02978515625,-0.2587890625,0.6578999999999999
2.0,0.8854961832061069,-1.0534351145038168,-0.443115234375,-0.025146484375,-0.252197265625,0.6596
1.816793893129771,0.7480916030534351,-1.083969465648855,-0.4443359375,-0.02685546875,-0.253173828125,0.6613
1.9694656488549618,1.0687022900763359,-1.2061068702290076,-0.443359375,-0.021484375,-0.252197265625,0.6629999999999999
1.9236641221374047,0.9618320610687023,-1.099236641221374,-0.45068359375,-0.02783203125,-0.2578125,0.6647
1.984732824427481,0.7786259541984732,-1.1908396946564885,-0.447265625,-0.02880859375,-0.25048828125,0.6664
1.816793893129771,0.9618320610687023,-1.1450381679389312,-0.4453125,-0.026123046875,-0.246337890625,0.6680999999999999
1.816793893129771,0.9312977099236641,-1.1755725190839694,-0.442138671875,-0.02880859375,-0.25439453125,0.6698
1.8778625954198473,0.9007633587786259,-1.282442748091603,-0.442626953125,-0.02392578125,-0.2587890625,0.6715
1.9541984732824427,0.9923664122137404,-1.1450381679389312,-0.44287109375,-0.027587890625,-0.251220703125,0.6731999999999999
1.8015267175572518,0.9770992366412213,-1.1755725190839694,-0.443359375,-0.025634765625,-0.25,0.6748999999999999
2.045801526717557,1.099236641221374,-1.083969465648855,-0.439208984375,-0.02880859375,-0.24267578125,0.6766
1.8778625954198473,0.8854961832061069,-1.1755725190839694,-0.443603515625,-0.030029296875,-0.23876953125,0.6783
1.8473282442748091,0.9923664122137404,-1.0381679389312977,-0.4462890625,-0.030029296875,-0.237060546875,0.6799999999999999
1.9236641221374047,0.9312977099236641,-0.9770992366412213,-0.44189453125,-0.02783203125,-0.23974609375,0.6817
1.9541984732824427,1.099236641221374,-1.083969465648855,-0.4453125,-0.022216796875,-0.24853515625,0.6834
1.83206106870229,1.0534351145038168,-1.1145038167938932,-0.446044921875,-0.023681640625,-0.2587890625,0.6850999999999999
1.7251908396946565,0.916030534351145,-1.1297709923664123,-0.441162109375,-0.033935546875,-0.248046875,0.6868
1.7099236641221374,0.9923664122137404,-1.1603053435114503,-0.447998046875,-0.0302734375,-0.253173828125,0.6885
1.8931297709923665,0.9312977099236641,-1.1450381679389312,-0.447509765625,-0.027099609375,-0.24658203125,0.6901999999999999
1.984732824427481,1.0229007633587786,-1.0381679389312977,-0.443603515625,-0.033203125,-0.2568359375,0.6919
1.8778625954198473,0.9007633587786259,-0.916030534351145,-0.442626953125,-0.02734375,-0.245361328125,0.6936
1.6946564885496183,1.0076335877862594,-0.8854961832061069,-0.43798828125,-0.026123046875,-0.25341796875,0.6952999999999999
1.465648854961832,1.0076335877862594,-0.9312977099236641,-0.441162109375,-0.0224609375,-0.251708984375,0.697
1.9389312977099236,0.9923664122137404,-1.0534351145038168,-0.447021484375,-0.026123046875,-0.260986328125,0.6987
1.83206106870229,0.9770992366412213,-1.083969465648855,-0.445068359375,-0.02978515625,-0.249755859375,0.7003999999999999
1.7557251908396947,1.0229007633587786,-1.0229007633587786,-0.447998046875,-0.025634765625,-0.256591796875,0.7021
1.8473282442748091,0.916030534351145,-0.8549618320610687,-0.4462890625,-0.0263671875,-0.25146484375,0.7038
1.4351145038167938,0.8549618320610687,-0.8396946564885496,-0.44580078125,-0.027587890625,-0.253662109375,0.7055
1.5877862595419847,0.9770992366412213,-0.9923664122137404,-0.447509765625,-0.03076171875,-0.24462890625,0.7071999999999999
1.4351145038167938,0.7633587786259542,-1.0229007633587786,-0.449951171875,-0.024658203125,-0.247802734375,0.7089
1.6793893129770991,0.8549618320610687,-0.8702290076335878,-0.44189453125,-0.029052734375,-0.247802734375,0.7106
1.5877862595419847,0.9618320610687023,-0.916030534351145,-0.446044921875,-0.02880859375,-0.251708984375,0.7122999999999999
1.5267175572519085,0.8091603053435115,-0.9312977099236641,-0.444580078125,-0.025390625,-0.25830078125,0.714
1.450381679389313,0.8244274809160306,-1.083969465648855,-0.44091796875,-0.034423828125,-0.251708984375,0.7157
1.297709923664122,0.732824427480916,-0.7480916030534351,-0.437744140625,-0.031494140625,-0.2529296875,0.7173999999999999
1.3129770992366412,0.9007633587786259,-0.8702290076335878,-0.44140625,-0.029052734375,-0.253662109375,0.7191
1.4351145038167938,0.7175572519083969,-0.9007633587786259,-0.4443359375,-0.0263671875,-0.259521484375,0.7208
1.3282442748091603,0.549618320610687,-0.9618320610687023,-0.43798828125,-0.02392578125,-0.24462890625,0.7224999999999999
1.3435114503816794,0.5801526717557252,-0.8549618320610687,-0.440185546875,-0.024658203125,-0.251220703125,0.7242
1.251908396946565,0.8091603053435115,-0.8702290076335878,-0.4423828125,-0.02392578125,-0.25,0.7259
1.1908396946564885,0.732824427480916,-0.8854961832061069,-0.4365234375,-0.0234375,-0.241943359375,0.7275999999999999
1.2061068702290076,0.5343511450381679,-0.9312977099236641,-0.4423828125,-0.028564453125,-0.250244140625,0.7293
1.4198473282442747,0.44274809160305345,-0.9312977099236641,-0.443359375,-0.0322265625,-0.255615234375,0.731
0.9770992366412213,0.6259541984732825,-1.0381679389312977,-0.445068359375,-0.02490234375,-0.255126953125,0.7326999999999999
1.1603053435114503,0.3511450381679389,-0.6870229007633588,-0.449951171875,-0.03173828125,-0.25537109375,0.7343999999999999
0.8244274809160306,0.5954198473282443,-0.9312977099236641,-0.445068359375,-0.025634765625,-0.25634765625,0.7361
0.9770992366412213,0.3969465648854962,-0.9923664122137404,-0.439208984375,-0.027587890625,-0.259033203125,0.7378
0.9465648854961832,0.3053435114503817,-0.7786259541984732,-0.443603515625,-0.03173828125,-0.25341796875,0.7394999999999999
0.8854961832061069,0.4122137404580153,-0.7480916030534351,-0.44677734375,-0.03173828125,-0.249755859375,0.7412
1.0076335877862594,0.44274809160305345,-0.8702290076335878,-0.439697265625,-0.031494140625,-0.2607421875,0.7429
1.1145038167938932,0.3816793893129771,-0.8091603053435115,-0.437744140625,-0.02685546875,-0.249267578125,0.7445999999999999
1.0076335877862594,0.2748091603053435,-0.9618320610687023,-0.438232421875,-0.025634765625,-0.25,0.7463
0.8396946564885496,0.1984732824427481,-0.8244274809160306,-0.44189453125,-0.02197265625,-0.263671875,0.748
0.8854961832061069,0.4122137404580153,-1.0534351145038168,-0.44287109375,-0.032470703125,-0.257568359375,0.7496999999999999
0.7480916030534351,0.42748091603053434,-0.9465648854961832,-0.4423828125,-0.0263671875,-0.24609375,0.7514
0.732824427480916,0.32061068702290074,-0.9465648854961832,-0.443359375,-0.02392578125,-0.2490234375,0.7531
0.5801526717557252,0.21374045801526717,-0.9770992366412213,-0.44287109375,-0.027099609375,-0.243896484375,0.7547999999999999
0.7480916030534351,0.4580152671755725,-1.0381679389312977,-0.4462890625,-0.0361328125,-0.254638671875,0.7565
0.7175572519083969,0.33587786259541985,-0.8854961832061069,-0.443603515625,-0.03076171875,-0.258056640625,0.7582
0.4580152671755725,0.3816793893129771,-0.9770992366412213,-0.442138671875,-0.028076171875,-0.25146484375,0.7598999999999999
0.5648854961832062,0.32061068702290074,-1.083969465648855,-0.440673828125,-0.026123046875,-0.252685546875,0.7615999999999999
0.5801526717557252,0.13740458015267176,-1.083969465648855,-0.439208984375,-0.030029296875,-0.251953125,0.7633
0.4580152671755725,0.13740458015267176,-0.916030534351145,-0.44091796875,-0.0302734375,-0.26318359375,0.7649999999999999
0.21374045801526717,0.0916030534351145,-1.0381679389312977,-0.446533203125,-0.03173828125,-0.25244140625,0.7666999999999999
0.4122137404580153,0.07633587786259542,-0.9923664122137404,-0.439697265625,-0.0322265625,-0.25,0.7684
0.24427480916030533,0.0,-0.916030534351145,-0.4462890625,-0.028076171875,-0.241455078125,0.7701
0.12213740458015267,0.015267175572519083,-1.0381679389312977,-0.442626953125,-0.02978515625,-0.25146484375,0.7717999999999999
0.183206106870229,0.0916030534351145,-1.099236641221374,-0.441162109375,-0.027099609375,-0.25146484375,0.7735
0.3511450381679389,-0.0916030534351145,-0.9618320610687023,-0.440185546875,-0.0234375,-0.247802734375,0.7752
-0.12213740458015267,-0.061068702290076333,-1.1145038167938932,-0.443603515625,-0.024169921875,-0.245849609375,0.7768999999999999
0.04580152671755725,-0.3053435114503817,-1.1450381679389312,-0.4462890625,-0.028076171875,-0.2509765625,0.7786
0.04580152671755725,-0.366412213740458,-1.2671755725190839,-0.446533203125,-0.033203125,-0.25537109375,0.7803
0.030534351145038167,-0.24427480916030533,-1.2061068702290076,-0.442138671875,-0.024169921875,-0.24365234375,0.7819999999999999
-0.10687022900763359,-0.48854961832061067,-1.1755725190839694,-0.44580078125,-0.02783203125,-0.251708984375,0.7837
-0.15267175572519084,-0.2900763358778626,-1.1603053435114503,-0.4453125,-0.028076171875,-0.249267578125,0.7854
-0.15267175572519084,-0.4122137404580153,-1.297709923664122,-0.4423828125,-0.026611328125,-0.248291015625,0.7870999999999999
-0.32061068702290074,-0.5954198473282443,-1.1297709923664123,-0.443359375,-0.027099609375,-0.255859375,0.7888
-0.2595419847328244,-0.7175572519083969,-1.2671755725190839,-0.4482421875,-0.024169921875,-0.247314453125,0.7905
-0.0916030534351145,-0.732824427480916,-1.282442748091603,-0.446533203125,-0.025146484375,-0.241455078125,0.7921999999999999
-0.2900763358778626,-0.7175572519083969,-1.1603053435114503,-0.44287109375,-0.0283203125,-0.247314453125,0.7938999999999999
-0.4580152671755725,-0.7633587786259542,-1.1603053435114503,-0.43994140625,-0.026123046875,-0.244384765625,0.7956
-0.2595419847328244,-0.732824427480916,-1.5419847328244274,-0.440673828125,-0.029296875,-0.253662109375,0.7973
-0.2748091603053435,-0.7938931297709924,-1.0381679389312977,-0.443603515625,-0.023681640625,-0.248291015625,0.7989999999999999
-0.5190839694656488,-0.6259541984732825,-1.1755725190839694,-0.441162109375,-0.026123046875,-0.250732421875,0.8007
-0.4580152671755725,-0.6870229007633588,-1.3129770992366412,-0.4453125,-0.028564453125,-0.246337890625,0.8024
-0.366412213740458,-0.8854961832061069,-1.3587786259541985,-0.44580078125,-0.029296875,-0.24853515625,0.8040999999999999
-0.48854961832061067,-0.7786259541984732,-1.3129770992366412,-0.4443359375,-0.0205078125,-0.248291015625,0.8058
-0.4580152671755725,-0.7022900763358778,-1.2671755725190839,-0.44287109375,-0.0234375,-0.242919921875,0.8075
-0.3511450381679389,-0.7786259541984732,-1.3740458015267176,-0.4443359375,-0.02392578125,-0.255126953125,0.8091999999999999
-0.44274809160305345,-0.8702290076335878,-1.4809160305343512,-0.44970703125,-0.02587890625,-0.249267578125,0.8109
-0.2748091603053435,-0.8549618320610687,-1.297709923664122,-0.44287109375,-0.025634765625,-0.248779296875,0.8126
-0.4732824427480916,-0.916030534351145,-1.4961832061068703,-0.442138671875,-0.0224609375,-0.253173828125,0.8142999999999999
-0.44274809160305345,-0.8702290076335878,-1.4351145038167938,-0.443359375,-0.028564453125,-0.248046875,0.816
-0.6259541984732825,-0.7633587786259542,-1.3893129770992367,-0.4453125,-0.0234375,-0.252685546875,0.8177
-0.2900763358778626,-0.6106870229007634,-1.4351145038167938,-0.44775390625,-0.020751953125,-0.2509765625,0.8193999999999999
-0.2748091603053435,-0.8396946564885496,-1.3740458015267176,-0.446044921875,-0.029541015625,-0.252197265625,0.8210999999999999
-0.5038167938931297,-0.6412213740458015,-1.297709923664122,-0.449951171875,-0.025390625,-0.245849609375,0.8228
-0.3969465648854962,-0.6412213740458015,-1.3740458015267176,-0.447509765625,-0.02490234375,-0.2470703125,0.8244999999999999
-0.44274809160305345,-0.732824427480916,-1.282442748091603,-0.447021484375,-0.03173828125,-0.240234375,0.8261999999999999
-0.32061068702290074,-0.6259541984732825,-1.3129770992366412,-0.446044921875,-0.026611328125,-0.2412109375,0.8279
-0.3511450381679389,-0.549618320610687,-1.2061068702290076,-0.449462890625,-0.025634765625,-0.239990234375,0.8296
-0.4122137404580153,-0.549618320610687,-1.4809160305343512,-0.450439453125,-0.024169921875,-0.24658203125,0.8312999999999999
-0.32061068702290074,-0.42748091603053434,-1.3893129770992367,-0.44482421875,-0.02685546875,-0.242431640625,0.833
-0.0916030534351145,-0.549618320610687,-1.3129770992366412,-0.445068359375,-0.02099609375,-0.254150390625,0.8347
-0.015267175572519083,-0.48854961832061067,-1.3129770992366412,-0.443603515625,-0.021728515625,-0.251953125,0.8363999999999999
-0.13740458015267176,-0.4122137404580153,-1.4045801526717556,-0.450439453125,-0.01806640625,-0.246337890625,0.8381
-0.32061068702290074,-0.4122137404580153,-1.2366412213740459,-0.448974609375,-0.026611328125,-0.2431640625,0.8398
-0.16793893129770993,-0.3969465648854962,-1.2671755725190839,-0.44580078125,-0.024169921875,-0.2451171875,0.8414999999999999
-0.07633587786259542,-0.4122137404580153,-1.1603053435114503,-0.44580078125,-0.02783203125,-0.25244140625,0.8432
-0.1984732824427481,-0.3969465648854962,-1.2213740458015268,-0.447509765625,-0.0205078125,-0.24658203125,0.8449
0.015267175572519083,-0.44274809160305345,-1.1603053435114503,-0.444091796875,-0.021484375,-0.251953125,0.8465999999999999
0.21374045801526717,-0.1984732824427481,-1.083969465648855,-0.4482421875,-0.02880859375,-0.251708984375,0.8482999999999999
0.22900763358778625,-0.24427480916030533,-1.099236641221374,-0.450439453125,-0.022705078125,-0.241455078125,0.85
0.0916030534351145,-0.24427480916030533,-1.1603053435114503,-0.44677734375,-0.025634765625,-0.2509765625,0.8516999999999999
0.1984732824427481,-0.2595419847328244,-0.8702290076335878,-0.445068359375,-0.02783203125,-0.24462890625,0.8533999999999999
0.32061068702290074,-0.21374045801526717,-1.0687022900763359,-0.4501953125,-0.0263671875,-0.240966796875,0.8551
0.4122137404580153,0.0,-0.8396946564885496,-0.44921875,-0.01953125,-0.248046875,0.8568
0.549618320610687,-0.12213740458015267,-1.1297709923664123,-0.44873046875,-0.026123046875,-0.25048828125,0.8584999999999999
0.1984732824427481,0.030534351145038167,-0.916030534351145,-0.45361328125,-0.024658203125,-0.2451171875,0.8602
0.22900763358778625,0.07633587786259542,-1.0229007633587786,-0.451416015625,-0.02294921875,-0.246826171875,0.8619
0.42748091603053434,-0.030534351145038167,-0.7938931297709924,-0.4541015625,-0.02734375,-0.239501953125,0.8635999999999999
0.5954198473282443,0.21374045801526717,-0.9312977099236641,-0.4501953125,-0.0263671875,-0.24951171875,0.8653
0.5190839694656488,0.183206106870229,-0.8091603053435115,-0.45361328125,-0.01806640625,-0.246826171875,0.867
0.8244274809160306,0.21374045801526717,-0.9923664122137404,-0.445068359375,-0.024658203125,-0.25244140625,0.8686999999999999
0.8091603053435115,0.1984732824427481,-0.9007633587786259,-0.44384765625,-0.024658203125,-0.250732421875,0.8704
0.8702290076335878,0.4122137404580153,-0.9465648854961832,-0.44873046875,-0.02294921875,-0.236083984375,0.8721
0.6259541984732825,0.4122137404580153,-0.8702290076335878,-0.44970703125,-0.02197265625,-0.243896484375,0.8737999999999999
0.916030534351145,0.33587786259541985,-0.8702290076335878,-0.447021484375,-0.02001953125,-0.25048828125,0.8755
1.0687022900763359,0.48854961832061067,-0.732824427480916,-0.449951171875,-0.025634765625,-0.239990234375,0.8772
1.0229007633587786,0.5190839694656488,-0.7786259541984732,-0.450927734375,-0.024658203125,-0.247314453125,0.8788999999999999
0.9770992366412213,0.42748091603053434,-0.8549618320610687,-0.445556640625,-0.019775390625,-0.247802734375,0.8805999999999999
1.0076335877862594,0.4122137404580153,-0.8244274809160306,-0.44921875,-0.024169921875,-0.2470703125,0.8823
1.1297709923664123,0.4732824427480916,-0.7480916030534351,-0.447265625,-0.02294921875,-0.2529296875,0.8839999999999999
1.282442748091603,0.5343511450381679,-0.8549618320610687,-0.44775390625,-0.024169921875,-0.2470703125,0.8856999999999999
1.1297709923664123,0.4122137404580153,-0.8396946564885496,-0.446044921875,-0.021728515625,-0.24365234375,0.8874
1.1145038167938932,0.48854961832061067,-0.7786259541984732,-0.453125,-0.025634765625,-0.2470703125,0.8891
1.282442748091603,0.5648854961832062,-0.5648854961832062,-0.44921875,-0.020751953125,-0.243408203125,0.8907999999999999
1.4351145038167938,0.6106870229007634,-0.8091603053435115,-0.444091796875,-0.02392578125,-0.23486328125,0.8925
1.465648854961832,0.6870229007633588,-0.7480916030534351,-0.447509765625,-0.024658203125,-0.24560546875,0.8942
1.6030534351145038,0.7175572519083969,-0.8702290076335878,-0.44921875,-0.02197265625,-0.244140625,0.8958999999999999
1.3129770992366412,0.7480916030534351,-0.7022900763358778,-0.44580078125,-0.021728515625,-0.239013671875,0.8976
1.297709923664122,0.5954198473282443,-0.6717557251908397,-0.44970703125,-0.024169921875,-0.2392578125,0.8993
1.4809160305343512,0.7786259541984732,-0.5954198473282443,-0.44970703125,-0.0263671875,-0.238037109375,0.9009999999999999
1.5114503816793894,0.9007633587786259,-0.8091603053435115,-0.44287109375,-0.021240234375,-0.243408203125,0.9027
1.6488549618320612,0.8244274809160306,-0.7633587786259542,-0.443603515625,-0.0205078125,-0.256103515625,0.9044
1.5725190839694656,0.9465648854961832,-0.7175572519083969,-0.447998046875,-0.022216796875,-0.24853515625,0.9060999999999999
1.450381679389313,0.8396946564885496,-0.4732824427480916,-0.446044921875,-0.021240234375,-0.240478515625,0.9077999999999999
1.5725190839694656,0.7938931297709924,-0.6717557251908397,-0.44775390625,-0.021240234375,-0.23876953125,0.9095
1.618320610687023,0.9465648854961832,-0.4732824427480916,-0.4462890625,-0.02294921875,-0.25,0.9111999999999999
1.7251908396946565,0.9465648854961832,-0.5343511450381679,-0.447509765625,-0.026611328125,-0.23779296875,0.9128999999999999
1.633587786259542,0.7786259541984732,-0.42748091603053434,-0.4443359375,-0.023681640625,-0.25390625,0.9146
1.7099236641221374,0.9465648854961832,-0.5190839694656488,-0.44921875,-0.02685546875,-0.260986328125,0.9163
1.7251908396946565,1.0076335877862594,-0.4580152671755725,-0.44482421875,-0.02490234375,-0.251220703125,0.9179999999999999
1.83206106870229,0.9312977099236641,-0.549618320610687,-0.444091796875,-0.02392578125,-0.25341796875,0.9197
1.7404580152671756,0.7633587786259542,-0.5038167938931297,-0.4482421875,-0.01611328125,-0.243408203125,0.9214
1.6946564885496183,0.8396946564885496,-0.5343511450381679,-0.4453125,-0.023193359375,-0.24560546875,0.9230999999999999
1.7404580152671756,1.0381679389312977,-0.4122137404580153,-0.447509765625,-0.021240234375,-0.251220703125,0.9248
1.5114503816793894,1.0381679389312977,-0.5038167938931297,-0.44873046875,-0.025634765625,-0.24462890625,0.9265
1.7557251908396947,0.9465648854961832,-0.3511450381679389,-0.44873046875,-0.02294921875,-0.2451171875,0.9281999999999999
1.83206106870229,1.2366412213740459,-0.4732824427480916,-0.45068359375,-0.024658203125,-0.24560546875,0.9299
1.786259541984733,1.282442748091603,-0.6412213740458015,-0.448486328125,-0.01806640625,-0.25,0.9316
1.816793893129771,1.1908396946564885,-0.5648854961832062,-0.447021484375,-0.029052734375,-0.251953125,0.9332999999999999
1.9083969465648856,1.4961832061068703,-0.6564885496183206,-0.452392578125,-0.020263671875,-0.248046875,0.9349999999999999
1.8015267175572518,1.4809160305343512,-0.5954198473282443,-0.448486328125,-0.0244140625,-0.249267578125,0.9367
2.015267175572519,1.6488549618320612,-0.5343511450381679,-0.44775390625,-0.023193359375,-0.245361328125,0.9383999999999999
1.9694656488549618,1.7251908396946565,-0.7633587786259542,-0.4501953125,-0.0263671875,-0.24609375,0.9400999999999999
2.015267175572519,1.7099236641221374,-0.9007633587786259,-0.445556640625,-0.02099609375,-0.244140625,0.9418
2.122137404580153,1.8625954198473282,-0.9465648854961832,-0.4443359375,-0.02392578125,-0.2412109375,0.9434999999999999
1.984732824427481,1.8931297709923665,-1.0381679389312977,-0.44775390625,-0.017822265625,-0.2568359375,0.9451999999999999
1.9694656488549618,1.8473282442748091,-1.099236641221374,-0.444091796875,-0.02294921875,-0.24169921875,0.9469
2.198473282442748,1.9083969465648856,-1.0534351145038168,-0.447021484375,-0.025390625,-0.24853515625,0.9486
2.213740458015267,2.198473282442748,-1.0229007633587786,-0.46044921875,-0.024658203125,-0.247314453125,0.9502999999999999
2.2290076335877864,2.1068702290076335,-1.1145038167938932,-0.45068359375,-0.022216796875,-0.2578125,0.952
2.2290076335877864,2.045801526717557,-1.2366412213740459,-0.44873046875,-0.020263671875,-0.260009765625,0.9537
2.2748091603053435,2.16793893129771,-1.4198473282442747,-0.4462890625,-0.021728515625,-0.255126953125,0.9553999999999999
2.4580152671755724,2.16793893129771,-1.2061068702290076,-0.44921875,-0.022216796875,-0.246826171875,0.9571
2.5343511450381677,2.0610687022900764,-1.3893129770992367,-0.44873046875,-0.0244140625,-0.240966796875,0.9588
2.427480916030534,2.0610687022900764,-1.4351145038167938,-0.444580078125,-0.022216796875,-0.24560546875,0.9604999999999999
2.3053435114503817,1.9541984732824427,-1.5877862595419847,-0.448486328125,-0.020263671875,-0.2353515625,0.9621999999999999
2.3969465648854964,1.8931297709923665,-1.4809160305343512,-0.44580078125,-0.021240234375,-0.243896484375,0.9639
2.6412213740458017,2.2442748091603053,-1.6641221374045803,-0.447265625,-0.020263671875,-0.24560546875,0.9655999999999999
2.595419847328244,1.984732824427481,-1.5419847328244274,-0.444580078125,-0.023193359375,-0.247802734375,0.9672999999999999
2.564885496183206,1.8625954198473282,-1.7404580152671756,-0.44189453125,-0.02734375,-0.2353515625,0.969
2.564885496183206,1.7099236641221374,-1.7709923664122138,-0.440185546875,-0.0263671875,-0.242431640625,0.9706999999999999
2.549618320610687,1.83206106870229,-1.6793893129770991,-0.44482421875,-0.025634765625,-0.244873046875,0.9723999999999999
2.564885496183206,1.9236641221374047,-1.6488549618320612,-0.444580078125,-0.023681640625,-0.25390625,0.9741
2.5343511450381677,1.8015267175572518,-1.7099236641221374,-0.449462890625,-0.02001953125,-0.25341796875,0.9758
2.50381679389313,1.7251908396946565,-1.7251908396946565,-0.441162109375,-0.02392578125,-0.2451171875,0.9774999999999999
2.5343511450381677,1.7557251908396947,-1.83206106870229,-0.440185546875,-0.026123046875,-0.24609375,0.9792
2.763358778625954,1.7557251908396947,-1.816793893129771,-0.443115234375,-0.028564453125,-0.23876953125,0.9809
2.7480916030534353,1.7404580152671756,-1.6946564885496183,-0.44775390625,-0.026123046875,-0.25146484375,0.9825999999999999
2.6412213740458017,1.5877862595419847,-1.7709923664122138,-0.447021484375,-0.015869140625,-0.249755859375,0.9843
2.4427480916030535,1.7099236641221374,-1.816793893129771,-0.44189453125,-0.02197265625,-0.248046875,0.986
2.3206106870229006,1.6793893129770991,-1.633587786259542,-0.442626953125,-0.01953125,-0.24462890625,0.9876999999999999
2.4580152671755724,1.786259541984733,-1.6641221374045803,-0.43896484375,-0.02880859375,-0.25439453125,0.9894
2.4732824427480917,1.5572519083969465,-1.633587786259542,-0.443359375,-0.029052734375,-0.251220703125,0.9911
2.3206106870229006,1.5725190839694656,-1.7557251908396947,-0.448486328125,-0.02392578125,-0.24560546875,0.9927999999999999
2.381679389312977,1.5114503816793894,-1.816793893129771,-0.447998046875,-0.02734375,-0.246826171875,0.9944999999999999
2.351145038167939,1.450381679389313,-1.6641221374045803,-0.44921875,-0.024658203125,-0.251220703125,0.9962
2.33587786259542,1.4198473282442747,-1.3893129770992367,-0.448486328125,-0.02294921875,-0.25537109375,0.9978999999999999
2.4122137404580153,1.5267175572519085,-1.5725190839694656,-0.443603515625,-0.021728515625,-0.251953125,0.9995999999999999
2.5801526717557253,1.5114503816793894,-1.5725190839694656,-0.444091796875,-0.02685546875,-0.2470703125,1.0012999999999999
2.3206106870229006,1.4045801526717556,-1.5877862595419847,-0.4482421875,-0.02587890625,-0.245361328125,1.003
2.50381679389313,1.2213740458015268,-1.6030534351145038,-0.447265625,-0.026123046875,-0.251953125,1.0047
2.564885496183206,1.1450381679389312,-1.6641221374045803,-0.44580078125,-0.025146484375,-0.24755859375,1.0064
2.351145038167939,1.1755725190839694,-1.3282442748091603,-0.441650390625,-0.021240234375,-0.248291015625,1.0081
2.3969465648854964,1.1603053435114503,-1.5114503816793894,-0.4384765625,-0.0263671875,-0.248779296875,1.0098
2.366412213740458,1.0381679389312977,-1.4961832061068703,-0.446044921875,-0.025634765625,-0.25,1.0114999999999998
2.5343511450381677,1.0687022900763359,-1.7099236641221374,-0.43994140625,-0.025390625,-0.250732421875,1.0131999999999999
2.5343511450381677,1.2061068702290076,-1.4045801526717556,-0.443359375,-0.0224609375,-0.251708984375,1.0149
2.3969465648854964,1.1297709923664123,-1.5419847328244274,-0.44482421875,-0.026123046875,-0.2451171875,1.0166
2.4732824427480917,0.7480916030534351,-1.5419847328244274,-0.4462890625,-0.021728515625,-0.257080078125,1.0183
2.3969465648854964,0.9618320610687023,-1.4809160305343512,-0.441162109375,-0.0283203125,-0.25732421875,1.02
2.381679389312977,0.8702290076335878,-1.4809160305343512,-0.445556640625,-0.028076171875,-0.247802734375,1.0217
2.3969465648854964,0.7938931297709924,-1.465648854961832,-0.43994140625,-0.028076171875,-0.25439453125,1.0233999999999999
2.549618320610687,0.7022900763358778,-1.3129770992366412,-0.44580078125,-0.03271484375,-0.243896484375,1.0251
2.50381679389313,0.7175572519083969,-1.6793893129770991,-0.4443359375,-0.023681640625,-0.248046875,1.0268
2.50381679389313,0.5648854961832062,-1.6641221374045803,-0.447021484375,-0.02783203125,-0.251953125,1.0285
2.4427480916030535,0.6259541984732825,-1.6488549618320612,-0.439453125,-0.029052734375,-0.25,1.0302
2.4885496183206106,0.7480916030534351,-1.5114503816793894,-0.44580078125,-0.029052734375,-0.242919921875,1.0319
2.4580152671755724,0.6259541984732825,-1.7099236641221374,-0.447265625,-0.026611328125,-0.24658203125,1.0335999999999999
2.4732824427480917,0.6870229007633588,-1.7404580152671756,-0.444580078125,-0.025390625,-0.24462890625,1.0352999999999999
2.427480916030534,0.732824427480916,-1.7099236641221374,-0.447998046875,-0.023193359375,-0.245361328125,1.037
2.2595419847328246,0.6564885496183206,-1.450381679389313,-0.443359375,-0.02392578125,-0.246826171875,1.0387
2.3053435114503817,0.5190839694656488,-1.5877862595419847,-0.43994140625,-0.0263671875,-0.252197265625,1.0404
2.2442748091603053,0.5954198473282443,-1.8015267175572518,-0.441650390625,-0.024658203125,-0.2451171875,1.0421
2.1526717557251906,0.6106870229007634,-1.6641221374045803,-0.44140625,-0.02197265625,-0.248291015625,1.0437999999999998
2.1374045801526718,0.6106870229007634,-1.450381679389313,-0.443603515625,-0.031005859375,-0.2568359375,1.0454999999999999
2.366412213740458,0.32061068702290074,-1.5419847328244274,-0.443359375,-0.0322265625,-0.242431640625,1.0472
2.2900763358778624,0.3816793893129771,-1.5267175572519085,-0.443603515625,-0.0234375,-0.25244140625,1.0489
2.1526717557251906,0.549618320610687,-1.8015267175572518,-0.443359375,-0.030029296875,-0.245849609375,1.0506
2.1526717557251906,0.48854961832061067,-1.5419847328244274,-0.443115234375,-0.031005859375,-0.255126953125,1.0523
2.0916030534351147,0.5801526717557252,-1.786259541984733,-0.445556640625,-0.02294921875,-0.25390625,1.054
2.16793893129771,0.4580152671755725,-1.6488549618320612,-0.446044921875,-0.031494140625,-0.249267578125,1.0556999999999999
1.9083969465648856,0.42748091603053434,-1.5725190839694656,-0.4462890625,-0.024658203125,-0.25634765625,1.0574
2.1374045801526718,0.5343511450381679,-1.4809160305343512,-0.447021484375,-0.029052734375,-0.244873046875,1.0591
1.8473282442748091,0.3969465648854962,-1.7404580152671756,-0.444580078125,-0.02783203125,-0.25,1.0608
1.7709923664122138,0.366412213740458,-1.7557251908396947,-0.4404296875,-0.025634765625,-0.247314453125,1.0625
1.8778625954198473,0.48854961832061067,-1.8015267175572518,-0.44091796875,-0.0263671875,-0.241943359375,1.0642
1.8015267175572518,0.44274809160305345,-1.7099236641221374,-0.4453125,-0.027099609375,-0.240234375,1.0658999999999998
1.633587786259542,0.3053435114503817,-1.786259541984733,-0.4462890625,-0.02490234375,-0.25048828125,1.0675999999999999
1.7251908396946565,0.2748091603053435,-1.816793893129771,-0.44384765625,-0.02978515625,-0.25244140625,1.0693
1.7099236641221374,0.0916030534351145,-1.984732824427481,-0.446044921875,-0.03173828125,-0.250244140625,1.071
1.4809160305343512,0.0916030534351145,-1.786259541984733,-0.447021484375,-0.0263671875,-0.25341796875,1.0727
1.6641221374045803,0.15267175572519084,-1.8778625954198473,-0.441650390625,-0.02685546875,-0.24853515625,1.0744
1.6946564885496183,0.3816793893129771,-1.6793893129770991,-0.4453125,-0.02392578125,-0.250244140625,1.0760999999999998
1.7709923664122138,0.2595419847328244,-1.9694656488549618,-0.4501953125,-0.02783203125,-0.246337890625,1.0777999999999999
1.618320610687023,0.24427480916030533,-1.9389312977099236,-0.44580078125,-0.027099609375,-0.25146484375,1.0795
1.3893129770992367,0.24427480916030533,-1.8931297709923665,-0.44580078125,-0.02880859375,-0.248291015625,1.0812
1.4198473282442747,0.2748091603053435,-1.816793893129771,-0.44287109375,-0.02685546875,-0.2470703125,1.0829
1.3129770992366412,0.183206106870229,-1.9389312977099236,-0.4453125,-0.02880859375,-0.2529296875,1.0846
1.6641221374045803,0.10687022900763359,-1.8625954198473282,-0.44580078125,-0.02734375,-0.251953125,1.0863
1.450381679389313,0.183206106870229,-2.0763358778625953,-0.445068359375,-0.0263671875,-0.2568359375,1.0879999999999999
1.1908396946564885,0.0916030534351145,-1.83206106870229,-0.4453125,-0.02685546875,-0.2451171875,1.0897
1.1297709923664123,0.15267175572519084,-2.0,-0.4404296875,-0.023681640625,-0.24951171875,1.0914
1.6793893129770991,0.2900763358778626,-1.83206106870229,-0.4462890625,-0.0234375,-0.244140625,1.0931
1.3740458015267176,0.366412213740458,-1.8015267175572518,-0.445068359375,-0.023193359375,-0.246337890625,1.0948
1.297709923664122,0.12213740458015267,-1.7404580152671756,-0.4482421875,-0.024169921875,-0.257080078125,1.0965
1.2061068702290076,0.030534351145038167,-1.8931297709923665,-0.45068359375,-0.0244140625,-0.243896484375,1.0981999999999998
1.4961832061068703,0.12213740458015267,-1.8473282442748091,-0.447265625,-0.0234375,-0.249755859375,1.0998999999999999
1.2061068702290076,0.183206106870229,-1.83206106870229,-0.44775390625,-0.025390625,-0.251220703125,1.1016
1.3435114503816794,0.015267175572519083,-1.9541984732824427,-0.448486328125,-0.0302734375,-0.2451171875,1.1033
1.4045801526717556,0.21374045801526717,-1.8473282442748091,-0.443359375,-0.02392578125,-0.25,1.105
1.3893129770992367,0.2595419847328244,-1.8931297709923665,-0.447021484375,-0.029541015625,-0.248779296875,1.1067
1.3740458015267176,0.2748091603053435,-1.8015267175572518,-0.4453125,-0.02783203125,-0.242431640625,1.1083999999999998
1.3129770992366412,0.3969465648854962,-1.4961832061068703,-0.445556640625,-0.025390625,-0.244140625,1.1100999999999999
1.2671755725190839,0.2595419847328244,-1.984732824427481,-0.447021484375,-0.029052734375,-0.24560546875,1.1118
1.2671755725190839,0.3053435114503817,-1.5877862595419847,-0.447509765625,-0.0283203125,-0.246337890625,1.1135
1.4351145038167938,0.366412213740458,-1.6946564885496183,-0.4423828125,-0.02587890625,-0.2421875,1.1152
1.282442748091603,0.1984732824427481,-1.6641221374045803,-0.4453125,-0.026611328125,-0.24755859375,1.1169
1.1755725190839694,0.3816793893129771,-1.6793893129770991,-0.4462890625,-0.02392578125,-0.253662109375,1.1186
1.3893129770992367,0.48854961832061067,-1.5572519083969465,-0.448974609375,-0.029296875,-0.2490234375,1.1202999999999999
1.251908396946565,0.24427480916030533,-1.6793893129770991,-0.446533203125,-0.02685546875,-0.247314453125,1.1219999999999999
1.099236641221374,0.42748091603053434,-1.5877862595419847,-0.453369140625,-0.025634765625,-0.254638671875,1.1237
1.282442748091603,0.48854961832061067,-1.7404580152671756,-0.443359375,-0.03076171875,-0.24755859375,1.1254
1.2366412213740459,0.42748091603053434,-1.618320610687023,-0.442626953125,-0.026123046875,-0.240478515625,1.1271
1.3282442748091603,0.33587786259541985,-1.618320610687023,-0.447509765625,-0.02685546875,-0.240478515625,1.1288
1.4351145038167938,0.4732824427480916,-1.6030534351145038,-0.44677734375,-0.03125,-0.24169921875,1.1304999999999998
1.3435114503816794,0.4732824427480916,-1.633587786259542,-0.44921875,-0.028076171875,-0.23681640625,1.1321999999999999
1.4351145038167938,0.5343511450381679,-1.450381679389313,-0.449462890625,-0.022216796875,-0.246337890625,1.1339
1.3893129770992367,0.5343511450381679,-1.5877862595419847,-0.44189453125,-0.0224609375,-0.25,1.1356
1.3129770992366412,0.5343511450381679,-1.4809160305343512,-0.44482421875,-0.02587890625,-0.24951171875,1.1373
1.465648854961832,0.2900763358778626,-1.3282442748091603,-0.44482421875,-0.02490234375,-0.250732421875,1.139
1.4961832061068703,0.5648854961832062,-1.3587786259541985,-0.450927734375,-0.023193359375,-0.24609375,1.1407
1.4045801526717556,0.6259541984732825,-1.5877862595419847,-0.451171875,-0.02490234375,-0.236328125,1.1423999999999999
1.4198473282442747,0.6564885496183206,-1.4351145038167938,-0.447265625,-0.026611328125,-0.237548828125,1.1441
1.7709923664122138,0.7175572519083969,-1.5877862595419847,-0.452880859375,-0.027587890625,-0.2412109375,1.1458
1.618320610687023,0.7786259541984732,-1.3740458015267176,-0.44921875,-0.02783203125,-0.249267578125,1.1475
1.5877862595419847,0.732824427480916,-1.297709923664122,-0.450439453125,-0.023681640625,-0.249267578125,1.1492
1.5114503816793894,0.9618320610687023,-1.3129770992366412,-0.446533203125,-0.026123046875,-0.248046875,1.1509
1.6488549618320612,0.916030534351145,-1.465648854961832,-0.445068359375,-0.030029296875,-0.2431640625,1.1525999999999998
1.5419847328244274,0.9465648854961832,-1.3282442748091603,-0.443603515625,-0.0244140625,-0.244140625,1.1542999999999999
1.450381679389313,0.8396946564885496,-1.2061068702290076,-0.448486328125,-0.02734375,-0.249755859375,1.156
1.6030534351145038,0.9007633587786259,-1.251908396946565,-0.4462890625,-0.0224609375,-0.242919921875,1.1577
1.450381679389313,0.916030534351145,-1.1755725190839694,-0.445556640625,-0.027099609375,-0.247314453125,1.1594
1.465648854961832,0.5801526717557252,-1.2061068702290076,-0.445068359375,-0.027099609375,-0.23779296875,1.1611
1.633587786259542,0.7786259541984732,-1.1450381679389312,-0.4482421875,-0.03125,-0.243408203125,1.1627999999999998
1.5877862595419847,0.8396946564885496,-1.1908396946564885,-0.44775390625,-0.029541015625,-0.24560546875,1.1644999999999999
1.4045801526717556,0.7175572519083969,-1.297709923664122,-0.44775390625,-0.02734375,-0.245849609375,1.1662
1.5419847328244274,0.6870229007633588,-1.1145038167938932,-0.449462890625,-0.0283203125,-0.242919921875,1.1679
1.4961832061068703,0.8091603053435115,-1.2213740458015268,-0.446533203125,-0.030517578125,-0.245849609375,1.1696
1.5114503816793894,0.9923664122137404,-1.099236641221374,-0.44873046875,-0.026123046875,-0.25244140625,1.1713
1.4961832061068703,1.1450381679389312,-1.083969465648855,-0.44775390625,-0.02734375,-0.25048828125,1.173
1.3740458015267176,1.0381679389312977,-0.8396946564885496,-0.452880859375,-0.031982421875,-0.244384765625,1.1746999999999999
1.618320610687023,1.2061068702290076,-0.916030534351145,-0.447021484375,-0.0322265625,-0.24365234375,1.1764
1.618320610687023,1.251908396946565,-0.9923664122137404,-0.4501953125,-0.0263671875,-0.2490234375,1.1781
1.4809160305343512,1.2366412213740459,-0.9618320610687023,-0.450927734375,-0.03125,-0.25341796875,1.1798
1.4961832061068703,1.450381679389313,-0.9465648854961832,-0.44873046875,-0.023193359375,-0.251953125,1.1815
1.297709923664122,1.2061068702290076,-1.099236641221374,-0.44580078125,-0.02734375,-0.25439453125,1.1832
1.3740458015267176,1.3893129770992367,-0.9923664122137404,-0.44921875,-0.030029296875,-0.240966796875,1.1848999999999998
1.450381679389313,1.5877862595419847,-1.1450381679389312,-0.4501953125,-0.02587890625,-0.239501953125,1.1865999999999999
1.4198473282442747,1.5725190839694656,-1.0534351145038168,-0.449462890625,-0.029052734375,-0.244384765625,1.1883
1.2366412213740459,1.5419847328244274,-1.0076335877862594,-0.45166015625,-0.027099609375,-0.24072265625,1.19
1.6030534351145038,1.83206106870229,-0.9618320610687023,-0.45263671875,-0.0244140625,-0.244873046875,1.1917
1.3587786259541985,1.8015267175572518,-1.0381679389312977,-0.446533203125,-0.026123046875,-0.24462890625,1.1934
1.618320610687023,1.9389312977099236,-1.1450381679389312,-0.447509765625,-0.027587890625,-0.23876953125,1.1950999999999998
1.6488549618320612,1.8015267175572518,-1.3740458015267176,-0.44677734375,-0.01953125,-0.2451171875,1.1967999999999999
1.465648854961832,1.5725190839694656,-1.282442748091603,-0.443603515625,-0.02294921875,-0.248046875,1.1985
1.5877862595419847,1.8015267175572518,-1.1145038167938932,-0.44677734375,-0.026611328125,-0.234619140625,1.2002
1.618320610687023,1.8778625954198473,-1.3282442748091603,-0.445068359375,-0.0244140625,-0.246337890625,1.2019
1.465648854961832,1.633587786259542,-1.3740458015267176,-0.447509765625,-0.025634765625,-0.248291015625,1.2036
1.6793893129770991,1.7404580152671756,-1.3740458015267176,-0.443603515625,-0.02783203125,-0.24853515625,1.2053
1.83206106870229,1.9083969465648856,-1.3282442748091603,-0.445068359375,-0.024169921875,-0.2509765625,1.2069999999999999
1.5267175572519085,1.7557251908396947,-1.282442748091603,-0.448486328125,-0.025634765625,-0.239501953125,1.2086999999999999
1.5572519083969465,1.8931297709923665,-1.5877862595419847,-0.44970703125,-0.030029296875,-0.243896484375,1.2104
1.6488549618320612,1.9694656488549618,-1.1145038167938932,-0.451416015625,-0.025390625,-0.25048828125,1.2121
2.015267175572519,1.984732824427481,-1.3893129770992367,-0.44189453125,-0.0234375,-0.244873046875,1.2138
1.7557251908396947,1.83206106870229,-1.5572519083969465,-0.454345703125,-0.02734375,-0.247802734375,1.2155
1.5572519083969465,1.8778625954198473,-1.450381679389313,-0.44970703125,-0.0244140625,-0.25341796875,1.2171999999999998
1.7404580152671756,2.122137404580153,-1.5572519083969465,-0.44775390625,-0.0234375,-0.24267578125,1.2188999999999999
1.8015267175572518,2.1068702290076335,-1.282442748091603,-0.44873046875,-0.02587890625,-0.256591796875,1.2206
1.6946564885496183,2.183206106870229,-1.6641221374045803,-0.4501953125,-0.021728515625,-0.254638671875,1.2223
1.816793893129771,2.2290076335877864,-1.3893129770992367,-0.447265625,-0.0263671875,-0.255615234375,1.224
1.8931297709923665,2.2595419847328246,-1.4809160305343512,-0.452392578125,-0.0244140625,-0.243408203125,1.2257
1.6488549618320612,2.2595419847328246,-1.633587786259542,-0.45068359375,-0.028076171875,-0.2509765625,1.2273999999999998
1.618320610687023,2.351145038167939,-1.465648854961832,-0.449462890625,-0.0283203125,-0.2431640625,1.2290999999999999
1.5572519083969465,2.198473282442748,-1.2366412213740459,-0.449951171875,-0.028076171875,-0.248291015625,1.2308
1.6488549618320612,2.381679389312977,-1.2671755725190839,-0.451904296875,-0.03076171875,-0.24755859375,1.2325
1.7557251908396947,2.2900763358778624,-1.3740458015267176,-0.446044921875,-0.02880859375,-0.260498046875,1.2342
1.7099236641221374,2.2595419847328246,-1.2671755725190839,-0.44384765625,-0.029541015625,-0.247802734375,1.2359
1.786259541984733,2.3206106870229006,-1.1297709923664123,-0.4501953125,-0.025634765625,-0.24853515625,1.2376
1.7709923664122138,2.213740458015267,-1.1450381679389312,-0.448486328125,-0.026611328125,-0.252685546875,1.2392999999999998
1.4809160305343512,2.366412213740458,-1.1297709923664123,-0.4453125,-0.021240234375,-0.252197265625,1.2409999999999999
1.6488549618320612,2.2900763358778624,-1.251908396946565,-0.44482421875,-0.025390625,-0.24609375,1.2427
1.5419847328244274,2.366412213740458,-1.099236641221374,-0.44384765625,-0.02490234375,-0.250244140625,1.2444
1.5114503816793894,2.16793893129771,-1.1297709923664123,-0.44287109375,-0.02783203125,-0.25146484375,1.2461
1.7099236641221374,2.3053435114503817,-1.1297709923664123,-0.44482421875,-0.02783203125,-0.25732421875,1.2478
1.6946564885496183,2.183206106870229,-1.1145038167938932,-0.44677734375,-0.030517578125,-0.250244140625,1.2494999999999998
1.5725190839694656,2.2442748091603053,-1.0534351145038168,-0.44921875,-0.025634765625,-0.25390625,1.2511999999999999
1.7251908396946565,2.2595419847328246,-1.2366412213740459,-0.450439453125,-0.030029296875,-0.24951171875,1.2529
1.7709923664122138,2.351145038167939,-1.1145038167938932,-0.452392578125,-0.02880859375,-0.252685546875,1.2546
1.6030534351145038,2.2290076335877864,-0.9618320610687023,-0.447998046875,-0.0205078125,-0.255126953125,1.2563
1.5877862595419847,2.16793893129771,-0.8396946564885496,-0.442626953125,-0.025146484375,-0.24560546875,1.258
1.8625954198473282,2.2900763358778624,-0.9618320610687023,-0.443359375,-0.02294921875,-0.24560546875,1.2596999999999998
1.8015267175572518,2.2900763358778624,-0.9007633587786259,-0.442138671875,-0.023193359375,-0.246337890625,1.2613999999999999
1.7709923664122138,2.381679389312977,-0.9923664122137404,-0.450439453125,-0.02783203125,-0.2529296875,1.2631
1.7709923664122138,2.3206106870229006,-0.8702290076335878,-0.44189453125,-0.024169921875,-0.24853515625,1.2648
2.0,2.427480916030534,-1.0076335877862594,-0.44384765625,-0.0244140625,-0.24609375,1.2665
1.9083969465648856,2.4580152671755724,-1.2061068702290076,-0.446533203125,-0.026611328125,-0.2490234375,1.2682
1.9236641221374047,2.519083969465649,-0.9923664122137404,-0.4501953125,-0.021728515625,-0.241943359375,1.2699
1.8473282442748091,2.3206106870229006,-1.1450381679389312,-0.448486328125,-0.02197265625,-0.244873046875,1.2715999999999998
1.786259541984733,2.4885496183206106,-1.1297709923664123,-0.445068359375,-0.025146484375,-0.252197265625,1.2732999999999999
2.0,2.3969465648854964,-1.0076335877862594,-0.44677734375,-0.030029296875,-0.250244140625,1.275
1.8931297709923665,2.4580152671755724,-1.099236641221374,-0.4443359375,-0.028564453125,-0.24951171875,1.2767
1.8625954198473282,2.564885496183206,-1.099236641221374,-0.4443359375,-0.025634765625,-0.2431640625,1.2784
2.015267175572519,2.5343511450381677,-1.1145038167938932,-0.44677734375,-0.025146484375,-0.2470703125,1.2801
2.015267175572519,2.4885496183206106,-1.1297709923664123,-0.444580078125,-0.023193359375,-0.2490234375,1.2817999999999998
1.8015267175572518,2.427480916030534,-1.2213740458015268,-0.451171875,-0.02978515625,-0.24169921875,1.2834999999999999
1.8625954198473282,2.366412213740458,-1.1603053435114503,-0.44677734375,-0.028564453125,-0.245361328125,1.2852
1.984732824427481,2.549618320610687,-1.1908396946564885,-0.4462890625,-0.02783203125,-0.245361328125,1.2869
2.0763358778625953,2.5343511450381677,-1.2213740458015268,-0.443115234375,-0.02392578125,-0.247314453125,1.2886
1.786259541984733,2.366412213740458,-1.2671755725190839,-0.4453125,-0.01806640625,-0.261474609375,1.2903
2.045801526717557,2.33587786259542,-1.2671755725190839,-0.4404296875,-0.028076171875,-0.248046875,1.292
1.9236641221374047,2.519083969465649,-1.4351145038167938,-0.44140625,-0.030517578125,-0.24462890625,1.2936999999999999
1.9389312977099236,2.3206106870229006,-1.0687022900763359,-0.4443359375,-0.025146484375,-0.247802734375,1.2953999999999999
2.0,2.366412213740458,-1.4198473282442747,-0.440185546875,-0.030029296875,-0.2509765625,1.2971
2.1068702290076335,2.4427480916030535,-1.4809160305343512,-0.4482421875,-0.023193359375,-0.2578125,1.2988
1.8473282442748091,2.427480916030534,-1.2061068702290076,-0.447509765625,-0.01806640625,-0.253662109375,1.3005
2.183206106870229,2.50381679389313,-1.297709923664122,-0.44775390625,-0.02587890625,-0.25146484375,1.3022
1.83206106870229,2.2290076335877864,-1.5877862595419847,-0.438720703125,-0.025390625,-0.25,1.3038999999999998
1.8473282442748091,2.427480916030534,-1.3587786259541985,-0.44140625,-0.02001953125,-0.248291015625,1.3055999999999999
2.0916030534351147,2.4885496183206106,-1.3282442748091603,-0.448974609375,-0.021728515625,-0.257568359375,1.3073
2.0610687022900764,2.4122137404580153,-1.282442748091603,-0.451171875,-0.0224609375,-0.24462890625,1.309
2.2748091603053435,2.381679389312977,-1.5419847328244274,-0.4482421875,-0.0263671875,-0.25537109375,1.3107
1.8931297709923665,2.2900763358778624,-1.4809160305343512,-0.444580078125,-0.020263671875,-0.248046875,1.3124
2.0916030534351147,2.3206106870229006,-1.5725190839694656,-0.445068359375,-0.025390625,-0.2421875,1.3140999999999998
2.213740458015267,2.2900763358778624,-1.5877862595419847,-0.445556640625,-0.018310546875,-0.245361328125,1.3157999999999999
2.2595419847328246,2.427480916030534,-1.5572519083969465,-0.4443359375,-0.0263671875,-0.24658203125,1.3175
2.2442748091603053,2.3969465648854964,-1.3740458015267176,-0.440185546875,-0.02490234375,-0.240966796875,1.3192
2.4122137404580153,2.366412213740458,-1.3740458015267176,-0.443115234375,-0.02294921875,-0.250244140625,1.3209
2.33587786259542,2.427480916030534,-1.5267175572519085,-0.441162109375,-0.025390625,-0.24267578125,1.3226
2.351145038167939,2.3206106870229006,-1.4961832061068703,-0.44482421875,-0.021240234375,-0.24560546875,1.3243
2.2290076335877864,2.2290076335877864,-1.5419847328244274,-0.445068359375,-0.021240234375,-0.24560546875,1.3259999999999998
2.33587786259542,2.2442748091603053,-1.6641221374045803,-0.4443359375,-0.02685546875,-0.24853515625,1.3276999999999999
2.366412213740458,2.33587786259542,-1.5725190839694656,-0.44580078125,-0.027099609375,-0.245849609375,1.3294
2.549618320610687,2.427480916030534,-1.6641221374045803,-0.44580078125,-0.025634765625,-0.24462890625,1.3311
2.4580152671755724,2.33587786259542,-1.5572519083969465,-0.4443359375,-0.02392578125,-0.2490234375,1.3328
2.4427480916030535,2.3053435114503817,-1.6488549618320612,-0.44140625,-0.024169921875,-0.251953125,1.3345
2.3969465648854964,2.2595419847328246,-1.5877862595419847,-0.448974609375,-0.02197265625,-0.251220703125,1.3361999999999998
2.519083969465649,2.015267175572519,-1.8473282442748091,-0.442626953125,-0.02587890625,-0.25048828125,1.3378999999999999
2.549618320610687,1.984732824427481,-1.6946564885496183,-0.438720703125,-0.0283203125,-0.24609375,1.3396
2.183206106870229,2.213740458015267,-1.6641221374045803,-0.443359375,-0.02490234375,-0.255615234375,1.3413
2.381679389312977,2.1068702290076335,-1.6946564885496183,-0.443359375,-0.025634765625,-0.253173828125,1.343
2.6259541984732824,2.2290076335877864,-1.7557251908396947,-0.445068359375,-0.029541015625,-0.24462890625,1.3447
2.4427480916030535,2.0763358778625953,-1.6793893129770991,-0.444580078125,-0.02392578125,-0.247802734375,1.3463999999999998
2.33587786259542,2.1374045801526718,-1.6488549618320612,-0.445556640625,-0.02490234375,-0.24951171875,1.3480999999999999
2.2900763358778624,2.015267175572519,-1.6488549618320612,-0.44677734375,-0.025146484375,-0.248046875,1.3497999999999999
2.50381679389313,2.015267175572519,-1.83206106870229,-0.444580078125,-0.027099609375,-0.252685546875,1.3515
2.3053435114503817,2.045801526717557,-1.618320610687023,-0.443603515625,-0.028076171875,-0.249755859375,1.3532
2.381679389312977,2.045801526717557,-1.633587786259542,-0.44677734375,-0.026123046875,-0.258056640625,1.3549
2.6412213740458017,1.9236641221374047,-1.618320610687023,-0.442626953125,-0.030029296875,-0.2470703125,1.3566
2.687022900763359,1.9236641221374047,-1.6946564885496183,-0.44189453125,-0.025634765625,-0.24267578125,1.3582999999999998
2.4122137404580153,1.9694656488549618,-1.7099236641221374,-0.445556640625,-0.029052734375,-0.249755859375,1.3599999999999999
2.4427480916030535,2.015267175572519,-1.7404580152671756,-0.4462890625,-0.021484375,-0.251953125,1.3617
2.50381679389313,2.0,-1.5725190839694656,-0.442626953125,-0.02099609375,-0.241455078125,1.3634
2.4427480916030535,1.9694656488549618,-1.8625954198473282,-0.445556640625,-0.022216796875,-0.258544921875,1.3651
2.6412213740458017,1.9389312977099236,-1.633587786259542,-0.442138671875,-0.025390625,-0.25048828125,1.3668
2.564885496183206,1.7709923664122138,-1.83206106870229,-0.44287109375,-0.026123046875,-0.25634765625,1.3684999999999998
2.519083969465649,1.8015267175572518,-1.5419847328244274,-0.442626953125,-0.0244140625,-0.249755859375,1.3701999999999999
2.50381679389313,1.7557251908396947,-1.6030534351145038,-0.444091796875,-0.02685546875,-0.257568359375,1.3719
2.5801526717557253,1.7709923664122138,-1.5419847328244274,-0.445556640625,-0.0283203125,-0.2470703125,1.3736
2.549618320610687,1.7709923664122138,-1.5114503816793894,-0.444580078125,-0.0224609375,-0.253173828125,1.3753
2.50381679389313,1.7709923664122138,-1.5267175572519085,-0.444580078125,-0.02587890625,-0.25146484375,1.377
2.3206106870229006,1.7557251908396947,-1.618320610687023,-0.44482421875,-0.026123046875,-0.24755859375,1.3786999999999998
2.427480916030534,1.8473282442748091,-1.5877862595419847,-0.447509765625,-0.024169921875,-0.24853515625,1.3803999999999998
2.549618320610687,1.8473282442748091,-1.5877862595419847,-0.441162109375,-0.027587890625,-0.24658203125,1.3820999999999999
2.4122137404580153,1.816793893129771,-1.5267175572519085,-0.443603515625,-0.024169921875,-0.25634765625,1.3838
2.4885496183206106,1.8015267175572518,-1.786259541984733,-0.4443359375,-0.0263671875,-0.248046875,1.3855
2.6412213740458017,1.8015267175572518,-1.5267175572519085,-0.442138671875,-0.024169921875,-0.243408203125,1.3872
2.6259541984732824,1.7557251908396947,-1.3587786259541985,-0.442626953125,-0.0224609375,-0.239990234375,1.3889
2.7022900763358777,1.618320610687023,-1.4351145038167938,-0.443115234375,-0.019287109375,-0.2509765625,1.3905999999999998
2.5801526717557253,1.8473282442748091,-1.5572519083969465,-0.446533203125,-0.025146484375,-0.251220703125,1.3922999999999999
2.4122137404580153,1.6793893129770991,-1.6030534351145038,-0.440673828125,-0.0263671875,-0.25048828125,1.394
2.763358778625954,1.6488549618320612,-1.465648854961832,-0.447509765625,-0.024658203125,-0.252685546875,1.3957
2.2900763358778624,1.5725190839694656,-1.3435114503816794,-0.448486328125,-0.029052734375,-0.248291015625,1.3974
2.3969465648854964,1.6793893129770991,-1.5572519083969465,-0.448486328125,-0.026611328125,-0.25732421875,1.3991
2.763358778625954,1.5725190839694656,-1.3893129770992367,-0.447509765625,-0.02783203125,-0.2490234375,1.4007999999999998
2.549618320610687,1.633587786259542,-1.3740458015267176,-0.444091796875,-0.02294921875,-0.252685546875,1.4024999999999999
2.6564885496183206,1.633587786259542,-1.2366412213740459,-0.440673828125,-0.025146484375,-0.2509765625,1.4042
2.519083969465649,1.6488549618320612,-1.3282442748091603,-0.44189453125,-0.025146484375,-0.251220703125,1.4059
2.7022900763358777,1.3282442748091603,-1.3587786259541985,-0.445068359375,-0.0224609375,-0.25,1.4076
2.900763358778626,1.4198473282442747,-1.4045801526717556,-0.44384765625,-0.026123046875,-0.256591796875,1.4093
2.427480916030534,1.5114503816793894,-1.3282442748091603,-0.443359375,-0.028076171875,-0.254638671875,1.411
2.4732824427480917,1.4961832061068703,-1.2671755725190839,-0.445068359375,-0.022705078125,-0.25390625,1.4126999999999998
2.6717557251908395,1.5419847328244274,-1.1297709923664123,-0.446044921875,-0.03271484375,-0.25146484375,1.4143999999999999
2.3206106870229006,1.4351145038167938,-1.297709923664122,-0.44384765625,-0.02783203125,-0.250244140625,1.4161
2.50381679389313,1.4045801526717556,-1.1450381679389312,-0.44970703125,-0.026611328125,-0.2529296875,1.4178
2.549618320610687,1.4351145038167938,-1.3282442748091603,-0.44384765625,-0.0263671875,-0.254150390625,1.4195
2.4580152671755724,1.3893129770992367,-1.2671755725190839,-0.44970703125,-0.027587890625,-0.260498046875,1.4212
2.351145038167939,1.297709923664122,-1.0229007633587786,-0.4443359375,-0.031494140625,-0.252197265625,1.4228999999999998
2.3969465648854964,1.3893129770992367,-1.0381679389312977,-0.442626953125,-0.029541015625,-0.253662109375,1.4245999999999999
2.4122137404580153,1.3129770992366412,-1.083969465648855,-0.44287109375,-0.028564453125,-0.242919921875,1.4263
2.5801526717557253,1.3587786259541985,-0.9312977099236641,-0.4453125,-0.026611328125,-0.2421875,1.428
2.2595419847328246,1.5114503816793894,-1.0381679389312977,-0.444091796875,-0.027587890625,-0.244873046875,1.4297
2.2290076335877864,1.3587786259541985,-1.0229007633587786,-0.446533203125,-0.02392578125,-0.2490234375,1.4314
2.4427480916030535,1.4198473282442747,-0.7786259541984732,-0.446533203125,-0.021728515625,-0.25146484375,1.4330999999999998
2.4427480916030535,1.2061068702290076,-0.9923664122137404,-0.447021484375,-0.02783203125,-0.255615234375,1.4347999999999999
2.2595419847328246,1.4351145038167938,-1.1297709923664123,-0.443603515625,-0.026123046875,-0.24462890625,1.4364999999999999
2.2595419847328246,1.3893129770992367,-1.083969465648855,-0.44384765625,-0.027587890625,-0.253662109375,1.4382
2.2900763358778624,1.251908396946565,-0.9618320610687023,-0.446044921875,-0.028564453125,-0.24560546875,1.4399
2.381679389312977,1.3129770992366412,-0.9312977099236641,-0.445068359375,-0.028076171875,-0.259521484375,1.4416
2.3053435114503817,1.2213740458015268,-1.0229007633587786,-0.441650390625,-0.031982421875,-0.255615234375,1.4433
2.045801526717557,1.2213740458015268,-0.9312977099236641,-0.44189453125,-0.031982421875,-0.249755859375,1.4449999999999998
2.16793893129771,1.2061068702290076,-1.0076335877862594,-0.444580078125,-0.024658203125,-0.255126953125,1.4466999999999999
2.0763358778625953,1.2366412213740459,-0.9923664122137404,-0.443359375,-0.02734375,-0.254638671875,1.4484
2.122137404580153,1.1297709923664123,-1.0687022900763359,-0.446533203125,-0.025634765625,-0.2470703125,1.4501
1.8931297709923665,1.099236641221374,-0.8244274809160306,-0.448974609375,-0.023193359375,-0.2509765625,1.4518
2.213740458015267,1.1755725190839694,-1.0076335877862594,-0.447021484375,-0.021240234375,-0.254638671875,1.4535
2.122137404580153,1.1450381679389312,-0.9618320610687023,-0.44384765625,-0.026611328125,-0.25244140625,1.4551999999999998
2.0916030534351147,1.1297709923664123,-1.0534351145038168,-0.441650390625,-0.029052734375,-0.249267578125,1.4568999999999999
2.030534351145038,1.1755725190839694,-0.732824427480916,-0.439453125,-0.028076171875,-0.24462890625,1.4586
2.015267175572519,1.1908396946564885,-0.9465648854961832,-0.4453125,-0.024169921875,-0.252685546875,1.4603
1.7709923664122138,1.1297709923664123,-0.9618320610687023,-0.443359375,-0.02392578125,-0.249267578125,1.462
1.8473282442748091,1.1603053435114503,-0.9770992366412213,-0.44677734375,-0.030517578125,-0.252685546875,1.4637
2.030534351145038,1.0381679389312977,-1.099236641221374,-0.4453125,-0.029052734375,-0.2490234375,1.4653999999999998
1.9694656488549618,1.1755725190839694,-1.0229007633587786,-0.447265625,-0.026123046875,-0.254150390625,1.4670999999999998
1.7557251908396947,1.099236641221374,-1.0381679389312977,-0.436767578125,-0.025146484375,-0.249267578125,1.4687999999999999
1.8931297709923665,1.0534351145038168,-1.0687022900763359,-0.443359375,-0.025634765625,-0.247802734375,1.4705
1.816793893129771,1.2671755725190839,-1.0534351145038168,-0.447998046875,-0.0234375,-0.247314453125,1.4722
1.7557251908396947,1.2213740458015268,-0.9618320610687023,-0.44287109375,-0.029541015625,-0.253662109375,1.4739
1.83206106870229,1.2366412213740459,-1.0534351145038168,-0.439697265625,-0.02685546875,-0.251708984375,1.4756
1.6641221374045803,1.1755725190839694,-1.099236641221374,-0.448486328125,-0.02685546875,-0.239990234375,1.4772999999999998
1.8625954198473282,1.251908396946565,-0.9465648854961832,-0.447509765625,-0.0283203125,-0.250732421875,1.4789999999999999
1.5877862595419847,1.1450381679389312,-1.0381679389312977,-0.447021484375,-0.02685546875,-0.253662109375,1.4807
1.5267175572519085,1.282442748091603,-1.099236641221374,-0.444580078125,-0.028564453125,-0.251708984375,1.4824
1.6641221374045803,1.3587786259541985,-1.0381679389312977,-0.446044921875,-0.0302734375,-0.255126953125,1.4841
1.5572519083969465,1.4045801526717556,-1.0381679389312977,-0.44970703125,-0.024169921875,-0.247314453125,1.4858
1.4961832061068703,1.4045801526717556,-1.2366412213740459,-0.44677734375,-0.02685546875,-0.246337890625,1.4874999999999998
1.5419847328244274,1.1603053435114503,-1.099236641221374,-0.44580078125,-0.025634765625,-0.23974609375,1.4891999999999999
1.6641221374045803,1.3282442748091603,-1.2671755725190839,-0.447021484375,-0.02197265625,-0.24951171875,1.4909
1.5572519083969465,1.3587786259541985,-1.1145038167938932,-0.45556640625,-0.028564453125,-0.244140625,1.4926
1.3435114503816794,1.4198473282442747,-1.3435114503816794,-0.447998046875,-0.02099609375,-0.25634765625,1.4943
1.5725190839694656,1.3435114503816794,-1.2061068702290076,-0.444580078125,-0.023681640625,-0.255859375,1.496
1.4961832061068703,1.3282442748091603,-1.2671755725190839,-0.447265625,-0.025390625,-0.25341796875,1.4976999999999998
1.633587786259542,1.5572519083969465,-1.251908396946565,-0.442626953125,-0.01806640625,-0.25244140625,1.4993999999999998
1.6641221374045803,1.5572519083969465,-1.2366412213740459,-0.443115234375,-0.021240234375,-0.249755859375,1.5010999999999999
1.7099236641221374,1.5114503816793894,-1.3129770992366412,-0.446044921875,-0.02197265625,-0.250732421875,1.5028
1.465648854961832,1.5114503816793894,-1.4351145038167938,-0.447265625,-0.0283203125,-0.2470703125,1.5045
1.8473282442748091,1.7709923664122138,-0.9618320610687023,-0.445068359375,-0.023681640625,-0.255615234375,1.5062
1.7709923664122138,1.6946564885496183,-1.099236641221374,-0.448486328125,-0.0234375,-0.253662109375,1.5079
1.7099236641221374,1.7251908396946565,-1.2061068702290076,-0.4462890625,-0.02294921875,-0.252685546875,1.5095999999999998
1.6641221374045803,1.9541984732824427,-1.0687022900763359,-0.447998046875,-0.025146484375,-0.251953125,1.5112999999999999
1.7709923664122138,1.8473282442748091,-1.1603053435114503,-0.447509765625,-0.02490234375,-0.25048828125,1.513
1.8015267175572518,1.8778625954198473,-1.1297709923664123,-0.444580078125,-0.025146484375,-0.25927734375,1.5147
1.5877862595419847,1.9541984732824427,-1.0687022900763359,-0.450927734375,-0.022216796875,-0.253662109375,1.5164
1.7709923664122138,2.0916030534351147,-1.083969465648855,-0.45166015625,-0.019287109375,-0.251953125,1.5181
1.83206106870229,2.2595419847328246,-1.2366412213740459,-0.4541015625,-0.0244140625,-0.248291015625,1.5197999999999998
1.618320610687023,2.33587786259542,-1.1450381679389312,-0.4462890625,-0.02099609375,-0.240234375,1.5214999999999999
1.6641221374045803,2.3969465648854964,-1.0534351145038168,-0.449951171875,-0.0263671875,-0.249755859375,1.5231999999999999
1.8931297709923665,2.564885496183206,-0.9770992366412213,-0.447021484375,-0.02734375,-0.24951171875,1.5249
1.8778625954198473,2.7480916030534353,-0.9923664122137404,-0.448974609375,-0.023193359375,-0.251953125,1.5266
1.8473282442748091,2.6259541984732824,-1.2366412213740459,-0.4462890625,-0.025146484375,-0.25634765625,1.5283
1.8015267175572518,2.8091603053435112,-1.0381679389312977,-0.447021484375,-0.018798828125,-0.245849609375,1.5299999999999998
2.0,2.7786259541984735,-0.9465648854961832,-0.44970703125,-0.019775390625,-0.254638671875,1.5316999999999998
2.198473282442748,2.763358778625954,-1.1450381679389312,-0.4482421875,-0.02294921875,-0.260009765625,1.5333999999999999
1.9694656488549618,2.687022900763359,-1.1297709923664123,-0.448486328125,-0.024169921875,-0.259765625,1.5351
2.1526717557251906,2.6717557251908395,-1.1145038167938932,-0.445068359375,-0.0244140625,-0.25244140625,1.5368
2.1374045801526718,2.687022900763359,-0.9923664122137404,-0.44677734375,-0.02734375,-0.24658203125,1.5385
2.0916030534351147,2.4885496183206106,-0.9923664122137404,-0.44140625,-0.02880859375,-0.248291015625,1.5402
2.2595419847328246,2.5801526717557253,-1.0076335877862594,-0.447509765625,-0.0224609375,-0.244384765625,1.5418999999999998
2.0610687022900764,2.519083969465649,-0.9923664122137404,-0.443359375,-0.0244140625,-0.2587890625,1.5435999999999999
2.183206106870229,2.4122137404580153,-1.1145038167938932,-0.436279296875,-0.021484375,-0.251220703125,1.5453
2.198473282442748,2.183206106870229,-1.1603053435114503,-0.439453125,-0.02392578125,-0.252197265625,1.547
2.2900763358778624,2.2748091603053435,-1.0229007633587786,-0.4462890625,-0.024658203125,-0.251953125,1.5487
2.2290076335877864,2.33587786259542,-0.7786259541984732,-0.446044921875,-0.02294921875,-0.24560546875,1.5504
2.2748091603053435,2.015267175572519,-1.0381679389312977,-0.44091796875,-0.02880859375,-0.249267578125,1.5520999999999998
2.0916030534351147,2.0763358778625953,-1.1145038167938932,-0.440673828125,-0.025146484375,-0.248046875,1.5537999999999998
2.2595419847328246,2.2900763358778624,-0.8396946564885496,-0.445068359375,-0.023681640625,-0.25390625,1.5554999999999999
2.3053435114503817,2.213740458015267,-1.0687022900763359,-0.44384765625,-0.024169921875,-0.2548828125,1.5572
2.2442748091603053,1.9541984732824427,-0.8702290076335878,-0.440673828125,-0.026123046875,-0.255126953125,1.5589
2.381679389312977,1.9083969465648856,-0.9923664122137404,-0.43994140625,-0.025146484375,-0.259033203125,1.5606
2.3206106870229006,1.9541984732824427,-0.9312977099236641,-0.444580078125,-0.025146484375,-0.2529296875,1.5623
2.3053435114503817,1.8778625954198473,-0.9770992366412213,-0.43701171875,-0.024658203125,-0.249755859375,1.5639999999999998
2.519083969465649,1.9083969465648856,-0.916030534351145,-0.444580078125,-0.0244140625,-0.24853515625,1.5656999999999999
2.213740458015267,1.9694656488549618,-1.1145038167938932,-0.441650390625,-0.024658203125,-0.246826171875,1.5674
2.3053435114503817,1.7709923664122138,-1.1297709923664123,-0.443603515625,-0.026123046875,-0.247802734375,1.5691
2.5343511450381677,1.7099236641221374,-1.1145038167938932,-0.442138671875,-0.025146484375,-0.248291015625,1.5708
2.213740458015267,1.5114503816793894,-0.9312977099236641,-0.4423828125,-0.026611328125,-0.254638671875,1.5725
2.4122137404580153,1.5419847328244274,-1.0381679389312977,-0.441650390625,-0.029296875,-0.254150390625,1.5741999999999998
2.50381679389313,1.5572519083969465,-1.099236641221374,-0.442138671875,-0.026611328125,-0.25537109375,1.5758999999999999
2.50381679389313,1.4198473282442747,-1.083969465648855,-0.443115234375,-0.02734375,-0.248779296875,1.5776
2.4580152671755724,1.5114503816793894,-0.8854961832061069,-0.44287109375,-0.02783203125,-0.246826171875,1.5793
2.198473282442748,1.4045801526717556,-0.9618320610687023,-0.443359375,-0.025390625,-0.260009765625,1.581
2.2442748091603053,1.3282442748091603,-1.0534351145038168,-0.442626953125,-0.02294921875,-0.251953125,1.5827
2.2900763358778624,1.5267175572519085,-1.1450381679389312,-0.4453125,-0.021240234375,-0.255615234375,1.5843999999999998
2.4732824427480917,1.4809160305343512,-0.9312977099236641,-0.442626953125,-0.02197265625,-0.25439453125,1.5860999999999998
2.3206106870229006,1.2671755725190839,-1.0534351145038168,-0.445068359375,-0.023681640625,-0.25634765625,1.5877999999999999
2.198473282442748,1.3893129770992367,-1.0229007633587786,-0.443603515625,-0.025390625,-0.249267578125,1.5895
2.2900763358778624,1.282442748091603,-1.0381679389312977,-0.44287109375,-0.031982421875,-0.244140625,1.5912
2.549618320610687,1.3129770992366412,-0.7938931297709924,-0.441162109375,-0.01953125,-0.24951171875,1.5929
2.427480916030534,1.2671755725190839,-0.9923664122137404,-0.445068359375,-0.0244140625,-0.24267578125,1.5946
2.366412213740458,1.251908396946565,-0.9312977099236641,-0.44482421875,-0.031005859375,-0.245849609375,1.5962999999999998
2.2595419847328246,1.3435114503816794,-0.9923664122137404,-0.4423828125,-0.02294921875,-0.253173828125,1.5979999999999999
2.2442748091603053,1.2671755725190839,-0.8244274809160306,-0.448974609375,-0.0263671875,-0.259765625,1.5997
2.33587786259542,1.0687022900763359,-0.8854961832061069,-0.441162109375,-0.0234375,-0.25634765625,1.6014
2.4732824427480917,1.251908396946565,-1.099236641221374,-0.44580078125,-0.023193359375,-0.259521484375,1.6031
2.366412213740458,1.3282442748091603,-0.916030534351145,-0.444580078125,-0.028076171875,-0.2470703125,1.6048
2.366412213740458,1.3129770992366412,-0.9007633587786259,-0.446533203125,-0.024658203125,-0.25390625,1.6064999999999998
2.6412213740458017,1.4351145038167938,-0.8854961832061069,-0.44873046875,-0.02001953125,-0.261962890625,1.6081999999999999
2.366412213740458,1.282442748091603,-0.8091603053435115,-0.44287109375,-0.0244140625,-0.255126953125,1.6098999999999999
2.213740458015267,1.1450381679389312,-0.8854961832061069,-0.4423828125,-0.0263671875,-0.253173828125,1.6116
2.2748091603053435,1.1297709923664123,-0.7633587786259542,-0.44140625,-0.0224609375,-0.249267578125,1.6133
2.549618320610687,1.3282442748091603,-0.8702290076335878,-0.444091796875,-0.02294921875,-0.248779296875,1.615
2.183206106870229,1.3435114503816794,-0.7938931297709924,-0.43798828125,-0.023193359375,-0.24951171875,1.6166999999999998
2.2290076335877864,1.251908396946565,-0.7938931297709924,-0.446533203125,-0.025634765625,-0.24462890625,1.6183999999999998
2.595419847328244,1.2061068702290076,-0.7480916030534351,-0.449462890625,-0.02734375,-0.248779296875,1.6200999999999999
2.4427480916030535,1.1145038167938932,-0.8549618320610687,-0.4443359375,-0.021240234375,-0.253173828125,1.6218
2.381679389312977,1.3129770992366412,-0.8549618320610687,-0.44482421875,-0.026123046875,-0.2578125,1.6235
2.366412213740458,1.251908396946565,-0.916030534351145,-0.441162109375,-0.025146484375,-0.248779296875,1.6252
2.427480916030534,1.3893129770992367,-0.6106870229007634,-0.44189453125,-0.0224609375,-0.25,1.6269
2.519083969465649,1.2671755725190839,-0.7786259541984732,-0.443603515625,-0.021728515625,-0.248291015625,1.6285999999999998
2.3969465648854964,1.2366412213740459,-0.8091603053435115,-0.4521484375,-0.027587890625,-0.251953125,1.6302999999999999
2.4732824427480917,1.1755725190839694,-0.8091603053435115,-0.445068359375,-0.025146484375,-0.253173828125,1.632
2.50381679389313,1.282442748091603,-0.6259541984732825,-0.445068359375,-0.024658203125,-0.251220703125,1.6337
2.50381679389313,1.1603053435114503,-0.916030534351145,-0.44775390625,-0.0185546875,-0.245849609375,1.6354
2.4885496183206106,1.1297709923664123,-0.6717557251908397,-0.445068359375,-0.0185546875,-0.249755859375,1.6371
2.564885496183206,1.2366412213740459,-0.5954198473282443,-0.45263671875,-0.026123046875,-0.243896484375,1.6387999999999998
2.4885496183206106,1.2061068702290076,-0.6564885496183206,-0.4462890625,-0.024658203125,-0.254638671875,1.6404999999999998
2.519083969465649,1.1145038167938932,-0.7633587786259542,-0.447265625,-0.023193359375,-0.24951171875,1.6421999999999999
2.4427480916030535,1.3893129770992367,-0.8396946564885496,-0.443603515625,-0.019287109375,-0.247314453125,1.6439
2.4580152671755724,1.099236641221374,-0.916030534351145,-0.440673828125,-0.021728515625,-0.2490234375,1.6456
2.8396946564885495,1.1297709923664123,-0.7633587786259542,-0.445068359375,-0.0234375,-0.253662109375,1.6473
2.549618320610687,1.1297709923664123,-0.8244274809160306,-0.447265625,-0.029052734375,-0.2451171875,1.6489999999999998
2.519083969465649,1.0381679389312977,-0.732824427480916,-0.447021484375,-0.027587890625,-0.249267578125,1.6506999999999998
2.6259541984732824,1.0381679389312977,-1.0076335877862594,-0.444091796875,-0.028564453125,-0.237548828125,1.6523999999999999
2.854961832061069,1.1145038167938932,-0.9312977099236641,-0.44140625,-0.0234375,-0.249755859375,1.6541
2.5343511450381677,1.0687022900763359,-1.0687022900763359,-0.445068359375,-0.02294921875,-0.244140625,1.6558
2.6106870229007635,0.916030534351145,-0.8091603053435115,-0.44580078125,-0.02099609375,-0.249267578125,1.6575
2.8091603053435112,1.0229007633587786,-1.0076335877862594,-0.442626953125,-0.024169921875,-0.2548828125,1.6592
2.717557251908397,0.9923664122137404,-1.0229007633587786,-0.444580078125,-0.02734375,-0.257080078125,1.6608999999999998
2.7022900763358777,1.0534351145038168,-1.1755725190839694,-0.445068359375,-0.02685546875,-0.251220703125,1.6625999999999999
2.8244274809160306,1.0076335877862594,-1.0229007633587786,-0.446044921875,-0.02490234375,-0.255859375,1.6643
2.9770992366412212,0.9770992366412213,-1.2213740458015268,-0.44921875,-0.025634765625,-0.252685546875,1.666
2.8244274809160306,1.0381679389312977,-1.1603053435114503,-0.4462890625,-0.019287109375,-0.252685546875,1.6677
2.717557251908397,0.9007633587786259,-1.1450381679389312,-0.4453125,-0.0263671875,-0.253173828125,1.6694
2.7480916030534353,0.9923664122137404,-1.2061068702290076,-0.442138671875,-0.027587890625,-0.243896484375,1.6710999999999998
2.9618320610687023,0.9007633587786259,-1.3587786259541985,-0.446533203125,-0.025146484375,-0.2529296875,1.6727999999999998
3.0076335877862594,0.7938931297709924,-1.2213740458015268,-0.4443359375,-0.02783203125,-0.251708984375,1.6744999999999999
2.9160305343511452,0.9007633587786259,-1.2671755725190839,-0.445556640625,-0.025634765625,-0.253662109375,1.6762
2.9923664122137406,1.0687022900763359,-1.1908396946564885,-0.443603515625,-0.02685546875,-0.23828125,1.6779
2.946564885496183,0.8702290076335878,-1.4961832061068703,-0.443359375,-0.029052734375,-0.253173828125,1.6796
2.9160305343511452,0.7786259541984732,-1.450381679389313,-0.446044921875,-0.026123046875,-0.248779296875,1.6813
2.931297709923664,0.9465648854961832,-1.5267175572519085,-0.443603515625,-0.02685546875,-0.246337890625,1.6829999999999998
3.0229007633587788,0.9312977099236641,-1.3740458015267176,-0.437744140625,-0.022705078125,-0.244140625,1.6846999999999999
2.7938931297709924,0.8702290076335878,-1.4351145038167938,-0.441650390625,-0.02685546875,-0.24560546875,1.6864
2.9160305343511452,0.9618320610687023,-1.3282442748091603,-0.443359375,-0.0263671875,-0.246337890625,1.6881
3.068702290076336,1.0076335877862594,-1.6793893129770991,-0.4443359375,-0.02490234375,-0.2578125,1.6898
3.145038167938931,0.916030534351145,-1.4045801526717556,-0.4443359375,-0.0263671875,-0.246826171875,1.6915
3.0076335877862594,0.8702290076335878,-1.4198473282442747,-0.442138671875,-0.029296875,-0.250244140625,1.6931999999999998
2.931297709923664,0.9770992366412213,-1.3893129770992367,-0.442138671875,-0.024658203125,-0.251953125,1.6948999999999999
2.9618320610687023,0.9618320610687023,-1.6488549618320612,-0.441650390625,-0.029541015625,-0.250244140625,1.6965999999999999
2.8244274809160306,0.732824427480916,-1.3435114503816794,-0.445556640625,-0.02978515625,-0.249267578125,1.6983
2.564885496183206,0.9312977099236641,-1.4198473282442747,-0.438720703125,-0.028564453125,-0.250244140625,1.7
2.6717557251908395,0.7175572519083969,-1.297709923664122,-0.4423828125,-0.02783203125,-0.246826171875,1.7017
2.7022900763358777,0.7175572519083969,-1.450381679389313,-0.445556640625,-0.032470703125,-0.25244140625,1.7033999999999998
2.7022900763358777,0.8396946564885496,-1.251908396946565,-0.44970703125,-0.029052734375,-0.2470703125,1.7050999999999998
2.50381679389313,0.6870229007633588,-1.3893129770992367,-0.444091796875,-0.02783203125,-0.25146484375,1.7067999999999999
2.732824427480916,0.8091603053435115,-1.1908396946564885,-0.44580078125,-0.0263671875,-0.25634765625,1.7085
2.564885496183206,0.8244274809160306,-1.3282442748091603,-0.447509765625,-0.026123046875,-0.2470703125,1.7102
2.595419847328244,0.9007633587786259,-1.297709923664122,-0.452880859375,-0.030029296875,-0.250244140625,1.7119
2.4732824427480917,0.8091603053435115,-1.3740458015267176,-0.445068359375,-0.027099609375,-0.254638671875,1.7136
2.198473282442748,0.9312977099236641,-1.297709923664122,-0.4501953125,-0.02880859375,-0.253662109375,1.7152999999999998
2.427480916030534,1.083969465648855,-1.4045801526717556,-0.447021484375,-0.030517578125,-0.240234375,1.7169999999999999
2.4122137404580153,1.2213740458015268,-1.297709923664122,-0.4501953125,-0.029052734375,-0.250244140625,1.7187
2.030534351145038,1.1145038167938932,-1.251908396946565,-0.44970703125,-0.032470703125,-0.255126953125,1.7204
2.4122137404580153,1.3282442748091603,-1.1908396946564885,-0.45166015625,-0.018798828125,-0.25,1.7221
2.427480916030534,1.3893129770992367,-1.465648854961832,-0.447265625,-0.02490234375,-0.253173828125,1.7238
2.16793893129771,1.2366412213740459,-1.2671755725190839,-0.4501953125,-0.02392578125,-0.25341796875,1.7254999999999998
2.122137404580153,1.5419847328244274,-1.2671755725190839,-0.444580078125,-0.02490234375,-0.248046875,1.7271999999999998
2.16793893129771,1.4045801526717556,-1.3435114503816794,-0.446533203125,-0.031494140625,-0.25341796875,1.7288999999999999
2.198473282442748,1.4961832061068703,-1.297709923664122,-0.44677734375,-0.02783203125,-0.251220703125,1.7306
2.2442748091603053,1.6030534351145038,-1.282442748091603,-0.45166015625,-0.021484375,-0.244384765625,1.7323
2.183206106870229,1.816793893129771,-1.4045801526717556,-0.4521484375,-0.027099609375,-0.252197265625,1.734
2.1526717557251906,1.7709923664122138,-1.251908396946565,-0.454345703125,-0.027587890625,-0.255126953125,1.7356999999999998
2.1374045801526718,1.8015267175572518,-1.4809160305343512,-0.451416015625,-0.028076171875,-0.245849609375,1.7373999999999998
2.2595419847328246,1.8931297709923665,-1.3587786259541985,-0.444580078125,-0.027099609375,-0.251708984375,1.7390999999999999
1.9541984732824427,2.0,-1.7251908396946565,-0.443603515625,-0.0205078125,-0.249267578125,1.7408
2.015267175572519,1.984732824427481,-1.4961832061068703,-0.44775390625,-0.023193359375,-0.251220703125,1.7425
2.045801526717557,1.9389312977099236,-1.6946564885496183,-0.447509765625,-0.02490234375,-0.252197265625,1.7442
2.0,1.984732824427481,-1.5572519083969465,-0.44677734375,-0.0283203125,-0.2470703125,1.7459
2.16793893129771,1.9694656488549618,-1.6946564885496183,-0.44384765625,-0.02685546875,-0.246337890625,1.7475999999999998
2.198473282442748,1.8931297709923665,-1.6488549618320612,-0.44873046875,-0.028564453125,-0.250732421875,1.7492999999999999
2.0916030534351147,1.9083969465648856,-1.83206106870229,-0.44580078125,-0.029052734375,-0.2490234375,1.751
1.9389312977099236,1.816793893129771,-1.7251908396946565,-0.443359375,-0.0263671875,-0.250732421875,1.7527
1.9083969465648856,1.9083969465648856,-1.816793893129771,-0.442626953125,-0.028564453125,-0.259521484375,1.7544
1.9389312977099236,1.7557251908396947,-1.984732824427481,-0.445068359375,-0.0302734375,-0.24365234375,1.7561
1.8931297709923665,1.83206106870229,-2.0916030534351147,-0.442626953125,-0.025390625,-0.24658203125,1.7577999999999998
1.83206106870229,1.8473282442748091,-1.8778625954198473,-0.448486328125,-0.03515625,-0.2431640625,1.7594999999999998
1.83206106870229,1.8778625954198473,-2.0763358778625953,-0.443359375,-0.026611328125,-0.24560546875,1.7611999999999999
1.633587786259542,1.8778625954198473,-1.83206106870229,-0.44482421875,-0.028564453125,-0.2470703125,1.7629
1.4809160305343512,1.816793893129771,-1.9236641221374047,-0.44580078125,-0.02197265625,-0.250732421875,1.7646
1.5877862595419847,1.786259541984733,-1.984732824427481,-0.447265625,-0.027099609375,-0.25634765625,1.7663
1.2366412213740459,1.7557251908396947,-1.9236641221374047,-0.446044921875,-0.0263671875,-0.247314453125,1.7679999999999998
1.5725190839694656,1.786259541984733,-1.9694656488549618,-0.447265625,-0.035400390625,-0.2490234375,1.7696999999999998
1.6030534351145038,1.7557251908396947,-1.9541984732824427,-0.447509765625,-0.02783203125,-0.245361328125,1.7713999999999999
1.4351145038167938,1.8625954198473282,-1.9236641221374047,-0.45068359375,-0.031005859375,-0.253662109375,1.7731
1.4198473282442747,1.7404580152671756,-1.7709923664122138,-0.4482421875,-0.029052734375,-0.24609375,1.7748
1.099236641221374,1.9083969465648856,-2.015267175572519,-0.447509765625,-0.031494140625,-0.24853515625,1.7765
1.3282442748091603,1.786259541984733,-1.9236641221374047,-0.4443359375,-0.021240234375,-0.251953125,1.7782
1.099236641221374,1.8931297709923665,-1.8015267175572518,-0.44482421875,-0.0322265625,-0.24951171875,1.7798999999999998
1.2366412213740459,1.5572519083969465,-1.7709923664122138,-0.448486328125,-0.033935546875,-0.251220703125,1.7815999999999999
1.2213740458015268,1.6641221374045803,-1.7251908396946565,-0.451416015625,-0.031494140625,-0.24853515625,1.7832999999999999
0.8396946564885496,1.7709923664122138,-1.8625954198473282,-0.450439453125,-0.030029296875,-0.251953125,1.785
0.8396946564885496,1.6030534351145038,-1.8015267175572518,-0.444580078125,-0.026611328125,-0.239990234375,1.7867
0.8396946564885496,1.618320610687023,-1.7099236641221374,-0.445556640625,-0.025390625,-0.25390625,1.7884
0.9770992366412213,1.5877862595419847,-1.6641221374045803,-0.4501953125,-0.027587890625,-0.254150390625,1.7900999999999998
