gyrox1,gyroy1,gyroz1,accelx1,accely1,accelz1,Time
2.3206106870229006,1.7557251908396947,-2.2748091603053435,-0.428466796875,-0.007568359375,-0.297607421875,0.0
2.6259541984732824,1.6946564885496183,-2.595419847328244,-0.421875,-0.01416015625,-0.3076171875,0.0017
2.6564885496183206,1.4198473282442747,-2.6412213740458017,-0.4208984375,-0.010009765625,-0.300048828125,0.0034
2.3969465648854964,1.633587786259542,-2.6564885496183206,-0.423828125,-0.0126953125,-0.3037109375,0.0050999999999999995
2.50381679389313,1.7557251908396947,-2.549618320610687,-0.4267578125,-0.00537109375,-0.30078125,0.0068
2.50381679389313,1.633587786259542,-2.5343511450381677,-0.426513671875,-0.008056640625,-0.305419921875,0.008499999999999999
2.549618320610687,1.8625954198473282,-2.7786259541984735,-0.422119140625,-0.0087890625,-0.29345703125,0.010199999999999999
2.6259541984732824,1.83206106870229,-2.717557251908397,-0.4267578125,-0.0146484375,-0.306396484375,0.011899999999999999
2.564885496183206,1.7099236641221374,-2.6106870229007635,-0.42578125,-0.01220703125,-0.310302734375,0.0136
2.427480916030534,1.6793893129770991,-2.6564885496183206,-0.4248046875,-0.012939453125,-0.305908203125,0.0153
2.4427480916030535,1.8473282442748091,-2.6259541984732824,-0.4248046875,-0.0107421875,-0.30419921875,0.016999999999999998
2.50381679389313,1.6488549618320612,-2.7938931297709924,-0.42822265625,-0.01708984375,-0.304443359375,0.018699999999999998
2.4122137404580153,1.4961832061068703,-2.4732824427480917,-0.426513671875,-0.01318359375,-0.309814453125,0.020399999999999998
2.2595419847328246,1.6946564885496183,-2.7022900763358777,-0.42431640625,-0.015380859375,-0.30859375,0.022099999999999998
2.427480916030534,1.83206106870229,-2.564885496183206,-0.427734375,-0.015380859375,-0.30517578125,0.023799999999999998
2.2748091603053435,1.7404580152671756,-2.717557251908397,-0.427001953125,-0.0126953125,-0.307861328125,0.0255
2.4122137404580153,1.6488549618320612,-2.564885496183206,-0.426513671875,-0.010986328125,-0.3134765625,0.0272
2.549618320610687,1.6793893129770991,-2.4732824427480917,-0.4208984375,-0.012939453125,-0.31689453125,0.0289
2.366412213740458,1.5114503816793894,-2.4885496183206106,-0.420166015625,-0.016357421875,-0.30615234375,0.0306
2.2595419847328246,1.618320610687023,-2.4580152671755724,-0.424072265625,-0.013671875,-0.31005859375,0.032299999999999995
2.351145038167939,1.4198473282442747,-2.3206106870229006,-0.4248046875,-0.01513671875,-0.308349609375,0.033999999999999996
2.2290076335877864,1.5725190839694656,-2.519083969465649,-0.423583984375,-0.011962890625,-0.31494140625,0.035699999999999996
2.366412213740458,1.5877862595419847,-2.2900763358778624,-0.422607421875,-0.009765625,-0.2978515625,0.037399999999999996
2.366412213740458,1.5725190839694656,-2.4885496183206106,-0.42626953125,-0.011962890625,-0.303466796875,0.039099999999999996
2.2748091603053435,1.6793893129770991,-2.366412213740458,-0.430419921875,-0.017822265625,-0.304931640625,0.040799999999999996
2.4122137404580153,1.5725190839694656,-2.33587786259542,-0.422607421875,-0.01708984375,-0.310546875,0.042499999999999996
2.33587786259542,1.4961832061068703,-2.2595419847328246,-0.420654296875,-0.014404296875,-0.302490234375,0.044199999999999996
2.4580152671755724,1.6641221374045803,-2.4732824427480917,-0.423583984375,-0.017578125,-0.3056640625,0.045899999999999996
2.4732824427480917,1.4961832061068703,-2.381679389312977,-0.420654296875,-0.0126953125,-0.29833984375,0.047599999999999996
2.4580152671755724,1.633587786259542,-2.2290076335877864,-0.419921875,-0.012939453125,-0.3046875,0.0493
2.427480916030534,1.6793893129770991,-2.3206106870229006,-0.425048828125,-0.01806640625,-0.311279296875,0.051
2.6717557251908395,1.6641221374045803,-2.3053435114503817,-0.426025390625,-0.01806640625,-0.3115234375,0.0527
2.6259541984732824,1.465648854961832,-2.1526717557251906,-0.425537109375,-0.018798828125,-0.3056640625,0.0544
2.50381679389313,1.6946564885496183,-2.50381679389313,-0.419921875,-0.01953125,-0.304931640625,0.0561
2.549618320610687,1.5572519083969465,-2.3053435114503817,-0.424072265625,-0.011962890625,-0.30419921875,0.0578
2.595419847328244,1.5267175572519085,-2.351145038167939,-0.415771484375,-0.011962890625,-0.302490234375,0.0595
2.6106870229007635,1.3587786259541985,-2.1068702290076335,-0.422119140625,-0.01708984375,-0.302001953125,0.0612
2.519083969465649,1.1603053435114503,-2.2900763358778624,-0.423583984375,-0.014404296875,-0.297607421875,0.0629
2.6412213740458017,1.2213740458015268,-2.3053435114503817,-0.4208984375,-0.013671875,-0.292724609375,0.06459999999999999
2.5343511450381677,1.3740458015267176,-2.183206106870229,-0.422607421875,-0.015625,-0.304931640625,0.0663
2.4580152671755724,1.4045801526717556,-2.1374045801526718,-0.418701171875,-0.017578125,-0.3076171875,0.06799999999999999
2.8396946564885495,1.1145038167938932,-2.183206106870229,-0.416748046875,-0.017578125,-0.30615234375,0.0697
2.519083969465649,0.9923664122137404,-2.122137404580153,-0.417724609375,-0.013671875,-0.307373046875,0.07139999999999999
2.549618320610687,1.0534351145038168,-2.030534351145038,-0.4248046875,-0.0126953125,-0.304931640625,0.0731
2.6259541984732824,1.099236641221374,-2.122137404580153,-0.421142578125,-0.015869140625,-0.304931640625,0.07479999999999999
2.7022900763358777,0.9007633587786259,-2.045801526717557,-0.4208984375,-0.0146484375,-0.306884765625,0.0765
2.687022900763359,0.9770992366412213,-2.1068702290076335,-0.421142578125,-0.013671875,-0.302490234375,0.07819999999999999
2.427480916030534,1.2061068702290076,-2.0916030534351147,-0.427734375,-0.010009765625,-0.3017578125,0.0799
2.50381679389313,1.0534351145038168,-1.9083969465648856,-0.424072265625,-0.01171875,-0.301025390625,0.08159999999999999
2.5801526717557253,0.9465648854961832,-1.8931297709923665,-0.417724609375,-0.014892578125,-0.30029296875,0.0833
2.6717557251908395,0.732824427480916,-2.2595419847328246,-0.416748046875,-0.013916015625,-0.305419921875,0.08499999999999999
2.717557251908397,0.8549618320610687,-2.1068702290076335,-0.420166015625,-0.0146484375,-0.30615234375,0.0867
2.854961832061069,0.8549618320610687,-2.030534351145038,-0.425537109375,-0.012939453125,-0.29248046875,0.08839999999999999
2.8244274809160306,0.8854961832061069,-2.0610687022900764,-0.420654296875,-0.01513671875,-0.301513671875,0.0901
2.8396946564885495,0.8396946564885496,-2.2290076335877864,-0.41748046875,-0.010986328125,-0.298828125,0.09179999999999999
2.854961832061069,0.8244274809160306,-2.045801526717557,-0.419921875,-0.017333984375,-0.300048828125,0.0935
2.8244274809160306,0.8244274809160306,-2.0,-0.426513671875,-0.015869140625,-0.29931640625,0.09519999999999999
2.8091603053435112,0.916030534351145,-2.122137404580153,-0.4208984375,-0.01708984375,-0.30078125,0.0969
2.946564885496183,0.8396946564885496,-1.9541984732824427,-0.4228515625,-0.011962890625,-0.2978515625,0.0986
2.732824427480916,0.8854961832061069,-1.9236641221374047,-0.42236328125,-0.019775390625,-0.303955078125,0.1003
2.9618320610687023,0.7175572519083969,-2.0610687022900764,-0.42138671875,-0.01708984375,-0.313720703125,0.102
2.7022900763358777,0.7633587786259542,-1.7557251908396947,-0.4248046875,-0.016845703125,-0.3046875,0.1037
2.854961832061069,0.6870229007633588,-1.7099236641221374,-0.422119140625,-0.017578125,-0.3017578125,0.1054
2.6106870229007635,0.7022900763358778,-1.9083969465648856,-0.425048828125,-0.012451171875,-0.30126953125,0.1071
2.931297709923664,0.549618320610687,-2.045801526717557,-0.424560546875,-0.01708984375,-0.29931640625,0.1088
2.9160305343511452,0.48854961832061067,-1.8015267175572518,-0.417236328125,-0.016357421875,-0.30419921875,0.11049999999999999
2.9160305343511452,0.7022900763358778,-1.8625954198473282,-0.4208984375,-0.021728515625,-0.2978515625,0.1122
2.6412213740458017,0.6106870229007634,-1.816793893129771,-0.424072265625,-0.01611328125,-0.296875,0.11389999999999999
2.6412213740458017,0.32061068702290074,-1.8778625954198473,-0.42529296875,-0.017578125,-0.29833984375,0.1156
2.6259541984732824,0.5343511450381679,-1.7251908396946565,-0.42626953125,-0.01708984375,-0.302490234375,0.11729999999999999
2.7938931297709924,0.7175572519083969,-1.9236641221374047,-0.4267578125,-0.01806640625,-0.30029296875,0.119
2.50381679389313,0.6870229007633588,-1.7557251908396947,-0.42138671875,-0.012451171875,-0.296142578125,0.12069999999999999
2.717557251908397,0.4580152671755725,-1.7251908396946565,-0.42822265625,-0.013916015625,-0.303466796875,0.1224
2.732824427480916,0.6564885496183206,-1.7709923664122138,-0.42626953125,-0.016845703125,-0.2939453125,0.12409999999999999
2.717557251908397,0.6106870229007634,-1.8625954198473282,-0.4248046875,-0.016845703125,-0.303955078125,0.1258
2.854961832061069,0.5038167938931297,-1.8931297709923665,-0.4248046875,-0.017333984375,-0.30322265625,0.1275
2.6564885496183206,0.5954198473282443,-1.618320610687023,-0.427734375,-0.010986328125,-0.30517578125,0.12919999999999998
2.6259541984732824,0.6259541984732825,-1.786259541984733,-0.426513671875,-0.016845703125,-0.298095703125,0.1309
2.6106870229007635,0.5801526717557252,-1.7709923664122138,-0.426025390625,-0.020263671875,-0.2998046875,0.1326
2.8244274809160306,0.8549618320610687,-1.7557251908396947,-0.422119140625,-0.012451171875,-0.30419921875,0.1343
2.549618320610687,0.6870229007633588,-1.8931297709923665,-0.421630859375,-0.01806640625,-0.307373046875,0.13599999999999998
2.50381679389313,0.5343511450381679,-1.7251908396946565,-0.421630859375,-0.0166015625,-0.2978515625,0.1377
2.4885496183206106,0.6717557251908397,-1.786259541984733,-0.429931640625,-0.01513671875,-0.30029296875,0.1394
2.687022900763359,0.7633587786259542,-1.7099236641221374,-0.42578125,-0.0166015625,-0.306640625,0.1411
2.183206106870229,0.6106870229007634,-1.9694656488549618,-0.42578125,-0.018798828125,-0.301025390625,0.14279999999999998
2.1068702290076335,0.5801526717557252,-1.9083969465648856,-0.4228515625,-0.016357421875,-0.301513671875,0.1445
2.564885496183206,0.732824427480916,-1.8931297709923665,-0.42333984375,-0.019287109375,-0.300048828125,0.1462
2.427480916030534,0.6870229007633588,-1.6030534351145038,-0.421630859375,-0.01513671875,-0.30419921875,0.1479
2.33587786259542,0.5801526717557252,-1.984732824427481,-0.42431640625,-0.020263671875,-0.306640625,0.14959999999999998
2.16793893129771,0.6106870229007634,-1.5572519083969465,-0.41845703125,-0.022216796875,-0.3046875,0.1513
2.2900763358778624,0.48854961832061067,-1.6641221374045803,-0.423828125,-0.01904296875,-0.30810546875,0.153
2.213740458015267,0.44274809160305345,-1.4198473282442747,-0.42431640625,-0.021240234375,-0.30810546875,0.1547
2.16793893129771,0.549618320610687,-1.5725190839694656,-0.4267578125,-0.015380859375,-0.3017578125,0.15639999999999998
1.8625954198473282,0.5190839694656488,-1.786259541984733,-0.4248046875,-0.02099609375,-0.29345703125,0.1581
2.0763358778625953,0.4732824427480916,-1.8931297709923665,-0.4228515625,-0.019775390625,-0.296875,0.1598
2.213740458015267,0.4732824427480916,-1.7709923664122138,-0.425048828125,-0.020751953125,-0.29541015625,0.1615
2.213740458015267,0.2748091603053435,-1.7709923664122138,-0.427978515625,-0.020263671875,-0.298828125,0.16319999999999998
1.8778625954198473,0.4580152671755725,-1.450381679389313,-0.42431640625,-0.02001953125,-0.30419921875,0.1649
1.7099236641221374,0.5190839694656488,-1.8931297709923665,-0.423095703125,-0.020751953125,-0.296630859375,0.1666
2.0763358778625953,0.3053435114503817,-1.7557251908396947,-0.43017578125,-0.019287109375,-0.304931640625,0.16829999999999998
1.786259541984733,0.5038167938931297,-1.7557251908396947,-0.426513671875,-0.018310546875,-0.299072265625,0.16999999999999998
1.8625954198473282,0.3969465648854962,-1.6641221374045803,-0.42626953125,-0.01171875,-0.3017578125,0.1717
1.8625954198473282,0.33587786259541985,-1.5572519083969465,-0.426025390625,-0.025146484375,-0.300537109375,0.1734
1.7557251908396947,0.3816793893129771,-1.6030534351145038,-0.421630859375,-0.0224609375,-0.2958984375,0.17509999999999998
1.7709923664122138,0.4732824427480916,-1.7557251908396947,-0.424560546875,-0.024169921875,-0.294189453125,0.17679999999999998
1.6488549618320612,0.33587786259541985,-1.5267175572519085,-0.431884765625,-0.015380859375,-0.300048828125,0.1785
1.6946564885496183,0.366412213740458,-1.6946564885496183,-0.428466796875,-0.021728515625,-0.30517578125,0.1802
1.6641221374045803,0.24427480916030533,-1.6793893129770991,-0.42529296875,-0.021240234375,-0.302734375,0.18189999999999998
1.4351145038167938,0.2595419847328244,-1.618320610687023,-0.428955078125,-0.021484375,-0.29931640625,0.18359999999999999
1.4809160305343512,0.22900763358778625,-1.633587786259542,-0.426513671875,-0.017333984375,-0.294189453125,0.1853
1.4961832061068703,0.12213740458015267,-1.5877862595419847,-0.4248046875,-0.0205078125,-0.287109375,0.187
1.5419847328244274,0.4732824427480916,-1.633587786259542,-0.426025390625,-0.0234375,-0.2939453125,0.18869999999999998
1.4961832061068703,0.10687022900763359,-1.6793893129770991,-0.431396484375,-0.021240234375,-0.293701171875,0.19039999999999999
1.6030534351145038,0.2900763358778626,-1.4961832061068703,-0.427001953125,-0.017822265625,-0.2978515625,0.1921
1.4045801526717556,0.21374045801526717,-1.6641221374045803,-0.424072265625,-0.01611328125,-0.30419921875,0.1938
1.465648854961832,0.07633587786259542,-1.5419847328244274,-0.42626953125,-0.012451171875,-0.30224609375,0.19549999999999998
1.7404580152671756,0.10687022900763359,-1.5572519083969465,-0.427001953125,-0.016845703125,-0.297607421875,0.1972
1.633587786259542,0.22900763358778625,-1.6793893129770991,-0.42724609375,-0.02001953125,-0.2998046875,0.1989
1.5267175572519085,0.0,-1.6641221374045803,-0.42724609375,-0.01953125,-0.303466796875,0.2006
1.465648854961832,0.07633587786259542,-1.5114503816793894,-0.427001953125,-0.01806640625,-0.3046875,0.20229999999999998
1.297709923664122,0.2748091603053435,-1.6488549618320612,-0.422119140625,-0.017578125,-0.293701171875,0.204
1.465648854961832,0.22900763358778625,-1.3129770992366412,-0.42431640625,-0.016357421875,-0.306396484375,0.2057
1.465648854961832,0.4122137404580153,-1.618320610687023,-0.427734375,-0.0146484375,-0.298828125,0.2074
1.450381679389313,0.2595419847328244,-1.5114503816793894,-0.4267578125,-0.015869140625,-0.294921875,0.20909999999999998
1.465648854961832,0.10687022900763359,-1.5114503816793894,-0.42578125,-0.015869140625,-0.296875,0.2108
1.4809160305343512,0.48854961832061067,-1.4961832061068703,-0.427490234375,-0.01953125,-0.30419921875,0.2125
1.3893129770992367,0.32061068702290074,-1.465648854961832,-0.434814453125,-0.02001953125,-0.301025390625,0.2142
1.3282442748091603,0.4580152671755725,-1.5877862595419847,-0.424560546875,-0.01904296875,-0.300048828125,0.21589999999999998
1.5419847328244274,0.3969465648854962,-1.4809160305343512,-0.425537109375,-0.015380859375,-0.2861328125,0.2176
1.5877862595419847,0.4122137404580153,-1.3129770992366412,-0.42626953125,-0.016845703125,-0.302490234375,0.2193
1.5419847328244274,0.5801526717557252,-1.4198473282442747,-0.431640625,-0.01708984375,-0.305419921875,0.22099999999999997
1.4045801526717556,0.5190839694656488,-1.5267175572519085,-0.427001953125,-0.021240234375,-0.29736328125,0.22269999999999998
1.5725190839694656,0.4580152671755725,-1.3435114503816794,-0.428466796875,-0.0185546875,-0.295166015625,0.2244
1.3282442748091603,0.6564885496183206,-1.2213740458015268,-0.42626953125,-0.01953125,-0.30322265625,0.2261
1.3282442748091603,0.5190839694656488,-1.3893129770992367,-0.430419921875,-0.017333984375,-0.300537109375,0.22779999999999997
1.3129770992366412,0.5190839694656488,-1.2061068702290076,-0.427001953125,-0.01953125,-0.296630859375,0.22949999999999998
1.633587786259542,0.5954198473282443,-1.2366412213740459,-0.429443359375,-0.0224609375,-0.298095703125,0.2312
1.3740458015267176,0.6717557251908397,-1.3435114503816794,-0.423583984375,-0.02099609375,-0.3046875,0.2329
1.4045801526717556,0.732824427480916,-1.2213740458015268,-0.42431640625,-0.02197265625,-0.296142578125,0.23459999999999998
1.4961832061068703,0.6106870229007634,-1.2213740458015268,-0.4267578125,-0.018798828125,-0.29638671875,0.23629999999999998
1.465648854961832,0.7175572519083969,-1.083969465648855,-0.426513671875,-0.02099609375,-0.295166015625,0.238
1.5877862595419847,0.7175572519083969,-0.9465648854961832,-0.423583984375,-0.023193359375,-0.29833984375,0.2397
1.6488549618320612,0.8702290076335878,-1.0229007633587786,-0.428466796875,-0.021484375,-0.29638671875,0.24139999999999998
1.2061068702290076,0.7633587786259542,-1.1297709923664123,-0.428955078125,-0.020751953125,-0.298095703125,0.24309999999999998
1.3129770992366412,0.7022900763358778,-1.0381679389312977,-0.427490234375,-0.01513671875,-0.305419921875,0.2448
1.7251908396946565,1.083969465648855,-1.0381679389312977,-0.426513671875,-0.017822265625,-0.309814453125,0.2465
1.5419847328244274,1.0076335877862594,-0.7633587786259542,-0.424560546875,-0.014404296875,-0.30859375,0.24819999999999998
1.4961832061068703,0.8549618320610687,-0.8702290076335878,-0.43017578125,-0.015625,-0.306396484375,0.24989999999999998
1.2671755725190839,1.099236641221374,-1.0687022900763359,-0.430908203125,-0.015380859375,-0.302978515625,0.2516
1.3740458015267176,0.8396946564885496,-1.0381679389312977,-0.42919921875,-0.020263671875,-0.303955078125,0.25329999999999997
1.5114503816793894,0.916030534351145,-0.8854961832061069,-0.43017578125,-0.02197265625,-0.298583984375,0.255
1.4198473282442747,1.0076335877862594,-1.0076335877862594,-0.427734375,-0.017822265625,-0.2978515625,0.2567
1.3740458015267176,1.1297709923664123,-0.9312977099236641,-0.42724609375,-0.01806640625,-0.294921875,0.25839999999999996
1.3893129770992367,1.0687022900763359,-0.8702290076335878,-0.428955078125,-0.021484375,-0.297607421875,0.2601
1.3435114503816794,1.0687022900763359,-0.6870229007633588,-0.4267578125,-0.020263671875,-0.309326171875,0.2618
1.083969465648855,1.1297709923664123,-0.7175572519083969,-0.425537109375,-0.01904296875,-0.2998046875,0.2635
1.3587786259541985,1.1297709923664123,-0.8396946564885496,-0.425537109375,-0.017578125,-0.29638671875,0.2652
1.4961832061068703,1.1755725190839694,-0.8549618320610687,-0.4296875,-0.017822265625,-0.301025390625,0.26689999999999997
1.282442748091603,1.3129770992366412,-0.7022900763358778,-0.42578125,-0.0224609375,-0.29736328125,0.2686
1.2213740458015268,1.4351145038167938,-0.7022900763358778,-0.42822265625,-0.020263671875,-0.29833984375,0.2703
1.2061068702290076,1.282442748091603,-0.9465648854961832,-0.428466796875,-0.01904296875,-0.295654296875,0.27199999999999996
1.0076335877862594,1.3129770992366412,-0.6870229007633588,-0.431884765625,-0.017578125,-0.289794921875,0.2737
1.1755725190839694,1.3893129770992367,-0.732824427480916,-0.4296875,-0.01318359375,-0.29541015625,0.2754
1.1145038167938932,1.3740458015267176,-0.5648854961832062,-0.4248046875,-0.02001953125,-0.302734375,0.27709999999999996
0.8091603053435115,1.4809160305343512,-0.3969465648854962,-0.426025390625,-0.017578125,-0.295654296875,0.2788
1.0229007633587786,1.4809160305343512,-0.8549618320610687,-0.427490234375,-0.01806640625,-0.295166015625,0.28049999999999997
1.099236641221374,1.450381679389313,-0.732824427480916,-0.431396484375,-0.012939453125,-0.29833984375,0.2822
0.9770992366412213,1.5572519083969465,-0.4732824427480916,-0.428466796875,-0.02001953125,-0.29833984375,0.2839
0.9923664122137404,1.5267175572519085,-0.6412213740458015,-0.429931640625,-0.0185546875,-0.2998046875,0.28559999999999997
0.7633587786259542,1.4351145038167938,-0.732824427480916,-0.43310546875,-0.020751953125,-0.301025390625,0.2873
0.7175572519083969,1.5267175572519085,-0.8396946564885496,-0.429443359375,-0.0185546875,-0.30029296875,0.289
0.7633587786259542,1.8625954198473282,-0.5801526717557252,-0.42138671875,-0.021484375,-0.297119140625,0.29069999999999996
0.8549618320610687,1.5114503816793894,-0.5343511450381679,-0.423095703125,-0.021240234375,-0.30322265625,0.2924
0.8702290076335878,1.4961832061068703,-0.5648854961832062,-0.424072265625,-0.01611328125,-0.300537109375,0.2941
0.2900763358778626,1.5572519083969465,-0.732824427480916,-0.427001953125,-0.01611328125,-0.3017578125,0.2958
0.7175572519083969,1.618320610687023,-0.8091603053435115,-0.431640625,-0.0166015625,-0.298095703125,0.2975
0.7938931297709924,1.8473282442748091,-0.732824427480916,-0.4287109375,-0.01806640625,-0.30029296875,0.29919999999999997
0.4122137404580153,1.8473282442748091,-0.6259541984732825,-0.429443359375,-0.01904296875,-0.299560546875,0.3009
0.4732824427480916,1.816793893129771,-0.6717557251908397,-0.426513671875,-0.01953125,-0.297607421875,0.3026
0.4732824427480916,1.7709923664122138,-0.6412213740458015,-0.42333984375,-0.0185546875,-0.306640625,0.30429999999999996
0.48854961832061067,1.7251908396946565,-0.6564885496183206,-0.42822265625,-0.015380859375,-0.294677734375,0.306
0.4580152671755725,1.5877862595419847,-0.732824427480916,-0.425537109375,-0.015625,-0.3056640625,0.3077
0.6564885496183206,1.7709923664122138,-0.7175572519083969,-0.431884765625,-0.017578125,-0.300048828125,0.3094
0.4732824427480916,1.9083969465648856,-0.916030534351145,-0.427734375,-0.021240234375,-0.302001953125,0.3111
0.7786259541984732,1.6946564885496183,-0.8091603053435115,-0.424072265625,-0.01904296875,-0.302978515625,0.31279999999999997
0.183206106870229,1.8625954198473282,-0.8091603053435115,-0.422607421875,-0.01806640625,-0.305419921875,0.3145
0.04580152671755725,2.0763358778625953,-0.7633587786259542,-0.4267578125,-0.017578125,-0.295166015625,0.3162
0.24427480916030533,1.7404580152671756,-0.6412213740458015,-0.42724609375,-0.0224609375,-0.303955078125,0.31789999999999996
0.1984732824427481,1.7099236641221374,-0.6412213740458015,-0.424560546875,-0.017578125,-0.3017578125,0.3196
0.3053435114503817,1.8473282442748091,-0.8244274809160306,-0.425537109375,-0.016357421875,-0.298583984375,0.3213
0.48854961832061067,1.6793893129770991,-0.6564885496183206,-0.427001953125,-0.013916015625,-0.2998046875,0.323
0.33587786259541985,1.83206106870229,-0.8091603053435115,-0.4267578125,-0.01416015625,-0.301513671875,0.3247
0.24427480916030533,1.6488549618320612,-0.6870229007633588,-0.429443359375,-0.013427734375,-0.30322265625,0.32639999999999997
0.2748091603053435,1.5877862595419847,-0.7786259541984732,-0.423095703125,-0.021240234375,-0.3017578125,0.3281
0.22900763358778625,1.8625954198473282,-0.916030534351145,-0.418212890625,-0.0205078125,-0.299560546875,0.3298
0.183206106870229,1.5114503816793894,-0.9007633587786259,-0.42431640625,-0.018798828125,-0.295166015625,0.33149999999999996
0.3511450381679389,1.4809160305343512,-1.1297709923664123,-0.43701171875,-0.01611328125,-0.2919921875,0.3332
0.1984732824427481,1.633587786259542,-0.9618320610687023,-0.427734375,-0.02099609375,-0.301513671875,0.3349
0.04580152671755725,1.5114503816793894,-0.8244274809160306,-0.426513671875,-0.015380859375,-0.298095703125,0.33659999999999995
0.33587786259541985,1.633587786259542,-0.9770992366412213,-0.420166015625,-0.0166015625,-0.30419921875,0.3383
0.21374045801526717,1.5419847328244274,-0.916030534351145,-0.423095703125,-0.01904296875,-0.298828125,0.33999999999999997
0.1984732824427481,1.5572519083969465,-1.1755725190839694,-0.423583984375,-0.01318359375,-0.297119140625,0.3417
0.3511450381679389,1.5725190839694656,-0.7938931297709924,-0.429443359375,-0.01171875,-0.307861328125,0.3434
0.2748091603053435,1.6641221374045803,-1.0381679389312977,-0.429931640625,-0.015625,-0.30078125,0.34509999999999996
0.3053435114503817,1.618320610687023,-1.0229007633587786,-0.428466796875,-0.011962890625,-0.298828125,0.3468
0.10687022900763359,1.6793893129770991,-1.0076335877862594,-0.425537109375,-0.0185546875,-0.298095703125,0.3485
0.24427480916030533,1.6641221374045803,-0.9007633587786259,-0.425537109375,-0.009765625,-0.294921875,0.35019999999999996
0.3053435114503817,1.6030534351145038,-0.8702290076335878,-0.431884765625,-0.013427734375,-0.2978515625,0.3519
0.183206106870229,1.7557251908396947,-0.9770992366412213,-0.42626953125,-0.0234375,-0.2958984375,0.35359999999999997
0.183206106870229,1.4961832061068703,-0.9465648854961832,-0.42626953125,-0.0146484375,-0.297607421875,0.3553
-0.015267175572519083,1.6488549618320612,-0.8549618320610687,-0.426513671875,-0.013671875,-0.298095703125,0.357
0.04580152671755725,1.618320610687023,-1.0381679389312977,-0.42626953125,-0.010986328125,-0.299072265625,0.35869999999999996
0.183206106870229,1.7099236641221374,-0.9923664122137404,-0.427490234375,-0.013671875,-0.305908203125,0.3604
0.21374045801526717,1.8473282442748091,-0.9618320610687023,-0.4287109375,-0.0146484375,-0.29931640625,0.3621
0.2748091603053435,1.9694656488549618,-0.9312977099236641,-0.427734375,-0.013671875,-0.3017578125,0.36379999999999996
0.32061068702290074,1.8015267175572518,-0.9465648854961832,-0.428466796875,-0.014892578125,-0.294677734375,0.3655
0.2748091603053435,1.816793893129771,-0.9618320610687023,-0.424072265625,-0.013671875,-0.305908203125,0.36719999999999997
0.13740458015267176,2.0763358778625953,-1.0381679389312977,-0.424072265625,-0.017333984375,-0.312744140625,0.3689
0.21374045801526717,2.045801526717557,-0.9923664122137404,-0.4267578125,-0.011962890625,-0.309814453125,0.3706
0.42748091603053434,1.9541984732824427,-0.9465648854961832,-0.4306640625,-0.00732421875,-0.3056640625,0.37229999999999996
-0.10687022900763359,2.183206106870229,-0.6870229007633588,-0.42529296875,-0.01708984375,-0.30322265625,0.374
0.42748091603053434,1.984732824427481,-0.7175572519083969,-0.427490234375,-0.015869140625,-0.30078125,0.3757
0.2900763358778626,1.9389312977099236,-1.0229007633587786,-0.42529296875,-0.01318359375,-0.30517578125,0.37739999999999996
0.3511450381679389,2.1068702290076335,-0.8549618320610687,-0.42626953125,-0.01953125,-0.30517578125,0.3791
0.21374045801526717,2.1374045801526718,-0.7022900763358778,-0.43115234375,-0.01318359375,-0.304931640625,0.38079999999999997
0.16793893129770993,2.183206106870229,-0.8091603053435115,-0.426513671875,-0.00927734375,-0.298095703125,0.38249999999999995
0.2748091603053435,2.213740458015267,-0.7480916030534351,-0.430908203125,-0.0166015625,-0.300048828125,0.3842
0.2595419847328244,2.198473282442748,-0.8396946564885496,-0.4296875,-0.009521484375,-0.29443359375,0.38589999999999997
0.2900763358778626,2.3053435114503817,-0.7480916030534351,-0.426513671875,-0.01123046875,-0.294677734375,0.3876
0.42748091603053434,2.0763358778625953,-0.9312977099236641,-0.427978515625,-0.013671875,-0.301513671875,0.3893
0.42748091603053434,2.4732824427480917,-0.8396946564885496,-0.42529296875,-0.013916015625,-0.30322265625,0.39099999999999996
0.4732824427480916,2.3053435114503817,-0.9007633587786259,-0.42578125,-0.01025390625,-0.30517578125,0.3927
0.3969465648854962,2.2442748091603053,-0.5648854961832062,-0.427734375,-0.013671875,-0.30615234375,0.3944
0.366412213740458,2.3053435114503817,-0.8702290076335878,-0.42236328125,-0.011474609375,-0.302001953125,0.39609999999999995
0.33587786259541985,2.366412213740458,-0.6564885496183206,-0.429443359375,-0.014892578125,-0.293212890625,0.3978
0.6259541984732825,2.381679389312977,-0.8091603053435115,-0.42919921875,-0.015625,-0.302001953125,0.39949999999999997
0.549618320610687,2.3969465648854964,-0.7175572519083969,-0.427734375,-0.01416015625,-0.308837890625,0.4012
0.4122137404580153,2.2290076335877864,-0.7022900763358778,-0.427978515625,-0.00927734375,-0.3037109375,0.4029
0.2900763358778626,2.351145038167939,-0.8549618320610687,-0.43115234375,-0.01220703125,-0.29833984375,0.40459999999999996
0.5343511450381679,2.427480916030534,-0.9312977099236641,-0.42236328125,-0.010498046875,-0.3037109375,0.4063
0.7022900763358778,2.2900763358778624,-0.6259541984732825,-0.4248046875,-0.012451171875,-0.3017578125,0.408
0.6412213740458015,2.4122137404580153,-0.8702290076335878,-0.421875,-0.0146484375,-0.303955078125,0.40969999999999995
0.7633587786259542,2.4580152671755724,-0.8549618320610687,-0.420654296875,-0.018310546875,-0.294921875,0.4114
0.7022900763358778,2.3053435114503817,-0.6106870229007634,-0.422607421875,-0.015380859375,-0.2978515625,0.41309999999999997
0.33587786259541985,2.4122137404580153,-0.5954198473282443,-0.4248046875,-0.012939453125,-0.297607421875,0.4148
0.6717557251908397,2.549618320610687,-0.8091603053435115,-0.427001953125,-0.011474609375,-0.296630859375,0.4165
0.732824427480916,2.3969465648854964,-0.549618320610687,-0.420654296875,-0.0146484375,-0.30126953125,0.41819999999999996
0.6564885496183206,2.2748091603053435,-0.7175572519083969,-0.422607421875,-0.01025390625,-0.301513671875,0.4199
0.8854961832061069,2.198473282442748,-0.6870229007633588,-0.422607421875,-0.01123046875,-0.308837890625,0.4216
0.7175572519083969,1.9694656488549618,-1.0381679389312977,-0.42333984375,-0.009765625,-0.300048828125,0.42329999999999995
0.6870229007633588,2.2290076335877864,-0.6870229007633588,-0.425048828125,-0.013427734375,-0.3046875,0.425
0.7480916030534351,2.198473282442748,-0.8244274809160306,-0.4267578125,-0.0146484375,-0.30126953125,0.42669999999999997
1.0534351145038168,2.1068702290076335,-0.7633587786259542,-0.419677734375,-0.010986328125,-0.30322265625,0.4284
0.7480916030534351,2.122137404580153,-0.7175572519083969,-0.4208984375,-0.014892578125,-0.30078125,0.4301
0.8091603053435115,2.0610687022900764,-0.6259541984732825,-0.421630859375,-0.015380859375,-0.305419921875,0.43179999999999996
1.0534351145038168,2.2290076335877864,-0.6564885496183206,-0.427734375,-0.011474609375,-0.302734375,0.4335
1.0381679389312977,2.0610687022900764,-0.7480916030534351,-0.418701171875,-0.01220703125,-0.308837890625,0.4352
0.732824427480916,2.122137404580153,-0.7480916030534351,-0.421875,-0.012939453125,-0.307373046875,0.43689999999999996
0.732824427480916,2.0610687022900764,-0.8244274809160306,-0.42236328125,-0.013671875,-0.29931640625,0.4386
1.0381679389312977,2.16793893129771,-0.8244274809160306,-0.423095703125,-0.01171875,-0.307861328125,0.44029999999999997
0.9618320610687023,2.015267175572519,-0.6412213740458015,-0.427001953125,-0.017333984375,-0.306640625,0.44199999999999995
0.8854961832061069,2.030534351145038,-0.7633587786259542,-0.4267578125,-0.009765625,-0.30615234375,0.4437
1.3129770992366412,2.0610687022900764,-0.549618320610687,-0.42138671875,-0.012451171875,-0.294921875,0.44539999999999996
1.0076335877862594,2.16793893129771,-0.7786259541984732,-0.426513671875,-0.015380859375,-0.3037109375,0.4471
1.0229007633587786,2.0916030534351147,-0.7022900763358778,-0.421142578125,-0.0146484375,-0.305419921875,0.4488
1.3129770992366412,1.8931297709923665,-0.8396946564885496,-0.421142578125,-0.01220703125,-0.303466796875,0.45049999999999996
1.1603053435114503,1.8625954198473282,-0.7480916030534351,-0.421630859375,-0.01025390625,-0.305908203125,0.4522
0.9770992366412213,2.015267175572519,-0.6717557251908397,-0.42236328125,-0.00634765625,-0.299560546875,0.45389999999999997
1.0229007633587786,2.1374045801526718,-0.6106870229007634,-0.42236328125,-0.0087890625,-0.302001953125,0.45559999999999995
1.1603053435114503,1.9694656488549618,-0.6870229007633588,-0.422607421875,-0.01171875,-0.302001953125,0.4573
1.2213740458015268,2.0,-0.7480916030534351,-0.422607421875,-0.016357421875,-0.306396484375,0.45899999999999996
1.1908396946564885,1.8931297709923665,-0.8702290076335878,-0.427734375,-0.01806640625,-0.30908203125,0.4607
1.1755725190839694,2.045801526717557,-0.8244274809160306,-0.4248046875,-0.011962890625,-0.3017578125,0.4624
0.8854961832061069,2.0916030534351147,-0.7175572519083969,-0.42626953125,-0.01220703125,-0.298095703125,0.46409999999999996
1.2061068702290076,1.9694656488549618,-0.7175572519083969,-0.424072265625,-0.017333984375,-0.295166015625,0.4658
1.1908396946564885,2.045801526717557,-0.7175572519083969,-0.428955078125,-0.01416015625,-0.296875,0.46749999999999997
1.2061068702290076,2.2290076335877864,-0.7022900763358778,-0.42333984375,-0.015380859375,-0.30859375,0.46919999999999995
1.0076335877862594,2.0,-0.9923664122137404,-0.42529296875,-0.013916015625,-0.303955078125,0.4709
1.099236641221374,1.8473282442748091,-0.7175572519083969,-0.4267578125,-0.011962890625,-0.3046875,0.47259999999999996
1.465648854961832,1.9083969465648856,-0.5954198473282443,-0.422607421875,-0.011474609375,-0.298583984375,0.4743
1.2061068702290076,1.9389312977099236,-0.7175572519083969,-0.420166015625,-0.01025390625,-0.30078125,0.476
1.1908396946564885,1.9083969465648856,-0.9312977099236641,-0.418701171875,-0.0126953125,-0.301513671875,0.47769999999999996
1.3129770992366412,2.0610687022900764,-0.6717557251908397,-0.421142578125,-0.01513671875,-0.30322265625,0.4794
0.9770992366412213,1.9694656488549618,-0.732824427480916,-0.421142578125,-0.01611328125,-0.305908203125,0.48109999999999997
1.2366412213740459,1.9541984732824427,-0.732824427480916,-0.426025390625,-0.014892578125,-0.30224609375,0.48279999999999995
0.9770992366412213,2.045801526717557,-0.8396946564885496,-0.424072265625,-0.01171875,-0.2998046875,0.4845
1.1755725190839694,2.0916030534351147,-0.8702290076335878,-0.423583984375,-0.012939453125,-0.298583984375,0.48619999999999997
0.9465648854961832,2.2748091603053435,-0.9923664122137404,-0.4306640625,-0.01513671875,-0.294921875,0.4879
1.0229007633587786,2.183206106870229,-0.732824427480916,-0.4267578125,-0.013916015625,-0.299072265625,0.4896
1.1603053435114503,1.984732824427481,-0.8396946564885496,-0.425537109375,-0.01416015625,-0.305908203125,0.49129999999999996
1.0229007633587786,1.9236641221374047,-0.8854961832061069,-0.4189453125,-0.00830078125,-0.299560546875,0.493
1.1450381679389312,2.045801526717557,-0.9007633587786259,-0.422119140625,-0.015625,-0.30322265625,0.4947
1.1450381679389312,1.984732824427481,-0.8854961832061069,-0.421875,-0.011962890625,-0.29833984375,0.49639999999999995
1.3893129770992367,2.1526717557251906,-0.8091603053435115,-0.427734375,-0.01123046875,-0.30517578125,0.4981
1.0687022900763359,2.0,-0.7938931297709924,-0.427490234375,-0.00830078125,-0.306884765625,0.49979999999999997
1.099236641221374,2.015267175572519,-0.8854961832061069,-0.42236328125,-0.015380859375,-0.310546875,0.5015
1.099236641221374,1.786259541984733,-0.7938931297709924,-0.41943359375,-0.01318359375,-0.298828125,0.5032
1.083969465648855,1.8778625954198473,-0.9618320610687023,-0.421142578125,-0.015869140625,-0.3046875,0.5049
0.9770992366412213,1.9236641221374047,-0.916030534351145,-0.420654296875,-0.009765625,-0.296630859375,0.5065999999999999
1.099236641221374,1.9083969465648856,-0.8091603053435115,-0.421630859375,-0.0166015625,-0.303466796875,0.5083
1.083969465648855,1.9541984732824427,-0.8549618320610687,-0.421630859375,-0.01123046875,-0.30322265625,0.51
1.0534351145038168,1.7709923664122138,-0.8702290076335878,-0.421630859375,-0.01708984375,-0.310546875,0.5116999999999999
0.916030534351145,1.6946564885496183,-0.8702290076335878,-0.4208984375,-0.012939453125,-0.302490234375,0.5134
1.0229007633587786,1.7251908396946565,-1.083969465648855,-0.421875,-0.011474609375,-0.307373046875,0.5151
1.099236641221374,1.465648854961832,-0.916030534351145,-0.423828125,-0.01513671875,-0.296875,0.5167999999999999
1.0076335877862594,1.6793893129770991,-1.0076335877862594,-0.422607421875,-0.013671875,-0.306640625,0.5185
0.9618320610687023,1.5725190839694656,-0.9465648854961832,-0.418212890625,-0.013427734375,-0.306640625,0.5202
0.9312977099236641,1.618320610687023,-0.8854961832061069,-0.421630859375,-0.012451171875,-0.302978515625,0.5218999999999999
1.083969465648855,1.6793893129770991,-0.9465648854961832,-0.42236328125,-0.015380859375,-0.303955078125,0.5236
0.9007633587786259,1.5267175572519085,-0.8702290076335878,-0.419677734375,-0.011962890625,-0.3037109375,0.5253
0.916030534351145,1.5114503816793894,-1.0229007633587786,-0.421875,-0.009033203125,-0.303466796875,0.527
1.0534351145038168,1.3893129770992367,-0.8702290076335878,-0.421142578125,-0.0126953125,-0.298828125,0.5287
0.8091603053435115,1.5267175572519085,-1.0076335877862594,-0.419677734375,-0.010986328125,-0.298095703125,0.5304
0.7786259541984732,1.3435114503816794,-1.0229007633587786,-0.42333984375,-0.0087890625,-0.304931640625,0.5321
0.9923664122137404,1.3740458015267176,-0.8854961832061069,-0.423095703125,-0.01318359375,-0.30810546875,0.5337999999999999
0.7480916030534351,1.465648854961832,-0.9465648854961832,-0.42431640625,-0.012939453125,-0.30712890625,0.5355
0.8702290076335878,1.3282442748091603,-0.9007633587786259,-0.426513671875,-0.013916015625,-0.306396484375,0.5372
1.083969465648855,1.2366412213740459,-0.8702290076335878,-0.42431640625,-0.016357421875,-0.30078125,0.5388999999999999
0.8854961832061069,1.3435114503816794,-0.9007633587786259,-0.420166015625,-0.01318359375,-0.3056640625,0.5406
0.6717557251908397,1.1908396946564885,-1.0534351145038168,-0.42041015625,-0.009033203125,-0.302978515625,0.5423
0.7633587786259542,1.1297709923664123,-0.9923664122137404,-0.425048828125,-0.00927734375,-0.307373046875,0.5439999999999999
0.9007633587786259,1.2671755725190839,-0.8702290076335878,-0.422607421875,-0.01123046875,-0.3046875,0.5457
0.7786259541984732,1.099236641221374,-0.7786259541984732,-0.422119140625,-0.015869140625,-0.303955078125,0.5474
0.7938931297709924,1.282442748091603,-0.8396946564885496,-0.419921875,-0.015380859375,-0.304931640625,0.5490999999999999
0.8091603053435115,1.1297709923664123,-0.8396946564885496,-0.41845703125,-0.010009765625,-0.302490234375,0.5508
0.7022900763358778,1.1603053435114503,-1.0534351145038168,-0.42138671875,-0.014892578125,-0.308837890625,0.5525
0.8854961832061069,1.1450381679389312,-0.8549618320610687,-0.42333984375,-0.013671875,-0.31005859375,0.5541999999999999
0.7938931297709924,1.1297709923664123,-0.7633587786259542,-0.425537109375,-0.010986328125,-0.3056640625,0.5559
0.4580152671755725,1.0381679389312977,-0.9007633587786259,-0.426513671875,-0.01220703125,-0.314208984375,0.5576
0.5801526717557252,0.9770992366412213,-0.8091603053435115,-0.421875,-0.016845703125,-0.29833984375,0.5593
0.8549618320610687,1.0229007633587786,-0.9465648854961832,-0.421142578125,-0.01416015625,-0.297119140625,0.5609999999999999
0.5190839694656488,1.1297709923664123,-0.9007633587786259,-0.422119140625,-0.013671875,-0.306640625,0.5627
0.4732824427480916,1.0229007633587786,-0.8244274809160306,-0.423583984375,-0.01708984375,-0.30029296875,0.5644
0.8702290076335878,1.0229007633587786,-0.9312977099236641,-0.427001953125,-0.016845703125,-0.309814453125,0.5660999999999999
0.6259541984732825,1.1908396946564885,-0.8854961832061069,-0.422119140625,-0.014404296875,-0.3076171875,0.5678
0.6564885496183206,1.0381679389312977,-0.8854961832061069,-0.423095703125,-0.01611328125,-0.309814453125,0.5695
0.5954198473282443,0.9465648854961832,-0.9618320610687023,-0.421142578125,-0.012939453125,-0.295654296875,0.5711999999999999
0.6259541984732825,1.083969465648855,-0.732824427480916,-0.4228515625,-0.013916015625,-0.297119140625,0.5729
0.6564885496183206,1.1603053435114503,-0.8091603053435115,-0.42578125,-0.016357421875,-0.31005859375,0.5746
0.7175572519083969,1.0534351145038168,-0.9465648854961832,-0.424072265625,-0.015380859375,-0.306884765625,0.5762999999999999
0.6564885496183206,1.1450381679389312,-0.732824427480916,-0.423828125,-0.015625,-0.306884765625,0.578
0.5343511450381679,1.1297709923664123,-0.6564885496183206,-0.423095703125,-0.009765625,-0.311279296875,0.5797
0.4732824427480916,1.1603053435114503,-0.6259541984732825,-0.4228515625,-0.008544921875,-0.303955078125,0.5813999999999999
0.6564885496183206,1.1297709923664123,-0.6564885496183206,-0.4208984375,-0.0078125,-0.3056640625,0.5831
0.5954198473282443,1.0534351145038168,-0.8549618320610687,-0.426025390625,-0.013671875,-0.303466796875,0.5848
0.5648854961832062,1.1145038167938932,-0.5954198473282443,-0.42822265625,-0.009033203125,-0.30322265625,0.5865
0.5801526717557252,1.2061068702290076,-0.6106870229007634,-0.42626953125,-0.012939453125,-0.298583984375,0.5882
0.6564885496183206,1.0381679389312977,-0.5801526717557252,-0.423583984375,-0.011474609375,-0.30712890625,0.5899
0.6412213740458015,1.0229007633587786,-0.7786259541984732,-0.424072265625,-0.01123046875,-0.3046875,0.5916
0.6717557251908397,1.1908396946564885,-0.5038167938931297,-0.4228515625,-0.010009765625,-0.3056640625,0.5932999999999999
0.5648854961832062,1.3282442748091603,-0.9312977099236641,-0.423583984375,-0.01513671875,-0.31103515625,0.595
0.6412213740458015,1.2671755725190839,-0.7022900763358778,-0.422119140625,-0.014892578125,-0.295654296875,0.5967
0.549618320610687,1.3129770992366412,-0.5648854961832062,-0.42529296875,-0.0166015625,-0.30419921875,0.5983999999999999
0.7175572519083969,1.2366412213740459,-0.44274809160305345,-0.424072265625,-0.01123046875,-0.30615234375,0.6001
0.6106870229007634,1.3435114503816794,-0.6106870229007634,-0.4208984375,-0.01416015625,-0.296875,0.6018
0.549618320610687,1.297709923664122,-0.5190839694656488,-0.423828125,-0.020263671875,-0.309814453125,0.6034999999999999
0.6412213740458015,0.9465648854961832,-0.5190839694656488,-0.427001953125,-0.01513671875,-0.30810546875,0.6052
0.4732824427480916,1.1297709923664123,-0.48854961832061067,-0.424560546875,-0.01416015625,-0.302490234375,0.6069
0.5954198473282443,1.1908396946564885,-0.48854961832061067,-0.4208984375,-0.00732421875,-0.299560546875,0.6085999999999999
0.6259541984732825,1.2213740458015268,-0.2595419847328244,-0.423583984375,-0.013916015625,-0.301513671875,0.6103
0.5954198473282443,1.099236641221374,-0.6870229007633588,-0.425048828125,-0.009765625,-0.301025390625,0.612
0.3816793893129771,1.083969465648855,-0.5801526717557252,-0.421630859375,-0.010986328125,-0.300537109375,0.6136999999999999
0.5648854961832062,1.3129770992366412,-0.6564885496183206,-0.423583984375,-0.012451171875,-0.30908203125,0.6154
0.6259541984732825,1.0687022900763359,-0.549618320610687,-0.427734375,-0.009765625,-0.302978515625,0.6171
0.5801526717557252,1.0687022900763359,-0.5190839694656488,-0.42431640625,-0.012939453125,-0.310302734375,0.6188
0.4732824427480916,1.1297709923664123,-0.549618320610687,-0.421875,-0.01513671875,-0.305419921875,0.6204999999999999
0.4122137404580153,1.0076335877862594,-0.7022900763358778,-0.419921875,-0.011962890625,-0.305419921875,0.6222
0.5343511450381679,1.0687022900763359,-0.5343511450381679,-0.421630859375,-0.014404296875,-0.30712890625,0.6239
0.42748091603053434,0.9007633587786259,-0.8244274809160306,-0.422119140625,-0.007568359375,-0.296142578125,0.6255999999999999
0.5648854961832062,0.8549618320610687,-0.5801526717557252,-0.421630859375,-0.009765625,-0.297607421875,0.6273
0.44274809160305345,0.8702290076335878,-0.7175572519083969,-0.425537109375,-0.01416015625,-0.301513671875,0.629
0.44274809160305345,0.7633587786259542,-0.7175572519083969,-0.426513671875,-0.008056640625,-0.2978515625,0.6306999999999999
0.549618320610687,0.7786259541984732,-0.6564885496183206,-0.42431640625,-0.01123046875,-0.30078125,0.6324
0.549618320610687,0.7175572519083969,-0.5343511450381679,-0.424072265625,-0.011962890625,-0.302734375,0.6341
0.6564885496183206,0.6564885496183206,-0.7938931297709924,-0.4248046875,-0.00732421875,-0.308837890625,0.6357999999999999
0.4732824427480916,0.732824427480916,-0.5648854961832062,-0.420654296875,-0.01318359375,-0.305419921875,0.6375
0.549618320610687,0.6870229007633588,-0.7633587786259542,-0.424560546875,-0.010498046875,-0.3037109375,0.6392
0.6106870229007634,0.6564885496183206,-0.5954198473282443,-0.42529296875,-0.006591796875,-0.29736328125,0.6408999999999999
0.3816793893129771,0.5954198473282443,-0.732824427480916,-0.426513671875,-0.017333984375,-0.304931640625,0.6426
0.4580152671755725,0.6870229007633588,-0.4122137404580153,-0.427734375,-0.01708984375,-0.304443359375,0.6443
0.6106870229007634,0.48854961832061067,-0.5038167938931297,-0.42529296875,-0.011962890625,-0.3095703125,0.646
0.48854961832061067,0.7022900763358778,-0.549618320610687,-0.426025390625,-0.009033203125,-0.31787109375,0.6476999999999999
0.5648854961832062,0.9007633587786259,-0.6412213740458015,-0.4248046875,-0.012939453125,-0.300537109375,0.6494
0.1984732824427481,0.6564885496183206,-0.5038167938931297,-0.428955078125,-0.014404296875,-0.31103515625,0.6511
0.22900763358778625,0.6106870229007634,-0.3816793893129771,-0.427001953125,-0.01513671875,-0.304443359375,0.6527999999999999
0.4732824427480916,0.7938931297709924,-0.3053435114503817,-0.424072265625,-0.01171875,-0.304931640625,0.6545
0.42748091603053434,0.7938931297709924,-0.5648854961832062,-0.424072265625,-0.011474609375,-0.2998046875,0.6562
0.3816793893129771,0.6870229007633588,-0.4732824427480916,-0.425048828125,-0.011474609375,-0.3017578125,0.6578999999999999
0.3511450381679389,0.6870229007633588,-0.3969465648854962,-0.42431640625,-0.009765625,-0.310791015625,0.6596
0.366412213740458,0.6106870229007634,-0.42748091603053434,-0.41748046875,-0.01611328125,-0.303955078125,0.6613
0.21374045801526717,0.9007633587786259,-0.33587786259541985,-0.421142578125,-0.013427734375,-0.3046875,0.6629999999999999
0.12213740458015267,0.7633587786259542,-0.44274809160305345,-0.425537109375,-0.01171875,-0.3017578125,0.6647
0.21374045801526717,0.8396946564885496,-0.4580152671755725,-0.4228515625,-0.013916015625,-0.30029296875,0.6664
0.0916030534351145,0.6106870229007634,-0.33587786259541985,-0.42529296875,-0.011474609375,-0.301025390625,0.6680999999999999
0.04580152671755725,0.9007633587786259,-0.7633587786259542,-0.421630859375,-0.011474609375,-0.3037109375,0.6698
-0.10687022900763359,0.9007633587786259,-0.6106870229007634,-0.427001953125,-0.009033203125,-0.309326171875,0.6715
0.15267175572519084,0.6870229007633588,-0.7480916030534351,-0.426513671875,-0.00927734375,-0.3173828125,0.6731999999999999
0.015267175572519083,0.8244274809160306,-0.7938931297709924,-0.42138671875,-0.011962890625,-0.3037109375,0.6748999999999999
0.21374045801526717,0.8702290076335878,-0.9618320610687023,-0.42529296875,-0.0078125,-0.29443359375,0.6766
0.24427480916030533,0.6870229007633588,-0.8244274809160306,-0.42626953125,-0.003662109375,-0.302734375,0.6783
-0.030534351145038167,0.8549618320610687,-1.099236641221374,-0.4208984375,-0.010498046875,-0.30322265625,0.6799999999999999
0.07633587786259542,0.8702290076335878,-1.0534351145038168,-0.42578125,-0.0068359375,-0.29736328125,0.6817
0.07633587786259542,0.916030534351145,-1.1603053435114503,-0.427734375,-0.009765625,-0.30078125,0.6834
0.0916030534351145,1.0229007633587786,-0.9923664122137404,-0.421630859375,-0.01025390625,-0.296630859375,0.6850999999999999
0.4122137404580153,1.099236641221374,-1.2061068702290076,-0.426025390625,-0.015380859375,-0.3046875,0.6868
0.15267175572519084,1.1603053435114503,-0.9923664122137404,-0.42236328125,-0.006591796875,-0.312744140625,0.6885
0.3969465648854962,0.9618320610687023,-1.0381679389312977,-0.422119140625,-0.01171875,-0.30322265625,0.6901999999999999
0.22900763358778625,1.2213740458015268,-1.3587786259541985,-0.42578125,-0.010009765625,-0.30322265625,0.6919
0.1984732824427481,0.8854961832061069,-1.3282442748091603,-0.42333984375,-0.010009765625,-0.298828125,0.6936
0.061068702290076333,0.7786259541984732,-1.2213740458015268,-0.4208984375,-0.007568359375,-0.2998046875,0.6952999999999999
0.2595419847328244,0.8244274809160306,-1.2061068702290076,-0.41943359375,-0.006591796875,-0.297607421875,0.697
0.44274809160305345,0.9923664122137404,-1.2213740458015268,-0.423583984375,-0.01025390625,-0.30419921875,0.6987
0.2900763358778626,0.8854961832061069,-1.2671755725190839,-0.420166015625,-0.007080078125,-0.304443359375,0.7003999999999999
0.4122137404580153,0.8702290076335878,-1.0381679389312977,-0.4208984375,-0.0107421875,-0.303955078125,0.7021
0.2900763358778626,0.8396946564885496,-1.1297709923664123,-0.424072265625,-0.009765625,-0.300048828125,0.7038
0.2900763358778626,0.9923664122137404,-1.1908396946564885,-0.422607421875,-0.007568359375,-0.305908203125,0.7055
0.21374045801526717,0.8091603053435115,-1.251908396946565,-0.419189453125,-0.0068359375,-0.30419921875,0.7071999999999999
0.3053435114503817,0.7786259541984732,-1.4045801526717556,-0.425537109375,-0.014892578125,-0.302978515625,0.7089
0.24427480916030533,0.8702290076335878,-1.3740458015267176,-0.42724609375,-0.0107421875,-0.31103515625,0.7106
0.33587786259541985,0.6870229007633588,-1.4351145038167938,-0.424072265625,-0.008056640625,-0.305908203125,0.7122999999999999
0.2900763358778626,0.9465648854961832,-1.3282442748091603,-0.421630859375,-0.01123046875,-0.2998046875,0.714
0.13740458015267176,0.7175572519083969,-1.4351145038167938,-0.425537109375,-0.00634765625,-0.303955078125,0.7157
0.1984732824427481,0.549618320610687,-1.5572519083969465,-0.423828125,-0.0078125,-0.301513671875,0.7173999999999999
0.42748091603053434,0.44274809160305345,-1.4961832061068703,-0.422119140625,-0.015869140625,-0.310791015625,0.7191
0.13740458015267176,0.7633587786259542,-1.5419847328244274,-0.423828125,-0.008544921875,-0.305908203125,0.7208
0.3511450381679389,0.5190839694656488,-1.4351145038167938,-0.422119140625,-0.007568359375,-0.302001953125,0.7224999999999999
0.32061068702290074,0.4580152671755725,-1.5725190839694656,-0.423828125,-0.01220703125,-0.30322265625,0.7242
0.22900763358778625,0.4580152671755725,-1.6030534351145038,-0.423583984375,-0.005859375,-0.304443359375,0.7259
0.1984732824427481,0.3969465648854962,-1.618320610687023,-0.42333984375,-0.0078125,-0.309814453125,0.7275999999999999
0.2595419847328244,0.1984732824427481,-1.6488549618320612,-0.424560546875,-0.01025390625,-0.302001953125,0.7293
0.24427480916030533,0.3816793893129771,-1.6946564885496183,-0.424072265625,-0.0068359375,-0.3076171875,0.731
0.44274809160305345,0.10687022900763359,-1.6488549618320612,-0.41796875,-0.0078125,-0.29931640625,0.7326999999999999
0.6412213740458015,0.3511450381679389,-1.6793893129770991,-0.423828125,-0.0068359375,-0.299072265625,0.7343999999999999
0.5190839694656488,0.24427480916030533,-1.6488549618320612,-0.423583984375,-0.00732421875,-0.30029296875,0.7361
0.5190839694656488,0.07633587786259542,-1.6030534351145038,-0.4248046875,-0.0107421875,-0.30810546875,0.7378
0.7786259541984732,0.030534351145038167,-1.4809160305343512,-0.42236328125,-0.0087890625,-0.299560546875,0.7394999999999999
0.6412213740458015,0.061068702290076333,-1.282442748091603,-0.420166015625,-0.01025390625,-0.2998046875,0.7412
0.7480916030534351,-0.13740458015267176,-1.5725190839694656,-0.426513671875,-0.00927734375,-0.302734375,0.7429
0.9312977099236641,0.015267175572519083,-1.6030534351145038,-0.42578125,-0.0107421875,-0.30126953125,0.7445999999999999
0.9465648854961832,-0.2900763358778626,-1.3893129770992367,-0.4267578125,-0.007080078125,-0.298095703125,0.7463
0.9465648854961832,-0.4122137404580153,-1.4198473282442747,-0.427734375,-0.010009765625,-0.3115234375,0.748
0.8549618320610687,-0.07633587786259542,-1.4198473282442747,-0.42431640625,-0.00537109375,-0.301513671875,0.7496999999999999
1.0229007633587786,-0.1984732824427481,-1.3282442748091603,-0.42431640625,-0.0048828125,-0.298583984375,0.7514
0.9618320610687023,-0.3969465648854962,-1.3282442748091603,-0.422119140625,-0.00830078125,-0.297119140625,0.7531
1.1755725190839694,-0.2595419847328244,-1.1603053435114503,-0.433349609375,-0.006591796875,-0.297119140625,0.7547999999999999
1.2671755725190839,-0.2748091603053435,-1.099236641221374,-0.4287109375,-0.009765625,-0.293701171875,0.7565
1.1603053435114503,-0.33587786259541985,-1.1908396946564885,-0.42724609375,-0.014404296875,-0.301025390625,0.7582
1.0687022900763359,-0.3969465648854962,-1.3587786259541985,-0.42919921875,-0.004638671875,-0.29833984375,0.7598999999999999
1.099236641221374,-0.44274809160305345,-1.1755725190839694,-0.42919921875,-0.006103515625,-0.302490234375,0.7615999999999999
1.1603053435114503,-0.24427480916030533,-1.2213740458015268,-0.422607421875,-0.008056640625,-0.29833984375,0.7633
1.1755725190839694,-0.16793893129770993,-1.083969465648855,-0.427734375,-0.0087890625,-0.29931640625,0.7649999999999999
1.4045801526717556,-0.1984732824427481,-1.0687022900763359,-0.429443359375,-0.009765625,-0.302001953125,0.7666999999999999
1.3129770992366412,-0.13740458015267176,-1.0076335877862594,-0.43115234375,-0.008056640625,-0.299560546875,0.7684
1.5267175572519085,-0.24427480916030533,-1.0076335877862594,-0.427490234375,-0.01416015625,-0.30615234375,0.7701
1.465648854961832,0.183206106870229,-0.9770992366412213,-0.426025390625,-0.0126953125,-0.30029296875,0.7717999999999999
1.3893129770992367,0.2595419847328244,-0.9923664122137404,-0.428955078125,-0.0078125,-0.294677734375,0.7735
1.4809160305343512,0.1984732824427481,-0.9465648854961832,-0.427490234375,-0.008544921875,-0.29296875,0.7752
1.633587786259542,0.2900763358778626,-0.6259541984732825,-0.429931640625,-0.007080078125,-0.306884765625,0.7768999999999999
1.5725190839694656,0.5190839694656488,-0.6870229007633588,-0.42578125,-0.010986328125,-0.297607421875,0.7786
1.6488549618320612,0.3053435114503817,-0.6259541984732825,-0.42822265625,-0.014892578125,-0.29931640625,0.7803
1.8625954198473282,0.366412213740458,-0.7633587786259542,-0.422607421875,-0.011962890625,-0.29541015625,0.7819999999999999
1.618320610687023,0.5038167938931297,-0.4732824427480916,-0.426025390625,-0.01025390625,-0.296875,0.7837
1.8473282442748091,0.366412213740458,-0.6106870229007634,-0.430419921875,-0.01123046875,-0.2939453125,0.7854
1.633587786259542,0.6564885496183206,-0.6717557251908397,-0.42822265625,-0.00634765625,-0.301513671875,0.7870999999999999
1.6030534351145038,0.5954198473282443,-0.7786259541984732,-0.427001953125,-0.0068359375,-0.2978515625,0.7888
1.8931297709923665,0.7938931297709924,-0.5954198473282443,-0.427734375,-0.0068359375,-0.299560546875,0.7905
1.9389312977099236,0.5190839694656488,-0.6106870229007634,-0.42919921875,-0.0078125,-0.30126953125,0.7921999999999999
1.8625954198473282,0.5038167938931297,-0.732824427480916,-0.42333984375,-0.00927734375,-0.302978515625,0.7938999999999999
2.1526717557251906,0.44274809160305345,-0.5190839694656488,-0.42529296875,-0.005615234375,-0.30224609375,0.7956
1.83206106870229,0.42748091603053434,-0.6564885496183206,-0.421142578125,-0.00732421875,-0.301025390625,0.7973
2.0916030534351147,0.3816793893129771,-0.4732824427480916,-0.423583984375,-0.006591796875,-0.2978515625,0.7989999999999999
2.33587786259542,0.061068702290076333,-0.6717557251908397,-0.423828125,-0.005615234375,-0.297607421875,0.8007
1.9694656488549618,0.10687022900763359,-0.5343511450381679,-0.420166015625,-0.00634765625,-0.299072265625,0.8024
2.0916030534351147,0.33587786259541985,-0.5343511450381679,-0.42431640625,-0.008544921875,-0.298095703125,0.8040999999999999
2.183206106870229,0.2748091603053435,-0.6564885496183206,-0.423095703125,-0.008544921875,-0.308349609375,0.8058
2.2748091603053435,0.24427480916030533,-0.6870229007633588,-0.4248046875,-0.01220703125,-0.301513671875,0.8075
2.4732824427480917,0.015267175572519083,-0.549618320610687,-0.42626953125,-0.007568359375,-0.29931640625,0.8091999999999999
2.4427480916030535,0.183206106870229,-0.6106870229007634,-0.42236328125,-0.013671875,-0.306640625,0.8109
2.427480916030534,0.21374045801526717,-0.7786259541984732,-0.42333984375,-0.014404296875,-0.30126953125,0.8126
2.3206106870229006,0.33587786259541985,-0.8702290076335878,-0.4228515625,-0.00732421875,-0.30126953125,0.8142999999999999
2.2595419847328246,0.15267175572519084,-0.5801526717557252,-0.423828125,-0.01123046875,-0.300537109375,0.816
2.4427480916030535,0.32061068702290074,-0.7175572519083969,-0.423583984375,-0.011474609375,-0.302490234375,0.8177
2.4427480916030535,0.2748091603053435,-0.6259541984732825,-0.424072265625,-0.008544921875,-0.30029296875,0.8193999999999999
2.427480916030534,0.12213740458015267,-0.916030534351145,-0.427490234375,-0.00634765625,-0.297119140625,0.8210999999999999
2.50381679389313,0.3053435114503817,-0.7786259541984732,-0.4228515625,-0.0078125,-0.303466796875,0.8228
2.2595419847328246,0.24427480916030533,-0.6106870229007634,-0.423095703125,-0.005859375,-0.301513671875,0.8244999999999999
2.6259541984732824,0.2748091603053435,-0.6412213740458015,-0.427734375,-0.005859375,-0.301513671875,0.8261999999999999
2.687022900763359,0.5038167938931297,-0.7480916030534351,-0.429443359375,-0.00927734375,-0.292236328125,0.8279
2.595419847328244,0.5801526717557252,-0.6106870229007634,-0.429931640625,-0.010986328125,-0.301513671875,0.8296
2.4732824427480917,0.5801526717557252,-0.8244274809160306,-0.4267578125,-0.004638671875,-0.3037109375,0.8312999999999999
2.519083969465649,0.366412213740458,-0.6564885496183206,-0.43017578125,-0.01123046875,-0.30712890625,0.833
2.33587786259542,0.4122137404580153,-1.0534351145038168,-0.427734375,-0.010009765625,-0.298583984375,0.8347
2.351145038167939,0.3511450381679389,-0.8702290076335878,-0.424560546875,-0.01220703125,-0.29736328125,0.8363999999999999
2.7480916030534353,0.4122137404580153,-0.9770992366412213,-0.422607421875,-0.011474609375,-0.298828125,0.8381
2.564885496183206,0.3511450381679389,-1.099236641221374,-0.420654296875,-0.010009765625,-0.301025390625,0.8398
2.549618320610687,0.6106870229007634,-1.3129770992366412,-0.42626953125,-0.010986328125,-0.30322265625,0.8414999999999999
2.564885496183206,0.2595419847328244,-0.9770992366412213,-0.428955078125,-0.0048828125,-0.2978515625,0.8432
2.4732824427480917,0.4122137404580153,-1.282442748091603,-0.429931640625,-0.0078125,-0.297119140625,0.8449
2.2900763358778624,0.48854961832061067,-1.297709923664122,-0.424072265625,-0.01171875,-0.30078125,0.8465999999999999
2.2290076335877864,0.3816793893129771,-1.3435114503816794,-0.42724609375,-0.018310546875,-0.296630859375,0.8482999999999999
2.1374045801526718,0.5954198473282443,-1.465648854961832,-0.428466796875,-0.01318359375,-0.296875,0.85
2.198473282442748,0.5190839694656488,-1.4198473282442747,-0.4287109375,-0.015869140625,-0.302001953125,0.8516999999999999
2.030534351145038,0.4732824427480916,-1.297709923664122,-0.427734375,-0.01416015625,-0.308837890625,0.8533999999999999
1.816793893129771,0.4732824427480916,-1.5419847328244274,-0.4248046875,-0.0126953125,-0.29736328125,0.8551
1.9083969465648856,0.6564885496183206,-1.282442748091603,-0.427001953125,-0.010986328125,-0.299072265625,0.8568
1.9236641221374047,0.7022900763358778,-1.7099236641221374,-0.427734375,-0.010498046875,-0.294677734375,0.8584999999999999
1.8625954198473282,0.6717557251908397,-1.4198473282442747,-0.42626953125,-0.015869140625,-0.298828125,0.8602
1.8625954198473282,0.732824427480916,-1.618320610687023,-0.426025390625,-0.01513671875,-0.30029296875,0.8619
1.6641221374045803,0.6870229007633588,-1.5419847328244274,-0.4287109375,-0.011962890625,-0.303955078125,0.8635999999999999
1.8015267175572518,0.7938931297709924,-1.6030534351145038,-0.425537109375,-0.00927734375,-0.3046875,0.8653
1.7557251908396947,0.7633587786259542,-1.6641221374045803,-0.427734375,-0.013671875,-0.30615234375,0.867
1.6793893129770991,0.9312977099236641,-1.7557251908396947,-0.43408203125,-0.017333984375,-0.2998046875,0.8686999999999999
1.6488549618320612,0.9007633587786259,-1.4961832061068703,-0.43212890625,-0.01123046875,-0.302490234375,0.8704
1.3893129770992367,1.1450381679389312,-1.7251908396946565,-0.4306640625,-0.010986328125,-0.296875,0.8721
1.6946564885496183,0.9465648854961832,-1.6946564885496183,-0.42529296875,-0.0087890625,-0.2939453125,0.8737999999999999
1.633587786259542,0.9770992366412213,-1.786259541984733,-0.427490234375,-0.013427734375,-0.302490234375,0.8755
1.5114503816793894,1.1297709923664123,-1.7251908396946565,-0.427490234375,-0.01318359375,-0.29931640625,0.8772
1.6641221374045803,0.9770992366412213,-1.8625954198473282,-0.4248046875,-0.008056640625,-0.3046875,0.8788999999999999
1.2213740458015268,1.1297709923664123,-1.6641221374045803,-0.42724609375,-0.01416015625,-0.302978515625,0.8805999999999999
1.3587786259541985,1.1297709923664123,-1.8015267175572518,-0.428466796875,-0.009033203125,-0.29833984375,0.8823
1.282442748091603,1.2366412213740459,-1.816793893129771,-0.4306640625,-0.01416015625,-0.304443359375,0.8839999999999999
1.1145038167938932,1.2366412213740459,-1.8015267175572518,-0.431396484375,-0.007568359375,-0.304443359375,0.8856999999999999
1.5572519083969465,1.2366412213740459,-1.7709923664122138,-0.431884765625,-0.0146484375,-0.297607421875,0.8874
1.450381679389313,1.3282442748091603,-1.83206106870229,-0.431884765625,-0.01318359375,-0.303466796875,0.8891
1.3893129770992367,1.4351145038167938,-1.83206106870229,-0.430419921875,-0.016357421875,-0.307861328125,0.8907999999999999
1.2366412213740459,1.4198473282442747,-1.9389312977099236,-0.426025390625,-0.009765625,-0.3017578125,0.8925
1.282442748091603,1.3740458015267176,-1.786259541984733,-0.421630859375,-0.01123046875,-0.30126953125,0.8942
1.1450381679389312,1.4961832061068703,-2.0,-0.427978515625,-0.01171875,-0.309326171875,0.8958999999999999
1.3129770992366412,1.450381679389313,-1.9236641221374047,-0.426025390625,-0.0087890625,-0.298828125,0.8976
1.4351145038167938,1.3435114503816794,-1.8625954198473282,-0.43017578125,-0.009521484375,-0.305908203125,0.8993
1.4045801526717556,1.3435114503816794,-1.7251908396946565,-0.426513671875,-0.00927734375,-0.30517578125,0.9009999999999999
1.3740458015267176,1.6641221374045803,-1.8473282442748091,-0.426025390625,-0.009033203125,-0.30224609375,0.9027
1.4045801526717556,1.4351145038167938,-1.9083969465648856,-0.423095703125,-0.01123046875,-0.30419921875,0.9044
1.3282442748091603,1.450381679389313,-1.8931297709923665,-0.4267578125,-0.012451171875,-0.294677734375,0.9060999999999999
1.3893129770992367,1.6641221374045803,-1.7709923664122138,-0.425537109375,-0.015380859375,-0.30615234375,0.9077999999999999
1.0076335877862594,1.633587786259542,-2.1068702290076335,-0.4267578125,-0.013427734375,-0.30517578125,0.9095
1.0534351145038168,1.4198473282442747,-1.8931297709923665,-0.427490234375,-0.012451171875,-0.308349609375,0.9111999999999999
1.2671755725190839,1.6030534351145038,-2.045801526717557,-0.425048828125,-0.010986328125,-0.300048828125,0.9128999999999999
1.282442748091603,1.5877862595419847,-1.8015267175572518,-0.42626953125,-0.013427734375,-0.302001953125,0.9146
1.5419847328244274,1.8015267175572518,-1.8625954198473282,-0.420166015625,-0.011962890625,-0.310791015625,0.9163
1.4351145038167938,1.7099236641221374,-1.9236641221374047,-0.42236328125,-0.010986328125,-0.299072265625,0.9179999999999999
1.282442748091603,1.6488549618320612,-1.984732824427481,-0.429931640625,-0.013916015625,-0.296875,0.9197
1.3282442748091603,1.5114503816793894,-1.8931297709923665,-0.427978515625,-0.009033203125,-0.296630859375,0.9214
1.5419847328244274,1.6946564885496183,-1.9541984732824427,-0.426513671875,-0.010986328125,-0.302734375,0.9230999999999999
1.4961832061068703,1.6793893129770991,-1.8625954198473282,-0.42236328125,-0.01513671875,-0.300537109375,0.9248
1.3740458015267176,1.6641221374045803,-2.0916030534351147,-0.42041015625,-0.00927734375,-0.29931640625,0.9265
1.5114503816793894,1.5267175572519085,-1.8778625954198473,-0.423583984375,-0.007080078125,-0.3095703125,0.9281999999999999
1.2213740458015268,1.5114503816793894,-1.8931297709923665,-0.423583984375,-0.0107421875,-0.3056640625,0.9299
1.4351145038167938,1.465648854961832,-1.7557251908396947,-0.4228515625,-0.00830078125,-0.30615234375,0.9316
1.7557251908396947,1.4198473282442747,-1.7251908396946565,-0.42626953125,-0.007568359375,-0.304443359375,0.9332999999999999
1.633587786259542,1.5725190839694656,-1.5572519083969465,-0.423583984375,-0.0048828125,-0.30517578125,0.9349999999999999
1.5572519083969465,1.3740458015267176,-1.7557251908396947,-0.42529296875,-0.0146484375,-0.292236328125,0.9367
1.618320610687023,1.2213740458015268,-1.5419847328244274,-0.42041015625,-0.014404296875,-0.3017578125,0.9383999999999999
1.4809160305343512,1.083969465648855,-1.4351145038167938,-0.420654296875,-0.0107421875,-0.30419921875,0.9400999999999999
1.6641221374045803,1.1450381679389312,-1.6488549618320612,-0.422119140625,-0.01220703125,-0.30126953125,0.9418
1.5877862595419847,1.1603053435114503,-1.5725190839694656,-0.423828125,-0.00830078125,-0.295654296875,0.9434999999999999
1.5267175572519085,1.2366412213740459,-1.5725190839694656,-0.42236328125,-0.015625,-0.299072265625,0.9451999999999999
1.618320610687023,1.282442748091603,-1.297709923664122,-0.425048828125,-0.014892578125,-0.303466796875,0.9469
1.6030534351145038,1.251908396946565,-1.2671755725190839,-0.42822265625,-0.0078125,-0.303466796875,0.9486
1.618320610687023,1.1297709923664123,-1.3740458015267176,-0.431640625,-0.010498046875,-0.299560546875,0.9502999999999999
1.633587786259542,1.099236641221374,-1.251908396946565,-0.430419921875,-0.007568359375,-0.299560546875,0.952
1.450381679389313,1.2366412213740459,-1.1450381679389312,-0.42529296875,-0.012451171875,-0.302734375,0.9537
1.6793893129770991,1.282442748091603,-1.3893129770992367,-0.425048828125,-0.012451171875,-0.30126953125,0.9553999999999999
1.4045801526717556,1.3129770992366412,-1.3282442748091603,-0.4267578125,-0.016357421875,-0.308837890625,0.9571
1.7251908396946565,1.0687022900763359,-1.0687022900763359,-0.42431640625,-0.010009765625,-0.301513671875,0.9588
1.3587786259541985,1.1755725190839694,-1.099236641221374,-0.42236328125,-0.01123046875,-0.30517578125,0.9604999999999999
1.6488549618320612,1.282442748091603,-1.251908396946565,-0.425537109375,-0.010986328125,-0.29736328125,0.9621999999999999
1.5419847328244274,1.450381679389313,-1.1908396946564885,-0.424560546875,-0.012939453125,-0.3046875,0.9639
1.633587786259542,1.1908396946564885,-1.1603053435114503,-0.422119140625,-0.012939453125,-0.307373046875,0.9655999999999999
1.5572519083969465,1.1603053435114503,-1.4045801526717556,-0.427734375,-0.01220703125,-0.30517578125,0.9672999999999999
1.4198473282442747,1.0229007633587786,-1.3893129770992367,-0.426025390625,-0.0126953125,-0.302978515625,0.969
1.450381679389313,1.0229007633587786,-1.5419847328244274,-0.43017578125,-0.00927734375,-0.30078125,0.9706999999999999
1.3282442748091603,1.3435114503816794,-1.5572519083969465,-0.426513671875,-0.015380859375,-0.302490234375,0.9723999999999999
1.4198473282442747,1.6946564885496183,-1.5267175572519085,-0.423828125,-0.010986328125,-0.30859375,0.9741
1.2671755725190839,1.83206106870229,-1.3740458015267176,-0.42822265625,-0.00830078125,-0.307861328125,0.9758
1.4045801526717556,1.8625954198473282,-1.3129770992366412,-0.4267578125,-0.0087890625,-0.3017578125,0.9774999999999999
1.4961832061068703,1.8625954198473282,-1.3740458015267176,-0.427978515625,-0.010498046875,-0.29345703125,0.9792
1.4961832061068703,1.8015267175572518,-1.5572519083969465,-0.42431640625,-0.012451171875,-0.30419921875,0.9809
1.4809160305343512,1.8015267175572518,-1.5572519083969465,-0.424072265625,-0.01025390625,-0.308349609375,0.9825999999999999
1.4809160305343512,1.8931297709923665,-1.4961832061068703,-0.419921875,-0.011474609375,-0.308837890625,0.9843
1.5114503816793894,1.984732824427481,-1.5877862595419847,-0.4189453125,-0.009521484375,-0.304443359375,0.986
1.465648854961832,1.9541984732824427,-1.8015267175572518,-0.4248046875,-0.009765625,-0.30419921875,0.9876999999999999
1.5725190839694656,1.8778625954198473,-1.9694656488549618,-0.419189453125,-0.00537109375,-0.3115234375,0.9894
1.7557251908396947,1.8015267175572518,-1.83206106870229,-0.42529296875,-0.0078125,-0.30908203125,0.9911
1.7709923664122138,1.618320610687023,-1.6946564885496183,-0.423095703125,-0.011474609375,-0.299072265625,0.9927999999999999
1.6641221374045803,1.633587786259542,-1.5877862595419847,-0.424072265625,-0.00927734375,-0.303955078125,0.9944999999999999
1.9236641221374047,1.5877862595419847,-1.8015267175572518,-0.4169921875,-0.010986328125,-0.30517578125,0.9962
1.984732824427481,1.2366412213740459,-1.6946564885496183,-0.420166015625,-0.009765625,-0.306640625,0.9978999999999999
1.8778625954198473,1.1755725190839694,-1.6641221374045803,-0.41943359375,-0.006591796875,-0.30908203125,0.9995999999999999
1.8473282442748091,1.1755725190839694,-1.9389312977099236,-0.420654296875,-0.009033203125,-0.31103515625,1.0012999999999999
1.7251908396946565,1.083969465648855,-1.9236641221374047,-0.41845703125,-0.008544921875,-0.3115234375,1.003
1.9541984732824427,1.0534351145038168,-1.9541984732824427,-0.41845703125,-0.01171875,-0.30810546875,1.0047
2.122137404580153,0.8854961832061069,-2.045801526717557,-0.423583984375,-0.01025390625,-0.29931640625,1.0064
1.9083969465648856,0.7786259541984732,-2.0916030534351147,-0.42529296875,-0.008544921875,-0.29833984375,1.0081
2.015267175572519,1.2213740458015268,-2.183206106870229,-0.42236328125,-0.008544921875,-0.30517578125,1.0098
2.122137404580153,0.9618320610687023,-2.3053435114503817,-0.4287109375,-0.00927734375,-0.30224609375,1.0114999999999998
1.984732824427481,0.9007633587786259,-2.1526717557251906,-0.424560546875,-0.01416015625,-0.302490234375,1.0131999999999999
2.0916030534351147,0.916030534351145,-2.2290076335877864,-0.42578125,-0.010498046875,-0.303955078125,1.0149
1.7709923664122138,0.9465648854961832,-2.2748091603053435,-0.425537109375,-0.01416015625,-0.3017578125,1.0166
1.9389312977099236,0.916030534351145,-2.1068702290076335,-0.42236328125,-0.009521484375,-0.302001953125,1.0183
1.8931297709923665,1.099236641221374,-2.2748091603053435,-0.424072265625,-0.015625,-0.30126953125,1.02
2.030534351145038,1.0534351145038168,-2.2595419847328246,-0.425537109375,-0.01416015625,-0.30712890625,1.0217
2.0610687022900764,0.916030534351145,-2.122137404580153,-0.4287109375,-0.017822265625,-0.30615234375,1.0233999999999999
1.8015267175572518,0.9007633587786259,-2.213740458015267,-0.423583984375,-0.0185546875,-0.306396484375,1.0251
1.816793893129771,1.251908396946565,-2.213740458015267,-0.432373046875,-0.01513671875,-0.294921875,1.0268
1.6946564885496183,1.282442748091603,-2.0610687022900764,-0.42724609375,-0.013671875,-0.30078125,1.0285
1.816793893129771,1.3129770992366412,-2.2442748091603053,-0.425048828125,-0.011474609375,-0.305908203125,1.0302
1.984732824427481,1.4045801526717556,-2.2442748091603053,-0.4228515625,-0.0146484375,-0.29833984375,1.0319
1.7709923664122138,1.2366412213740459,-2.0916030534351147,-0.427734375,-0.014892578125,-0.30615234375,1.0335999999999999
1.7099236641221374,1.0687022900763359,-1.9541984732824427,-0.423095703125,-0.012451171875,-0.307861328125,1.0352999999999999
1.8778625954198473,1.2213740458015268,-2.2595419847328246,-0.426513671875,-0.014892578125,-0.30908203125,1.037
1.7251908396946565,1.2061068702290076,-1.984732824427481,-0.421875,-0.009521484375,-0.30078125,1.0387
1.633587786259542,1.1145038167938932,-2.030534351145038,-0.423583984375,-0.010009765625,-0.310546875,1.0404
2.0,1.297709923664122,-1.9389312977099236,-0.421142578125,-0.015380859375,-0.300048828125,1.0421
1.7557251908396947,1.282442748091603,-1.8778625954198473,-0.422607421875,-0.011474609375,-0.3076171875,1.0437999999999998
1.5877862595419847,1.1145038167938932,-1.9694656488549618,-0.423583984375,-0.012939453125,-0.3076171875,1.0454999999999999
1.7099236641221374,1.0687022900763359,-2.0610687022900764,-0.423095703125,-0.01123046875,-0.30615234375,1.0472
1.618320610687023,0.9618320610687023,-1.7099236641221374,-0.422119140625,-0.015869140625,-0.298095703125,1.0489
1.5572519083969465,0.916030534351145,-1.9541984732824427,-0.41650390625,-0.01611328125,-0.307373046875,1.0506
1.6946564885496183,1.0534351145038168,-1.9083969465648856,-0.420166015625,-0.013671875,-0.2978515625,1.0523
1.6030534351145038,1.3282442748091603,-1.816793893129771,-0.427490234375,-0.01220703125,-0.298583984375,1.054
1.7099236641221374,0.9770992366412213,-1.7404580152671756,-0.421142578125,-0.010498046875,-0.298828125,1.0556999999999999
1.7404580152671756,0.8244274809160306,-1.8015267175572518,-0.427001953125,-0.01416015625,-0.302490234375,1.0574
1.633587786259542,1.2061068702290076,-1.7251908396946565,-0.419189453125,-0.01416015625,-0.29443359375,1.0591
1.7557251908396947,0.9312977099236641,-1.618320610687023,-0.423095703125,-0.017822265625,-0.300048828125,1.0608
1.8931297709923665,0.9618320610687023,-1.5114503816793894,-0.42333984375,-0.00927734375,-0.29833984375,1.0625
1.7709923664122138,0.916030534351145,-1.6793893129770991,-0.425048828125,-0.010009765625,-0.29833984375,1.0642
1.7251908396946565,0.916030534351145,-1.6488549618320612,-0.42333984375,-0.015380859375,-0.304443359375,1.0658999999999998
1.618320610687023,0.9465648854961832,-1.6030534351145038,-0.42236328125,-0.01025390625,-0.30224609375,1.0675999999999999
1.8473282442748091,1.0381679389312977,-1.5877862595419847,-0.421875,-0.009033203125,-0.302978515625,1.0693
1.7557251908396947,0.7786259541984732,-1.4198473282442747,-0.425048828125,-0.012451171875,-0.2900390625,1.071
1.7251908396946565,0.732824427480916,-1.3282442748091603,-0.421875,-0.0126953125,-0.301025390625,1.0727
1.8015267175572518,0.8091603053435115,-1.7099236641221374,-0.42138671875,-0.010986328125,-0.305419921875,1.0744
1.9083969465648856,0.6870229007633588,-1.5725190839694656,-0.42431640625,-0.008056640625,-0.294189453125,1.0760999999999998
1.9694656488549618,0.5801526717557252,-1.4198473282442747,-0.41943359375,-0.015380859375,-0.3056640625,1.0777999999999999
1.83206106870229,0.6564885496183206,-1.3587786259541985,-0.423095703125,-0.0146484375,-0.291259765625,1.0795
1.9236641221374047,0.3969465648854962,-1.4351145038167938,-0.4248046875,-0.013916015625,-0.297119140625,1.0812
1.9236641221374047,0.5190839694656488,-1.4045801526717556,-0.42431640625,-0.00830078125,-0.30517578125,1.0829
1.8625954198473282,0.3511450381679389,-1.618320610687023,-0.42529296875,-0.010498046875,-0.308349609375,1.0846
1.9083969465648856,0.2748091603053435,-1.465648854961832,-0.42626953125,-0.01220703125,-0.30615234375,1.0863
2.183206106870229,0.3816793893129771,-1.5572519083969465,-0.42822265625,-0.013427734375,-0.300537109375,1.0879999999999999
1.9236641221374047,0.4580152671755725,-1.6030534351145038,-0.421630859375,-0.0107421875,-0.310791015625,1.0897
1.8931297709923665,0.3969465648854962,-1.4809160305343512,-0.418701171875,-0.0126953125,-0.306884765625,1.0914
2.015267175572519,0.4732824427480916,-1.5572519083969465,-0.421630859375,-0.01220703125,-0.2978515625,1.0931
1.9083969465648856,0.5648854961832062,-1.5114503816793894,-0.426513671875,-0.015625,-0.304931640625,1.0948
1.7709923664122138,0.4732824427480916,-1.5725190839694656,-0.4228515625,-0.012939453125,-0.30078125,1.0965
2.015267175572519,0.44274809160305345,-1.465648854961832,-0.42626953125,-0.0126953125,-0.30517578125,1.0981999999999998
1.8778625954198473,0.42748091603053434,-1.4198473282442747,-0.4248046875,-0.011474609375,-0.29541015625,1.0998999999999999
1.7251908396946565,0.6259541984732825,-1.4809160305343512,-0.426513671875,-0.01708984375,-0.29833984375,1.1016
1.8931297709923665,0.549618320610687,-1.099236641221374,-0.426513671875,-0.0185546875,-0.3046875,1.1033
1.9389312977099236,0.6412213740458015,-1.3435114503816794,-0.423583984375,-0.013671875,-0.30322265625,1.105
1.786259541984733,0.7938931297709924,-1.4045801526717556,-0.423583984375,-0.012939453125,-0.3037109375,1.1067
1.9083969465648856,0.6106870229007634,-1.3282442748091603,-0.422607421875,-0.015380859375,-0.301513671875,1.1083999999999998
1.9389312977099236,0.5038167938931297,-1.0076335877862594,-0.427490234375,-0.014892578125,-0.30322265625,1.1100999999999999
1.7709923664122138,0.6564885496183206,-1.4351145038167938,-0.421630859375,-0.01806640625,-0.308349609375,1.1118
1.7404580152671756,0.5648854961832062,-1.2671755725190839,-0.425537109375,-0.013671875,-0.30517578125,1.1135
1.5419847328244274,0.6259541984732825,-1.4809160305343512,-0.4248046875,-0.015380859375,-0.299072265625,1.1152
1.6030534351145038,0.7633587786259542,-1.3129770992366412,-0.427490234375,-0.015869140625,-0.294921875,1.1169
1.8625954198473282,0.7022900763358778,-1.450381679389313,-0.42431640625,-0.019287109375,-0.2998046875,1.1186
1.4961832061068703,0.732824427480916,-1.3587786259541985,-0.426025390625,-0.0166015625,-0.291748046875,1.1202999999999999
1.450381679389313,0.7022900763358778,-1.5725190839694656,-0.4248046875,-0.011474609375,-0.30029296875,1.1219999999999999
1.618320610687023,0.8396946564885496,-1.4351145038167938,-0.428466796875,-0.011474609375,-0.297607421875,1.1237
1.297709923664122,0.9007633587786259,-1.6946564885496183,-0.431640625,-0.0068359375,-0.302490234375,1.1254
1.4961832061068703,0.549618320610687,-1.3129770992366412,-0.43212890625,-0.0107421875,-0.307861328125,1.1271
1.3435114503816794,0.549618320610687,-1.5877862595419847,-0.42431640625,-0.016357421875,-0.29248046875,1.1288
1.297709923664122,0.8244274809160306,-1.3893129770992367,-0.424560546875,-0.012939453125,-0.302978515625,1.1304999999999998
1.3435114503816794,0.8549618320610687,-1.6030534351145038,-0.4267578125,-0.01513671875,-0.3056640625,1.1321999999999999
1.1603053435114503,0.7786259541984732,-1.4809160305343512,-0.424072265625,-0.020751953125,-0.314208984375,1.1339
1.0534351145038168,0.8854961832061069,-1.450381679389313,-0.42578125,-0.0146484375,-0.303955078125,1.1356
0.916030534351145,1.0229007633587786,-1.465648854961832,-0.42578125,-0.0146484375,-0.2958984375,1.1373
1.1297709923664123,0.7633587786259542,-1.6030534351145038,-0.4296875,-0.01220703125,-0.3095703125,1.139
1.2061068702290076,0.6717557251908397,-1.6488549618320612,-0.42529296875,-0.010986328125,-0.29833984375,1.1407
1.0076335877862594,0.8396946564885496,-1.6946564885496183,-0.426513671875,-0.010986328125,-0.303955078125,1.1423999999999999
1.1297709923664123,0.8091603053435115,-1.6030534351145038,-0.4208984375,-0.01953125,-0.307373046875,1.1441
1.251908396946565,0.8854961832061069,-1.8473282442748091,-0.422607421875,-0.011474609375,-0.298583984375,1.1458
0.9770992366412213,0.8244274809160306,-1.5725190839694656,-0.4306640625,-0.0107421875,-0.296630859375,1.1475
1.2671755725190839,0.8854961832061069,-1.816793893129771,-0.431396484375,-0.01220703125,-0.299072265625,1.1492
1.0687022900763359,1.1297709923664123,-1.7251908396946565,-0.424072265625,-0.012939453125,-0.303955078125,1.1509
1.083969465648855,1.1145038167938932,-1.83206106870229,-0.42578125,-0.01611328125,-0.2978515625,1.1525999999999998
1.0229007633587786,0.8702290076335878,-1.8931297709923665,-0.424072265625,-0.009033203125,-0.296142578125,1.1542999999999999
1.1145038167938932,0.8854961832061069,-1.6946564885496183,-0.42431640625,-0.0126953125,-0.301025390625,1.156
0.9618320610687023,0.8549618320610687,-1.7709923664122138,-0.42431640625,-0.01123046875,-0.30517578125,1.1577
0.9923664122137404,1.0229007633587786,-1.9694656488549618,-0.42236328125,-0.01416015625,-0.30859375,1.1594
0.9007633587786259,1.0076335877862594,-1.6641221374045803,-0.42138671875,-0.014892578125,-0.30126953125,1.1611
0.916030534351145,0.9618320610687023,-1.6488549618320612,-0.423583984375,-0.015625,-0.304443359375,1.1627999999999998
1.1603053435114503,1.0076335877862594,-1.8015267175572518,-0.426025390625,-0.013671875,-0.30078125,1.1644999999999999
1.0076335877862594,0.916030534351145,-1.8473282442748091,-0.42724609375,-0.01416015625,-0.310302734375,1.1662
0.9618320610687023,0.8854961832061069,-1.816793893129771,-0.425537109375,-0.01123046875,-0.2978515625,1.1679
1.2366412213740459,0.8549618320610687,-2.030534351145038,-0.42529296875,-0.009521484375,-0.301513671875,1.1696
0.9770992366412213,0.8396946564885496,-1.7557251908396947,-0.42626953125,-0.007568359375,-0.30322265625,1.1713
0.9007633587786259,0.8549618320610687,-1.7251908396946565,-0.422607421875,-0.010986328125,-0.296875,1.173
1.099236641221374,0.5954198473282443,-1.83206106870229,-0.424560546875,-0.01025390625,-0.302734375,1.1746999999999999
1.1908396946564885,0.6564885496183206,-2.0,-0.42236328125,-0.0126953125,-0.29931640625,1.1764
1.3282442748091603,0.732824427480916,-1.8931297709923665,-0.41552734375,-0.013916015625,-0.30029296875,1.1781
1.282442748091603,0.5801526717557252,-2.1068702290076335,-0.426025390625,-0.0068359375,-0.29931640625,1.1798
0.9618320610687023,0.6259541984732825,-1.7709923664122138,-0.426513671875,-0.00341796875,-0.297119140625,1.1815
1.633587786259542,0.5343511450381679,-1.9541984732824427,-0.42822265625,-0.00927734375,-0.2958984375,1.1832
1.8015267175572518,0.4732824427480916,-2.0763358778625953,-0.423095703125,-0.010498046875,-0.301513671875,1.1848999999999998
1.6641221374045803,0.5343511450381679,-2.0,-0.42626953125,-0.0107421875,-0.3037109375,1.1865999999999999
1.4351145038167938,0.4732824427480916,-1.9236641221374047,-0.42626953125,-0.010986328125,-0.302734375,1.1883
1.5267175572519085,0.3969465648854962,-1.8778625954198473,-0.42431640625,-0.010009765625,-0.299072265625,1.19
1.8778625954198473,0.6564885496183206,-1.9694656488549618,-0.42041015625,-0.009033203125,-0.29736328125,1.1917
1.9236641221374047,0.6717557251908397,-2.0,-0.42431640625,-0.009765625,-0.3017578125,1.1934
2.122137404580153,0.8091603053435115,-1.8778625954198473,-0.42236328125,-0.009521484375,-0.30224609375,1.1950999999999998
1.7709923664122138,0.5648854961832062,-1.8778625954198473,-0.425537109375,-0.008544921875,-0.295654296875,1.1967999999999999
2.0916030534351147,0.4580152671755725,-1.9083969465648856,-0.424560546875,-0.0107421875,-0.29833984375,1.1985
2.0610687022900764,0.6717557251908397,-1.9541984732824427,-0.42431640625,-0.0126953125,-0.306396484375,1.2002
1.8931297709923665,0.7022900763358778,-1.8625954198473282,-0.429443359375,-0.00634765625,-0.306640625,1.2019
2.3053435114503817,0.549618320610687,-1.8015267175572518,-0.423828125,-0.0087890625,-0.309326171875,1.2036
2.3053435114503817,0.3511450381679389,-1.83206106870229,-0.424072265625,-0.01123046875,-0.29931640625,1.2053
2.213740458015267,0.6412213740458015,-1.816793893129771,-0.424072265625,-0.009765625,-0.29541015625,1.2069999999999999
2.3053435114503817,0.5343511450381679,-1.7251908396946565,-0.42333984375,-0.01123046875,-0.296875,1.2086999999999999
2.4122137404580153,0.42748091603053434,-1.6488549618320612,-0.42626953125,-0.016357421875,-0.3056640625,1.2104
2.351145038167939,0.3969465648854962,-1.7251908396946565,-0.42138671875,-0.01025390625,-0.300048828125,1.2121
2.6564885496183206,0.549618320610687,-1.633587786259542,-0.41845703125,-0.009521484375,-0.298583984375,1.2138
2.351145038167939,0.4122137404580153,-1.3740458015267176,-0.423828125,-0.00830078125,-0.2919921875,1.2155
2.4580152671755724,0.3969465648854962,-1.4198473282442747,-0.423828125,-0.012451171875,-0.30517578125,1.2171999999999998
2.50381679389313,0.42748091603053434,-1.450381679389313,-0.42431640625,-0.011962890625,-0.301025390625,1.2188999999999999
2.687022900763359,0.48854961832061067,-1.3587786259541985,-0.420654296875,-0.010986328125,-0.30615234375,1.2206
2.687022900763359,0.4580152671755725,-1.297709923664122,-0.429443359375,-0.01171875,-0.30419921875,1.2223
2.4885496183206106,0.3511450381679389,-1.2061068702290076,-0.427734375,-0.015380859375,-0.311767578125,1.224
2.4122137404580153,0.22900763358778625,-1.1603053435114503,-0.42724609375,-0.01416015625,-0.302490234375,1.2257
2.8396946564885495,0.22900763358778625,-1.1297709923664123,-0.42529296875,-0.011962890625,-0.30517578125,1.2273999999999998
2.717557251908397,0.1984732824427481,-1.2061068702290076,-0.421875,-0.011474609375,-0.29296875,1.2290999999999999
2.595419847328244,0.42748091603053434,-1.1908396946564885,-0.427734375,-0.013427734375,-0.302001953125,1.2308
2.732824427480916,0.2595419847328244,-0.9312977099236641,-0.42333984375,-0.01806640625,-0.306640625,1.2325
2.5801526717557253,0.183206106870229,-0.916030534351145,-0.42333984375,-0.013916015625,-0.295166015625,1.2342
2.717557251908397,0.3053435114503817,-0.916030534351145,-0.424560546875,-0.018310546875,-0.30322265625,1.2359
2.7022900763358777,0.33587786259541985,-0.5801526717557252,-0.42138671875,-0.018310546875,-0.3125,1.2376
2.6717557251908395,0.183206106870229,-0.6717557251908397,-0.424560546875,-0.016845703125,-0.297607421875,1.2392999999999998
2.33587786259542,0.24427480916030533,-0.8854961832061069,-0.423583984375,-0.016845703125,-0.30029296875,1.2409999999999999
2.4122137404580153,0.32061068702290074,-0.5954198473282443,-0.42529296875,-0.015625,-0.295654296875,1.2427
2.427480916030534,0.21374045801526717,-0.42748091603053434,-0.427734375,-0.0126953125,-0.299560546875,1.2444
2.6259541984732824,0.13740458015267176,-0.5801526717557252,-0.423828125,-0.016357421875,-0.30029296875,1.2461
2.4580152671755724,0.32061068702290074,-0.4580152671755725,-0.42626953125,-0.015869140625,-0.30517578125,1.2478
2.4732824427480917,0.32061068702290074,-0.5343511450381679,-0.42578125,-0.0107421875,-0.2958984375,1.2494999999999998
2.5801526717557253,0.33587786259541985,-0.48854961832061067,-0.424072265625,-0.01708984375,-0.29443359375,1.2511999999999999
2.366412213740458,0.3053435114503817,-0.4580152671755725,-0.427734375,-0.0185546875,-0.296142578125,1.2529
2.0916030534351147,0.3511450381679389,-0.3511450381679389,-0.426025390625,-0.0234375,-0.3046875,1.2546
2.3206106870229006,0.44274809160305345,-0.12213740458015267,-0.426513671875,-0.015380859375,-0.29931640625,1.2563
2.2748091603053435,0.3511450381679389,-0.12213740458015267,-0.427978515625,-0.019287109375,-0.305419921875,1.258
2.198473282442748,0.6259541984732825,-0.22900763358778625,-0.4248046875,-0.017578125,-0.3056640625,1.2596999999999998
2.2290076335877864,0.32061068702290074,-0.2900763358778626,-0.425537109375,-0.0166015625,-0.296875,1.2613999999999999
1.83206106870229,0.183206106870229,-0.2748091603053435,-0.426025390625,-0.013671875,-0.300537109375,1.2631
2.0610687022900764,0.3053435114503817,-0.2900763358778626,-0.41845703125,-0.01611328125,-0.30615234375,1.2648
2.183206106870229,0.3511450381679389,-0.3816793893129771,-0.42529296875,-0.01123046875,-0.310791015625,1.2665
1.9389312977099236,0.2748091603053435,-0.030534351145038167,-0.425048828125,-0.012451171875,-0.302001953125,1.2682
1.8778625954198473,0.183206106870229,-0.12213740458015267,-0.4208984375,-0.014404296875,-0.302001953125,1.2699
1.8625954198473282,0.4122137404580153,-0.10687022900763359,-0.425048828125,-0.01318359375,-0.300537109375,1.2715999999999998
1.83206106870229,0.2595419847328244,-0.32061068702290074,-0.430908203125,-0.013671875,-0.298583984375,1.2732999999999999
1.9541984732824427,0.3511450381679389,0.030534351145038167,-0.425537109375,-0.016845703125,-0.301025390625,1.275
1.8625954198473282,0.4732824427480916,-0.030534351145038167,-0.4267578125,-0.009765625,-0.30810546875,1.2767
1.8778625954198473,0.366412213740458,-0.061068702290076333,-0.427978515625,-0.01708984375,-0.306396484375,1.2784
1.8625954198473282,0.48854961832061067,-0.061068702290076333,-0.42919921875,-0.01953125,-0.298095703125,1.2801
1.7251908396946565,0.366412213740458,-0.2595419847328244,-0.430419921875,-0.017578125,-0.303955078125,1.2817999999999998
1.5572519083969465,0.5343511450381679,-0.061068702290076333,-0.426513671875,-0.01171875,-0.29345703125,1.2834999999999999
1.7557251908396947,0.6412213740458015,-0.22900763358778625,-0.4267578125,-0.011962890625,-0.307373046875,1.2852
1.5114503816793894,0.48854961832061067,-0.366412213740458,-0.421875,-0.01171875,-0.295654296875,1.2869
1.5114503816793894,0.5801526717557252,-0.33587786259541985,-0.423828125,-0.0205078125,-0.29931640625,1.2886
1.6030534351145038,0.7938931297709924,-0.3053435114503817,-0.4267578125,-0.01904296875,-0.29443359375,1.2903
1.450381679389313,0.732824427480916,-0.16793893129770993,-0.428955078125,-0.01708984375,-0.300537109375,1.292
1.5114503816793894,0.8091603053435115,-0.3969465648854962,-0.42626953125,-0.02197265625,-0.303955078125,1.2936999999999999
1.3282442748091603,0.6564885496183206,-0.44274809160305345,-0.427001953125,-0.017333984375,-0.29931640625,1.2953999999999999
1.297709923664122,0.6717557251908397,-0.5038167938931297,-0.419189453125,-0.015869140625,-0.295166015625,1.2971
1.099236641221374,0.48854961832061067,-0.22900763358778625,-0.421630859375,-0.015869140625,-0.30224609375,1.2988
1.2366412213740459,0.44274809160305345,-0.366412213740458,-0.425048828125,-0.01513671875,-0.300048828125,1.3005
0.8244274809160306,0.5954198473282443,-0.366412213740458,-0.42333984375,-0.01806640625,-0.29736328125,1.3022
1.0534351145038168,0.7175572519083969,-0.44274809160305345,-0.429443359375,-0.01513671875,-0.294921875,1.3038999999999998
1.1297709923664123,0.5343511450381679,-0.32061068702290074,-0.42919921875,-0.018310546875,-0.29443359375,1.3055999999999999
0.8091603053435115,0.4732824427480916,-0.22900763358778625,-0.42138671875,-0.0224609375,-0.297607421875,1.3073
0.9618320610687023,0.5038167938931297,-0.21374045801526717,-0.425537109375,-0.019775390625,-0.297119140625,1.309
0.6564885496183206,0.6259541984732825,-0.48854961832061067,-0.427734375,-0.0146484375,-0.300048828125,1.3107
0.9007633587786259,0.7175572519083969,-0.48854961832061067,-0.423095703125,-0.016845703125,-0.298828125,1.3124
0.5954198473282443,0.549618320610687,-0.5343511450381679,-0.425048828125,-0.013427734375,-0.295166015625,1.3140999999999998
0.732824427480916,0.366412213740458,-0.2748091603053435,-0.427734375,-0.0166015625,-0.301025390625,1.3157999999999999
0.7938931297709924,0.549618320610687,-0.5343511450381679,-0.427978515625,-0.012451171875,-0.309326171875,1.3175
0.48854961832061067,0.5343511450381679,-0.48854961832061067,-0.423583984375,-0.013671875,-0.29931640625,1.3192
0.42748091603053434,0.6717557251908397,-0.5343511450381679,-0.425048828125,-0.013916015625,-0.29736328125,1.3209
0.48854961832061067,0.732824427480916,-0.48854961832061067,-0.423583984375,-0.01171875,-0.30517578125,1.3226
0.42748091603053434,0.6564885496183206,-0.5343511450381679,-0.421630859375,-0.014404296875,-0.29443359375,1.3243
0.48854961832061067,0.4732824427480916,-0.7022900763358778,-0.427490234375,-0.01513671875,-0.297119140625,1.3259999999999998
0.5190839694656488,0.5190839694656488,-0.6564885496183206,-0.425048828125,-0.01953125,-0.30078125,1.3276999999999999
0.5038167938931297,0.6564885496183206,-0.5343511450381679,-0.423583984375,-0.013427734375,-0.293701171875,1.3294
0.22900763358778625,0.8091603053435115,-0.5954198473282443,-0.421875,-0.013427734375,-0.298095703125,1.3311
0.33587786259541985,0.6870229007633588,-0.5954198473282443,-0.42822265625,-0.010986328125,-0.30322265625,1.3328
0.32061068702290074,0.7938931297709924,-0.5343511450381679,-0.42529296875,-0.00927734375,-0.302734375,1.3345
0.15267175572519084,0.7175572519083969,-0.3969465648854962,-0.425048828125,-0.017333984375,-0.297607421875,1.3361999999999998
0.07633587786259542,0.8091603053435115,-0.7633587786259542,-0.427734375,-0.017333984375,-0.298095703125,1.3378999999999999
0.030534351145038167,0.8854961832061069,-0.5343511450381679,-0.42626953125,-0.010986328125,-0.302734375,1.3396
0.04580152671755725,0.6259541984732825,-0.7480916030534351,-0.42626953125,-0.01806640625,-0.302734375,1.3413
-0.061068702290076333,0.7022900763358778,-0.5801526717557252,-0.423828125,-0.01123046875,-0.305908203125,1.343
0.04580152671755725,0.6870229007633588,-0.5801526717557252,-0.422607421875,-0.011962890625,-0.315185546875,1.3447
-0.015267175572519083,0.6870229007633588,-0.5343511450381679,-0.423583984375,-0.01220703125,-0.302734375,1.3463999999999998
-0.030534351145038167,0.8091603053435115,-0.6259541984732825,-0.42578125,-0.019775390625,-0.303466796875,1.3480999999999999
0.0,0.7786259541984732,-0.6564885496183206,-0.42236328125,-0.00927734375,-0.304931640625,1.3497999999999999
-0.21374045801526717,0.7175572519083969,-0.732824427480916,-0.42822265625,-0.013671875,-0.300537109375,1.3515
-0.04580152671755725,0.7175572519083969,-0.7175572519083969,-0.425048828125,-0.01318359375,-0.306396484375,1.3532
-0.030534351145038167,0.7480916030534351,-0.916030534351145,-0.426513671875,-0.017333984375,-0.30224609375,1.3549
-0.16793893129770993,0.8396946564885496,-0.6259541984732825,-0.4296875,-0.0087890625,-0.298583984375,1.3566
-0.16793893129770993,0.7480916030534351,-0.7786259541984732,-0.426513671875,-0.01220703125,-0.301513671875,1.3582999999999998
-0.15267175572519084,0.6564885496183206,-0.6106870229007634,-0.42431640625,-0.0068359375,-0.2998046875,1.3599999999999999
-0.10687022900763359,0.7938931297709924,-0.7022900763358778,-0.429931640625,-0.0107421875,-0.29736328125,1.3617
0.0916030534351145,0.9007633587786259,-0.6564885496183206,-0.42333984375,-0.01708984375,-0.30078125,1.3634
-0.1984732824427481,0.9007633587786259,-0.9312977099236641,-0.424560546875,-0.011962890625,-0.30908203125,1.3651
-0.16793893129770993,0.8854961832061069,-0.732824427480916,-0.4248046875,-0.010986328125,-0.296142578125,1.3668
-0.015267175572519083,0.8091603053435115,-0.8091603053435115,-0.42626953125,-0.0087890625,-0.30517578125,1.3684999999999998
0.0916030534351145,0.9312977099236641,-0.6717557251908397,-0.4326171875,-0.01171875,-0.2919921875,1.3701999999999999
0.030534351145038167,1.0534351145038168,-0.8854961832061069,-0.4287109375,-0.011474609375,-0.30712890625,1.3719
-0.21374045801526717,0.8854961832061069,-0.7938931297709924,-0.423095703125,-0.01171875,-0.295654296875,1.3736
-0.12213740458015267,0.7480916030534351,-0.7786259541984732,-0.421142578125,-0.00927734375,-0.299560546875,1.3753
0.15267175572519084,0.6870229007633588,-0.7633587786259542,-0.42236328125,-0.010986328125,-0.29443359375,1.377
-0.061068702290076333,0.9312977099236641,-0.732824427480916,-0.42529296875,-0.00732421875,-0.29296875,1.3786999999999998
0.13740458015267176,0.732824427480916,-0.6259541984732825,-0.424560546875,-0.006591796875,-0.30517578125,1.3803999999999998
0.21374045801526717,1.099236641221374,-0.8702290076335878,-0.42431640625,-0.009033203125,-0.3046875,1.3820999999999999
0.3053435114503817,0.916030534351145,-0.5801526717557252,-0.427978515625,-0.009033203125,-0.305908203125,1.3838
0.16793893129770993,0.8702290076335878,-0.5190839694656488,-0.425537109375,-0.011962890625,-0.2978515625,1.3855
0.32061068702290074,0.8549618320610687,-0.7633587786259542,-0.427734375,-0.01025390625,-0.29931640625,1.3872
0.183206106870229,0.8244274809160306,-0.8091603053435115,-0.427978515625,-0.006591796875,-0.302734375,1.3889
0.15267175572519084,0.7633587786259542,-0.6564885496183206,-0.426025390625,-0.008056640625,-0.297119140625,1.3905999999999998
0.32061068702290074,0.9465648854961832,-0.6717557251908397,-0.42626953125,-0.008544921875,-0.300048828125,1.3922999999999999
0.3969465648854962,0.9618320610687023,-0.6564885496183206,-0.429931640625,-0.0107421875,-0.302001953125,1.394
0.5038167938931297,0.8244274809160306,-0.8091603053435115,-0.430419921875,-0.0068359375,-0.294921875,1.3957
0.33587786259541985,1.0534351145038168,-0.8702290076335878,-0.427490234375,-0.005615234375,-0.309814453125,1.3974
0.48854961832061067,0.9007633587786259,-0.8549618320610687,-0.426025390625,-0.010009765625,-0.306396484375,1.3991
0.6106870229007634,1.0229007633587786,-0.7633587786259542,-0.426513671875,-0.00732421875,-0.310546875,1.4007999999999998
0.42748091603053434,0.9770992366412213,-0.7938931297709924,-0.426025390625,-0.005859375,-0.314453125,1.4024999999999999
0.6259541984732825,1.0229007633587786,-0.7938931297709924,-0.426025390625,-0.008544921875,-0.309814453125,1.4042
0.42748091603053434,1.1297709923664123,-0.8549618320610687,-0.4296875,-0.004150390625,-0.29736328125,1.4059
0.6717557251908397,1.2213740458015268,-0.7633587786259542,-0.42529296875,-0.008056640625,-0.305908203125,1.4076
0.7633587786259542,1.099236641221374,-0.7938931297709924,-0.425537109375,-0.006591796875,-0.308349609375,1.4093
0.9618320610687023,1.2671755725190839,-0.6870229007633588,-0.427734375,-0.010009765625,-0.29638671875,1.411
0.7786259541984732,1.1755725190839694,-0.7480916030534351,-0.4326171875,-0.009033203125,-0.30322265625,1.4126999999999998
0.7938931297709924,1.083969465648855,-0.7633587786259542,-0.4267578125,-0.0048828125,-0.299072265625,1.4143999999999999
0.9465648854961832,1.282442748091603,-0.7938931297709924,-0.42919921875,-0.009033203125,-0.295654296875,1.4161
0.9923664122137404,1.3893129770992367,-0.9465648854961832,-0.423583984375,-0.013916015625,-0.29541015625,1.4178
0.9465648854961832,1.3587786259541985,-0.9007633587786259,-0.4228515625,-0.00634765625,-0.299560546875,1.4195
1.083969465648855,1.4351145038167938,-0.8396946564885496,-0.424560546875,-0.008544921875,-0.299560546875,1.4212
0.9007633587786259,1.465648854961832,-0.916030534351145,-0.430419921875,-0.003173828125,-0.30126953125,1.4228999999999998
0.9007633587786259,1.5572519083969465,-0.7938931297709924,-0.425537109375,-0.008544921875,-0.3017578125,1.4245999999999999
1.0687022900763359,1.6030534351145038,-0.7175572519083969,-0.423583984375,-0.0107421875,-0.301025390625,1.4263
1.1450381679389312,1.4809160305343512,-0.9312977099236641,-0.424560546875,-0.00439453125,-0.3017578125,1.428
0.9923664122137404,1.450381679389313,-0.8854961832061069,-0.427978515625,-0.008056640625,-0.303955078125,1.4297
1.1755725190839694,1.450381679389313,-0.732824427480916,-0.42333984375,-0.008056640625,-0.303955078125,1.4314
1.2061068702290076,1.3129770992366412,-0.8854961832061069,-0.42041015625,-0.008544921875,-0.29736328125,1.4330999999999998
1.1755725190839694,1.4351145038167938,-0.9312977099236641,-0.419677734375,-0.0087890625,-0.307373046875,1.4347999999999999
1.2366412213740459,1.7404580152671756,-1.0381679389312977,-0.4228515625,-0.010009765625,-0.303466796875,1.4364999999999999
1.4198473282442747,1.6641221374045803,-1.0229007633587786,-0.421875,-0.006591796875,-0.30615234375,1.4382
1.4198473282442747,1.4809160305343512,-1.1145038167938932,-0.42529296875,-0.00537109375,-0.302001953125,1.4399
1.282442748091603,1.3893129770992367,-0.9923664122137404,-0.426513671875,-0.0087890625,-0.300537109375,1.4416
1.4809160305343512,1.297709923664122,-1.083969465648855,-0.421875,-0.007080078125,-0.303955078125,1.4433
1.297709923664122,1.2061068702290076,-1.083969465648855,-0.427490234375,-0.0029296875,-0.292236328125,1.4449999999999998
1.3740458015267176,1.4198473282442747,-0.8244274809160306,-0.422607421875,-0.0078125,-0.297607421875,1.4466999999999999
1.4961832061068703,1.3893129770992367,-0.8549618320610687,-0.425048828125,-0.0146484375,-0.301025390625,1.4484
1.3282442748091603,1.297709923664122,-1.282442748091603,-0.42236328125,-0.00927734375,-0.296875,1.4501
1.5267175572519085,1.1908396946564885,-0.916030534351145,-0.421875,-0.009521484375,-0.301025390625,1.4518
1.3435114503816794,1.1297709923664123,-0.9007633587786259,-0.421630859375,-0.007568359375,-0.301513671875,1.4535
1.3893129770992367,1.099236641221374,-1.1603053435114503,-0.4248046875,-0.013916015625,-0.295166015625,1.4551999999999998
1.5419847328244274,1.0687022900763359,-1.1755725190839694,-0.422607421875,-0.0078125,-0.310546875,1.4568999999999999
1.5877862595419847,1.1297709923664123,-1.1145038167938932,-0.42822265625,-0.008056640625,-0.306884765625,1.4586
1.465648854961832,1.1145038167938932,-1.0381679389312977,-0.4248046875,-0.004638671875,-0.295654296875,1.4603
1.5114503816793894,1.0076335877862594,-1.0687022900763359,-0.42333984375,-0.009033203125,-0.308837890625,1.462
1.5725190839694656,1.099236641221374,-1.099236641221374,-0.42431640625,-0.0126953125,-0.29443359375,1.4637
1.7709923664122138,1.0076335877862594,-1.2366412213740459,-0.4267578125,-0.01123046875,-0.297607421875,1.4653999999999998
1.5267175572519085,0.9007633587786259,-1.1603053435114503,-0.422119140625,-0.006103515625,-0.29638671875,1.4670999999999998
1.7099236641221374,1.099236641221374,-1.099236641221374,-0.42431640625,-0.008544921875,-0.296142578125,1.4687999999999999
1.7251908396946565,0.9618320610687023,-1.2366412213740459,-0.426025390625,-0.013916015625,-0.297119140625,1.4705
1.5114503816793894,1.0534351145038168,-1.2366412213740459,-0.430419921875,-0.009521484375,-0.305908203125,1.4722
1.6793893129770991,0.8396946564885496,-1.0687022900763359,-0.428466796875,-0.0087890625,-0.29931640625,1.4739
1.5419847328244274,1.0076335877862594,-1.1145038167938932,-0.4248046875,-0.013916015625,-0.294921875,1.4756
1.618320610687023,0.8244274809160306,-1.1297709923664123,-0.426025390625,-0.011474609375,-0.2939453125,1.4772999999999998
1.633587786259542,0.7938931297709924,-1.083969465648855,-0.42578125,-0.013916015625,-0.304443359375,1.4789999999999999
1.7251908396946565,0.7022900763358778,-1.0534351145038168,-0.42333984375,-0.006591796875,-0.298828125,1.4807
1.7251908396946565,0.8396946564885496,-1.099236641221374,-0.42578125,-0.0048828125,-0.30029296875,1.4824
1.6488549618320612,0.8396946564885496,-1.0534351145038168,-0.4228515625,-0.01171875,-0.297607421875,1.4841
1.633587786259542,0.6412213740458015,-1.1450381679389312,-0.42333984375,-0.007080078125,-0.30029296875,1.4858
1.7251908396946565,0.8244274809160306,-1.1297709923664123,-0.429931640625,-0.008056640625,-0.30419921875,1.4874999999999998
1.9236641221374047,0.9312977099236641,-1.099236641221374,-0.4248046875,-0.014892578125,-0.299560546875,1.4891999999999999
1.8778625954198473,0.916030534351145,-1.1297709923664123,-0.43017578125,-0.00634765625,-0.302490234375,1.4909
1.6946564885496183,0.8854961832061069,-1.1297709923664123,-0.421142578125,-0.00732421875,-0.294921875,1.4926
1.7557251908396947,0.8549618320610687,-1.282442748091603,-0.42333984375,-0.010009765625,-0.300048828125,1.4943
1.5877862595419847,0.9465648854961832,-1.0381679389312977,-0.42724609375,-0.008544921875,-0.30517578125,1.496
1.8473282442748091,0.916030534351145,-1.0381679389312977,-0.42529296875,-0.007080078125,-0.30517578125,1.4976999999999998
2.0610687022900764,0.9312977099236641,-1.1145038167938932,-0.42578125,-0.010498046875,-0.305908203125,1.4993999999999998
1.9541984732824427,1.0381679389312977,-1.2213740458015268,-0.423095703125,-0.0107421875,-0.30078125,1.5010999999999999
1.8015267175572518,0.8091603053435115,-1.282442748091603,-0.42431640625,-0.00439453125,-0.297607421875,1.5028
1.6793893129770991,0.9465648854961832,-1.2061068702290076,-0.425048828125,-0.008056640625,-0.297607421875,1.5045
1.6946564885496183,1.0381679389312977,-1.1297709923664123,-0.42236328125,-0.01025390625,-0.29150390625,1.5062
1.8778625954198473,0.732824427480916,-0.9465648854961832,-0.42236328125,-0.0087890625,-0.298583984375,1.5079
2.0,0.7480916030534351,-1.099236641221374,-0.426513671875,-0.010009765625,-0.29345703125,1.5095999999999998
1.7404580152671756,0.9007633587786259,-1.0229007633587786,-0.42724609375,-0.014892578125,-0.296630859375,1.5112999999999999
1.9236641221374047,0.9007633587786259,-1.2366412213740459,-0.425537109375,-0.0087890625,-0.3046875,1.513
2.0610687022900764,0.8549618320610687,-1.083969465648855,-0.417724609375,-0.01220703125,-0.296142578125,1.5147
1.9236641221374047,0.9770992366412213,-1.1450381679389312,-0.41796875,-0.01123046875,-0.2919921875,1.5164
1.7709923664122138,0.7480916030534351,-1.0381679389312977,-0.4287109375,-0.009765625,-0.302978515625,1.5181
1.8473282442748091,0.8702290076335878,-1.251908396946565,-0.42236328125,-0.012451171875,-0.30712890625,1.5197999999999998
2.045801526717557,1.1145038167938932,-1.0534351145038168,-0.419921875,-0.0087890625,-0.302734375,1.5214999999999999
2.030534351145038,0.916030534351145,-1.1145038167938932,-0.42626953125,-0.01123046875,-0.30078125,1.5231999999999999
1.7709923664122138,0.8244274809160306,-1.1603053435114503,-0.421142578125,-0.0087890625,-0.299072265625,1.5249
1.83206106870229,0.7633587786259542,-1.1755725190839694,-0.421875,-0.013427734375,-0.301025390625,1.5266
1.9389312977099236,0.7786259541984732,-1.0381679389312977,-0.421630859375,-0.008544921875,-0.302978515625,1.5283
1.9083969465648856,0.8549618320610687,-1.2061068702290076,-0.422119140625,-0.0068359375,-0.304443359375,1.5299999999999998
1.6946564885496183,0.7938931297709924,-1.0076335877862594,-0.423828125,-0.010498046875,-0.302734375,1.5316999999999998
2.0,0.6564885496183206,-1.1603053435114503,-0.421630859375,-0.013427734375,-0.302734375,1.5333999999999999
1.8931297709923665,0.7175572519083969,-1.1755725190839694,-0.423828125,-0.011474609375,-0.3115234375,1.5351
1.8625954198473282,0.8549618320610687,-1.2061068702290076,-0.421142578125,-0.007568359375,-0.30126953125,1.5368
2.0,0.7022900763358778,-0.9312977099236641,-0.422607421875,-0.0126953125,-0.302978515625,1.5385
1.9389312977099236,0.7175572519083969,-1.1908396946564885,-0.4248046875,-0.010986328125,-0.2939453125,1.5402
2.1374045801526718,0.5038167938931297,-1.1145038167938932,-0.426025390625,-0.009521484375,-0.299072265625,1.5418999999999998
1.6488549618320612,0.6106870229007634,-1.0076335877862594,-0.431396484375,-0.01171875,-0.292724609375,1.5435999999999999
1.6793893129770991,0.8091603053435115,-1.0229007633587786,-0.424072265625,-0.012451171875,-0.304931640625,1.5453
1.7557251908396947,0.7633587786259542,-1.2671755725190839,-0.426513671875,-0.01708984375,-0.29833984375,1.547
1.9541984732824427,0.6870229007633588,-1.2061068702290076,-0.425048828125,-0.01025390625,-0.3017578125,1.5487
1.618320610687023,0.6106870229007634,-1.2061068702290076,-0.41943359375,-0.008056640625,-0.298583984375,1.5504
1.6641221374045803,0.5190839694656488,-1.1755725190839694,-0.420654296875,-0.01171875,-0.30029296875,1.5520999999999998
2.0,0.5648854961832062,-1.2061068702290076,-0.426025390625,-0.007080078125,-0.301513671875,1.5537999999999998
1.6641221374045803,0.8244274809160306,-1.1603053435114503,-0.4248046875,-0.016845703125,-0.297607421875,1.5554999999999999
1.9236641221374047,0.48854961832061067,-1.4045801526717556,-0.42724609375,-0.011962890625,-0.30078125,1.5572
1.618320610687023,0.3816793893129771,-1.2213740458015268,-0.425537109375,-0.01123046875,-0.298583984375,1.5589
1.297709923664122,0.5343511450381679,-1.297709923664122,-0.427734375,-0.0146484375,-0.296630859375,1.5606
1.5877862595419847,0.3053435114503817,-1.2366412213740459,-0.419677734375,-0.009521484375,-0.29150390625,1.5623
1.450381679389313,0.44274809160305345,-1.1908396946564885,-0.420654296875,-0.013671875,-0.306640625,1.5639999999999998
1.5877862595419847,0.42748091603053434,-1.2366412213740459,-0.42626953125,-0.015380859375,-0.3076171875,1.5656999999999999
1.4351145038167938,0.3969465648854962,-1.3587786259541985,-0.425537109375,-0.016845703125,-0.31201171875,1.5674
1.465648854961832,0.3511450381679389,-1.1297709923664123,-0.42431640625,-0.018798828125,-0.30712890625,1.5691
1.4045801526717556,0.5190839694656488,-1.1297709923664123,-0.4248046875,-0.0107421875,-0.298583984375,1.5708
1.1450381679389312,0.3969465648854962,-1.1450381679389312,-0.424560546875,-0.0146484375,-0.30419921875,1.5725
1.2366412213740459,0.366412213740458,-1.282442748091603,-0.42578125,-0.0126953125,-0.299560546875,1.5741999999999998
1.4351145038167938,0.4122137404580153,-1.3282442748091603,-0.425537109375,-0.014892578125,-0.303955078125,1.5758999999999999
1.2061068702290076,0.3816793893129771,-1.2213740458015268,-0.4267578125,-0.012939453125,-0.307861328125,1.5776
1.3282442748091603,0.33587786259541985,-1.0381679389312977,-0.42822265625,-0.0107421875,-0.3046875,1.5793
1.2213740458015268,0.6717557251908397,-1.3893129770992367,-0.4267578125,-0.01513671875,-0.303955078125,1.581
1.1755725190839694,0.549618320610687,-1.5877862595419847,-0.422607421875,-0.01416015625,-0.302001953125,1.5827
1.2061068702290076,0.3969465648854962,-1.4351145038167938,-0.42724609375,-0.017333984375,-0.298828125,1.5843999999999998
1.3282442748091603,0.3511450381679389,-1.4045801526717556,-0.423828125,-0.012939453125,-0.2998046875,1.5860999999999998
1.0076335877862594,0.3816793893129771,-1.5114503816793894,-0.42431640625,-0.014404296875,-0.29931640625,1.5877999999999999
0.9770992366412213,0.6564885496183206,-1.5419847328244274,-0.423095703125,-0.013427734375,-0.294921875,1.5895
1.1908396946564885,0.5190839694656488,-1.465648854961832,-0.42333984375,-0.009521484375,-0.2939453125,1.5912
0.9312977099236641,0.366412213740458,-1.4198473282442747,-0.427978515625,-0.01220703125,-0.300048828125,1.5929
0.9007633587786259,0.2900763358778626,-1.7404580152671756,-0.424072265625,-0.011474609375,-0.304931640625,1.5946
1.083969465648855,0.3969465648854962,-1.4809160305343512,-0.422607421875,-0.010986328125,-0.302490234375,1.5962999999999998
1.251908396946565,0.13740458015267176,-1.83206106870229,-0.42333984375,-0.00341796875,-0.298095703125,1.5979999999999999
1.4961832061068703,0.1984732824427481,-1.5572519083969465,-0.42578125,-0.006591796875,-0.304931640625,1.5997
1.2213740458015268,0.07633587786259542,-1.5267175572519085,-0.42431640625,-0.0107421875,-0.306640625,1.6014
1.1603053435114503,0.0916030534351145,-1.6488549618320612,-0.42578125,-0.01025390625,-0.300537109375,1.6031
0.9923664122137404,0.04580152671755725,-1.816793893129771,-0.42431640625,-0.01318359375,-0.298583984375,1.6048
1.282442748091603,-0.07633587786259542,-1.633587786259542,-0.42431640625,-0.009765625,-0.296875,1.6064999999999998
1.4198473282442747,0.030534351145038167,-1.6488549618320612,-0.425048828125,-0.0068359375,-0.30029296875,1.6081999999999999
1.2061068702290076,0.12213740458015267,-1.5877862595419847,-0.424560546875,-0.0087890625,-0.295166015625,1.6098999999999999
1.0687022900763359,0.22900763358778625,-1.7709923664122138,-0.423095703125,-0.00732421875,-0.30078125,1.6116
1.0534351145038168,0.15267175572519084,-1.7404580152671756,-0.426025390625,-0.01513671875,-0.296630859375,1.6133
0.9770992366412213,0.13740458015267176,-1.8625954198473282,-0.426513671875,-0.015380859375,-0.30078125,1.615
0.9618320610687023,0.10687022900763359,-1.5572519083969465,-0.4267578125,-0.013671875,-0.3046875,1.6166999999999998
1.1755725190839694,0.183206106870229,-1.4961832061068703,-0.43115234375,-0.01025390625,-0.30126953125,1.6183999999999998
0.9312977099236641,0.3969465648854962,-1.3740458015267176,-0.431640625,-0.01220703125,-0.300537109375,1.6200999999999999
0.9465648854961832,0.3053435114503817,-1.5267175572519085,-0.42578125,-0.015625,-0.296875,1.6218
1.0229007633587786,0.3816793893129771,-1.4045801526717556,-0.428955078125,-0.016845703125,-0.30322265625,1.6235
0.916030534351145,0.6259541984732825,-1.2671755725190839,-0.4267578125,-0.009521484375,-0.299560546875,1.6252
0.5190839694656488,0.2595419847328244,-1.3435114503816794,-0.42919921875,-0.01416015625,-0.298095703125,1.6269
0.7022900763358778,0.42748091603053434,-1.3282442748091603,-0.427490234375,-0.01171875,-0.301025390625,1.6285999999999998
0.9923664122137404,0.5648854961832062,-1.297709923664122,-0.423095703125,-0.01123046875,-0.297119140625,1.6302999999999999
0.7480916030534351,0.33587786259541985,-1.3435114503816794,-0.4267578125,-0.01171875,-0.2958984375,1.632
0.6564885496183206,0.3816793893129771,-1.1908396946564885,-0.427490234375,-0.01123046875,-0.297607421875,1.6337
0.8091603053435115,0.42748091603053434,-1.4351145038167938,-0.425048828125,-0.010498046875,-0.30517578125,1.6354
0.8396946564885496,0.5648854961832062,-1.282442748091603,-0.421875,-0.00634765625,-0.30126953125,1.6371
0.9770992366412213,0.366412213740458,-1.3435114503816794,-0.425537109375,-0.0107421875,-0.294921875,1.6387999999999998
0.8244274809160306,0.44274809160305345,-1.3893129770992367,-0.427490234375,-0.013427734375,-0.30419921875,1.6404999999999998
0.7786259541984732,0.5954198473282443,-1.4045801526717556,-0.429443359375,-0.00634765625,-0.299072265625,1.6421999999999999
0.8702290076335878,0.6564885496183206,-1.282442748091603,-0.427001953125,-0.01171875,-0.30126953125,1.6439
0.9770992366412213,0.6870229007633588,-1.618320610687023,-0.4248046875,-0.0146484375,-0.29638671875,1.6456
0.8396946564885496,0.7633587786259542,-1.4961832061068703,-0.423583984375,-0.0087890625,-0.298828125,1.6473
0.8702290076335878,0.7938931297709924,-1.5725190839694656,-0.421630859375,-0.011962890625,-0.301025390625,1.6489999999999998
1.1755725190839694,0.6259541984732825,-1.3435114503816794,-0.42724609375,-0.0087890625,-0.30078125,1.6506999999999998
0.9618320610687023,0.6106870229007634,-1.6488549618320612,-0.423095703125,-0.007568359375,-0.30517578125,1.6523999999999999
0.9465648854961832,0.5343511450381679,-1.5267175572519085,-0.428955078125,-0.010498046875,-0.298583984375,1.6541
1.2213740458015268,0.6106870229007634,-1.5572519083969465,-0.426513671875,-0.01025390625,-0.296875,1.6558
1.251908396946565,0.6717557251908397,-1.7099236641221374,-0.428955078125,-0.01171875,-0.310302734375,1.6575
1.0381679389312977,0.6717557251908397,-1.6488549618320612,-0.424072265625,-0.009765625,-0.302978515625,1.6592
1.1450381679389312,0.6870229007633588,-1.450381679389313,-0.42333984375,-0.010498046875,-0.307373046875,1.6608999999999998
1.2213740458015268,0.5343511450381679,-1.6793893129770991,-0.427490234375,-0.008056640625,-0.305908203125,1.6625999999999999
1.3740458015267176,0.5190839694656488,-1.7099236641221374,-0.4228515625,-0.01171875,-0.3056640625,1.6643
1.251908396946565,0.6106870229007634,-1.4961832061068703,-0.43017578125,-0.00830078125,-0.302490234375,1.666
1.2366412213740459,0.5801526717557252,-1.251908396946565,-0.4267578125,-0.011474609375,-0.30419921875,1.6677
1.251908396946565,0.6412213740458015,-1.2366412213740459,-0.423828125,-0.009521484375,-0.301025390625,1.6694
1.3282442748091603,0.5190839694656488,-1.251908396946565,-0.421875,-0.013671875,-0.29443359375,1.6710999999999998
1.1450381679389312,0.44274809160305345,-1.450381679389313,-0.426025390625,-0.0107421875,-0.296142578125,1.6727999999999998
1.0687022900763359,0.5190839694656488,-1.4351145038167938,-0.423828125,-0.0068359375,-0.30029296875,1.6744999999999999
1.0229007633587786,0.6412213740458015,-1.251908396946565,-0.4248046875,-0.013427734375,-0.296875,1.6762
1.2671755725190839,0.5038167938931297,-1.297709923664122,-0.425537109375,-0.010009765625,-0.299072265625,1.6779
1.0381679389312977,0.44274809160305345,-1.3435114503816794,-0.42236328125,-0.010986328125,-0.3046875,1.6796
1.0076335877862594,0.3511450381679389,-1.251908396946565,-0.424072265625,-0.010986328125,-0.30810546875,1.6813
1.0534351145038168,0.42748091603053434,-1.3893129770992367,-0.424072265625,-0.009765625,-0.301025390625,1.6829999999999998
0.9770992366412213,0.32061068702290074,-1.2671755725190839,-0.420654296875,-0.008544921875,-0.3017578125,1.6846999999999999
1.1908396946564885,0.42748091603053434,-1.4809160305343512,-0.42236328125,-0.0078125,-0.302490234375,1.6864
1.1450381679389312,0.3969465648854962,-1.3587786259541985,-0.41943359375,-0.012939453125,-0.297119140625,1.6881
1.251908396946565,0.4580152671755725,-1.2366412213740459,-0.421142578125,-0.008544921875,-0.30126953125,1.6898
1.4351145038167938,0.2748091603053435,-1.5572519083969465,-0.42333984375,-0.010009765625,-0.29541015625,1.6915
1.2366412213740459,0.1984732824427481,-1.5725190839694656,-0.42236328125,-0.0078125,-0.304931640625,1.6931999999999998
1.1755725190839694,0.015267175572519083,-1.4809160305343512,-0.4208984375,-0.006591796875,-0.302490234375,1.6948999999999999
1.297709923664122,0.0916030534351145,-1.5419847328244274,-0.419677734375,-0.013427734375,-0.302978515625,1.6965999999999999
1.4198473282442747,0.12213740458015267,-1.4351145038167938,-0.421875,-0.00830078125,-0.296875,1.6983
1.5114503816793894,-0.04580152671755725,-1.5877862595419847,-0.426025390625,-0.0087890625,-0.301513671875,1.7
1.4961832061068703,-0.061068702290076333,-1.6793893129770991,-0.423828125,-0.00439453125,-0.298828125,1.7017
1.5267175572519085,0.0,-1.633587786259542,-0.42529296875,-0.01220703125,-0.302001953125,1.7033999999999998
1.3282442748091603,-0.1984732824427481,-1.6641221374045803,-0.42236328125,-0.00537109375,-0.3076171875,1.7050999999999998
1.7099236641221374,-0.1984732824427481,-1.7557251908396947,-0.419189453125,-0.00537109375,-0.302001953125,1.7067999999999999
1.633587786259542,-0.0916030534351145,-1.5877862595419847,-0.423828125,-0.006591796875,-0.298095703125,1.7085
1.5267175572519085,-0.1984732824427481,-1.3435114503816794,-0.421142578125,-0.007568359375,-0.29296875,1.7102
1.7099236641221374,-0.04580152671755725,-1.618320610687023,-0.421630859375,-0.00830078125,-0.294189453125,1.7119
1.5725190839694656,-0.15267175572519084,-1.5725190839694656,-0.419677734375,-0.008544921875,-0.2880859375,1.7136
1.7251908396946565,-0.48854961832061067,-1.6946564885496183,-0.427490234375,-0.00830078125,-0.2958984375,1.7152999999999998
1.6488549618320612,-0.2900763358778626,-1.6641221374045803,-0.419189453125,-0.008056640625,-0.301513671875,1.7169999999999999
1.8625954198473282,-0.16793893129770993,-1.6030534351145038,-0.42626953125,-0.0078125,-0.301025390625,1.7187
1.5572519083969465,-0.015267175572519083,-1.3893129770992367,-0.4287109375,-0.0107421875,-0.295166015625,1.7204
1.6030534351145038,-0.16793893129770993,-1.5419847328244274,-0.425048828125,-0.010986328125,-0.294189453125,1.7221
1.450381679389313,-0.366412213740458,-1.5267175572519085,-0.43017578125,-0.0107421875,-0.287353515625,1.7238
1.6030534351145038,-0.13740458015267176,-1.3587786259541985,-0.427001953125,-0.013427734375,-0.29638671875,1.7254999999999998
1.5419847328244274,-0.13740458015267176,-1.6030534351145038,-0.42626953125,-0.01416015625,-0.294189453125,1.7271999999999998
1.5725190839694656,-0.0916030534351145,-1.282442748091603,-0.425537109375,-0.00927734375,-0.293701171875,1.7288999999999999
1.4809160305343512,-0.183206106870229,-1.4961832061068703,-0.43017578125,-0.012939453125,-0.302001953125,1.7306
1.7404580152671756,0.015267175572519083,-1.3129770992366412,-0.427978515625,-0.009765625,-0.29541015625,1.7323
1.465648854961832,-0.07633587786259542,-1.0534351145038168,-0.429931640625,-0.0087890625,-0.30078125,1.734
1.4961832061068703,-0.04580152671755725,-1.3893129770992367,-0.4267578125,-0.01025390625,-0.292724609375,1.7356999999999998
1.6641221374045803,0.07633587786259542,-1.282442748091603,-0.427978515625,-0.008056640625,-0.299072265625,1.7373999999999998
1.7557251908396947,0.015267175572519083,-1.2213740458015268,-0.43115234375,-0.012451171875,-0.303466796875,1.7390999999999999
1.3282442748091603,-0.015267175572519083,-1.1755725190839694,-0.431884765625,-0.010498046875,-0.295654296875,1.7408
1.450381679389313,0.015267175572519083,-1.251908396946565,-0.431396484375,-0.013671875,-0.29296875,1.7425
1.4198473282442747,0.183206106870229,-1.0534351145038168,-0.431396484375,-0.009765625,-0.29638671875,1.7442
1.4961832061068703,0.0916030534351145,-1.1297709923664123,-0.426025390625,-0.009765625,-0.291748046875,1.7459
1.5725190839694656,0.1984732824427481,-1.1145038167938932,-0.435791015625,-0.0185546875,-0.2978515625,1.7475999999999998
1.5419847328244274,0.4122137404580153,-1.0076335877862594,-0.432373046875,-0.013427734375,-0.298583984375,1.7492999999999999
1.3129770992366412,0.2595419847328244,-0.9312977099236641,-0.4306640625,-0.01611328125,-0.294677734375,1.751
1.3282442748091603,0.5190839694656488,-1.3282442748091603,-0.427734375,-0.013671875,-0.28515625,1.7527
1.465648854961832,0.5801526717557252,-1.083969465648855,-0.42822265625,-0.01416015625,-0.3037109375,1.7544
1.083969465648855,0.6106870229007634,-1.0381679389312977,-0.432861328125,-0.013427734375,-0.306640625,1.7561
1.297709923664122,0.5343511450381679,-0.9618320610687023,-0.4306640625,-0.013427734375,-0.292724609375,1.7577999999999998
1.5267175572519085,0.6259541984732825,-1.2213740458015268,-0.432861328125,-0.01318359375,-0.29296875,1.7594999999999998
1.3129770992366412,0.732824427480916,-1.0687022900763359,-0.42724609375,-0.01220703125,-0.292724609375,1.7611999999999999
1.5267175572519085,0.9923664122137404,-1.1450381679389312,-0.427001953125,-0.00634765625,-0.290283203125,1.7629
1.4045801526717556,0.8244274809160306,-1.0534351145038168,-0.425537109375,-0.009765625,-0.302001953125,1.7646
1.3587786259541985,0.9618320610687023,-1.3893129770992367,-0.4345703125,-0.005126953125,-0.295654296875,1.7663
1.3893129770992367,1.0229007633587786,-1.1297709923664123,-0.430908203125,-0.009765625,-0.287109375,1.7679999999999998
1.5114503816793894,0.7480916030534351,-1.2671755725190839,-0.427001953125,-0.01025390625,-0.294921875,1.7696999999999998
1.2366412213740459,1.0687022900763359,-1.099236641221374,-0.42578125,-0.012939453125,-0.296875,1.7713999999999999
1.3893129770992367,1.0534351145038168,-1.3893129770992367,-0.42724609375,-0.0126953125,-0.296142578125,1.7731
1.3587786259541985,1.1908396946564885,-1.1450381679389312,-0.426025390625,-0.00390625,-0.296630859375,1.7748
1.4045801526717556,0.9618320610687023,-1.2061068702290076,-0.428955078125,-0.0068359375,-0.2978515625,1.7765
1.3129770992366412,1.251908396946565,-1.1755725190839694,-0.428955078125,-0.01220703125,-0.294677734375,1.7782
1.2366412213740459,1.3587786259541985,-1.3282442748091603,-0.427001953125,-0.008544921875,-0.291259765625,1.7798999999999998
1.3435114503816794,1.450381679389313,-1.3129770992366412,-0.426513671875,-0.0146484375,-0.289794921875,1.7815999999999999
1.1908396946564885,1.2213740458015268,-1.3587786259541985,-0.428466796875,-0.011474609375,-0.293212890625,1.7832999999999999
1.2671755725190839,1.3129770992366412,-1.3587786259541985,-0.431640625,-0.009033203125,-0.294921875,1.785
