gyrox1,gyroy1,gyroz1,accelx1,accely1,accelz1,Time
1.7557251908396947,1.5572519083969465,-1.4045801526717556,0.016357421875,-0.091064453125,-0.6044921875,0.0
2.0610687022900764,1.5419847328244274,-1.282442748091603,0.013427734375,-0.0927734375,-0.61279296875,0.0017
2.1068702290076335,1.816793893129771,-1.465648854961832,0.011474609375,-0.09619140625,-0.612060546875,0.0034
1.9541984732824427,1.7557251908396947,-1.3740458015267176,0.012939453125,-0.09228515625,-0.60791015625,0.0050999999999999995
2.0916030534351147,1.6488549618320612,-1.4351145038167938,0.015625,-0.09228515625,-0.607421875,0.0068
2.122137404580153,1.8473282442748091,-1.297709923664122,0.0146484375,-0.0927734375,-0.6005859375,0.008499999999999999
2.3053435114503817,1.7557251908396947,-1.4198473282442747,0.01220703125,-0.09228515625,-0.601318359375,0.010199999999999999
2.1526717557251906,2.0610687022900764,-1.282442748091603,0.015625,-0.094482421875,-0.61181640625,0.011899999999999999
2.2595419847328246,2.030534351145038,-1.450381679389313,0.013916015625,-0.09814453125,-0.60302734375,0.0136
2.549618320610687,2.0,-1.3740458015267176,0.015625,-0.09814453125,-0.60595703125,0.0153
2.2748091603053435,2.122137404580153,-1.450381679389313,0.011962890625,-0.094970703125,-0.597900390625,0.016999999999999998
2.183206106870229,2.045801526717557,-1.3893129770992367,0.0146484375,-0.0927734375,-0.6064453125,0.018699999999999998
2.3206106870229006,2.2595419847328246,-1.4045801526717556,0.01953125,-0.099609375,-0.609619140625,0.020399999999999998
2.198473282442748,2.2442748091603053,-1.5114503816793894,0.021484375,-0.098876953125,-0.612060546875,0.022099999999999998
2.3206106870229006,2.1374045801526718,-1.5114503816793894,0.025634765625,-0.099365234375,-0.60888671875,0.023799999999999998
2.122137404580153,2.015267175572519,-1.297709923664122,0.022705078125,-0.09814453125,-0.603271484375,0.0255
2.16793893129771,2.122137404580153,-1.5877862595419847,0.022216796875,-0.09423828125,-0.609130859375,0.0272
1.9389312977099236,2.0916030534351147,-1.4961832061068703,0.021484375,-0.093017578125,-0.6103515625,0.0289
1.9694656488549618,1.8473282442748091,-1.3282442748091603,0.01513671875,-0.091064453125,-0.60498046875,0.0306
1.9083969465648856,1.9236641221374047,-1.251908396946565,0.021240234375,-0.092529296875,-0.60546875,0.032299999999999995
2.0610687022900764,1.7251908396946565,-1.3587786259541985,0.01953125,-0.09521484375,-0.605712890625,0.033999999999999996
1.633587786259542,1.6793893129770991,-1.2671755725190839,0.01953125,-0.102294921875,-0.608154296875,0.035699999999999996
1.465648854961832,1.7251908396946565,-1.282442748091603,0.020263671875,-0.10009765625,-0.604248046875,0.037399999999999996
1.5267175572519085,1.6488549618320612,-1.1145038167938932,0.0244140625,-0.099609375,-0.601318359375,0.039099999999999996
1.3435114503816794,1.6641221374045803,-0.8396946564885496,0.0205078125,-0.097412109375,-0.609375,0.040799999999999996
1.0381679389312977,1.5267175572519085,-0.8854961832061069,0.024658203125,-0.09716796875,-0.606689453125,0.042499999999999996
1.3282442748091603,1.4351145038167938,-0.9770992366412213,0.02001953125,-0.096923828125,-0.6083984375,0.044199999999999996
1.0229007633587786,1.3893129770992367,-0.5648854961832062,0.01513671875,-0.10107421875,-0.60888671875,0.045899999999999996
1.1603053435114503,1.3587786259541985,-0.7786259541984732,0.0224609375,-0.09814453125,-0.60693359375,0.047599999999999996
0.9312977099236641,1.450381679389313,-0.6717557251908397,0.02197265625,-0.10205078125,-0.604736328125,0.0493
1.3129770992366412,1.2061068702290076,-0.5954198473282443,0.019287109375,-0.0986328125,-0.599609375,0.051
0.8091603053435115,1.099236641221374,-0.6870229007633588,0.026123046875,-0.09228515625,-0.60107421875,0.0527
0.916030534351145,0.9770992366412213,-0.5648854961832062,0.020263671875,-0.099853515625,-0.605712890625,0.0544
0.6717557251908397,1.1603053435114503,-0.8854961832061069,0.0185546875,-0.09814453125,-0.611083984375,0.0561
0.7480916030534351,1.1755725190839694,-0.7938931297709924,0.0185546875,-0.093994140625,-0.60595703125,0.0578
0.5954198473282443,1.099236641221374,-0.9007633587786259,0.014404296875,-0.098388671875,-0.604736328125,0.0595
0.48854961832061067,1.0076335877862594,-0.7938931297709924,0.0146484375,-0.09912109375,-0.60107421875,0.0612
0.5190839694656488,0.8854961832061069,-0.916030534351145,0.016357421875,-0.1005859375,-0.603515625,0.0629
0.732824427480916,0.9923664122137404,-1.0381679389312977,0.016357421875,-0.097412109375,-0.60009765625,0.06459999999999999
0.6412213740458015,1.0534351145038168,-0.916030534351145,0.01513671875,-0.095458984375,-0.604736328125,0.0663
0.549618320610687,1.0687022900763359,-0.8244274809160306,0.01416015625,-0.094482421875,-0.6083984375,0.06799999999999999
0.6717557251908397,1.1145038167938932,-0.9007633587786259,0.015625,-0.095458984375,-0.60009765625,0.0697
0.48854961832061067,1.0687022900763359,-0.8396946564885496,0.011474609375,-0.09423828125,-0.60302734375,0.07139999999999999
0.5801526717557252,1.1755725190839694,-1.0076335877862594,0.01025390625,-0.09521484375,-0.602783203125,0.0731
0.5954198473282443,1.0534351145038168,-0.916030534351145,0.01611328125,-0.094970703125,-0.6025390625,0.07479999999999999
0.5801526717557252,1.1908396946564885,-0.9007633587786259,0.013671875,-0.094482421875,-0.599853515625,0.0765
0.7175572519083969,1.1603053435114503,-1.083969465648855,0.01416015625,-0.09423828125,-0.598876953125,0.07819999999999999
0.8702290076335878,1.0534351145038168,-1.1450381679389312,0.017822265625,-0.09326171875,-0.59521484375,0.0799
0.9770992366412213,1.297709923664122,-0.9770992366412213,0.011474609375,-0.09228515625,-0.60107421875,0.08159999999999999
1.0687022900763359,1.083969465648855,-0.8702290076335878,0.008056640625,-0.090087890625,-0.6171875,0.0833
0.9770992366412213,1.0229007633587786,-1.297709923664122,0.0205078125,-0.0947265625,-0.60595703125,0.08499999999999999
1.3587786259541985,1.2061068702290076,-1.2061068702290076,0.0185546875,-0.09765625,-0.60595703125,0.0867
1.5877862595419847,1.1908396946564885,-1.0229007633587786,0.014404296875,-0.091552734375,-0.6015625,0.08839999999999999
1.4809160305343512,1.4045801526717556,-1.1908396946564885,0.01416015625,-0.091796875,-0.5947265625,0.0901
1.7251908396946565,1.2061068702290076,-1.2061068702290076,0.01513671875,-0.091796875,-0.598876953125,0.09179999999999999
1.8473282442748091,1.099236641221374,-1.450381679389313,0.017578125,-0.093505859375,-0.602783203125,0.0935
1.9236641221374047,1.1755725190839694,-1.3435114503816794,0.01171875,-0.08984375,-0.601806640625,0.09519999999999999
2.122137404580153,1.251908396946565,-1.251908396946565,0.017578125,-0.092041015625,-0.6103515625,0.0969
2.3053435114503817,1.251908396946565,-1.2366412213740459,0.01318359375,-0.093505859375,-0.604248046875,0.0986
2.4580152671755724,1.4198473282442747,-1.297709923664122,0.014404296875,-0.09375,-0.59619140625,0.1003
2.5801526717557253,1.3435114503816794,-1.251908396946565,0.017822265625,-0.09375,-0.606201171875,0.102
2.6564885496183206,1.3282442748091603,-1.251908396946565,0.014404296875,-0.0908203125,-0.5966796875,0.1037
2.687022900763359,1.3435114503816794,-1.1450381679389312,0.01318359375,-0.09033203125,-0.599853515625,0.1054
2.732824427480916,1.3435114503816794,-1.0381679389312977,0.013916015625,-0.097900390625,-0.60498046875,0.1071
2.717557251908397,1.3129770992366412,-0.9465648854961832,0.01904296875,-0.09375,-0.60791015625,0.1088
2.8396946564885495,1.2213740458015268,-1.0229007633587786,0.0205078125,-0.09033203125,-0.6064453125,0.11049999999999999
2.9618320610687023,1.3129770992366412,-0.916030534351145,0.013916015625,-0.097412109375,-0.600341796875,0.1122
2.8244274809160306,1.3587786259541985,-0.8854961832061069,0.021728515625,-0.09375,-0.600341796875,0.11389999999999999
3.114503816793893,1.3129770992366412,-0.8702290076335878,0.016845703125,-0.094970703125,-0.603515625,0.1156
3.1755725190839694,1.251908396946565,-0.9465648854961832,0.013671875,-0.098876953125,-0.60498046875,0.11729999999999999
3.0839694656488548,1.3740458015267176,-0.8549618320610687,0.017578125,-0.09716796875,-0.599365234375,0.119
3.053435114503817,1.3282442748091603,-0.9312977099236641,0.01318359375,-0.0986328125,-0.5986328125,0.12069999999999999
3.0381679389312977,1.4961832061068703,-0.8244274809160306,0.01611328125,-0.093505859375,-0.601806640625,0.1224
3.2213740458015265,1.3893129770992367,-1.0076335877862594,0.01708984375,-0.0966796875,-0.604248046875,0.12409999999999999
3.145038167938931,1.2213740458015268,-1.0229007633587786,0.01904296875,-0.10205078125,-0.607421875,0.1258
3.2519083969465647,1.2366412213740459,-0.9007633587786259,0.013916015625,-0.101806640625,-0.60498046875,0.1275
2.900763358778626,1.3587786259541985,-0.9312977099236641,0.0146484375,-0.1015625,-0.614501953125,0.12919999999999998
2.9618320610687023,1.3129770992366412,-0.916030534351145,0.01220703125,-0.1005859375,-0.60693359375,0.1309
2.8396946564885495,1.465648854961832,-0.9618320610687023,0.014404296875,-0.095947265625,-0.60107421875,0.1326
2.8702290076335877,1.5725190839694656,-1.1603053435114503,0.01123046875,-0.09716796875,-0.6064453125,0.1343
2.549618320610687,1.3282442748091603,-0.9618320610687023,0.01171875,-0.1025390625,-0.607177734375,0.13599999999999998
2.5343511450381677,1.3129770992366412,-0.916030534351145,0.016845703125,-0.1044921875,-0.6083984375,0.1377
2.5801526717557253,1.282442748091603,-0.9618320610687023,0.01953125,-0.0986328125,-0.6103515625,0.1394
2.427480916030534,1.4045801526717556,-0.7938931297709924,0.01953125,-0.0986328125,-0.61279296875,0.1411
2.1068702290076335,1.450381679389313,-0.7938931297709924,0.016357421875,-0.09521484375,-0.612060546875,0.14279999999999998
2.1068702290076335,1.4351145038167938,-0.8702290076335878,0.0185546875,-0.09912109375,-0.606201171875,0.1445
1.984732824427481,1.465648854961832,-0.5801526717557252,0.016845703125,-0.097900390625,-0.598388671875,0.1462
1.984732824427481,1.3740458015267176,-0.9465648854961832,0.021240234375,-0.0966796875,-0.611083984375,0.1479
1.7709923664122138,1.282442748091603,-0.5190839694656488,0.0205078125,-0.10205078125,-0.61669921875,0.14959999999999998
1.633587786259542,1.4198473282442747,-0.5954198473282443,0.015869140625,-0.103271484375,-0.610107421875,0.1513
1.816793893129771,1.297709923664122,-0.7175572519083969,0.0205078125,-0.10107421875,-0.61083984375,0.153
1.6946564885496183,1.3587786259541985,-0.6412213740458015,0.0166015625,-0.09716796875,-0.60107421875,0.1547
1.6641221374045803,1.282442748091603,-0.33587786259541985,0.01708984375,-0.09765625,-0.595947265625,0.15639999999999998
1.5419847328244274,1.2671755725190839,-0.732824427480916,0.01220703125,-0.094970703125,-0.598876953125,0.1581
1.4045801526717556,1.1145038167938932,-0.42748091603053434,0.0146484375,-0.095458984375,-0.606689453125,0.1598
1.465648854961832,1.2671755725190839,-0.42748091603053434,0.0224609375,-0.100341796875,-0.6064453125,0.1615
1.5114503816793894,1.3435114503816794,-0.4122137404580153,0.016357421875,-0.096923828125,-0.602294921875,0.16319999999999998
1.3282442748091603,1.1755725190839694,-0.5190839694656488,0.0185546875,-0.09423828125,-0.597900390625,0.1649
1.251908396946565,1.1908396946564885,-0.7480916030534351,0.01611328125,-0.091552734375,-0.60546875,0.1666
1.099236641221374,1.0534351145038168,-0.6106870229007634,0.016357421875,-0.093994140625,-0.6005859375,0.16829999999999998
1.2366412213740459,0.9923664122137404,-0.549618320610687,0.014404296875,-0.09619140625,-0.60791015625,0.16999999999999998
1.083969465648855,1.1450381679389312,-0.6870229007633588,0.016357421875,-0.093017578125,-0.60302734375,0.1717
1.297709923664122,1.2671755725190839,-0.5954198473282443,0.0224609375,-0.0947265625,-0.601806640625,0.1734
1.2366412213740459,1.1908396946564885,-0.6259541984732825,0.021484375,-0.093505859375,-0.609130859375,0.17509999999999998
1.1755725190839694,1.0229007633587786,-0.5343511450381679,0.014404296875,-0.08935546875,-0.601806640625,0.17679999999999998
1.2671755725190839,1.099236641221374,-0.6106870229007634,0.01611328125,-0.09375,-0.610107421875,0.1785
1.3740458015267176,1.2366412213740459,-0.6259541984732825,0.01904296875,-0.095947265625,-0.6044921875,0.1802
1.1603053435114503,1.1908396946564885,-0.7938931297709924,0.017822265625,-0.090576171875,-0.6142578125,0.18189999999999998
1.2061068702290076,1.2671755725190839,-0.5648854961832062,0.019287109375,-0.09228515625,-0.61083984375,0.18359999999999999
1.3129770992366412,1.2061068702290076,-0.6717557251908397,0.0185546875,-0.093017578125,-0.60693359375,0.1853
1.2366412213740459,1.3435114503816794,-0.549618320610687,0.0126953125,-0.093994140625,-0.608154296875,0.187
1.450381679389313,1.3587786259541985,-0.6106870229007634,0.0185546875,-0.094482421875,-0.6064453125,0.18869999999999998
1.4809160305343512,1.4198473282442747,-0.6106870229007634,0.018310546875,-0.09033203125,-0.606201171875,0.19039999999999999
1.5267175572519085,1.4961832061068703,-0.6717557251908397,0.014892578125,-0.08984375,-0.604248046875,0.1921
1.6793893129770991,1.3740458015267176,-0.5038167938931297,0.0224609375,-0.09521484375,-0.60595703125,0.1938
1.9236641221374047,1.2671755725190839,-0.5190839694656488,0.01806640625,-0.094970703125,-0.604736328125,0.19549999999999998
2.015267175572519,1.3282442748091603,-0.4580152671755725,0.01611328125,-0.090576171875,-0.608642578125,0.1972
1.9541984732824427,1.4351145038167938,-0.7022900763358778,0.01806640625,-0.0927734375,-0.6123046875,0.1989
1.9083969465648856,1.5267175572519085,-0.5343511450381679,0.017578125,-0.091552734375,-0.611572265625,0.2006
2.213740458015267,1.3740458015267176,-0.549618320610687,0.014892578125,-0.090576171875,-0.60693359375,0.20229999999999998
2.366412213740458,1.465648854961832,-0.48854961832061067,0.018310546875,-0.094482421875,-0.596923828125,0.204
2.50381679389313,1.4809160305343512,-0.6259541984732825,0.02001953125,-0.095947265625,-0.61181640625,0.2057
2.6412213740458017,1.282442748091603,-0.5648854961832062,0.01513671875,-0.091796875,-0.614013671875,0.2074
2.4885496183206106,1.282442748091603,-0.8702290076335878,0.01611328125,-0.08984375,-0.604736328125,0.20909999999999998
2.6717557251908395,1.4045801526717556,-0.8549618320610687,0.014892578125,-0.094970703125,-0.608642578125,0.2108
2.717557251908397,1.3435114503816794,-0.9312977099236641,0.0185546875,-0.09716796875,-0.60888671875,0.2125
2.946564885496183,1.3587786259541985,-0.6106870229007634,0.01953125,-0.09619140625,-0.60400390625,0.2142
3.114503816793893,1.5725190839694656,-0.8396946564885496,0.0166015625,-0.095703125,-0.611572265625,0.21589999999999998
2.885496183206107,1.4351145038167938,-0.8244274809160306,0.0185546875,-0.09423828125,-0.60791015625,0.2176
3.068702290076336,1.4809160305343512,-0.7480916030534351,0.016357421875,-0.096923828125,-0.604736328125,0.2193
3.267175572519084,1.450381679389313,-0.9007633587786259,0.016845703125,-0.1005859375,-0.601806640625,0.22099999999999997
3.0229007633587788,1.5114503816793894,-1.0229007633587786,0.018310546875,-0.094482421875,-0.6064453125,0.22269999999999998
3.0381679389312977,1.3435114503816794,-0.916030534351145,0.015625,-0.097412109375,-0.611083984375,0.2244
3.068702290076336,1.251908396946565,-1.0381679389312977,0.017333984375,-0.094482421875,-0.598388671875,0.2261
2.885496183206107,1.450381679389313,-0.9618320610687023,0.01708984375,-0.098876953125,-0.606689453125,0.22779999999999997
2.8091603053435112,1.5267175572519085,-0.9618320610687023,0.013916015625,-0.1005859375,-0.60107421875,0.22949999999999998
2.6106870229007635,1.6030534351145038,-0.8702290076335878,0.012451171875,-0.098388671875,-0.607177734375,0.2312
2.5801526717557253,1.4045801526717556,-1.0687022900763359,0.021484375,-0.100830078125,-0.60986328125,0.2329
2.2442748091603053,1.5267175572519085,-0.8702290076335878,0.0146484375,-0.0986328125,-0.61376953125,0.23459999999999998
2.381679389312977,1.5267175572519085,-1.2671755725190839,0.015625,-0.103271484375,-0.60546875,0.23629999999999998
2.3053435114503817,1.6488549618320612,-0.8702290076335878,0.02001953125,-0.101318359375,-0.6005859375,0.238
2.4580152671755724,1.5267175572519085,-1.083969465648855,0.01708984375,-0.10009765625,-0.596923828125,0.2397
2.2748091603053435,1.6488549618320612,-0.9618320610687023,0.01806640625,-0.0947265625,-0.60302734375,0.24139999999999998
2.2595419847328246,1.4961832061068703,-1.1908396946564885,0.0185546875,-0.10302734375,-0.60400390625,0.24309999999999998
2.2442748091603053,1.3129770992366412,-0.9923664122137404,0.02294921875,-0.097412109375,-0.594482421875,0.2448
2.198473282442748,1.4351145038167938,-1.0534351145038168,0.01611328125,-0.0986328125,-0.60791015625,0.2465
1.9541984732824427,1.6030534351145038,-0.9465648854961832,0.016357421875,-0.092529296875,-0.612060546875,0.24819999999999998
2.030534351145038,1.4351145038167938,-1.2671755725190839,0.01611328125,-0.09814453125,-0.608642578125,0.24989999999999998
1.8778625954198473,1.4198473282442747,-0.9465648854961832,0.019775390625,-0.103271484375,-0.60498046875,0.2516
1.6946564885496183,1.5572519083969465,-1.099236641221374,0.01806640625,-0.09375,-0.601806640625,0.25329999999999997
1.6946564885496183,1.4045801526717556,-1.083969465648855,0.016845703125,-0.093505859375,-0.59521484375,0.255
1.4961832061068703,1.6641221374045803,-1.1755725190839694,0.018798828125,-0.094970703125,-0.60546875,0.2567
1.3893129770992367,1.7557251908396947,-1.2213740458015268,0.02001953125,-0.1005859375,-0.60791015625,0.25839999999999996
1.4045801526717556,1.5725190839694656,-1.297709923664122,0.016845703125,-0.100341796875,-0.6064453125,0.2601
1.0534351145038168,1.297709923664122,-1.251908396946565,0.01708984375,-0.099365234375,-0.609130859375,0.2618
0.9007633587786259,1.282442748091603,-1.2671755725190839,0.01611328125,-0.099365234375,-0.607177734375,0.2635
0.8549618320610687,1.282442748091603,-1.1755725190839694,0.0185546875,-0.09716796875,-0.610107421875,0.2652
0.5343511450381679,1.282442748091603,-1.1297709923664123,0.021728515625,-0.096435546875,-0.6015625,0.26689999999999997
0.5801526717557252,1.3282442748091603,-1.3282442748091603,0.014892578125,-0.09814453125,-0.603271484375,0.2686
0.13740458015267176,1.1450381679389312,-1.1603053435114503,0.016357421875,-0.102294921875,-0.6142578125,0.2703
0.04580152671755725,1.1603053435114503,-1.1450381679389312,0.0146484375,-0.10205078125,-0.59716796875,0.27199999999999996
0.015267175572519083,1.251908396946565,-1.3129770992366412,0.01904296875,-0.099853515625,-0.60107421875,0.2737
-0.12213740458015267,1.1297709923664123,-1.2671755725190839,0.01806640625,-0.103759765625,-0.611083984375,0.2754
-0.16793893129770993,0.9312977099236641,-1.1297709923664123,0.016845703125,-0.100341796875,-0.6064453125,0.27709999999999996
-0.549618320610687,1.0076335877862594,-0.9618320610687023,0.019287109375,-0.099853515625,-0.60888671875,0.2788
-0.48854961832061067,1.0534351145038168,-1.3740458015267176,0.012939453125,-0.1015625,-0.603759765625,0.28049999999999997
-0.5801526717557252,0.8396946564885496,-1.1755725190839694,0.01416015625,-0.102783203125,-0.607421875,0.2822
-0.3511450381679389,0.8702290076335878,-1.1755725190839694,0.01708984375,-0.106689453125,-0.606201171875,0.2839
-0.9007633587786259,0.6412213740458015,-1.1755725190839694,0.015625,-0.1025390625,-0.60400390625,0.28559999999999997
-0.8702290076335878,0.7175572519083969,-1.297709923664122,0.019775390625,-0.10546875,-0.6123046875,0.2873
-0.6564885496183206,0.7786259541984732,-1.1603053435114503,0.018310546875,-0.104248046875,-0.60986328125,0.289
-0.6106870229007634,0.6717557251908397,-1.465648854961832,0.022216796875,-0.099609375,-0.6123046875,0.29069999999999996
-0.7480916030534351,0.7480916030534351,-1.4351145038167938,0.014404296875,-0.099365234375,-0.61181640625,0.2924
-0.7633587786259542,0.9007633587786259,-1.450381679389313,0.012451171875,-0.100341796875,-0.609619140625,0.2941
-0.6870229007633588,0.6717557251908397,-1.282442748091603,0.016357421875,-0.100830078125,-0.60791015625,0.2958
-0.3511450381679389,0.8854961832061069,-1.6488549618320612,0.01416015625,-0.10107421875,-0.60498046875,0.2975
-0.4580152671755725,0.9465648854961832,-1.4809160305343512,0.0185546875,-0.096435546875,-0.599365234375,0.29919999999999997
-0.7175572519083969,0.9007633587786259,-1.6793893129770991,0.022216796875,-0.09912109375,-0.597900390625,0.3009
-0.5954198473282443,0.8549618320610687,-1.7709923664122138,0.01171875,-0.104736328125,-0.61083984375,0.3026
-0.6259541984732825,1.0381679389312977,-2.0,0.02099609375,-0.09716796875,-0.611328125,0.30429999999999996
-0.2900763358778626,1.0534351145038168,-1.8778625954198473,0.01953125,-0.098388671875,-0.603515625,0.306
-0.24427480916030533,1.0076335877862594,-1.9694656488549618,0.012939453125,-0.093994140625,-0.607177734375,0.3077
-0.3511450381679389,1.1450381679389312,-1.9541984732824427,0.0166015625,-0.095458984375,-0.60302734375,0.3094
-0.2900763358778626,1.2061068702290076,-2.198473282442748,0.014404296875,-0.099365234375,-0.609375,0.3111
-0.3511450381679389,1.465648854961832,-2.16793893129771,0.015625,-0.09423828125,-0.614013671875,0.31279999999999997
-0.183206106870229,1.4809160305343512,-2.2442748091603053,0.01708984375,-0.0927734375,-0.6044921875,0.3145
-0.16793893129770993,1.5877862595419847,-2.183206106870229,0.016357421875,-0.099853515625,-0.615478515625,0.3162
-0.24427480916030533,1.5267175572519085,-2.4122137404580153,0.01611328125,-0.097412109375,-0.60498046875,0.31789999999999996
-0.04580152671755725,1.5419847328244274,-2.4122137404580153,0.01416015625,-0.0966796875,-0.604736328125,0.3196
0.030534351145038167,1.618320610687023,-2.427480916030534,0.01416015625,-0.09375,-0.6123046875,0.3213
0.13740458015267176,1.5877862595419847,-2.519083969465649,0.014404296875,-0.090576171875,-0.608642578125,0.323
0.32061068702290074,1.83206106870229,-2.732824427480916,0.01708984375,-0.095947265625,-0.60986328125,0.3247
0.4122137404580153,1.8015267175572518,-2.549618320610687,0.0205078125,-0.096435546875,-0.6015625,0.32639999999999997
0.732824427480916,1.7251908396946565,-2.5801526717557253,0.0224609375,-0.095458984375,-0.603271484375,0.3281
0.916030534351145,1.8625954198473282,-2.7022900763358777,0.016845703125,-0.0927734375,-0.60546875,0.3298
1.1450381679389312,1.8015267175572518,-2.687022900763359,0.0234375,-0.093505859375,-0.6123046875,0.33149999999999996
1.1450381679389312,1.786259541984733,-2.8091603053435112,0.017333984375,-0.091064453125,-0.604736328125,0.3332
1.4045801526717556,1.816793893129771,-2.7786259541984735,0.018798828125,-0.087158203125,-0.6025390625,0.3349
1.3587786259541985,1.786259541984733,-2.854961832061069,0.015625,-0.0888671875,-0.614501953125,0.33659999999999995
1.3740458015267176,1.83206106870229,-2.9923664122137406,0.02099609375,-0.09375,-0.607666015625,0.3383
1.6030534351145038,1.786259541984733,-2.6564885496183206,0.024658203125,-0.093017578125,-0.6064453125,0.33999999999999997
1.5572519083969465,1.7557251908396947,-2.519083969465649,0.020751953125,-0.094482421875,-0.60546875,0.3417
1.786259541984733,1.9083969465648856,-2.4580152671755724,0.021484375,-0.088134765625,-0.603271484375,0.3434
1.8015267175572518,1.83206106870229,-2.5801526717557253,0.01806640625,-0.094482421875,-0.599853515625,0.34509999999999996
1.6488549618320612,1.9236641221374047,-2.6412213740458017,0.019775390625,-0.08935546875,-0.606689453125,0.3468
1.633587786259542,2.0763358778625953,-2.427480916030534,0.019287109375,-0.09521484375,-0.604248046875,0.3485
1.5877862595419847,2.16793893129771,-2.351145038167939,0.017333984375,-0.08984375,-0.603515625,0.35019999999999996
1.7557251908396947,2.0763358778625953,-2.0763358778625953,0.016845703125,-0.08837890625,-0.60302734375,0.3519
1.465648854961832,2.1374045801526718,-2.0763358778625953,0.021240234375,-0.093505859375,-0.60107421875,0.35359999999999997
1.5877862595419847,2.0610687022900764,-2.045801526717557,0.026611328125,-0.09375,-0.59814453125,0.3553
1.8015267175572518,2.0916030534351147,-1.8015267175572518,0.025146484375,-0.093017578125,-0.6025390625,0.357
1.5877862595419847,2.0916030534351147,-1.7709923664122138,0.0185546875,-0.095947265625,-0.597900390625,0.35869999999999996
1.7404580152671756,2.0763358778625953,-1.8931297709923665,0.01806640625,-0.10107421875,-0.603759765625,0.3604
1.5267175572519085,2.1374045801526718,-1.816793893129771,0.019775390625,-0.097900390625,-0.610595703125,0.3621
1.5114503816793894,2.2748091603053435,-1.7557251908396947,0.0185546875,-0.0927734375,-0.604736328125,0.36379999999999996
1.8015267175572518,2.33587786259542,-1.6641221374045803,0.017822265625,-0.0908203125,-0.6044921875,0.3655
1.83206106870229,2.351145038167939,-1.6030534351145038,0.02392578125,-0.0927734375,-0.602294921875,0.36719999999999997
1.5877862595419847,2.122137404580153,-1.7404580152671756,0.02099609375,-0.095458984375,-0.6083984375,0.3689
1.786259541984733,2.2442748091603053,-1.618320610687023,0.0263671875,-0.092041015625,-0.60595703125,0.3706
1.6946564885496183,2.3206106870229006,-1.7709923664122138,0.015869140625,-0.093017578125,-0.606689453125,0.37229999999999996
1.6641221374045803,2.4427480916030535,-1.5114503816793894,0.014404296875,-0.090087890625,-0.607666015625,0.374
1.7099236641221374,2.3969465648854964,-1.5725190839694656,0.015869140625,-0.093505859375,-0.60302734375,0.3757
1.4351145038167938,2.50381679389313,-1.6946564885496183,0.0205078125,-0.096923828125,-0.593994140625,0.37739999999999996
1.4198473282442747,2.5801526717557253,-1.5267175572519085,0.01953125,-0.09912109375,-0.6005859375,0.3791
1.5725190839694656,2.564885496183206,-1.4198473282442747,0.020263671875,-0.09619140625,-0.611572265625,0.38079999999999997
1.5725190839694656,2.5801526717557253,-1.6946564885496183,0.025146484375,-0.101806640625,-0.604248046875,0.38249999999999995
1.465648854961832,2.7022900763358777,-1.633587786259542,0.024169921875,-0.093017578125,-0.601318359375,0.3842
1.4809160305343512,2.4885496183206106,-1.5572519083969465,0.022705078125,-0.095703125,-0.607421875,0.38589999999999997
1.465648854961832,2.6412213740458017,-1.6946564885496183,0.014404296875,-0.096923828125,-0.6015625,0.3876
1.465648854961832,2.549618320610687,-1.6030534351145038,0.01513671875,-0.09619140625,-0.607177734375,0.3893
1.3587786259541985,2.519083969465649,-1.4045801526717556,0.01416015625,-0.09716796875,-0.60302734375,0.39099999999999996
1.4351145038167938,2.6259541984732824,-1.5877862595419847,0.017333984375,-0.098876953125,-0.603759765625,0.3927
1.4045801526717556,2.519083969465649,-1.7557251908396947,0.01953125,-0.098388671875,-0.60595703125,0.3944
1.4809160305343512,2.4580152671755724,-1.633587786259542,0.020263671875,-0.095947265625,-0.60888671875,0.39609999999999995
1.3129770992366412,2.427480916030534,-1.5725190839694656,0.019775390625,-0.09228515625,-0.6083984375,0.3978
1.4961832061068703,2.3969465648854964,-1.6488549618320612,0.01953125,-0.097900390625,-0.59814453125,0.39949999999999997
1.7251908396946565,2.4122137404580153,-1.8778625954198473,0.019287109375,-0.1044921875,-0.6015625,0.4012
1.7557251908396947,2.366412213740458,-1.633587786259542,0.018310546875,-0.097412109375,-0.60107421875,0.4029
1.816793893129771,2.2442748091603053,-1.6641221374045803,0.02197265625,-0.09228515625,-0.615966796875,0.40459999999999996
1.6641221374045803,2.1526717557251906,-1.7099236641221374,0.021240234375,-0.093505859375,-0.609619140625,0.4063
1.6793893129770991,2.2442748091603053,-1.6641221374045803,0.0205078125,-0.09375,-0.61181640625,0.408
1.7099236641221374,2.1374045801526718,-1.816793893129771,0.02099609375,-0.101318359375,-0.605712890625,0.40969999999999995
1.5419847328244274,2.183206106870229,-1.7557251908396947,0.019775390625,-0.09423828125,-0.59912109375,0.4114
1.786259541984733,2.1374045801526718,-1.618320610687023,0.018798828125,-0.091552734375,-0.605224609375,0.41309999999999997
1.7709923664122138,1.9236641221374047,-1.4809160305343512,0.01806640625,-0.097900390625,-0.602294921875,0.4148
1.9541984732824427,1.8931297709923665,-1.5572519083969465,0.01904296875,-0.092041015625,-0.609619140625,0.4165
2.030534351145038,1.9541984732824427,-1.816793893129771,0.01953125,-0.095947265625,-0.60693359375,0.41819999999999996
2.0610687022900764,1.8778625954198473,-1.465648854961832,0.01904296875,-0.093017578125,-0.599365234375,0.4199
2.015267175572519,1.7404580152671756,-1.7251908396946565,0.020751953125,-0.09423828125,-0.607421875,0.4216
1.8931297709923665,1.7251908396946565,-1.6641221374045803,0.01953125,-0.096435546875,-0.61669921875,0.42329999999999995
2.0916030534351147,1.7251908396946565,-1.6488549618320612,0.0185546875,-0.098388671875,-0.604736328125,0.425
2.2748091603053435,1.6641221374045803,-1.7251908396946565,0.020263671875,-0.096435546875,-0.610595703125,0.42669999999999997
2.2442748091603053,1.5877862595419847,-1.7557251908396947,0.017333984375,-0.095458984375,-0.6083984375,0.4284
2.2290076335877864,1.7099236641221374,-1.618320610687023,0.01513671875,-0.092041015625,-0.606689453125,0.4301
2.045801526717557,1.5572519083969465,-1.618320610687023,0.021728515625,-0.09423828125,-0.59716796875,0.43179999999999996
1.9541984732824427,1.450381679389313,-1.5114503816793894,0.0234375,-0.09814453125,-0.603271484375,0.4335
2.2748091603053435,1.4961832061068703,-1.5877862595419847,0.02294921875,-0.09130859375,-0.603515625,0.4352
2.1526717557251906,1.5267175572519085,-1.633587786259542,0.021484375,-0.091064453125,-0.6015625,0.43689999999999996
2.2900763358778624,1.4351145038167938,-1.5572519083969465,0.02197265625,-0.09326171875,-0.599365234375,0.4386
2.213740458015267,1.5114503816793894,-1.3129770992366412,0.01904296875,-0.094482421875,-0.603515625,0.44029999999999997
2.427480916030534,1.465648854961832,-1.5572519083969465,0.0185546875,-0.1005859375,-0.611083984375,0.44199999999999995
2.16793893129771,1.4198473282442747,-1.5572519083969465,0.01708984375,-0.100341796875,-0.60693359375,0.4437
2.351145038167939,1.5419847328244274,-1.618320610687023,0.017333984375,-0.105224609375,-0.612060546875,0.44539999999999996
2.366412213740458,1.3587786259541985,-1.3893129770992367,0.0126953125,-0.094970703125,-0.608154296875,0.4471
2.2442748091603053,1.6488549618320612,-1.618320610687023,0.01611328125,-0.0986328125,-0.606201171875,0.4488
2.2748091603053435,1.5725190839694656,-1.5267175572519085,0.020751953125,-0.09814453125,-0.614013671875,0.45049999999999996
2.198473282442748,1.465648854961832,-1.7099236641221374,0.021728515625,-0.09228515625,-0.619140625,0.4522
2.366412213740458,1.5572519083969465,-1.6030534351145038,0.021484375,-0.097900390625,-0.611572265625,0.45389999999999997
2.213740458015267,1.4351145038167938,-1.5725190839694656,0.015625,-0.099365234375,-0.6162109375,0.45559999999999995
2.1068702290076335,1.4961832061068703,-1.7557251908396947,0.014892578125,-0.10107421875,-0.61767578125,0.4573
1.8778625954198473,1.5114503816793894,-1.7557251908396947,0.01611328125,-0.099609375,-0.603759765625,0.45899999999999996
2.030534351145038,1.5419847328244274,-1.8778625954198473,0.0185546875,-0.101806640625,-0.605224609375,0.4607
1.786259541984733,1.5267175572519085,-1.9694656488549618,0.01513671875,-0.1005859375,-0.6123046875,0.4624
2.030534351145038,1.5572519083969465,-1.9541984732824427,0.01806640625,-0.095458984375,-0.604736328125,0.46409999999999996
1.984732824427481,1.5419847328244274,-2.1526717557251906,0.014892578125,-0.103271484375,-0.60693359375,0.4658
1.9694656488549618,1.5419847328244274,-2.1068702290076335,0.01513671875,-0.09814453125,-0.60888671875,0.46749999999999997
2.0,1.5572519083969465,-2.198473282442748,0.01416015625,-0.101806640625,-0.615234375,0.46919999999999995
1.8931297709923665,1.6030534351145038,-1.984732824427481,0.016845703125,-0.103271484375,-0.60498046875,0.4709
1.9389312977099236,1.5419847328244274,-2.0916030534351147,0.019287109375,-0.100830078125,-0.606689453125,0.47259999999999996
2.030534351145038,1.5267175572519085,-2.015267175572519,0.0185546875,-0.097412109375,-0.6005859375,0.4743
1.7404580152671756,1.4198473282442747,-2.213740458015267,0.01953125,-0.096923828125,-0.604248046875,0.476
2.015267175572519,1.465648854961832,-2.0763358778625953,0.0166015625,-0.09619140625,-0.612060546875,0.47769999999999996
1.6946564885496183,1.4198473282442747,-2.1068702290076335,0.01513671875,-0.09375,-0.615966796875,0.4794
1.3435114503816794,1.5114503816793894,-2.0763358778625953,0.0166015625,-0.09521484375,-0.60693359375,0.48109999999999997
1.3435114503816794,1.3435114503816794,-2.3206106870229006,0.019775390625,-0.095947265625,-0.61328125,0.48279999999999995
1.1450381679389312,1.3129770992366412,-2.198473282442748,0.021484375,-0.094482421875,-0.609130859375,0.4845
1.1145038167938932,1.4198473282442747,-2.045801526717557,0.01904296875,-0.098388671875,-0.61376953125,0.48619999999999997
0.9618320610687023,1.465648854961832,-2.16793893129771,0.01513671875,-0.095458984375,-0.60498046875,0.4879
0.8091603053435115,1.3587786259541985,-2.2900763358778624,0.0224609375,-0.0966796875,-0.60693359375,0.4896
0.916030534351145,1.4809160305343512,-2.213740458015267,0.016357421875,-0.0966796875,-0.606201171875,0.49129999999999996
0.9618320610687023,1.297709923664122,-2.2595419847328246,0.020263671875,-0.09716796875,-0.604248046875,0.493
0.5038167938931297,1.3129770992366412,-2.33587786259542,0.021240234375,-0.0966796875,-0.60791015625,0.4947
0.6564885496183206,1.4351145038167938,-2.519083969465649,0.02294921875,-0.095947265625,-0.601318359375,0.49639999999999995
0.732824427480916,1.1908396946564885,-2.381679389312977,0.018798828125,-0.094970703125,-0.602294921875,0.4981
0.7480916030534351,1.297709923664122,-2.595419847328244,0.02001953125,-0.0927734375,-0.60009765625,0.49979999999999997
0.7480916030534351,1.2366412213740459,-2.4732824427480917,0.01904296875,-0.098388671875,-0.609619140625,0.5015
0.7022900763358778,0.9923664122137404,-2.4427480916030535,0.020751953125,-0.091552734375,-0.606689453125,0.5032
0.8854961832061069,0.9770992366412213,-2.3053435114503817,0.0185546875,-0.092041015625,-0.60205078125,0.5049
0.7480916030534351,1.1755725190839694,-2.2595419847328246,0.021728515625,-0.091064453125,-0.599609375,0.5065999999999999
0.8396946564885496,1.2671755725190839,-2.198473282442748,0.01953125,-0.0947265625,-0.605224609375,0.5083
0.8091603053435115,0.9770992366412213,-2.16793893129771,0.023193359375,-0.098876953125,-0.599853515625,0.51
1.0076335877862594,1.1603053435114503,-2.015267175572519,0.020263671875,-0.09814453125,-0.60595703125,0.5116999999999999
1.0229007633587786,1.2061068702290076,-1.9083969465648856,0.018310546875,-0.09326171875,-0.600341796875,0.5134
1.1908396946564885,1.0687022900763359,-1.618320610687023,0.018798828125,-0.095458984375,-0.607421875,0.5151
0.9923664122137404,1.0229007633587786,-1.633587786259542,0.021484375,-0.09814453125,-0.607177734375,0.5167999999999999
1.1755725190839694,1.099236641221374,-1.4809160305343512,0.01806640625,-0.097900390625,-0.605224609375,0.5185
1.2671755725190839,1.2671755725190839,-1.4351145038167938,0.024169921875,-0.09423828125,-0.6064453125,0.5202
1.3129770992366412,1.1603053435114503,-1.2671755725190839,0.019287109375,-0.095458984375,-0.60595703125,0.5218999999999999
1.3282442748091603,1.083969465648855,-1.297709923664122,0.023193359375,-0.090576171875,-0.604736328125,0.5236
1.2061068702290076,1.1908396946564885,-1.297709923664122,0.01708984375,-0.094482421875,-0.60498046875,0.5253
1.1908396946564885,1.0534351145038168,-1.1603053435114503,0.019287109375,-0.0966796875,-0.60400390625,0.527
0.9923664122137404,1.2061068702290076,-1.0381679389312977,0.022705078125,-0.098876953125,-0.607177734375,0.5287
1.3129770992366412,1.2061068702290076,-1.2061068702290076,0.0234375,-0.1005859375,-0.60986328125,0.5304
1.297709923664122,1.2366412213740459,-0.9923664122137404,0.013671875,-0.09716796875,-0.60693359375,0.5321
1.1908396946564885,1.3435114503816794,-1.2061068702290076,0.021240234375,-0.095947265625,-0.601806640625,0.5337999999999999
1.099236641221374,1.282442748091603,-1.0229007633587786,0.019775390625,-0.09765625,-0.6005859375,0.5355
1.3587786259541985,1.251908396946565,-1.1755725190839694,0.01611328125,-0.1025390625,-0.603759765625,0.5372
1.2671755725190839,1.3435114503816794,-1.0229007633587786,0.01513671875,-0.096923828125,-0.60498046875,0.5388999999999999
1.3740458015267176,1.6030534351145038,-0.9923664122137404,0.016357421875,-0.0986328125,-0.607177734375,0.5406
1.3129770992366412,1.4961832061068703,-1.083969465648855,0.017822265625,-0.0947265625,-0.609619140625,0.5423
1.4351145038167938,1.465648854961832,-1.1908396946564885,0.013671875,-0.09619140625,-0.60107421875,0.5439999999999999
1.3435114503816794,1.7557251908396947,-1.2366412213740459,0.013916015625,-0.099853515625,-0.610595703125,0.5457
1.3587786259541985,1.786259541984733,-1.2671755725190839,0.0166015625,-0.10107421875,-0.609375,0.5474
1.450381679389313,1.7557251908396947,-1.3435114503816794,0.015380859375,-0.099365234375,-0.607421875,0.5490999999999999
1.5877862595419847,1.8778625954198473,-1.4198473282442747,0.015625,-0.09814453125,-0.604248046875,0.5508
1.5877862595419847,1.9389312977099236,-1.3282442748091603,0.013427734375,-0.09765625,-0.603515625,0.5525
1.7099236641221374,1.9694656488549618,-1.6641221374045803,0.013916015625,-0.096923828125,-0.60791015625,0.5541999999999999
1.5725190839694656,1.9694656488549618,-1.618320610687023,0.015625,-0.10302734375,-0.608154296875,0.5559
1.450381679389313,2.0916030534351147,-1.7251908396946565,0.0126953125,-0.100830078125,-0.61328125,0.5576
1.633587786259542,2.030534351145038,-1.816793893129771,0.01708984375,-0.0966796875,-0.614013671875,0.5593
1.7404580152671756,2.183206106870229,-1.6793893129770991,0.01806640625,-0.09619140625,-0.60791015625,0.5609999999999999
1.4961832061068703,2.366412213740458,-1.7099236641221374,0.017822265625,-0.0966796875,-0.607177734375,0.5627
1.8015267175572518,2.183206106870229,-1.7709923664122138,0.0205078125,-0.09521484375,-0.613525390625,0.5644
1.7557251908396947,2.213740458015267,-1.83206106870229,0.013916015625,-0.094970703125,-0.603271484375,0.5660999999999999
1.8015267175572518,2.183206106870229,-1.8473282442748091,0.014404296875,-0.09423828125,-0.60986328125,0.5678
1.5572519083969465,2.2900763358778624,-1.7251908396946565,0.013671875,-0.09619140625,-0.603271484375,0.5695
1.6488549618320612,2.4427480916030535,-1.8473282442748091,0.013427734375,-0.094482421875,-0.60595703125,0.5711999999999999
1.83206106870229,2.2900763358778624,-1.6793893129770991,0.01513671875,-0.10205078125,-0.601806640625,0.5729
1.7251908396946565,2.2595419847328246,-1.7251908396946565,0.012451171875,-0.096923828125,-0.607421875,0.5746
1.633587786259542,2.2900763358778624,-1.618320610687023,0.010986328125,-0.10107421875,-0.60107421875,0.5762999999999999
1.7099236641221374,2.1068702290076335,-1.6793893129770991,0.017822265625,-0.092529296875,-0.610107421875,0.578
1.6793893129770991,2.198473282442748,-1.7404580152671756,0.017822265625,-0.093994140625,-0.607177734375,0.5797
1.816793893129771,2.16793893129771,-1.7099236641221374,0.0205078125,-0.09814453125,-0.601318359375,0.5813999999999999
1.7709923664122138,2.1526717557251906,-1.7709923664122138,0.014892578125,-0.103271484375,-0.60107421875,0.5831
1.5267175572519085,1.9541984732824427,-1.8015267175572518,0.01904296875,-0.099853515625,-0.60498046875,0.5848
1.9694656488549618,2.0763358778625953,-1.4961832061068703,0.01806640625,-0.1015625,-0.607177734375,0.5865
1.9389312977099236,2.0610687022900764,-1.5877862595419847,0.02099609375,-0.100341796875,-0.605224609375,0.5882
1.8778625954198473,1.9236641221374047,-1.786259541984733,0.017333984375,-0.099609375,-0.60791015625,0.5899
1.5267175572519085,1.816793893129771,-1.7404580152671756,0.012939453125,-0.095947265625,-0.61474609375,0.5916
1.618320610687023,1.7557251908396947,-1.6641221374045803,0.014404296875,-0.102783203125,-0.607177734375,0.5932999999999999
1.786259541984733,1.8015267175572518,-1.5267175572519085,0.0126953125,-0.0908203125,-0.6103515625,0.595
1.8625954198473282,1.9389312977099236,-1.786259541984733,0.0146484375,-0.093017578125,-0.61376953125,0.5967
1.7709923664122138,2.0,-2.0763358778625953,0.01416015625,-0.098388671875,-0.596923828125,0.5983999999999999
1.5419847328244274,1.9236641221374047,-2.045801526717557,0.012939453125,-0.10302734375,-0.606201171875,0.6001
1.6641221374045803,1.816793893129771,-1.9236641221374047,0.015380859375,-0.095947265625,-0.603759765625,0.6018
1.5114503816793894,1.984732824427481,-2.015267175572519,0.01806640625,-0.099365234375,-0.59912109375,0.6034999999999999
1.4809160305343512,1.9541984732824427,-1.9083969465648856,0.015625,-0.1005859375,-0.60205078125,0.6052
1.450381679389313,2.213740458015267,-2.2290076335877864,0.014892578125,-0.098876953125,-0.610595703125,0.6069
1.4809160305343512,2.1068702290076335,-2.015267175572519,0.012451171875,-0.098388671875,-0.60888671875,0.6085999999999999
1.297709923664122,2.2290076335877864,-2.1526717557251906,0.0185546875,-0.09326171875,-0.614013671875,0.6103
1.3893129770992367,2.0610687022900764,-2.2290076335877864,0.015625,-0.09521484375,-0.60546875,0.612
1.5267175572519085,2.2748091603053435,-2.1526717557251906,0.015380859375,-0.0966796875,-0.602783203125,0.6136999999999999
1.450381679389313,2.1068702290076335,-2.2290076335877864,0.01220703125,-0.093017578125,-0.601806640625,0.6154
1.3129770992366412,2.1526717557251906,-2.213740458015267,0.013427734375,-0.0966796875,-0.60205078125,0.6171
1.3282442748091603,2.198473282442748,-2.2595419847328246,0.014892578125,-0.0986328125,-0.60400390625,0.6188
1.297709923664122,2.198473282442748,-2.2748091603053435,0.020263671875,-0.1005859375,-0.604248046875,0.6204999999999999
1.3587786259541985,2.3969465648854964,-2.4427480916030535,0.018310546875,-0.095947265625,-0.60791015625,0.6222
1.3435114503816794,2.351145038167939,-2.351145038167939,0.01513671875,-0.096923828125,-0.605224609375,0.6239
1.0381679389312977,2.381679389312977,-2.213740458015267,0.01611328125,-0.09814453125,-0.598388671875,0.6255999999999999
1.297709923664122,2.4885496183206106,-2.16793893129771,0.012939453125,-0.09765625,-0.60302734375,0.6273
1.1908396946564885,2.5343511450381677,-2.4427480916030535,0.014892578125,-0.093994140625,-0.60595703125,0.629
1.3282442748091603,2.4885496183206106,-2.3053435114503817,0.017578125,-0.09375,-0.602783203125,0.6306999999999999
1.5725190839694656,2.564885496183206,-2.16793893129771,0.02392578125,-0.09814453125,-0.6025390625,0.6324
1.3435114503816794,2.4427480916030535,-2.1526717557251906,0.02197265625,-0.096435546875,-0.605224609375,0.6341
1.4961832061068703,2.3206106870229006,-2.3206106870229006,0.02294921875,-0.095947265625,-0.60888671875,0.6357999999999999
1.3435114503816794,2.2748091603053435,-2.2442748091603053,0.02392578125,-0.092529296875,-0.59912109375,0.6375
1.450381679389313,2.3969465648854964,-2.0916030534351147,0.015625,-0.095947265625,-0.605224609375,0.6392
1.5572519083969465,2.3206106870229006,-2.1068702290076335,0.01953125,-0.09716796875,-0.609619140625,0.6408999999999999
1.7099236641221374,2.3053435114503817,-2.0916030534351147,0.02490234375,-0.094482421875,-0.607177734375,0.6426
1.7709923664122138,2.213740458015267,-1.8473282442748091,0.020751953125,-0.0966796875,-0.604248046875,0.6443
1.5572519083969465,2.2748091603053435,-1.9541984732824427,0.021728515625,-0.09375,-0.600830078125,0.646
1.618320610687023,2.2290076335877864,-1.9541984732824427,0.021240234375,-0.096923828125,-0.600830078125,0.6476999999999999
1.5419847328244274,2.1374045801526718,-1.8015267175572518,0.024169921875,-0.095458984375,-0.603271484375,0.6494
1.6793893129770991,2.1374045801526718,-1.7557251908396947,0.0205078125,-0.094482421875,-0.6162109375,0.6511
1.6488549618320612,2.0610687022900764,-1.8015267175572518,0.021728515625,-0.099609375,-0.60400390625,0.6527999999999999
1.5419847328244274,2.045801526717557,-1.6488549618320612,0.0224609375,-0.09326171875,-0.60791015625,0.6545
1.6488549618320612,2.015267175572519,-1.465648854961832,0.0244140625,-0.08984375,-0.60595703125,0.6562
1.5725190839694656,2.1068702290076335,-1.5267175572519085,0.024169921875,-0.0888671875,-0.6064453125,0.6578999999999999
1.5572519083969465,2.0,-1.6793893129770991,0.0185546875,-0.0966796875,-0.603515625,0.6596
1.8015267175572518,1.9236641221374047,-1.7557251908396947,0.026123046875,-0.09716796875,-0.604736328125,0.6613
1.6488549618320612,2.030534351145038,-1.4351145038167938,0.020263671875,-0.09765625,-0.6025390625,0.6629999999999999
1.5877862595419847,1.9083969465648856,-1.6793893129770991,0.015869140625,-0.095458984375,-0.60791015625,0.6647
1.5725190839694656,1.8931297709923665,-1.4198473282442747,0.01904296875,-0.0947265625,-0.60205078125,0.6664
1.7557251908396947,1.8473282442748091,-1.7709923664122138,0.021240234375,-0.096435546875,-0.60498046875,0.6680999999999999
1.450381679389313,1.7709923664122138,-1.8015267175572518,0.023681640625,-0.09521484375,-0.600341796875,0.6698
1.633587786259542,1.816793893129771,-1.816793893129771,0.015625,-0.095458984375,-0.607177734375,0.6715
1.282442748091603,1.83206106870229,-1.618320610687023,0.017333984375,-0.094482421875,-0.610595703125,0.6731999999999999
1.2671755725190839,1.7404580152671756,-1.5114503816793894,0.016357421875,-0.094970703125,-0.61181640625,0.6748999999999999
1.4351145038167938,1.9083969465648856,-1.465648854961832,0.01904296875,-0.095703125,-0.609375,0.6766
1.282442748091603,1.8015267175572518,-1.5725190839694656,0.01953125,-0.0986328125,-0.610595703125,0.6783
1.0534351145038168,1.6641221374045803,-1.8015267175572518,0.01904296875,-0.09716796875,-0.60791015625,0.6799999999999999
1.083969465648855,1.816793893129771,-1.786259541984733,0.018310546875,-0.09423828125,-0.60302734375,0.6817
0.9007633587786259,1.8015267175572518,-1.6641221374045803,0.015625,-0.10205078125,-0.606689453125,0.6834
0.9007633587786259,1.6793893129770991,-1.6946564885496183,0.01953125,-0.0966796875,-0.610107421875,0.6850999999999999
0.8244274809160306,1.7251908396946565,-1.7251908396946565,0.01806640625,-0.0966796875,-0.611572265625,0.6868
0.8091603053435115,1.5725190839694656,-1.9236641221374047,0.0166015625,-0.099365234375,-0.592529296875,0.6885
0.8244274809160306,1.6946564885496183,-1.984732824427481,0.02099609375,-0.094482421875,-0.607666015625,0.6901999999999999
0.7786259541984732,1.7099236641221374,-1.7251908396946565,0.026123046875,-0.10107421875,-0.60400390625,0.6919
0.6564885496183206,1.6030534351145038,-1.7557251908396947,0.02001953125,-0.092041015625,-0.60791015625,0.6936
0.5648854961832062,1.6030534351145038,-1.9236641221374047,0.021240234375,-0.096435546875,-0.608642578125,0.6952999999999999
0.4732824427480916,1.4961832061068703,-2.0,0.0205078125,-0.098876953125,-0.607666015625,0.697
0.42748091603053434,1.5419847328244274,-1.9694656488549618,0.016357421875,-0.09765625,-0.602783203125,0.6987
0.48854961832061067,1.2366412213740459,-1.8778625954198473,0.02587890625,-0.0908203125,-0.611328125,0.7003999999999999
0.24427480916030533,1.282442748091603,-2.030534351145038,0.02294921875,-0.0927734375,-0.598388671875,0.7021
0.2595419847328244,1.2213740458015268,-1.8931297709923665,0.023193359375,-0.090087890625,-0.609619140625,0.7038
0.44274809160305345,0.9465648854961832,-1.9694656488549618,0.0205078125,-0.09765625,-0.6064453125,0.7055
0.2900763358778626,1.0534351145038168,-1.8931297709923665,0.018798828125,-0.09521484375,-0.594482421875,0.7071999999999999
0.5038167938931297,1.1755725190839694,-1.9389312977099236,0.0166015625,-0.09716796875,-0.59814453125,0.7089
0.2595419847328244,0.9618320610687023,-1.7099236641221374,0.021484375,-0.0927734375,-0.60595703125,0.7106
0.24427480916030533,0.9923664122137404,-2.030534351145038,0.019287109375,-0.09375,-0.6064453125,0.7122999999999999
0.4580152671755725,0.8854961832061069,-1.9389312977099236,0.02392578125,-0.1005859375,-0.607666015625,0.714
0.4580152671755725,0.7938931297709924,-1.8931297709923665,0.021728515625,-0.08447265625,-0.608642578125,0.7157
0.2748091603053435,0.9923664122137404,-1.7709923664122138,0.020751953125,-0.09765625,-0.606201171875,0.7173999999999999
0.3816793893129771,1.099236641221374,-1.83206106870229,0.018798828125,-0.093994140625,-0.610107421875,0.7191
0.3053435114503817,1.083969465648855,-1.9083969465648856,0.019775390625,-0.088134765625,-0.605712890625,0.7208
0.4732824427480916,1.0687022900763359,-1.8473282442748091,0.019775390625,-0.09228515625,-0.6064453125,0.7224999999999999
0.5190839694656488,1.1908396946564885,-1.6641221374045803,0.020751953125,-0.090087890625,-0.607421875,0.7242
0.4580152671755725,1.2213740458015268,-1.8473282442748091,0.018798828125,-0.0927734375,-0.60205078125,0.7259
0.6259541984732825,1.0534351145038168,-1.7404580152671756,0.02197265625,-0.093017578125,-0.603271484375,0.7275999999999999
0.7175572519083969,1.1755725190839694,-2.045801526717557,0.0263671875,-0.091796875,-0.606689453125,0.7293
0.7480916030534351,1.1145038167938932,-1.7557251908396947,0.01806640625,-0.092529296875,-0.607421875,0.731
1.0229007633587786,1.0687022900763359,-1.5877862595419847,0.02099609375,-0.09619140625,-0.603759765625,0.7326999999999999
1.251908396946565,1.2671755725190839,-1.7099236641221374,0.02294921875,-0.0966796875,-0.611083984375,0.7343999999999999
1.3282442748091603,1.251908396946565,-1.8015267175572518,0.019775390625,-0.09228515625,-0.61376953125,0.7361
1.4351145038167938,1.297709923664122,-1.5877862595419847,0.018798828125,-0.093505859375,-0.610595703125,0.7378
1.618320610687023,1.465648854961832,-1.8015267175572518,0.01416015625,-0.09033203125,-0.60888671875,0.7394999999999999
1.6946564885496183,1.4961832061068703,-1.8015267175572518,0.016845703125,-0.09326171875,-0.6123046875,0.7412
1.5419847328244274,1.4351145038167938,-1.7557251908396947,0.019287109375,-0.094970703125,-0.61279296875,0.7429
1.8015267175572518,1.4809160305343512,-1.6030534351145038,0.020263671875,-0.093994140625,-0.60693359375,0.7445999999999999
1.8473282442748091,1.3587786259541985,-1.7557251908396947,0.01904296875,-0.091552734375,-0.59765625,0.7463
1.816793893129771,1.5877862595419847,-1.7557251908396947,0.013427734375,-0.092041015625,-0.602783203125,0.748
1.83206106870229,1.5267175572519085,-1.7251908396946565,0.0166015625,-0.095703125,-0.6123046875,0.7496999999999999
2.015267175572519,1.282442748091603,-1.5419847328244274,0.017333984375,-0.097412109375,-0.608154296875,0.7514
1.6946564885496183,1.282442748091603,-1.786259541984733,0.018798828125,-0.09619140625,-0.5966796875,0.7531
1.6030534351145038,1.5114503816793894,-1.7404580152671756,0.021484375,-0.094970703125,-0.59765625,0.7547999999999999
1.6793893129770991,1.633587786259542,-1.7251908396946565,0.0146484375,-0.09814453125,-0.604736328125,0.7565
1.7251908396946565,1.450381679389313,-1.5725190839694656,0.01904296875,-0.096435546875,-0.607177734375,0.7582
1.633587786259542,1.4961832061068703,-1.5725190839694656,0.01806640625,-0.087890625,-0.604736328125,0.7598999999999999
1.5877862595419847,1.5725190839694656,-1.4198473282442747,0.020263671875,-0.093994140625,-0.607177734375,0.7615999999999999
1.8778625954198473,1.4961832061068703,-1.618320610687023,0.02099609375,-0.095947265625,-0.607177734375,0.7633
1.7557251908396947,1.5267175572519085,-1.6946564885496183,0.02197265625,-0.0927734375,-0.608642578125,0.7649999999999999
1.7251908396946565,1.5877862595419847,-1.633587786259542,0.02294921875,-0.089111328125,-0.60595703125,0.7666999999999999
1.8015267175572518,1.5114503816793894,-1.4961832061068703,0.015869140625,-0.094482421875,-0.611328125,0.7684
1.8015267175572518,1.618320610687023,-1.5725190839694656,0.016845703125,-0.093505859375,-0.607177734375,0.7701
1.8625954198473282,1.4961832061068703,-1.3282442748091603,0.021728515625,-0.095947265625,-0.611328125,0.7717999999999999
2.045801526717557,1.4045801526717556,-1.7251908396946565,0.022216796875,-0.0966796875,-0.607421875,0.7735
2.0610687022900764,1.3893129770992367,-1.5114503816793894,0.0185546875,-0.09619140625,-0.606201171875,0.7752
2.1068702290076335,1.450381679389313,-1.3282442748091603,0.017822265625,-0.09716796875,-0.60546875,0.7768999999999999
2.0916030534351147,1.4961832061068703,-1.3740458015267176,0.016357421875,-0.095947265625,-0.615234375,0.7786
1.8473282442748091,1.4045801526717556,-1.3435114503816794,0.0205078125,-0.09375,-0.607666015625,0.7803
1.9389312977099236,1.3740458015267176,-1.3435114503816794,0.020751953125,-0.09521484375,-0.604248046875,0.7819999999999999
1.9236641221374047,1.282442748091603,-1.3893129770992367,0.01904296875,-0.093994140625,-0.602294921875,0.7837
1.8931297709923665,1.465648854961832,-1.1603053435114503,0.022216796875,-0.093505859375,-0.6015625,0.7854
1.8931297709923665,1.3893129770992367,-1.3282442748091603,0.023193359375,-0.096923828125,-0.599609375,0.7870999999999999
1.786259541984733,1.282442748091603,-1.1755725190839694,0.01806640625,-0.09716796875,-0.603271484375,0.7888
1.4351145038167938,1.2213740458015268,-1.1297709923664123,0.024169921875,-0.099609375,-0.60400390625,0.7905
1.3129770992366412,1.1603053435114503,-1.1450381679389312,0.02294921875,-0.093505859375,-0.60205078125,0.7921999999999999
1.5267175572519085,1.1603053435114503,-1.1908396946564885,0.020263671875,-0.09375,-0.60595703125,0.7938999999999999
1.465648854961832,1.1450381679389312,-1.099236641221374,0.020263671875,-0.092529296875,-0.60302734375,0.7956
1.1908396946564885,1.1450381679389312,-1.282442748091603,0.0146484375,-0.091796875,-0.598876953125,0.7973
1.2366412213740459,1.1145038167938932,-1.2213740458015268,0.018798828125,-0.097900390625,-0.602783203125,0.7989999999999999
1.282442748091603,0.8244274809160306,-1.1145038167938932,0.02099609375,-0.098388671875,-0.60693359375,0.8007
1.0534351145038168,0.8396946564885496,-1.0534351145038168,0.02197265625,-0.0869140625,-0.607421875,0.8024
1.1908396946564885,0.7175572519083969,-1.3129770992366412,0.021728515625,-0.093017578125,-0.60009765625,0.8040999999999999
1.099236641221374,0.7175572519083969,-1.2366412213740459,0.022216796875,-0.093017578125,-0.60693359375,0.8058
0.9770992366412213,0.732824427480916,-1.3893129770992367,0.02197265625,-0.093994140625,-0.60791015625,0.8075
1.1145038167938932,0.7022900763358778,-1.450381679389313,0.01611328125,-0.0908203125,-0.614501953125,0.8091999999999999
0.8702290076335878,0.6259541984732825,-1.5419847328244274,0.020751953125,-0.099365234375,-0.61083984375,0.8109
0.9770992366412213,0.6870229007633588,-1.3740458015267176,0.0166015625,-0.0947265625,-0.611083984375,0.8126
1.0229007633587786,0.7633587786259542,-1.6030534351145038,0.01416015625,-0.093994140625,-0.600341796875,0.8142999999999999
1.3435114503816794,0.7786259541984732,-1.465648854961832,0.01953125,-0.092529296875,-0.6083984375,0.816
1.5114503816793894,0.7786259541984732,-1.618320610687023,0.02294921875,-0.09521484375,-0.605712890625,0.8177
1.4198473282442747,0.8091603053435115,-1.5419847328244274,0.018310546875,-0.093017578125,-0.608642578125,0.8193999999999999
1.5114503816793894,0.7633587786259542,-1.5114503816793894,0.020751953125,-0.09765625,-0.599853515625,0.8210999999999999
1.633587786259542,0.7022900763358778,-1.5572519083969465,0.01513671875,-0.095458984375,-0.603759765625,0.8228
1.633587786259542,0.42748091603053434,-1.450381679389313,0.01708984375,-0.09423828125,-0.600341796875,0.8244999999999999
1.3740458015267176,0.5954198473282443,-1.3435114503816794,0.022705078125,-0.09326171875,-0.613037109375,0.8261999999999999
1.816793893129771,0.7480916030534351,-1.4198473282442747,0.01708984375,-0.095458984375,-0.6005859375,0.8279
1.6641221374045803,0.6259541984732825,-1.5114503816793894,0.0205078125,-0.09326171875,-0.595947265625,0.8296
1.633587786259542,0.48854961832061067,-1.3893129770992367,0.0185546875,-0.093505859375,-0.603759765625,0.8312999999999999
1.6793893129770991,0.5954198473282443,-1.2061068702290076,0.021240234375,-0.0927734375,-0.602294921875,0.833
1.618320610687023,0.5648854961832062,-1.1297709923664123,0.01806640625,-0.09228515625,-0.599609375,0.8347
1.9236641221374047,0.5343511450381679,-1.0381679389312977,0.0205078125,-0.09521484375,-0.60107421875,0.8363999999999999
1.83206106870229,0.5038167938931297,-1.1755725190839694,0.017578125,-0.09130859375,-0.60302734375,0.8381
1.633587786259542,0.5038167938931297,-1.2213740458015268,0.0166015625,-0.1005859375,-0.605224609375,0.8398
1.8015267175572518,0.42748091603053434,-1.3282442748091603,0.01220703125,-0.09521484375,-0.59716796875,0.8414999999999999
1.984732824427481,0.44274809160305345,-1.251908396946565,0.013916015625,-0.1005859375,-0.6025390625,0.8432
1.8778625954198473,0.4580152671755725,-1.1297709923664123,0.0166015625,-0.09912109375,-0.605712890625,0.8449
1.9083969465648856,0.5801526717557252,-1.1908396946564885,0.012939453125,-0.09716796875,-0.60302734375,0.8465999999999999
1.83206106870229,0.5038167938931297,-1.2366412213740459,0.021240234375,-0.09912109375,-0.59765625,0.8482999999999999
2.045801526717557,0.5190839694656488,-1.1297709923664123,0.014892578125,-0.09814453125,-0.59765625,0.85
1.7557251908396947,0.48854961832061067,-1.3435114503816794,0.020263671875,-0.098388671875,-0.5986328125,0.8516999999999999
1.8625954198473282,0.5343511450381679,-1.297709923664122,0.0185546875,-0.1005859375,-0.603271484375,0.8533999999999999
2.030534351145038,0.48854961832061067,-1.1145038167938932,0.015380859375,-0.09912109375,-0.59814453125,0.8551
2.0,0.6259541984732825,-1.1450381679389312,0.0146484375,-0.093505859375,-0.600341796875,0.8568
2.0916030534351147,0.6870229007633588,-1.2671755725190839,0.015869140625,-0.09814453125,-0.607421875,0.8584999999999999
2.16793893129771,0.732824427480916,-1.1450381679389312,0.01904296875,-0.101806640625,-0.59716796875,0.8602
2.16793893129771,0.6564885496183206,-1.0076335877862594,0.02197265625,-0.098876953125,-0.604736328125,0.8619
2.183206106870229,0.6564885496183206,-0.6717557251908397,0.0185546875,-0.09765625,-0.602783203125,0.8635999999999999
2.213740458015267,0.5954198473282443,-0.916030534351145,0.019775390625,-0.09375,-0.599853515625,0.8653
2.2900763358778624,0.7022900763358778,-0.5343511450381679,0.01904296875,-0.09716796875,-0.604736328125,0.867
2.2900763358778624,0.5190839694656488,-0.5648854961832062,0.020263671875,-0.096923828125,-0.60791015625,0.8686999999999999
2.366412213740458,0.2748091603053435,-0.6564885496183206,0.012939453125,-0.09326171875,-0.604736328125,0.8704
2.183206106870229,0.3511450381679389,-0.33587786259541985,0.019287109375,-0.0986328125,-0.601806640625,0.8721
2.50381679389313,0.3816793893129771,-0.42748091603053434,0.017822265625,-0.0927734375,-0.6083984375,0.8737999999999999
2.3206106870229006,0.48854961832061067,-0.5801526717557252,0.014892578125,-0.099853515625,-0.60400390625,0.8755
2.351145038167939,0.3816793893129771,-0.3511450381679389,0.0146484375,-0.09814453125,-0.606689453125,0.8772
2.33587786259542,0.2748091603053435,-0.4580152671755725,0.019775390625,-0.097412109375,-0.606201171875,0.8788999999999999
2.519083969465649,0.44274809160305345,-0.3816793893129771,0.023193359375,-0.096923828125,-0.599853515625,0.8805999999999999
2.2748091603053435,0.3816793893129771,-0.3816793893129771,0.017333984375,-0.098388671875,-0.601318359375,0.8823
2.2748091603053435,0.366412213740458,-0.3053435114503817,0.013671875,-0.09619140625,-0.604736328125,0.8839999999999999
2.0763358778625953,0.3816793893129771,-0.44274809160305345,0.017333984375,-0.093994140625,-0.603759765625,0.8856999999999999
2.198473282442748,0.366412213740458,-0.48854961832061067,0.0126953125,-0.098388671875,-0.6083984375,0.8874
2.2442748091603053,0.44274809160305345,-0.732824427480916,0.02001953125,-0.095947265625,-0.60888671875,0.8891
2.045801526717557,0.5343511450381679,-0.6564885496183206,0.018798828125,-0.095458984375,-0.603515625,0.8907999999999999
1.9236641221374047,0.48854961832061067,-0.5190839694656488,0.021484375,-0.095458984375,-0.602783203125,0.8925
1.8778625954198473,0.48854961832061067,-0.5190839694656488,0.018310546875,-0.10107421875,-0.6025390625,0.8942
1.7251908396946565,0.4580152671755725,-0.5801526717557252,0.0185546875,-0.095947265625,-0.598876953125,0.8958999999999999
1.7099236641221374,0.5801526717557252,-0.6564885496183206,0.022216796875,-0.092529296875,-0.604736328125,0.8976
1.8015267175572518,0.366412213740458,-0.8244274809160306,0.01708984375,-0.091796875,-0.606201171875,0.8993
1.7404580152671756,0.4732824427480916,-0.8549618320610687,0.01953125,-0.09765625,-0.606689453125,0.9009999999999999
1.618320610687023,0.5343511450381679,-0.8854961832061069,0.015869140625,-0.08984375,-0.603271484375,0.9027
1.633587786259542,0.42748091603053434,-1.083969465648855,0.01611328125,-0.08544921875,-0.60791015625,0.9044
1.5572519083969465,0.5190839694656488,-0.9007633587786259,0.022216796875,-0.090087890625,-0.596923828125,0.9060999999999999
1.618320610687023,0.42748091603053434,-0.9770992366412213,0.021484375,-0.093505859375,-0.59765625,0.9077999999999999
1.5877862595419847,0.42748091603053434,-0.9465648854961832,0.018310546875,-0.091796875,-0.60693359375,0.9095
1.450381679389313,0.3969465648854962,-0.8702290076335878,0.020751953125,-0.090576171875,-0.604736328125,0.9111999999999999
1.4351145038167938,0.3816793893129771,-1.0229007633587786,0.020263671875,-0.091064453125,-0.603759765625,0.9128999999999999
1.3282442748091603,0.32061068702290074,-1.1297709923664123,0.018310546875,-0.09326171875,-0.60107421875,0.9146
1.3129770992366412,-0.015267175572519083,-0.9465648854961832,0.01953125,-0.087158203125,-0.598876953125,0.9163
1.618320610687023,0.183206106870229,-1.0076335877862594,0.021484375,-0.089599609375,-0.602294921875,0.9179999999999999
1.618320610687023,0.16793893129770993,-1.0076335877862594,0.02197265625,-0.093994140625,-0.6015625,0.9197
1.1755725190839694,0.061068702290076333,-1.0381679389312977,0.01904296875,-0.08935546875,-0.598388671875,0.9214
1.282442748091603,-0.061068702290076333,-0.8396946564885496,0.018798828125,-0.0888671875,-0.599365234375,0.9230999999999999
1.3282442748091603,0.015267175572519083,-0.8702290076335878,0.019287109375,-0.086181640625,-0.60546875,0.9248
1.2366412213740459,0.0,-0.8702290076335878,0.019775390625,-0.09130859375,-0.609619140625,0.9265
1.4045801526717556,-0.04580152671755725,-0.9007633587786259,0.02392578125,-0.095703125,-0.602294921875,0.9281999999999999
1.4809160305343512,-0.13740458015267176,-0.7633587786259542,0.01806640625,-0.091552734375,-0.60595703125,0.9299
1.6793893129770991,-0.07633587786259542,-0.8244274809160306,0.020263671875,-0.094970703125,-0.60888671875,0.9316
1.5572519083969465,-0.183206106870229,-0.8244274809160306,0.02490234375,-0.096923828125,-0.60498046875,0.9332999999999999
1.8015267175572518,-0.10687022900763359,-0.8091603053435115,0.0224609375,-0.09423828125,-0.60205078125,0.9349999999999999
1.7709923664122138,-0.2748091603053435,-0.5648854961832062,0.016845703125,-0.095947265625,-0.600830078125,0.9367
1.8015267175572518,-0.10687022900763359,-0.6259541984732825,0.016845703125,-0.091796875,-0.599365234375,0.9383999999999999
2.16793893129771,-0.030534351145038167,-0.7022900763358778,0.0185546875,-0.09423828125,-0.602294921875,0.9400999999999999
2.1374045801526718,-0.0916030534351145,-0.6564885496183206,0.019775390625,-0.091064453125,-0.608154296875,0.9418
2.0,-0.061068702290076333,-0.5343511450381679,0.017333984375,-0.093017578125,-0.60693359375,0.9434999999999999
2.1068702290076335,0.0,-0.6717557251908397,0.021484375,-0.095703125,-0.607421875,0.9451999999999999
2.0610687022900764,0.0916030534351145,-0.3969465648854962,0.019775390625,-0.0927734375,-0.610595703125,0.9469
2.213740458015267,0.04580152671755725,-0.32061068702290074,0.01904296875,-0.092529296875,-0.608154296875,0.9486
2.3969465648854964,0.21374045801526717,-0.3053435114503817,0.0166015625,-0.094970703125,-0.608154296875,0.9502999999999999
2.3969465648854964,0.2595419847328244,-0.48854961832061067,0.018310546875,-0.097900390625,-0.606689453125,0.952
2.33587786259542,0.2748091603053435,-0.5038167938931297,0.018310546875,-0.09765625,-0.60302734375,0.9537
2.3969465648854964,0.3816793893129771,-0.44274809160305345,0.019287109375,-0.099853515625,-0.607177734375,0.9553999999999999
2.427480916030534,0.366412213740458,-0.33587786259541985,0.019775390625,-0.0966796875,-0.603759765625,0.9571
2.198473282442748,0.5343511450381679,-0.42748091603053434,0.015869140625,-0.096923828125,-0.605712890625,0.9588
2.519083969465649,0.6870229007633588,-0.4580152671755725,0.017333984375,-0.0966796875,-0.608154296875,0.9604999999999999
2.3206106870229006,0.6870229007633588,-0.3969465648854962,0.015869140625,-0.09326171875,-0.602294921875,0.9621999999999999
2.519083969465649,0.732824427480916,-0.3816793893129771,0.017578125,-0.09814453125,-0.60595703125,0.9639
2.5343511450381677,0.7786259541984732,-0.549618320610687,0.01904296875,-0.098388671875,-0.608154296875,0.9655999999999999
2.6259541984732824,0.916030534351145,-0.44274809160305345,0.020751953125,-0.097900390625,-0.59912109375,0.9672999999999999
2.7786259541984735,1.0229007633587786,-0.5648854961832062,0.0146484375,-0.09814453125,-0.603515625,0.969
2.564885496183206,1.0229007633587786,-0.6717557251908397,0.015625,-0.102294921875,-0.5986328125,0.9706999999999999
2.4732824427480917,1.0229007633587786,-0.7175572519083969,0.010009765625,-0.1015625,-0.605712890625,0.9723999999999999
2.732824427480916,1.0534351145038168,-0.7022900763358778,0.019287109375,-0.101806640625,-0.60888671875,0.9741
2.7022900763358777,1.1145038167938932,-0.8244274809160306,0.016357421875,-0.100341796875,-0.609130859375,0.9758
2.717557251908397,1.251908396946565,-0.732824427480916,0.015380859375,-0.099365234375,-0.608154296875,0.9774999999999999
2.946564885496183,1.0381679389312977,-0.6106870229007634,0.01904296875,-0.1005859375,-0.60986328125,0.9792
2.763358778625954,0.9465648854961832,-0.5801526717557252,0.019775390625,-0.09521484375,-0.605224609375,0.9809
2.7786259541984735,1.099236641221374,-0.8396946564885496,0.0234375,-0.09033203125,-0.6142578125,0.9825999999999999
2.763358778625954,1.0534351145038168,-0.5801526717557252,0.014892578125,-0.09765625,-0.611328125,0.9843
2.885496183206107,1.1450381679389312,-0.5648854961832062,0.022216796875,-0.097900390625,-0.609375,0.986
2.7022900763358777,1.1450381679389312,-0.5801526717557252,0.019287109375,-0.09765625,-0.60693359375,0.9876999999999999
2.8396946564885495,1.0229007633587786,-0.732824427480916,0.018310546875,-0.094970703125,-0.60595703125,0.9894
3.068702290076336,1.1145038167938932,-0.5343511450381679,0.021484375,-0.094970703125,-0.6064453125,0.9911
2.7938931297709924,1.0534351145038168,-0.48854961832061067,0.022216796875,-0.09326171875,-0.609130859375,0.9927999999999999
2.8091603053435112,0.9007633587786259,-0.33587786259541985,0.017822265625,-0.10107421875,-0.60205078125,0.9944999999999999
2.7480916030534353,0.9465648854961832,-0.3969465648854962,0.0185546875,-0.092529296875,-0.605224609375,0.9962
2.9618320610687023,1.1297709923664123,-0.33587786259541985,0.01953125,-0.097412109375,-0.6044921875,0.9978999999999999
2.854961832061069,1.0229007633587786,-0.42748091603053434,0.0185546875,-0.0986328125,-0.597900390625,0.9995999999999999
2.5801526717557253,1.0229007633587786,-0.15267175572519084,0.019287109375,-0.10009765625,-0.6044921875,1.0012999999999999
2.427480916030534,1.083969465648855,-0.22900763358778625,0.02099609375,-0.093994140625,-0.60498046875,1.003
2.7938931297709924,0.9618320610687023,-0.24427480916030533,0.013427734375,-0.0966796875,-0.6044921875,1.0047
2.6259541984732824,0.8854961832061069,-0.12213740458015267,0.0234375,-0.095703125,-0.607666015625,1.0064
2.564885496183206,0.9770992366412213,-0.0916030534351145,0.018310546875,-0.095458984375,-0.60595703125,1.0081
2.3969465648854964,0.8702290076335878,-0.16793893129770993,0.022216796875,-0.095703125,-0.603271484375,1.0098
2.1526717557251906,0.7633587786259542,-0.1984732824427481,0.01513671875,-0.09326171875,-0.60107421875,1.0114999999999998
2.4580152671755724,0.9007633587786259,-0.32061068702290074,0.01953125,-0.096435546875,-0.61669921875,1.0131999999999999
2.16793893129771,0.7633587786259542,-0.3969465648854962,0.0205078125,-0.09716796875,-0.6025390625,1.0149
2.213740458015267,0.6870229007633588,-0.3816793893129771,0.021240234375,-0.0986328125,-0.604736328125,1.0166
2.2595419847328246,0.6259541984732825,-0.42748091603053434,0.01416015625,-0.100341796875,-0.60400390625,1.0183
2.1374045801526718,0.8396946564885496,-0.7022900763358778,0.016845703125,-0.094482421875,-0.6123046875,1.02
2.122137404580153,0.5954198473282443,-0.4732824427480916,0.015625,-0.09423828125,-0.608154296875,1.0217
2.1374045801526718,0.6106870229007634,-0.6870229007633588,0.0146484375,-0.0947265625,-0.609130859375,1.0233999999999999
2.1068702290076335,0.6717557251908397,-0.7786259541984732,0.02001953125,-0.09765625,-0.60791015625,1.0251
2.0916030534351147,0.7022900763358778,-0.732824427480916,0.017822265625,-0.093505859375,-0.6123046875,1.0268
2.015267175572519,0.7022900763358778,-0.7938931297709924,0.02197265625,-0.094482421875,-0.60498046875,1.0285
2.0,0.7175572519083969,-1.1145038167938932,0.02197265625,-0.08837890625,-0.603271484375,1.0302
2.030534351145038,0.6717557251908397,-1.0076335877862594,0.020263671875,-0.09228515625,-0.603515625,1.0319
1.9389312977099236,0.6259541984732825,-1.0076335877862594,0.01953125,-0.094970703125,-0.606689453125,1.0335999999999999
1.984732824427481,0.5648854961832062,-0.8244274809160306,0.023193359375,-0.0966796875,-0.609375,1.0352999999999999
2.0916030534351147,0.6717557251908397,-1.083969465648855,0.021728515625,-0.096923828125,-0.6123046875,1.037
2.0763358778625953,0.6412213740458015,-1.083969465648855,0.025146484375,-0.0966796875,-0.607421875,1.0387
2.213740458015267,0.5954198473282443,-1.251908396946565,0.01611328125,-0.09326171875,-0.605224609375,1.0404
2.2290076335877864,0.6412213740458015,-1.0687022900763359,0.015625,-0.09326171875,-0.609375,1.0421
2.381679389312977,0.5648854961832062,-1.1755725190839694,0.015380859375,-0.09619140625,-0.602783203125,1.0437999999999998
2.3206106870229006,0.6717557251908397,-0.8702290076335878,0.01806640625,-0.095703125,-0.607421875,1.0454999999999999
2.16793893129771,0.5648854961832062,-1.0381679389312977,0.021484375,-0.099365234375,-0.61181640625,1.0472
2.2900763358778624,0.3511450381679389,-1.0076335877862594,0.020263671875,-0.095947265625,-0.608642578125,1.0489
2.2595419847328246,0.32061068702290074,-0.9923664122137404,0.01953125,-0.091064453125,-0.604248046875,1.0506
2.2595419847328246,0.3816793893129771,-0.9618320610687023,0.023681640625,-0.091552734375,-0.598876953125,1.0523
2.4732824427480917,0.5038167938931297,-0.9770992366412213,0.021484375,-0.094970703125,-0.607421875,1.054
2.16793893129771,0.4732824427480916,-0.9618320610687023,0.017578125,-0.095458984375,-0.60498046875,1.0556999999999999
2.351145038167939,0.44274809160305345,-1.1755725190839694,0.025634765625,-0.094482421875,-0.602783203125,1.0574
2.366412213740458,0.5648854961832062,-0.9007633587786259,0.01806640625,-0.091796875,-0.603515625,1.0591
2.1526717557251906,0.5038167938931297,-1.1297709923664123,0.020751953125,-0.095703125,-0.599853515625,1.0608
2.1526717557251906,0.4580152671755725,-0.9618320610687023,0.017578125,-0.090087890625,-0.615478515625,1.0625
1.984732824427481,0.5343511450381679,-1.1297709923664123,0.01953125,-0.09814453125,-0.603759765625,1.0642
1.7709923664122138,0.5648854961832062,-1.099236641221374,0.01953125,-0.0966796875,-0.600830078125,1.0658999999999998
2.045801526717557,0.6564885496183206,-1.3893129770992367,0.024169921875,-0.094482421875,-0.60498046875,1.0675999999999999
2.198473282442748,0.6106870229007634,-1.0229007633587786,0.025634765625,-0.096435546875,-0.598388671875,1.0693
1.984732824427481,0.8244274809160306,-1.4045801526717556,0.016845703125,-0.095703125,-0.609375,1.071
2.015267175572519,0.732824427480916,-1.1755725190839694,0.021484375,-0.09033203125,-0.60693359375,1.0727
2.045801526717557,0.8549618320610687,-1.4198473282442747,0.017578125,-0.094482421875,-0.60986328125,1.0744
2.1374045801526718,0.9618320610687023,-1.282442748091603,0.019775390625,-0.1005859375,-0.604248046875,1.0760999999999998
1.984732824427481,0.9007633587786259,-1.1755725190839694,0.024169921875,-0.09765625,-0.60693359375,1.0777999999999999
2.1526717557251906,1.0229007633587786,-1.1450381679389312,0.024658203125,-0.095458984375,-0.60693359375,1.0795
2.122137404580153,0.8702290076335878,-1.0076335877862594,0.0224609375,-0.0947265625,-0.611083984375,1.0812
2.0916030534351147,0.8702290076335878,-0.9007633587786259,0.022705078125,-0.09716796875,-0.607421875,1.0829
2.1526717557251906,0.9770992366412213,-0.9770992366412213,0.01708984375,-0.0986328125,-0.59716796875,1.0846
2.0763358778625953,1.1603053435114503,-0.8854961832061069,0.021728515625,-0.09716796875,-0.5966796875,1.0863
2.030534351145038,1.1603053435114503,-0.9923664122137404,0.017578125,-0.090576171875,-0.605224609375,1.0879999999999999
1.8625954198473282,1.0687022900763359,-0.7480916030534351,0.018798828125,-0.096923828125,-0.598876953125,1.0897
2.015267175572519,1.1755725190839694,-0.9465648854961832,0.0166015625,-0.098876953125,-0.606689453125,1.0914
1.8473282442748091,1.0687022900763359,-0.7022900763358778,0.01904296875,-0.09521484375,-0.61328125,1.0931
1.8778625954198473,0.9770992366412213,-0.6717557251908397,0.022705078125,-0.100341796875,-0.611328125,1.0948
1.8625954198473282,1.099236641221374,-0.7022900763358778,0.02392578125,-0.09912109375,-0.605224609375,1.0965
1.4961832061068703,1.1755725190839694,-0.4732824427480916,0.013671875,-0.0947265625,-0.609619140625,1.0981999999999998
1.8473282442748091,1.1297709923664123,-0.6717557251908397,0.014404296875,-0.096923828125,-0.61328125,1.0998999999999999
1.465648854961832,1.282442748091603,-0.7938931297709924,0.013916015625,-0.102783203125,-0.61279296875,1.1016
1.633587786259542,1.282442748091603,-0.732824427480916,0.018798828125,-0.101806640625,-0.6083984375,1.1033
1.5572519083969465,1.251908396946565,-0.5954198473282443,0.021484375,-0.102783203125,-0.604248046875,1.105
1.297709923664122,1.3435114503816794,-0.3969465648854962,0.020263671875,-0.099365234375,-0.60107421875,1.1067
1.1908396946564885,1.2671755725190839,-0.7633587786259542,0.0234375,-0.103515625,-0.6083984375,1.1083999999999998
1.4198473282442747,1.251908396946565,-0.7938931297709924,0.020263671875,-0.099853515625,-0.60791015625,1.1100999999999999
1.450381679389313,1.3435114503816794,-0.6717557251908397,0.0166015625,-0.09765625,-0.609375,1.1118
1.3740458015267176,1.3893129770992367,-0.7633587786259542,0.015625,-0.096923828125,-0.60546875,1.1135
1.4045801526717556,1.4198473282442747,-0.9465648854961832,0.015869140625,-0.098388671875,-0.603759765625,1.1152
1.3435114503816794,1.4809160305343512,-0.8854961832061069,0.022216796875,-0.095947265625,-0.6044921875,1.1169
1.5114503816793894,1.4351145038167938,-0.9770992366412213,0.018310546875,-0.10107421875,-0.598388671875,1.1186
1.5267175572519085,1.3129770992366412,-0.8702290076335878,0.017822265625,-0.097412109375,-0.60595703125,1.1202999999999999
1.1755725190839694,1.4045801526717556,-0.9618320610687023,0.016357421875,-0.103271484375,-0.602783203125,1.1219999999999999
1.282442748091603,1.2213740458015268,-1.1145038167938932,0.022216796875,-0.09716796875,-0.611083984375,1.1237
1.4809160305343512,1.3282442748091603,-1.0381679389312977,0.015625,-0.0966796875,-0.60595703125,1.1254
1.4045801526717556,1.3129770992366412,-0.7480916030534351,0.01318359375,-0.09326171875,-0.61083984375,1.1271
1.4809160305343512,1.633587786259542,-0.9923664122137404,0.022705078125,-0.096923828125,-0.606201171875,1.1288
1.450381679389313,1.5419847328244274,-0.7633587786259542,0.015625,-0.09423828125,-0.6044921875,1.1304999999999998
1.7099236641221374,1.4198473282442747,-0.8702290076335878,0.022705078125,-0.099365234375,-0.611083984375,1.1321999999999999
1.633587786259542,1.465648854961832,-0.7633587786259542,0.016357421875,-0.0986328125,-0.607666015625,1.1339
1.6793893129770991,1.5725190839694656,-0.8091603053435115,0.018798828125,-0.094970703125,-0.604248046875,1.1356
1.6488549618320612,1.4961832061068703,-0.916030534351145,0.0166015625,-0.094482421875,-0.603759765625,1.1373
1.7709923664122138,1.2061068702290076,-0.9312977099236641,0.0185546875,-0.09814453125,-0.603759765625,1.139
1.8931297709923665,1.297709923664122,-0.6870229007633588,0.01513671875,-0.09716796875,-0.60693359375,1.1407
2.015267175572519,1.3587786259541985,-0.8091603053435115,0.01806640625,-0.09375,-0.6181640625,1.1423999999999999
1.83206106870229,1.465648854961832,-0.6259541984732825,0.018798828125,-0.09521484375,-0.614013671875,1.1441
2.198473282442748,1.3282442748091603,-0.7022900763358778,0.0166015625,-0.09521484375,-0.600830078125,1.1458
2.351145038167939,1.282442748091603,-0.6564885496183206,0.017822265625,-0.10009765625,-0.604248046875,1.1475
2.2900763358778624,1.4809160305343512,-0.7633587786259542,0.018310546875,-0.0986328125,-0.601318359375,1.1492
2.4427480916030535,1.3282442748091603,-0.7633587786259542,0.015380859375,-0.099609375,-0.608154296875,1.1509
2.351145038167939,1.3740458015267176,-0.6259541984732825,0.016357421875,-0.096435546875,-0.607177734375,1.1525999999999998
2.549618320610687,1.5725190839694656,-0.5190839694656488,0.01611328125,-0.093994140625,-0.60595703125,1.1542999999999999
2.5801526717557253,1.5725190839694656,-0.6870229007633588,0.017822265625,-0.10009765625,-0.604248046875,1.156
2.763358778625954,1.5114503816793894,-0.732824427480916,0.016845703125,-0.09765625,-0.60693359375,1.1577
2.8244274809160306,1.4809160305343512,-0.6717557251908397,0.01904296875,-0.096435546875,-0.60595703125,1.1594
2.5801526717557253,1.5114503816793894,-0.6870229007633588,0.015625,-0.096923828125,-0.609130859375,1.1611
2.549618320610687,1.786259541984733,-0.6106870229007634,0.015869140625,-0.096435546875,-0.604248046875,1.1627999999999998
2.6106870229007635,1.786259541984733,-0.7633587786259542,0.016357421875,-0.104248046875,-0.611083984375,1.1644999999999999
2.595419847328244,1.5725190839694656,-0.7175572519083969,0.013916015625,-0.100830078125,-0.60693359375,1.1662
2.4885496183206106,1.6641221374045803,-0.6870229007633588,0.0146484375,-0.096923828125,-0.6015625,1.1679
2.4732824427480917,1.816793893129771,-0.8549618320610687,0.01513671875,-0.10205078125,-0.602294921875,1.1696
2.4580152671755724,1.8015267175572518,-0.7633587786259542,0.020263671875,-0.09912109375,-0.599609375,1.1713
2.50381679389313,1.7099236641221374,-0.6412213740458015,0.01806640625,-0.09765625,-0.598388671875,1.173
2.015267175572519,1.9694656488549618,-0.7633587786259542,0.017578125,-0.093505859375,-0.604248046875,1.1746999999999999
2.2900763358778624,1.6641221374045803,-0.6564885496183206,0.014892578125,-0.102294921875,-0.6044921875,1.1764
2.5343511450381677,1.6641221374045803,-0.6412213740458015,0.018310546875,-0.09765625,-0.6064453125,1.1781
2.366412213740458,1.786259541984733,-0.7633587786259542,0.016357421875,-0.1025390625,-0.603271484375,1.1798
2.0916030534351147,1.786259541984733,-0.7480916030534351,0.015869140625,-0.09765625,-0.599609375,1.1815
2.0916030534351147,1.9541984732824427,-0.6717557251908397,0.015380859375,-0.10107421875,-0.59521484375,1.1832
2.1374045801526718,1.8473282442748091,-0.8549618320610687,0.016845703125,-0.099365234375,-0.602783203125,1.1848999999999998
2.015267175572519,1.6946564885496183,-0.7938931297709924,0.021240234375,-0.0966796875,-0.607421875,1.1865999999999999
2.030534351145038,1.5725190839694656,-0.7480916030534351,0.020751953125,-0.100341796875,-0.608642578125,1.1883
1.9694656488549618,1.7557251908396947,-0.7022900763358778,0.02099609375,-0.093994140625,-0.604248046875,1.19
1.7557251908396947,1.6946564885496183,-0.5954198473282443,0.024658203125,-0.094482421875,-0.611083984375,1.1917
1.7709923664122138,1.6030534351145038,-0.4732824427480916,0.017578125,-0.095458984375,-0.6123046875,1.1934
1.5267175572519085,1.6641221374045803,-0.7938931297709924,0.023193359375,-0.097412109375,-0.606201171875,1.1950999999999998
1.5114503816793894,1.5419847328244274,-0.7480916030534351,0.02001953125,-0.098876953125,-0.609619140625,1.1967999999999999
1.3129770992366412,1.450381679389313,-0.5801526717557252,0.02099609375,-0.0966796875,-0.6044921875,1.1985
1.5877862595419847,1.4045801526717556,-0.6870229007633588,0.015380859375,-0.103515625,-0.6064453125,1.2002
1.3740458015267176,1.2671755725190839,-0.7175572519083969,0.023681640625,-0.10107421875,-0.61181640625,1.2019
1.4809160305343512,1.3435114503816794,-0.6259541984732825,0.018798828125,-0.09228515625,-0.61279296875,1.2036
1.5419847328244274,1.2366412213740459,-0.5343511450381679,0.02099609375,-0.100830078125,-0.60693359375,1.2053
1.297709923664122,1.0381679389312977,-0.5954198473282443,0.023681640625,-0.094970703125,-0.598388671875,1.2069999999999999
1.3129770992366412,1.1603053435114503,-0.6412213740458015,0.01953125,-0.100341796875,-0.60546875,1.2086999999999999
1.2671755725190839,1.083969465648855,-0.549618320610687,0.02783203125,-0.101806640625,-0.60791015625,1.2104
1.1145038167938932,1.0229007633587786,-0.5038167938931297,0.023193359375,-0.094970703125,-0.60498046875,1.2121
1.1755725190839694,1.1145038167938932,-0.6717557251908397,0.0234375,-0.099365234375,-0.598876953125,1.2138
1.297709923664122,0.8702290076335878,-0.44274809160305345,0.024169921875,-0.093505859375,-0.5986328125,1.2155
1.3282442748091603,0.916030534351145,-0.4122137404580153,0.0224609375,-0.095703125,-0.604248046875,1.2171999999999998
1.450381679389313,0.8549618320610687,-0.6870229007633588,0.014404296875,-0.095947265625,-0.6123046875,1.2188999999999999
1.2366412213740459,0.7938931297709924,-0.6412213740458015,0.01806640625,-0.0986328125,-0.596923828125,1.2206
1.3893129770992367,0.8396946564885496,-0.7786259541984732,0.019287109375,-0.09716796875,-0.60302734375,1.2223
1.3893129770992367,0.8091603053435115,-0.5190839694656488,0.013427734375,-0.094970703125,-0.60888671875,1.224
1.297709923664122,0.6412213740458015,-0.4732824427480916,0.01611328125,-0.097900390625,-0.603759765625,1.2257
1.633587786259542,0.7175572519083969,-0.5954198473282443,0.01806640625,-0.097412109375,-0.603759765625,1.2273999999999998
1.4809160305343512,0.8091603053435115,-0.7633587786259542,0.024169921875,-0.0966796875,-0.59814453125,1.2290999999999999
1.4351145038167938,0.7938931297709924,-0.2595419847328244,0.017822265625,-0.095947265625,-0.6015625,1.2308
1.450381679389313,0.7022900763358778,-0.6106870229007634,0.02001953125,-0.092041015625,-0.60888671875,1.2325
1.450381679389313,0.8091603053435115,-0.7175572519083969,0.016845703125,-0.10107421875,-0.59814453125,1.2342
1.5725190839694656,0.7175572519083969,-0.7022900763358778,0.0146484375,-0.09765625,-0.607177734375,1.2359
1.7404580152671756,0.6870229007633588,-0.5648854961832062,0.019287109375,-0.0986328125,-0.60400390625,1.2376
1.5725190839694656,0.6412213740458015,-0.8549618320610687,0.01708984375,-0.096923828125,-0.610595703125,1.2392999999999998
1.618320610687023,0.6564885496183206,-0.5648854961832062,0.021484375,-0.098388671875,-0.60595703125,1.2409999999999999
1.6488549618320612,0.6717557251908397,-0.7480916030534351,0.021240234375,-0.09619140625,-0.60205078125,1.2427
1.816793893129771,0.6259541984732825,-0.8702290076335878,0.020751953125,-0.097900390625,-0.60595703125,1.2444
1.5725190839694656,0.5801526717557252,-0.6717557251908397,0.02294921875,-0.099365234375,-0.60546875,1.2461
1.7557251908396947,0.6717557251908397,-0.6564885496183206,0.01806640625,-0.09326171875,-0.59619140625,1.2478
1.5725190839694656,0.8396946564885496,-0.7480916030534351,0.01708984375,-0.09765625,-0.60498046875,1.2494999999999998
1.4809160305343512,0.7480916030534351,-0.7938931297709924,0.019775390625,-0.097412109375,-0.606689453125,1.2511999999999999
1.816793893129771,0.5954198473282443,-0.8091603053435115,0.020263671875,-0.0927734375,-0.603515625,1.2529
1.9389312977099236,0.7633587786259542,-0.7633587786259542,0.020751953125,-0.103759765625,-0.602783203125,1.2546
1.7404580152671756,0.7480916030534351,-0.7480916030534351,0.022705078125,-0.095458984375,-0.607421875,1.2563
1.6793893129770991,0.8549618320610687,-0.7022900763358778,0.02392578125,-0.098876953125,-0.605712890625,1.258
1.83206106870229,0.7175572519083969,-0.9465648854961832,0.020263671875,-0.100830078125,-0.602294921875,1.2596999999999998
1.8778625954198473,0.7633587786259542,-0.7480916030534351,0.021728515625,-0.099365234375,-0.604248046875,1.2613999999999999
2.015267175572519,0.7633587786259542,-0.8091603053435115,0.025146484375,-0.096923828125,-0.605224609375,1.2631
2.1068702290076335,0.7633587786259542,-0.7022900763358778,0.021240234375,-0.100830078125,-0.6064453125,1.2648
1.9694656488549618,0.549618320610687,-0.7633587786259542,0.016357421875,-0.09912109375,-0.6103515625,1.2665
2.1068702290076335,0.7480916030534351,-0.8244274809160306,0.022216796875,-0.0947265625,-0.607421875,1.2682
2.1068702290076335,0.5801526717557252,-0.7022900763358778,0.01904296875,-0.095458984375,-0.612548828125,1.2699
2.3969465648854964,0.732824427480916,-0.5954198473282443,0.025146484375,-0.101318359375,-0.60693359375,1.2715999999999998
2.213740458015267,0.6564885496183206,-0.6259541984732825,0.018798828125,-0.09912109375,-0.6064453125,1.2732999999999999
2.351145038167939,0.732824427480916,-0.3969465648854962,0.01806640625,-0.100341796875,-0.610595703125,1.275
2.549618320610687,0.8702290076335878,-0.42748091603053434,0.018310546875,-0.09814453125,-0.6064453125,1.2767
2.2290076335877864,0.6870229007633588,-0.42748091603053434,0.01904296875,-0.097900390625,-0.598388671875,1.2784
2.16793893129771,0.732824427480916,-0.3816793893129771,0.0205078125,-0.09619140625,-0.604248046875,1.2801
2.213740458015267,0.732824427480916,-0.24427480916030533,0.0205078125,-0.09326171875,-0.609130859375,1.2817999999999998
2.351145038167939,0.7480916030534351,-0.3969465648854962,0.016357421875,-0.09912109375,-0.603759765625,1.2834999999999999
2.4732824427480917,0.8396946564885496,-0.1984732824427481,0.0166015625,-0.094482421875,-0.607421875,1.2852
2.2442748091603053,0.7480916030534351,-0.4122137404580153,0.0205078125,-0.096435546875,-0.608154296875,1.2869
2.366412213740458,0.8854961832061069,-0.44274809160305345,0.0185546875,-0.099365234375,-0.60107421875,1.2886
2.1374045801526718,0.9312977099236641,-0.1984732824427481,0.01611328125,-0.099365234375,-0.608154296875,1.2903
2.427480916030534,0.9923664122137404,-0.21374045801526717,0.01708984375,-0.096435546875,-0.604248046875,1.292
2.351145038167939,1.0229007633587786,-0.2748091603053435,0.016845703125,-0.0966796875,-0.608154296875,1.2936999999999999
2.183206106870229,1.1297709923664123,-0.22900763358778625,0.017822265625,-0.098388671875,-0.610595703125,1.2953999999999999
2.213740458015267,1.1908396946564885,-0.3969465648854962,0.014892578125,-0.103271484375,-0.604736328125,1.2971
2.351145038167939,1.2366412213740459,-0.366412213740458,0.01708984375,-0.09814453125,-0.6015625,1.2988
2.381679389312977,1.1297709923664123,-0.33587786259541985,0.0146484375,-0.095947265625,-0.6025390625,1.3005
2.366412213740458,1.0381679389312977,-0.42748091603053434,0.019287109375,-0.1015625,-0.6064453125,1.3022
2.381679389312977,1.3893129770992367,-0.366412213740458,0.018310546875,-0.101806640625,-0.60546875,1.3038999999999998
2.5343511450381677,1.3893129770992367,-0.4732824427480916,0.01708984375,-0.101318359375,-0.60791015625,1.3055999999999999
2.4732824427480917,1.2671755725190839,-0.5801526717557252,0.01953125,-0.0947265625,-0.603759765625,1.3073
2.3053435114503817,1.282442748091603,-0.2900763358778626,0.015869140625,-0.099609375,-0.60107421875,1.309
2.33587786259542,1.3282442748091603,-0.6259541984732825,0.0205078125,-0.10302734375,-0.604736328125,1.3107
2.33587786259542,1.5419847328244274,-0.6717557251908397,0.02001953125,-0.101318359375,-0.607421875,1.3124
2.3053435114503817,1.3435114503816794,-0.48854961832061067,0.01318359375,-0.10009765625,-0.59814453125,1.3140999999999998
2.213740458015267,1.465648854961832,-0.32061068702290074,0.024169921875,-0.0947265625,-0.60791015625,1.3157999999999999
1.9694656488549618,1.5267175572519085,-0.6106870229007634,0.019287109375,-0.097900390625,-0.594970703125,1.3175
2.1526717557251906,1.3129770992366412,-0.549618320610687,0.013916015625,-0.095703125,-0.599853515625,1.3192
2.030534351145038,1.3282442748091603,-0.5190839694656488,0.01611328125,-0.099365234375,-0.6103515625,1.3209
2.045801526717557,1.3893129770992367,-0.5190839694656488,0.020751953125,-0.098388671875,-0.61083984375,1.3226
1.984732824427481,1.3129770992366412,-0.6717557251908397,0.0185546875,-0.095458984375,-0.603759765625,1.3243
2.2595419847328246,1.3893129770992367,-0.6412213740458015,0.015869140625,-0.095703125,-0.609619140625,1.3259999999999998
2.198473282442748,1.2366412213740459,-0.7633587786259542,0.020263671875,-0.0986328125,-0.604248046875,1.3276999999999999
2.0,1.1450381679389312,-0.6106870229007634,0.017822265625,-0.095703125,-0.611083984375,1.3294
2.0916030534351147,1.2061068702290076,-0.7022900763358778,0.017822265625,-0.1015625,-0.6083984375,1.3311
2.0,1.2671755725190839,-0.6717557251908397,0.02490234375,-0.095947265625,-0.603271484375,1.3328
1.7557251908396947,1.2213740458015268,-0.8244274809160306,0.02099609375,-0.093994140625,-0.601806640625,1.3345
2.030534351145038,1.0076335877862594,-0.7938931297709924,0.013671875,-0.097412109375,-0.595947265625,1.3361999999999998
1.9694656488549618,0.9923664122137404,-1.0381679389312977,0.016357421875,-0.101806640625,-0.612548828125,1.3378999999999999
2.030534351145038,0.9465648854961832,-1.0687022900763359,0.023193359375,-0.100341796875,-0.603759765625,1.3396
1.984732824427481,0.8244274809160306,-0.916030534351145,0.01904296875,-0.093017578125,-0.603759765625,1.3413
1.8778625954198473,0.8549618320610687,-1.1755725190839694,0.021484375,-0.099365234375,-0.6064453125,1.343
1.8778625954198473,0.916030534351145,-1.4198473282442747,0.018798828125,-0.10107421875,-0.60302734375,1.3447
1.8473282442748091,1.0534351145038168,-1.1450381679389312,0.01953125,-0.099853515625,-0.609130859375,1.3463999999999998
1.7251908396946565,0.7633587786259542,-1.1755725190839694,0.0185546875,-0.0966796875,-0.598388671875,1.3480999999999999
2.2595419847328246,0.8396946564885496,-1.2213740458015268,0.0205078125,-0.10107421875,-0.605224609375,1.3497999999999999
1.8473282442748091,0.7938931297709924,-1.2213740458015268,0.025390625,-0.100341796875,-0.60986328125,1.3515
1.816793893129771,1.0229007633587786,-1.1755725190839694,0.02392578125,-0.10107421875,-0.602783203125,1.3532
1.7709923664122138,0.732824427480916,-1.2366412213740459,0.01904296875,-0.0966796875,-0.602783203125,1.3549
1.5572519083969465,0.7786259541984732,-1.1145038167938932,0.020751953125,-0.09716796875,-0.60498046875,1.3566
1.6641221374045803,0.9007633587786259,-0.9312977099236641,0.02001953125,-0.10107421875,-0.611083984375,1.3582999999999998
1.6030534351145038,0.9465648854961832,-1.083969465648855,0.0185546875,-0.094970703125,-0.60791015625,1.3599999999999999
1.6946564885496183,0.9007633587786259,-1.083969465648855,0.019287109375,-0.097412109375,-0.604736328125,1.3617
1.5725190839694656,0.8854961832061069,-0.8854961832061069,0.0224609375,-0.10302734375,-0.60791015625,1.3634
1.3587786259541985,0.8396946564885496,-1.0076335877862594,0.01171875,-0.097900390625,-0.6064453125,1.3651
1.633587786259542,0.9770992366412213,-1.0381679389312977,0.01513671875,-0.1005859375,-0.603515625,1.3668
1.4809160305343512,0.6870229007633588,-1.083969465648855,0.01611328125,-0.093505859375,-0.599365234375,1.3684999999999998
1.3587786259541985,0.7480916030534351,-0.9923664122137404,0.0234375,-0.104248046875,-0.606689453125,1.3701999999999999
1.282442748091603,0.7022900763358778,-1.083969465648855,0.02392578125,-0.096435546875,-0.6044921875,1.3719
1.6030534351145038,0.6564885496183206,-0.9312977099236641,0.018798828125,-0.0986328125,-0.5927734375,1.3736
1.5419847328244274,0.7175572519083969,-1.1450381679389312,0.024658203125,-0.10009765625,-0.604248046875,1.3753
1.450381679389313,0.7480916030534351,-0.9770992366412213,0.0244140625,-0.095947265625,-0.597412109375,1.377
1.5114503816793894,0.6259541984732825,-1.251908396946565,0.017822265625,-0.100341796875,-0.603759765625,1.3786999999999998
1.5572519083969465,0.6106870229007634,-1.1603053435114503,0.021484375,-0.09814453125,-0.61181640625,1.3803999999999998
1.5114503816793894,0.7022900763358778,-0.9312977099236641,0.021484375,-0.09716796875,-0.611083984375,1.3820999999999999
1.5572519083969465,0.6106870229007634,-1.0534351145038168,0.01953125,-0.096435546875,-0.60888671875,1.3838
1.6641221374045803,0.732824427480916,-1.1450381679389312,0.019775390625,-0.1015625,-0.607421875,1.3855
1.5725190839694656,0.6259541984732825,-0.9618320610687023,0.0185546875,-0.0966796875,-0.61328125,1.3872
1.4961832061068703,0.6412213740458015,-1.0381679389312977,0.0185546875,-0.096435546875,-0.60302734375,1.3889
1.3893129770992367,0.549618320610687,-1.0534351145038168,0.021240234375,-0.093505859375,-0.60107421875,1.3905999999999998
1.6641221374045803,0.6259541984732825,-0.9618320610687023,0.021240234375,-0.093505859375,-0.612548828125,1.3922999999999999
1.6030534351145038,0.6259541984732825,-0.8702290076335878,0.020751953125,-0.09423828125,-0.6025390625,1.394
1.7099236641221374,0.7175572519083969,-0.9923664122137404,0.017578125,-0.098876953125,-0.60888671875,1.3957
1.7557251908396947,0.4732824427480916,-0.916030534351145,0.020263671875,-0.102294921875,-0.602783203125,1.3974
2.0,0.6106870229007634,-0.9618320610687023,0.021240234375,-0.09326171875,-0.607421875,1.3991
1.7404580152671756,0.5190839694656488,-0.9923664122137404,0.02294921875,-0.09375,-0.5986328125,1.4007999999999998
1.9236641221374047,0.5801526717557252,-0.9312977099236641,0.01953125,-0.0966796875,-0.604248046875,1.4024999999999999
2.198473282442748,0.7786259541984732,-0.8396946564885496,0.01611328125,-0.09716796875,-0.610107421875,1.4042
2.183206106870229,0.5038167938931297,-0.7480916030534351,0.0205078125,-0.094970703125,-0.598876953125,1.4059
2.351145038167939,0.33587786259541985,-0.916030534351145,0.019287109375,-0.097412109375,-0.6025390625,1.4076
2.33587786259542,0.42748091603053434,-0.8702290076335878,0.01904296875,-0.101318359375,-0.61083984375,1.4093
2.1068702290076335,0.5954198473282443,-0.8549618320610687,0.021240234375,-0.09423828125,-0.6015625,1.411
2.2595419847328246,0.549618320610687,-0.9007633587786259,0.020263671875,-0.09716796875,-0.603515625,1.4126999999999998
2.427480916030534,0.6106870229007634,-0.7938931297709924,0.014892578125,-0.10400390625,-0.609375,1.4143999999999999
2.3206106870229006,0.549618320610687,-0.7938931297709924,0.01513671875,-0.095458984375,-0.595458984375,1.4161
2.0916030534351147,0.5648854961832062,-0.8854961832061069,0.018798828125,-0.0986328125,-0.5859375,1.4178
2.183206106870229,0.7633587786259542,-0.9618320610687023,0.01806640625,-0.101806640625,-0.606201171875,1.4195
2.198473282442748,0.7480916030534351,-0.732824427480916,0.016357421875,-0.09375,-0.611572265625,1.4212
2.1068702290076335,0.7022900763358778,-0.9618320610687023,0.01806640625,-0.097900390625,-0.61669921875,1.4228999999999998
2.351145038167939,0.6106870229007634,-0.9465648854961832,0.01904296875,-0.103759765625,-0.603271484375,1.4245999999999999
2.183206106870229,0.5954198473282443,-1.0534351145038168,0.01611328125,-0.100341796875,-0.6064453125,1.4263
2.045801526717557,0.9007633587786259,-0.9312977099236641,0.020263671875,-0.10498046875,-0.60205078125,1.428
2.16793893129771,0.8091603053435115,-0.9312977099236641,0.021484375,-0.10595703125,-0.60009765625,1.4297
1.9389312977099236,0.6717557251908397,-0.9312977099236641,0.019287109375,-0.099853515625,-0.60888671875,1.4314
1.9694656488549618,0.7786259541984732,-0.9618320610687023,0.016357421875,-0.096923828125,-0.609130859375,1.4330999999999998
2.16793893129771,0.6870229007633588,-1.083969465648855,0.015625,-0.103515625,-0.6005859375,1.4347999999999999
1.6488549618320612,0.8091603053435115,-0.8854961832061069,0.018310546875,-0.103271484375,-0.603271484375,1.4364999999999999
1.9083969465648856,0.6412213740458015,-0.8244274809160306,0.017822265625,-0.098388671875,-0.612060546875,1.4382
1.9083969465648856,0.5190839694656488,-0.9312977099236641,0.01513671875,-0.101806640625,-0.614990234375,1.4399
1.618320610687023,0.5648854961832062,-1.0381679389312977,0.015625,-0.10107421875,-0.60595703125,1.4416
1.7709923664122138,0.3969465648854962,-0.9007633587786259,0.012939453125,-0.102783203125,-0.605712890625,1.4433
1.5877862595419847,0.549618320610687,-0.8091603053435115,0.013671875,-0.102783203125,-0.6044921875,1.4449999999999998
1.4961832061068703,0.42748091603053434,-0.8396946564885496,0.022216796875,-0.102783203125,-0.604736328125,1.4466999999999999
1.450381679389313,0.5038167938931297,-0.7633587786259542,0.023681640625,-0.10400390625,-0.597412109375,1.4484
1.6488549618320612,0.48854961832061067,-0.916030534351145,0.020263671875,-0.10205078125,-0.611328125,1.4501
1.5267175572519085,0.4122137404580153,-1.0534351145038168,0.01904296875,-0.099365234375,-0.609619140625,1.4518
1.4045801526717556,0.21374045801526717,-0.8396946564885496,0.017822265625,-0.101318359375,-0.60107421875,1.4535
1.297709923664122,0.32061068702290074,-1.0381679389312977,0.02392578125,-0.099365234375,-0.60791015625,1.4551999999999998
1.5877862595419847,0.3969465648854962,-1.1297709923664123,0.01904296875,-0.09765625,-0.601318359375,1.4568999999999999
1.3740458015267176,0.33587786259541985,-1.282442748091603,0.017333984375,-0.10009765625,-0.61572265625,1.4586
1.4198473282442747,0.44274809160305345,-1.1603053435114503,0.01513671875,-0.099365234375,-0.6044921875,1.4603
1.251908396946565,0.42748091603053434,-1.3282442748091603,0.01806640625,-0.1005859375,-0.598388671875,1.462
1.083969465648855,0.366412213740458,-1.5267175572519085,0.01708984375,-0.10205078125,-0.613037109375,1.4637
1.1145038167938932,0.4732824427480916,-1.4809160305343512,0.01611328125,-0.103759765625,-0.6083984375,1.4653999999999998
0.916030534351145,0.3969465648854962,-1.5114503816793894,0.016357421875,-0.100830078125,-0.609375,1.4670999999999998
0.8702290076335878,0.6106870229007634,-1.6641221374045803,0.016845703125,-0.098388671875,-0.616455078125,1.4687999999999999
0.8244274809160306,0.6106870229007634,-1.7557251908396947,0.0185546875,-0.094482421875,-0.61181640625,1.4705
1.0687022900763359,0.3511450381679389,-1.6030534351145038,0.019287109375,-0.0986328125,-0.60986328125,1.4722
1.0076335877862594,0.4732824427480916,-1.8015267175572518,0.014404296875,-0.09912109375,-0.615966796875,1.4739
1.0381679389312977,0.6717557251908397,-1.9694656488549618,0.017333984375,-0.097900390625,-0.607666015625,1.4756
0.916030534351145,0.6564885496183206,-1.9083969465648856,0.0166015625,-0.093994140625,-0.6103515625,1.4772999999999998
1.2213740458015268,0.6412213740458015,-1.9083969465648856,0.01611328125,-0.094970703125,-0.60888671875,1.4789999999999999
1.3587786259541985,0.7022900763358778,-1.9083969465648856,0.017333984375,-0.09814453125,-0.602783203125,1.4807
1.4045801526717556,0.6259541984732825,-1.9083969465648856,0.02197265625,-0.098876953125,-0.601806640625,1.4824
1.465648854961832,0.5801526717557252,-1.8625954198473282,0.022216796875,-0.095947265625,-0.605224609375,1.4841
1.3435114503816794,0.6870229007633588,-1.9236641221374047,0.0244140625,-0.09326171875,-0.6025390625,1.4858
1.5419847328244274,0.7633587786259542,-1.7404580152671756,0.0224609375,-0.1005859375,-0.6044921875,1.4874999999999998
1.7251908396946565,0.6412213740458015,-1.6488549618320612,0.01708984375,-0.10107421875,-0.607421875,1.4891999999999999
1.7709923664122138,0.5648854961832062,-1.7251908396946565,0.0205078125,-0.100341796875,-0.60888671875,1.4909
1.633587786259542,0.6259541984732825,-1.7404580152671756,0.01708984375,-0.09814453125,-0.601318359375,1.4926
1.8015267175572518,0.7633587786259542,-1.7099236641221374,0.014404296875,-0.095703125,-0.60986328125,1.4943
2.0763358778625953,0.6717557251908397,-1.5419847328244274,0.01611328125,-0.09228515625,-0.609130859375,1.496
1.7404580152671756,0.5343511450381679,-1.5725190839694656,0.0205078125,-0.09619140625,-0.602294921875,1.4976999999999998
1.7709923664122138,0.6717557251908397,-1.5572519083969465,0.015869140625,-0.098876953125,-0.602783203125,1.4993999999999998
2.0610687022900764,0.7175572519083969,-1.5572519083969465,0.017822265625,-0.094970703125,-0.603759765625,1.5010999999999999
1.83206106870229,0.48854961832061067,-1.4809160305343512,0.017578125,-0.09619140625,-0.595703125,1.5028
1.8015267175572518,0.6717557251908397,-1.2671755725190839,0.01611328125,-0.1015625,-0.60107421875,1.5045
1.6488549618320612,0.7938931297709924,-1.450381679389313,0.0185546875,-0.095703125,-0.608642578125,1.5062
1.816793893129771,0.7175572519083969,-1.4809160305343512,0.01953125,-0.095458984375,-0.60791015625,1.5079
1.6946564885496183,0.7022900763358778,-1.6946564885496183,0.016845703125,-0.099853515625,-0.59814453125,1.5095999999999998
1.984732824427481,0.7175572519083969,-1.5572519083969465,0.019287109375,-0.101806640625,-0.597412109375,1.5112999999999999
1.8015267175572518,0.6106870229007634,-1.6030534351145038,0.011474609375,-0.1025390625,-0.601806640625,1.513
1.618320610687023,0.6259541984732825,-1.7404580152671756,0.015625,-0.096923828125,-0.605224609375,1.5147
1.786259541984733,0.8549618320610687,-1.786259541984733,0.018310546875,-0.0986328125,-0.6025390625,1.5164
1.5725190839694656,0.8244274809160306,-1.7251908396946565,0.016845703125,-0.10009765625,-0.605224609375,1.5181
1.8473282442748091,0.8244274809160306,-1.816793893129771,0.022216796875,-0.09326171875,-0.606201171875,1.5197999999999998
1.9083969465648856,0.6564885496183206,-1.7404580152671756,0.01904296875,-0.093505859375,-0.6005859375,1.5214999999999999
1.9541984732824427,1.0229007633587786,-1.6946564885496183,0.01904296875,-0.098876953125,-0.608642578125,1.5231999999999999
1.984732824427481,0.9923664122137404,-1.5419847328244274,0.014404296875,-0.101806640625,-0.60791015625,1.5249
1.8473282442748091,0.8702290076335878,-1.5572519083969465,0.0166015625,-0.102783203125,-0.598388671875,1.5266
1.8625954198473282,1.1145038167938932,-1.282442748091603,0.01611328125,-0.1015625,-0.60009765625,1.5283
1.816793893129771,1.0534351145038168,-1.2213740458015268,0.016845703125,-0.099609375,-0.6064453125,1.5299999999999998
2.045801526717557,1.0076335877862594,-1.297709923664122,0.013916015625,-0.101318359375,-0.607421875,1.5316999999999998
1.8931297709923665,1.1145038167938932,-1.0534351145038168,0.015869140625,-0.097900390625,-0.60205078125,1.5333999999999999
1.9083969465648856,1.1145038167938932,-1.0229007633587786,0.0185546875,-0.099365234375,-0.604736328125,1.5351
1.5877862595419847,1.0381679389312977,-1.1145038167938932,0.021240234375,-0.095703125,-0.61279296875,1.5368
1.7404580152671756,1.083969465648855,-1.0687022900763359,0.01611328125,-0.095703125,-0.604736328125,1.5385
1.8931297709923665,1.1603053435114503,-0.9312977099236641,0.01611328125,-0.093505859375,-0.599609375,1.5402
1.633587786259542,1.099236641221374,-0.8854961832061069,0.017578125,-0.095703125,-0.6044921875,1.5418999999999998
1.3740458015267176,1.099236641221374,-0.8854961832061069,0.01708984375,-0.09228515625,-0.602783203125,1.5435999999999999
1.5419847328244274,0.9770992366412213,-0.9618320610687023,0.016357421875,-0.09912109375,-0.609375,1.5453
1.3587786259541985,1.0229007633587786,-1.0381679389312977,0.016357421875,-0.103759765625,-0.605224609375,1.547
1.2061068702290076,1.0229007633587786,-0.8854961832061069,0.018310546875,-0.095458984375,-0.6123046875,1.5487
1.099236641221374,0.916030534351145,-1.2061068702290076,0.018798828125,-0.09423828125,-0.604736328125,1.5504
1.0687022900763359,0.9770992366412213,-1.1145038167938932,0.011962890625,-0.099609375,-0.61376953125,1.5520999999999998
0.9618320610687023,0.9923664122137404,-1.0687022900763359,0.0205078125,-0.09619140625,-0.605712890625,1.5537999999999998
1.0229007633587786,0.9465648854961832,-1.1145038167938932,0.0146484375,-0.09912109375,-0.60986328125,1.5554999999999999
1.0534351145038168,0.7633587786259542,-1.4045801526717556,0.015869140625,-0.09375,-0.614501953125,1.5572
0.9465648854961832,0.732824427480916,-1.3587786259541985,0.017333984375,-0.097412109375,-0.609375,1.5589
1.0687022900763359,0.9618320610687023,-1.3435114503816794,0.0185546875,-0.09716796875,-0.611328125,1.5606
1.099236641221374,0.9923664122137404,-1.3893129770992367,0.01513671875,-0.10205078125,-0.611328125,1.5623
1.083969465648855,0.6564885496183206,-1.5572519083969465,0.017822265625,-0.1025390625,-0.613525390625,1.5639999999999998
1.1450381679389312,0.8702290076335878,-1.5572519083969465,0.016845703125,-0.096923828125,-0.607177734375,1.5656999999999999
1.099236641221374,0.9770992366412213,-1.7099236641221374,0.019775390625,-0.10107421875,-0.604736328125,1.5674
0.9618320610687023,0.916030534351145,-1.6793893129770991,0.016845703125,-0.095947265625,-0.605712890625,1.5691
1.0687022900763359,0.8702290076335878,-1.8015267175572518,0.017822265625,-0.09619140625,-0.606201171875,1.5708
1.1603053435114503,0.8854961832061069,-1.5419847328244274,0.016357421875,-0.09521484375,-0.60546875,1.5725
0.916030534351145,0.9618320610687023,-1.5114503816793894,0.015869140625,-0.097412109375,-0.609130859375,1.5741999999999998
1.099236641221374,0.7938931297709924,-1.7251908396946565,0.017333984375,-0.09716796875,-0.60498046875,1.5758999999999999
1.0687022900763359,0.8396946564885496,-1.7404580152671756,0.0185546875,-0.096435546875,-0.610595703125,1.5776
0.9465648854961832,1.099236641221374,-1.4198473282442747,0.02001953125,-0.09716796875,-0.608154296875,1.5793
1.0076335877862594,1.2061068702290076,-1.5267175572519085,0.014892578125,-0.095458984375,-0.61572265625,1.581
1.0687022900763359,0.9770992366412213,-1.4351145038167938,0.016845703125,-0.092529296875,-0.607421875,1.5827
0.8549618320610687,0.9465648854961832,-1.4198473282442747,0.01318359375,-0.09912109375,-0.60205078125,1.5843999999999998
1.2061068702290076,1.0534351145038168,-1.1450381679389312,0.015869140625,-0.095458984375,-0.59423828125,1.5860999999999998
1.5419847328244274,1.0687022900763359,-1.4045801526717556,0.0126953125,-0.10205078125,-0.6044921875,1.5877999999999999
1.083969465648855,1.0076335877862594,-1.3893129770992367,0.017333984375,-0.095458984375,-0.59423828125,1.5895
1.282442748091603,1.2213740458015268,-1.5572519083969465,0.023193359375,-0.09521484375,-0.607177734375,1.5912
1.3740458015267176,1.099236641221374,-1.5267175572519085,0.013671875,-0.0927734375,-0.612548828125,1.5929
1.5877862595419847,1.1603053435114503,-1.5877862595419847,0.01123046875,-0.09423828125,-0.609130859375,1.5946
1.786259541984733,1.3893129770992367,-1.3282442748091603,0.0166015625,-0.1005859375,-0.60107421875,1.5962999999999998
1.83206106870229,1.0381679389312977,-1.6030534351145038,0.01513671875,-0.095703125,-0.60791015625,1.5979999999999999
1.8778625954198473,1.083969465648855,-1.633587786259542,0.02197265625,-0.1015625,-0.601806640625,1.5997
2.045801526717557,1.297709923664122,-1.8778625954198473,0.01513671875,-0.09814453125,-0.60498046875,1.6014
2.045801526717557,1.3893129770992367,-1.786259541984733,0.017333984375,-0.099609375,-0.60009765625,1.6031
2.213740458015267,1.1603053435114503,-1.8473282442748091,0.01416015625,-0.097900390625,-0.604736328125,1.6048
2.351145038167939,1.083969465648855,-1.83206106870229,0.01513671875,-0.0966796875,-0.60888671875,1.6064999999999998
2.3969465648854964,1.1755725190839694,-1.9236641221374047,0.0126953125,-0.092529296875,-0.605712890625,1.6081999999999999
2.381679389312977,1.2366412213740459,-1.8015267175572518,0.013427734375,-0.09814453125,-0.609619140625,1.6098999999999999
2.4885496183206106,1.1450381679389312,-1.8931297709923665,0.013671875,-0.099609375,-0.5986328125,1.6116
2.198473282442748,1.2671755725190839,-2.0,0.012939453125,-0.097900390625,-0.601318359375,1.6133
2.198473282442748,1.1755725190839694,-1.6946564885496183,0.01318359375,-0.095458984375,-0.6044921875,1.615
2.366412213740458,1.1145038167938932,-1.7557251908396947,0.01708984375,-0.095947265625,-0.609619140625,1.6166999999999998
2.0916030534351147,1.1908396946564885,-2.015267175572519,0.01318359375,-0.09814453125,-0.60693359375,1.6183999999999998
2.0763358778625953,1.1755725190839694,-1.7099236641221374,0.0126953125,-0.099365234375,-0.60498046875,1.6200999999999999
2.030534351145038,1.282442748091603,-1.816793893129771,0.0185546875,-0.096923828125,-0.60400390625,1.6218
1.8931297709923665,1.3282442748091603,-1.8625954198473282,0.024169921875,-0.093017578125,-0.61279296875,1.6235
1.8015267175572518,1.099236641221374,-1.786259541984733,0.021484375,-0.099609375,-0.6103515625,1.6252
1.9694656488549618,1.1908396946564885,-1.7557251908396947,0.017822265625,-0.102783203125,-0.60302734375,1.6269
1.6488549618320612,1.0687022900763359,-1.816793893129771,0.0224609375,-0.101806640625,-0.604736328125,1.6285999999999998
1.7404580152671756,1.1297709923664123,-1.8778625954198473,0.020751953125,-0.099609375,-0.6083984375,1.6302999999999999
1.7251908396946565,1.083969465648855,-2.015267175572519,0.01806640625,-0.099853515625,-0.604248046875,1.632
1.8473282442748091,1.1755725190839694,-1.8778625954198473,0.023681640625,-0.09765625,-0.60693359375,1.6337
1.5267175572519085,1.3435114503816794,-2.045801526717557,0.021484375,-0.095947265625,-0.605712890625,1.6354
1.4351145038167938,1.099236641221374,-2.030534351145038,0.02294921875,-0.092529296875,-0.604248046875,1.6371
1.7557251908396947,1.083969465648855,-1.9541984732824427,0.019287109375,-0.095947265625,-0.59814453125,1.6387999999999998
1.633587786259542,0.9312977099236641,-1.9236641221374047,0.02294921875,-0.10009765625,-0.598876953125,1.6404999999999998
1.5725190839694656,0.8854961832061069,-2.122137404580153,0.015869140625,-0.1025390625,-0.608642578125,1.6421999999999999
1.633587786259542,0.8854961832061069,-2.0916030534351147,0.02392578125,-0.1005859375,-0.591064453125,1.6439
1.5725190839694656,0.6870229007633588,-2.0610687022900764,0.01708984375,-0.094482421875,-0.6064453125,1.6456
1.4351145038167938,0.7633587786259542,-2.030534351145038,0.0166015625,-0.097900390625,-0.599609375,1.6473
1.3435114503816794,0.5343511450381679,-2.0610687022900764,0.018798828125,-0.101806640625,-0.60400390625,1.6489999999999998
1.450381679389313,0.6259541984732825,-1.9083969465648856,0.015380859375,-0.092041015625,-0.605224609375,1.6506999999999998
1.450381679389313,0.5954198473282443,-2.030534351145038,0.017578125,-0.091064453125,-0.602294921875,1.6523999999999999
1.4961832061068703,0.5190839694656488,-2.0610687022900764,0.018798828125,-0.097412109375,-0.601318359375,1.6541
1.2366412213740459,0.4122137404580153,-1.8931297709923665,0.017822265625,-0.098388671875,-0.604248046875,1.6558
1.4045801526717556,0.6259541984732825,-1.83206106870229,0.013916015625,-0.096923828125,-0.604736328125,1.6575
1.2061068702290076,0.3053435114503817,-1.786259541984733,0.019775390625,-0.09716796875,-0.6015625,1.6592
1.251908396946565,0.44274809160305345,-1.6793893129770991,0.0185546875,-0.102294921875,-0.602294921875,1.6608999999999998
1.1603053435114503,0.3511450381679389,-1.7404580152671756,0.019775390625,-0.10009765625,-0.602783203125,1.6625999999999999
1.251908396946565,0.3053435114503817,-1.6793893129770991,0.016357421875,-0.098876953125,-0.59423828125,1.6643
1.4198473282442747,0.21374045801526717,-1.8015267175572518,0.021240234375,-0.10595703125,-0.598388671875,1.666
1.282442748091603,0.1984732824427481,-1.5114503816793894,0.019287109375,-0.100341796875,-0.600341796875,1.6677
1.3282442748091603,0.3053435114503817,-1.6641221374045803,0.01806640625,-0.101806640625,-0.602294921875,1.6694
1.3587786259541985,0.1984732824427481,-1.6641221374045803,0.02001953125,-0.103759765625,-0.599365234375,1.6710999999999998
1.2213740458015268,0.33587786259541985,-1.8473282442748091,0.01611328125,-0.103759765625,-0.610595703125,1.6727999999999998
1.1603053435114503,0.4122137404580153,-1.5267175572519085,0.014892578125,-0.09716796875,-0.603271484375,1.6744999999999999
0.9770992366412213,0.549618320610687,-1.4961832061068703,0.015869140625,-0.100341796875,-0.60302734375,1.6762
1.0381679389312977,0.5648854961832062,-1.5572519083969465,0.011962890625,-0.096435546875,-0.602783203125,1.6779
1.1603053435114503,0.549618320610687,-1.6946564885496183,0.01708984375,-0.0966796875,-0.599609375,1.6796
1.0229007633587786,0.6259541984732825,-1.5114503816793894,0.01708984375,-0.097412109375,-0.60888671875,1.6813
0.9770992366412213,0.7633587786259542,-1.7099236641221374,0.015869140625,-0.10302734375,-0.604248046875,1.6829999999999998
0.8549618320610687,0.5801526717557252,-1.618320610687023,0.018310546875,-0.09619140625,-0.6044921875,1.6846999999999999
0.7480916030534351,0.6106870229007634,-1.786259541984733,0.014892578125,-0.100341796875,-0.61083984375,1.6864
0.9465648854961832,0.5190839694656488,-1.7404580152671756,0.01806640625,-0.0986328125,-0.603759765625,1.6881
0.6412213740458015,0.7480916030534351,-1.8015267175572518,0.01806640625,-0.0927734375,-0.607177734375,1.6898
0.6564885496183206,0.5190839694656488,-1.9541984732824427,0.0146484375,-0.09912109375,-0.60107421875,1.6915
0.916030534351145,0.5648854961832062,-2.0610687022900764,0.020263671875,-0.095703125,-0.603271484375,1.6931999999999998
0.7175572519083969,0.5648854961832062,-1.984732824427481,0.023193359375,-0.099609375,-0.60693359375,1.6948999999999999
0.8549618320610687,0.6106870229007634,-2.2442748091603053,0.02587890625,-0.09423828125,-0.602783203125,1.6965999999999999
0.9923664122137404,0.549618320610687,-2.2595419847328246,0.021484375,-0.096923828125,-0.6064453125,1.6983
0.9312977099236641,0.366412213740458,-2.213740458015267,0.0185546875,-0.103759765625,-0.596435546875,1.7
1.2213740458015268,0.2595419847328244,-2.3969465648854964,0.019287109375,-0.101318359375,-0.604248046875,1.7017
1.0534351145038168,0.3816793893129771,-2.16793893129771,0.018798828125,-0.0986328125,-0.605712890625,1.7033999999999998
1.3740458015267176,0.21374045801526717,-2.33587786259542,0.019287109375,-0.097412109375,-0.603271484375,1.7050999999999998
1.633587786259542,0.061068702290076333,-2.549618320610687,0.018798828125,-0.099853515625,-0.597412109375,1.7067999999999999
1.5877862595419847,0.16793893129770993,-2.4427480916030535,0.014892578125,-0.0986328125,-0.6064453125,1.7085
1.3893129770992367,-0.04580152671755725,-2.4732824427480917,0.02294921875,-0.101318359375,-0.607421875,1.7102
1.6488549618320612,0.030534351145038167,-2.4427480916030535,0.01806640625,-0.093505859375,-0.6005859375,1.7119
1.8931297709923665,-0.15267175572519084,-2.3969465648854964,0.022216796875,-0.100341796875,-0.603271484375,1.7136
1.7709923664122138,-0.04580152671755725,-2.351145038167939,0.0146484375,-0.09326171875,-0.60888671875,1.7152999999999998
1.9694656488549618,-0.22900763358778625,-2.427480916030534,0.012939453125,-0.100830078125,-0.5947265625,1.7169999999999999
1.9694656488549618,-0.1984732824427481,-2.4732824427480917,0.0166015625,-0.09814453125,-0.591796875,1.7187
1.984732824427481,-0.10687022900763359,-2.16793893129771,0.018798828125,-0.09765625,-0.59912109375,1.7204
2.1068702290076335,-0.2595419847328244,-2.1526717557251906,0.016845703125,-0.103759765625,-0.59912109375,1.7221
2.122137404580153,0.061068702290076333,-2.3053435114503817,0.015380859375,-0.1025390625,-0.607177734375,1.7238
2.2442748091603053,-0.061068702290076333,-2.351145038167939,0.010009765625,-0.1025390625,-0.606201171875,1.7254999999999998
2.3053435114503817,-0.32061068702290074,-2.549618320610687,0.01416015625,-0.097412109375,-0.595703125,1.7271999999999998
2.50381679389313,-0.22900763358778625,-2.5343511450381677,0.017578125,-0.10009765625,-0.609130859375,1.7288999999999999
2.519083969465649,-0.12213740458015267,-2.519083969465649,0.015625,-0.099365234375,-0.609130859375,1.7306
2.50381679389313,-0.183206106870229,-2.5801526717557253,0.015380859375,-0.105712890625,-0.600830078125,1.7323
2.564885496183206,-0.44274809160305345,-2.549618320610687,0.01220703125,-0.095703125,-0.599365234375,1.734
2.4427480916030535,-0.2900763358778626,-2.763358778625954,0.011474609375,-0.091796875,-0.603515625,1.7356999999999998
2.50381679389313,-0.24427480916030533,-2.8244274809160306,0.015625,-0.09912109375,-0.600830078125,1.7373999999999998
2.6106870229007635,-0.6259541984732825,-2.9160305343511452,0.01318359375,-0.1025390625,-0.61083984375,1.7390999999999999
2.381679389312977,-0.6106870229007634,-3.145038167938931,0.01318359375,-0.10595703125,-0.602783203125,1.7408
2.50381679389313,-0.6717557251908397,-3.3282442748091605,0.0166015625,-0.104736328125,-0.598876953125,1.7425
2.5343511450381677,-0.7175572519083969,-3.3282442748091605,0.015380859375,-0.0966796875,-0.600341796875,1.7442
2.2900763358778624,-0.8244274809160306,-3.435114503816794,0.016357421875,-0.10595703125,-0.604736328125,1.7459
2.183206106870229,-0.5954198473282443,-3.480916030534351,0.013671875,-0.10302734375,-0.602783203125,1.7475999999999998
2.015267175572519,-0.8396946564885496,-3.572519083969466,0.02001953125,-0.099853515625,-0.605224609375,1.7492999999999999
1.9694656488549618,-0.6870229007633588,-3.6030534351145036,0.008544921875,-0.096435546875,-0.603271484375,1.751
1.6641221374045803,-0.7175572519083969,-3.9389312977099236,0.011474609375,-0.10107421875,-0.609375,1.7527
1.6030534351145038,-0.6259541984732825,-3.8473282442748094,0.010986328125,-0.1025390625,-0.60693359375,1.7544
1.786259541984733,-0.8091603053435115,-3.9236641221374047,0.008544921875,-0.099609375,-0.61181640625,1.7561
1.4961832061068703,-0.9007633587786259,-3.66412213740458,0.017822265625,-0.09814453125,-0.597412109375,1.7577999999999998
1.1603053435114503,-0.9618320610687023,-4.076335877862595,0.0166015625,-0.099853515625,-0.599609375,1.7594999999999998
1.3435114503816794,-1.0229007633587786,-4.183206106870229,0.019775390625,-0.10546875,-0.601806640625,1.7611999999999999
1.0381679389312977,-1.0229007633587786,-4.183206106870229,0.02099609375,-0.100830078125,-0.603271484375,1.7629
1.0076335877862594,-1.2366412213740459,-4.259541984732825,0.019287109375,-0.1005859375,-0.603271484375,1.7646
0.9770992366412213,-1.1755725190839694,-4.366412213740458,0.019287109375,-0.104736328125,-0.59375,1.7663
0.8702290076335878,-1.2213740458015268,-4.473282442748092,0.020263671875,-0.100341796875,-0.599609375,1.7679999999999998
0.9312977099236641,-1.3893129770992367,-4.366412213740458,0.02197265625,-0.101318359375,-0.6005859375,1.7696999999999998
0.7786259541984732,-1.5572519083969465,-4.488549618320611,0.019775390625,-0.09814453125,-0.603271484375,1.7713999999999999
0.5954198473282443,-1.6488549618320612,-4.656488549618321,0.017333984375,-0.09814453125,-0.606689453125,1.7731
0.549618320610687,-1.7557251908396947,-4.717557251908397,0.021240234375,-0.097900390625,-0.599853515625,1.7748
0.3053435114503817,-2.1068702290076335,-4.641221374045801,0.023193359375,-0.10302734375,-0.599609375,1.7765
0.2748091603053435,-2.2442748091603053,-4.809160305343512,0.01806640625,-0.1015625,-0.604736328125,1.7782
-0.07633587786259542,-2.366412213740458,-4.763358778625954,0.02001953125,-0.09423828125,-0.593505859375,1.7798999999999998
0.10687022900763359,-2.7480916030534353,-4.9465648854961835,0.019287109375,-0.1005859375,-0.595703125,1.7815999999999999
-0.22900763358778625,-2.9160305343511452,-5.068702290076335,0.0244140625,-0.099365234375,-0.602783203125,1.7832999999999999
-0.4122137404580153,-3.0839694656488548,-5.114503816793893,0.02392578125,-0.101318359375,-0.59912109375,1.785
-0.4580152671755725,-3.1755725190839694,-5.465648854961832,0.018798828125,-0.10693359375,-0.60400390625,1.7867
-0.5343511450381679,-3.49618320610687,-5.267175572519084,0.021240234375,-0.109619140625,-0.599853515625,1.7884
-0.7633587786259542,-3.6946564885496183,-5.404580152671755,0.0244140625,-0.102783203125,-0.599853515625,1.7900999999999998
-0.9923664122137404,-3.83206106870229,-5.572519083969466,0.02197265625,-0.101318359375,-0.597900390625,1.7917999999999998
-0.8244274809160306,-3.7557251908396947,-5.755725190839694,0.021728515625,-0.101806640625,-0.59375,1.7934999999999999
-0.9007633587786259,-3.969465648854962,-5.633587786259542,0.023681640625,-0.106689453125,-0.603515625,1.7952
-1.1450381679389312,-4.137404580152672,-5.893129770992366,0.019775390625,-0.108154296875,-0.59716796875,1.7969
-1.1603053435114503,-4.351145038167939,-6.0,0.018310546875,-0.099853515625,-0.59814453125,1.7986
-1.297709923664122,-4.290076335877862,-6.152671755725191,0.020263671875,-0.102294921875,-0.604248046875,1.8002999999999998
-1.5725190839694656,-4.549618320610687,-5.969465648854962,0.02001953125,-0.10595703125,-0.59619140625,1.8019999999999998
-1.4351145038167938,-4.641221374045801,-6.396946564885496,0.016357421875,-0.105712890625,-0.59228515625,1.8036999999999999
-1.5419847328244274,-4.717557251908397,-6.427480916030534,0.017822265625,-0.105224609375,-0.592529296875,1.8054
