gyrox1,gyroy1,gyroz1,accelx1,accely1,accelz1,Time
2.519083969465649,1.786259541984733,-1.816793893129771,-0.467041015625,-0.058837890625,-0.09814453125,0.0
2.5343511450381677,1.9389312977099236,-2.015267175572519,-0.463134765625,-0.0556640625,-0.102783203125,0.0017
2.7022900763358777,2.015267175572519,-1.7251908396946565,-0.462158203125,-0.053955078125,-0.107177734375,0.0034
2.687022900763359,1.984732824427481,-1.7251908396946565,-0.45703125,-0.05419921875,-0.094970703125,0.0050999999999999995
2.7480916030534353,1.8625954198473282,-1.7251908396946565,-0.462890625,-0.05322265625,-0.10107421875,0.0068
2.6412213740458017,1.8625954198473282,-1.8625954198473282,-0.463134765625,-0.055419921875,-0.09814453125,0.008499999999999999
2.5343511450381677,1.8931297709923665,-1.5725190839694656,-0.462646484375,-0.056884765625,-0.091064453125,0.010199999999999999
2.4122137404580153,2.015267175572519,-1.5419847328244274,-0.4619140625,-0.059814453125,-0.099609375,0.011899999999999999
2.4732824427480917,2.045801526717557,-1.5572519083969465,-0.46044921875,-0.059326171875,-0.09912109375,0.0136
2.595419847328244,2.0,-1.4809160305343512,-0.45947265625,-0.0576171875,-0.1083984375,0.0153
2.4885496183206106,2.0,-1.5114503816793894,-0.4599609375,-0.052490234375,-0.099365234375,0.016999999999999998
2.3969465648854964,2.1068702290076335,-1.4351145038167938,-0.463134765625,-0.056396484375,-0.10498046875,0.018699999999999998
2.6259541984732824,2.0916030534351147,-1.5419847328244274,-0.462158203125,-0.0576171875,-0.098388671875,0.020399999999999998
2.4732824427480917,2.1068702290076335,-1.5572519083969465,-0.4619140625,-0.055419921875,-0.10205078125,0.022099999999999998
2.3969465648854964,1.9389312977099236,-1.633587786259542,-0.460205078125,-0.060302734375,-0.10888671875,0.023799999999999998
2.3969465648854964,1.8931297709923665,-1.5725190839694656,-0.45947265625,-0.060546875,-0.10888671875,0.0255
2.6564885496183206,1.8625954198473282,-1.6641221374045803,-0.459228515625,-0.0595703125,-0.105224609375,0.0272
2.595419847328244,1.8625954198473282,-1.6641221374045803,-0.45947265625,-0.0625,-0.09765625,0.0289
2.4427480916030535,2.0610687022900764,-1.7709923664122138,-0.459716796875,-0.059326171875,-0.098388671875,0.0306
2.6412213740458017,1.7557251908396947,-1.7404580152671756,-0.46044921875,-0.06396484375,-0.093017578125,0.032299999999999995
2.8702290076335877,1.7251908396946565,-1.5114503816793894,-0.456787109375,-0.06103515625,-0.102783203125,0.033999999999999996
2.7938931297709924,1.8778625954198473,-1.6641221374045803,-0.463134765625,-0.06494140625,-0.095703125,0.035699999999999996
2.564885496183206,1.8625954198473282,-1.633587786259542,-0.456787109375,-0.059814453125,-0.0966796875,0.037399999999999996
2.7938931297709924,1.8625954198473282,-1.618320610687023,-0.457763671875,-0.058349609375,-0.10009765625,0.039099999999999996
2.900763358778626,1.7709923664122138,-1.7557251908396947,-0.4580078125,-0.062744140625,-0.08984375,0.040799999999999996
2.564885496183206,1.6946564885496183,-1.6641221374045803,-0.455322265625,-0.059814453125,-0.093017578125,0.042499999999999996
2.687022900763359,1.6946564885496183,-1.5877862595419847,-0.459716796875,-0.055908203125,-0.096435546875,0.044199999999999996
2.4885496183206106,1.5725190839694656,-1.6946564885496183,-0.4609375,-0.059326171875,-0.09814453125,0.045899999999999996
2.351145038167939,1.5572519083969465,-1.7251908396946565,-0.4580078125,-0.061279296875,-0.09765625,0.047599999999999996
2.3206106870229006,1.5725190839694656,-1.9541984732824427,-0.46337890625,-0.06103515625,-0.093994140625,0.0493
2.2290076335877864,1.7099236641221374,-1.9541984732824427,-0.459716796875,-0.0634765625,-0.095458984375,0.051
2.16793893129771,1.816793893129771,-1.9083969465648856,-0.46533203125,-0.064453125,-0.10302734375,0.0527
1.984732824427481,1.6793893129770991,-1.7251908396946565,-0.45849609375,-0.062744140625,-0.105224609375,0.0544
2.0763358778625953,1.4961832061068703,-1.9694656488549618,-0.45947265625,-0.05908203125,-0.095703125,0.0561
2.122137404580153,1.6030534351145038,-1.9389312977099236,-0.462158203125,-0.06591796875,-0.1015625,0.0578
1.83206106870229,1.5267175572519085,-1.9541984732824427,-0.4638671875,-0.062255859375,-0.09716796875,0.0595
1.8931297709923665,1.450381679389313,-1.9389312977099236,-0.46044921875,-0.06201171875,-0.10205078125,0.0612
2.0610687022900764,1.5572519083969465,-2.0763358778625953,-0.460693359375,-0.0615234375,-0.10302734375,0.0629
2.351145038167939,1.450381679389313,-2.2442748091603053,-0.457763671875,-0.06103515625,-0.099853515625,0.06459999999999999
2.2290076335877864,1.5419847328244274,-2.2595419847328246,-0.459716796875,-0.060546875,-0.10791015625,0.0663
2.3053435114503817,1.465648854961832,-2.122137404580153,-0.460205078125,-0.06103515625,-0.104248046875,0.06799999999999999
2.2595419847328246,1.297709923664122,-2.2900763358778624,-0.458740234375,-0.06005859375,-0.10595703125,0.0697
1.9541984732824427,1.297709923664122,-2.213740458015267,-0.45703125,-0.060546875,-0.098388671875,0.07139999999999999
2.33587786259542,1.2671755725190839,-2.2900763358778624,-0.46240234375,-0.058349609375,-0.094482421875,0.0731
2.183206106870229,1.2366412213740459,-2.1526717557251906,-0.463623046875,-0.057861328125,-0.10595703125,0.07479999999999999
2.16793893129771,1.2366412213740459,-2.3969465648854964,-0.46240234375,-0.055908203125,-0.101806640625,0.0765
2.0763358778625953,1.1908396946564885,-2.3053435114503817,-0.46728515625,-0.05859375,-0.094970703125,0.07819999999999999
2.015267175572519,1.3129770992366412,-2.4122137404580153,-0.456787109375,-0.0576171875,-0.09716796875,0.0799
2.030534351145038,1.1450381679389312,-2.3969465648854964,-0.462158203125,-0.057373046875,-0.098876953125,0.08159999999999999
2.16793893129771,1.1450381679389312,-2.4122137404580153,-0.464111328125,-0.05712890625,-0.1064453125,0.0833
2.183206106870229,1.083969465648855,-2.2748091603053435,-0.463134765625,-0.060791015625,-0.10595703125,0.08499999999999999
2.1068702290076335,1.1755725190839694,-2.33587786259542,-0.467529296875,-0.062744140625,-0.107421875,0.0867
2.015267175572519,1.2366412213740459,-2.16793893129771,-0.461181640625,-0.058349609375,-0.10693359375,0.08839999999999999
2.1374045801526718,1.3435114503816794,-2.3053435114503817,-0.46435546875,-0.059814453125,-0.104736328125,0.0901
1.9236641221374047,1.297709923664122,-2.183206106870229,-0.46484375,-0.05517578125,-0.1064453125,0.09179999999999999
2.33587786259542,1.3129770992366412,-2.2290076335877864,-0.4697265625,-0.059814453125,-0.091552734375,0.0935
2.2748091603053435,1.3587786259541985,-2.1374045801526718,-0.460205078125,-0.06201171875,-0.105224609375,0.09519999999999999
2.0,1.4809160305343512,-2.3053435114503817,-0.46875,-0.062744140625,-0.1103515625,0.0969
1.9694656488549618,1.450381679389313,-2.122137404580153,-0.466552734375,-0.06103515625,-0.10205078125,0.0986
1.8778625954198473,1.618320610687023,-2.1068702290076335,-0.46435546875,-0.052734375,-0.10888671875,0.1003
2.0,1.465648854961832,-2.0,-0.462158203125,-0.05224609375,-0.102294921875,0.102
1.9694656488549618,1.3740458015267176,-2.1526717557251906,-0.462646484375,-0.054931640625,-0.1005859375,0.1037
1.8473282442748091,1.3282442748091603,-2.0,-0.4609375,-0.05517578125,-0.098876953125,0.1054
1.786259541984733,1.4809160305343512,-1.9541984732824427,-0.467041015625,-0.05419921875,-0.098388671875,0.1071
1.7099236641221374,1.297709923664122,-1.984732824427481,-0.46044921875,-0.057861328125,-0.093994140625,0.1088
1.9541984732824427,1.2671755725190839,-2.122137404580153,-0.464599609375,-0.059814453125,-0.093505859375,0.11049999999999999
1.9083969465648856,1.251908396946565,-2.030534351145038,-0.46337890625,-0.05712890625,-0.111328125,0.1122
2.0,1.1908396946564885,-2.1374045801526718,-0.46826171875,-0.05419921875,-0.105224609375,0.11389999999999999
2.0763358778625953,1.297709923664122,-1.8778625954198473,-0.46435546875,-0.060302734375,-0.101806640625,0.1156
2.0763358778625953,1.1908396946564885,-2.0,-0.460693359375,-0.05908203125,-0.096923828125,0.11729999999999999
2.2595419847328246,1.1450381679389312,-1.9083969465648856,-0.46435546875,-0.053466796875,-0.096923828125,0.119
2.3053435114503817,1.0381679389312977,-2.0,-0.46484375,-0.0595703125,-0.09326171875,0.12069999999999999
2.3969465648854964,1.1145038167938932,-1.9389312977099236,-0.464599609375,-0.056396484375,-0.10205078125,0.1224
2.1374045801526718,1.2671755725190839,-1.9389312977099236,-0.462890625,-0.06005859375,-0.103515625,0.12409999999999999
2.4885496183206106,1.1145038167938932,-1.984732824427481,-0.466552734375,-0.056884765625,-0.100830078125,0.1258
2.549618320610687,1.1450381679389312,-1.9083969465648856,-0.463623046875,-0.056884765625,-0.0947265625,0.1275
2.4732824427480917,1.2061068702290076,-1.7709923664122138,-0.463623046875,-0.056884765625,-0.10009765625,0.12919999999999998
2.6412213740458017,1.3435114503816794,-1.8778625954198473,-0.459228515625,-0.05859375,-0.097900390625,0.1309
2.732824427480916,1.2061068702290076,-1.9083969465648856,-0.46484375,-0.055908203125,-0.106201171875,0.1326
2.427480916030534,1.3282442748091603,-1.83206106870229,-0.468017578125,-0.06103515625,-0.104736328125,0.1343
2.6106870229007635,1.3282442748091603,-1.7709923664122138,-0.469970703125,-0.0576171875,-0.107177734375,0.13599999999999998
2.7938931297709924,1.251908396946565,-1.8473282442748091,-0.466796875,-0.05615234375,-0.10302734375,0.1377
2.7022900763358777,1.099236641221374,-1.6793893129770991,-0.46728515625,-0.05810546875,-0.1015625,0.1394
2.564885496183206,1.0687022900763359,-1.8625954198473282,-0.462890625,-0.06005859375,-0.099365234375,0.1411
2.7786259541984735,1.0076335877862594,-1.9236641221374047,-0.466552734375,-0.063720703125,-0.101806640625,0.14279999999999998
2.6259541984732824,0.9770992366412213,-1.9389312977099236,-0.466064453125,-0.0595703125,-0.103271484375,0.1445
2.6564885496183206,1.083969465648855,-1.9083969465648856,-0.465576171875,-0.062255859375,-0.103515625,0.1462
2.8396946564885495,0.9312977099236641,-2.015267175572519,-0.46826171875,-0.05908203125,-0.10986328125,0.1479
2.7938931297709924,0.9312977099236641,-1.618320610687023,-0.465576171875,-0.06005859375,-0.10302734375,0.14959999999999998
2.8244274809160306,1.1145038167938932,-1.7709923664122138,-0.462158203125,-0.052978515625,-0.108154296875,0.1513
2.6106870229007635,0.9770992366412213,-1.786259541984733,-0.468017578125,-0.06201171875,-0.11376953125,0.153
2.687022900763359,1.0534351145038168,-1.9694656488549618,-0.467041015625,-0.060302734375,-0.10595703125,0.1547
2.549618320610687,1.1450381679389312,-1.7557251908396947,-0.458740234375,-0.05859375,-0.10888671875,0.15639999999999998
2.564885496183206,1.0687022900763359,-2.030534351145038,-0.46875,-0.06005859375,-0.099609375,0.1581
2.4732824427480917,1.1145038167938932,-1.816793893129771,-0.46240234375,-0.05908203125,-0.10205078125,0.1598
2.6412213740458017,1.1450381679389312,-1.9236641221374047,-0.458251953125,-0.061767578125,-0.09423828125,0.1615
2.4885496183206106,1.1145038167938932,-1.9694656488549618,-0.460205078125,-0.0615234375,-0.097412109375,0.16319999999999998
2.3969465648854964,1.083969465648855,-2.045801526717557,-0.459716796875,-0.06298828125,-0.109375,0.1649
2.6106870229007635,0.9618320610687023,-1.8015267175572518,-0.458740234375,-0.0625,-0.09619140625,0.1666
2.595419847328244,1.0534351145038168,-1.9541984732824427,-0.468017578125,-0.062255859375,-0.107421875,0.16829999999999998
2.6412213740458017,0.9923664122137404,-1.9389312977099236,-0.4609375,-0.061279296875,-0.095947265625,0.16999999999999998
2.8091603053435112,0.9465648854961832,-1.8015267175572518,-0.4560546875,-0.070068359375,-0.0986328125,0.1717
2.6717557251908395,1.0687022900763359,-1.8625954198473282,-0.458251953125,-0.063232421875,-0.10498046875,0.1734
2.549618320610687,1.0534351145038168,-2.0916030534351147,-0.457763671875,-0.066650390625,-0.1103515625,0.17509999999999998
2.595419847328244,1.099236641221374,-1.9694656488549618,-0.460205078125,-0.06640625,-0.104248046875,0.17679999999999998
2.4580152671755724,1.282442748091603,-1.8931297709923665,-0.460693359375,-0.0576171875,-0.1025390625,0.1785
2.595419847328244,1.1145038167938932,-1.7099236641221374,-0.46044921875,-0.063232421875,-0.101806640625,0.1802
2.3969465648854964,0.9923664122137404,-1.83206106870229,-0.46240234375,-0.066162109375,-0.099365234375,0.18189999999999998
2.33587786259542,1.1908396946564885,-1.618320610687023,-0.458251953125,-0.063232421875,-0.1103515625,0.18359999999999999
2.33587786259542,1.2213740458015268,-1.7251908396946565,-0.468505859375,-0.059326171875,-0.10498046875,0.1853
2.3969465648854964,1.0687022900763359,-1.9083969465648856,-0.463134765625,-0.060791015625,-0.102783203125,0.187
2.3053435114503817,1.0687022900763359,-1.8015267175572518,-0.46142578125,-0.065185546875,-0.09326171875,0.18869999999999998
2.3969465648854964,1.1145038167938932,-1.6488549618320612,-0.462158203125,-0.064208984375,-0.1015625,0.19039999999999999
2.2748091603053435,1.1145038167938932,-1.7251908396946565,-0.457763671875,-0.061279296875,-0.099365234375,0.1921
2.2595419847328246,1.0534351145038168,-1.8931297709923665,-0.45654296875,-0.064208984375,-0.099609375,0.1938
2.1374045801526718,0.8549618320610687,-1.83206106870229,-0.45751953125,-0.0693359375,-0.113037109375,0.19549999999999998
2.0763358778625953,1.0076335877862594,-1.7251908396946565,-0.46533203125,-0.05712890625,-0.10986328125,0.1972
1.83206106870229,0.8396946564885496,-1.8625954198473282,-0.46826171875,-0.059814453125,-0.111572265625,0.1989
1.9541984732824427,0.7022900763358778,-1.7557251908396947,-0.461669921875,-0.06591796875,-0.10205078125,0.2006
1.9389312977099236,0.7480916030534351,-1.8625954198473282,-0.45849609375,-0.06787109375,-0.106201171875,0.20229999999999998
1.8015267175572518,0.8854961832061069,-2.015267175572519,-0.457763671875,-0.064453125,-0.102783203125,0.204
2.015267175572519,0.9007633587786259,-1.8473282442748091,-0.457275390625,-0.063720703125,-0.106201171875,0.2057
1.9694656488549618,0.732824427480916,-1.9083969465648856,-0.459716796875,-0.06640625,-0.097900390625,0.2074
2.030534351145038,0.6412213740458015,-1.9236641221374047,-0.46435546875,-0.06591796875,-0.095458984375,0.20909999999999998
1.984732824427481,0.8091603053435115,-1.8473282442748091,-0.46484375,-0.06298828125,-0.106689453125,0.2108
1.6488549618320612,0.7786259541984732,-1.984732824427481,-0.46044921875,-0.062255859375,-0.103271484375,0.2125
1.9694656488549618,0.7938931297709924,-1.8625954198473282,-0.46435546875,-0.05615234375,-0.103271484375,0.2142
2.0610687022900764,0.7480916030534351,-2.015267175572519,-0.470458984375,-0.063720703125,-0.1025390625,0.21589999999999998
1.9236641221374047,0.7786259541984732,-2.045801526717557,-0.4580078125,-0.064208984375,-0.11181640625,0.2176
1.9083969465648856,0.9312977099236641,-1.83206106870229,-0.46533203125,-0.062255859375,-0.10205078125,0.2193
1.9694656488549618,0.9312977099236641,-1.8015267175572518,-0.467529296875,-0.059814453125,-0.102294921875,0.22099999999999997
1.83206106870229,0.8702290076335878,-1.8625954198473282,-0.462890625,-0.057861328125,-0.09619140625,0.22269999999999998
1.8473282442748091,0.8091603053435115,-1.9236641221374047,-0.469482421875,-0.060302734375,-0.1025390625,0.2244
1.6946564885496183,0.8244274809160306,-1.984732824427481,-0.4609375,-0.065673828125,-0.097900390625,0.2261
1.9236641221374047,0.9312977099236641,-1.6946564885496183,-0.46728515625,-0.061767578125,-0.104248046875,0.22779999999999997
1.6641221374045803,0.9465648854961832,-1.83206106870229,-0.4638671875,-0.062744140625,-0.108154296875,0.22949999999999998
1.7404580152671756,0.9923664122137404,-1.7709923664122138,-0.46630859375,-0.0634765625,-0.096923828125,0.2312
1.816793893129771,0.9465648854961832,-1.8473282442748091,-0.464599609375,-0.0625,-0.098388671875,0.2329
1.6641221374045803,0.916030534351145,-1.5419847328244274,-0.460693359375,-0.06396484375,-0.105224609375,0.23459999999999998
1.5114503816793894,0.7938931297709924,-1.7557251908396947,-0.4609375,-0.064208984375,-0.1083984375,0.23629999999999998
1.4809160305343512,0.8854961832061069,-1.7404580152671756,-0.466064453125,-0.0634765625,-0.098876953125,0.238
1.5877862595419847,1.0687022900763359,-1.465648854961832,-0.463134765625,-0.061767578125,-0.112060546875,0.2397
1.6793893129770991,0.9923664122137404,-1.6030534351145038,-0.46728515625,-0.063720703125,-0.104248046875,0.24139999999999998
1.7099236641221374,0.7938931297709924,-1.6030534351145038,-0.462646484375,-0.059814453125,-0.103271484375,0.24309999999999998
1.3893129770992367,0.8702290076335878,-1.5877862595419847,-0.460693359375,-0.05908203125,-0.102783203125,0.2448
1.3740458015267176,0.9007633587786259,-1.4809160305343512,-0.462158203125,-0.054443359375,-0.111572265625,0.2465
1.4045801526717556,0.9465648854961832,-1.3893129770992367,-0.463134765625,-0.056884765625,-0.107421875,0.24819999999999998
1.6641221374045803,1.099236641221374,-1.3740458015267176,-0.46435546875,-0.0625,-0.109130859375,0.24989999999999998
1.7404580152671756,1.0534351145038168,-1.3893129770992367,-0.4638671875,-0.0625,-0.099365234375,0.2516
1.6030534351145038,1.0534351145038168,-1.618320610687023,-0.459228515625,-0.05908203125,-0.095947265625,0.25329999999999997
1.7557251908396947,1.083969465648855,-1.450381679389313,-0.459228515625,-0.0615234375,-0.0947265625,0.255
2.045801526717557,1.0534351145038168,-1.4198473282442747,-0.458984375,-0.056884765625,-0.10205078125,0.2567
2.2442748091603053,0.9007633587786259,-1.6793893129770991,-0.464599609375,-0.06201171875,-0.107177734375,0.25839999999999996
2.213740458015267,0.9465648854961832,-1.6030534351145038,-0.46240234375,-0.0654296875,-0.10400390625,0.2601
2.2748091603053435,1.0076335877862594,-1.633587786259542,-0.4638671875,-0.060302734375,-0.0986328125,0.2618
2.2748091603053435,0.8854961832061069,-1.5877862595419847,-0.46630859375,-0.060302734375,-0.10400390625,0.2635
2.6564885496183206,0.8244274809160306,-1.5877862595419847,-0.47119140625,-0.0634765625,-0.105224609375,0.2652
3.068702290076336,0.916030534351145,-1.6488549618320612,-0.460693359375,-0.06103515625,-0.107421875,0.26689999999999997
2.6106870229007635,0.9770992366412213,-1.8473282442748091,-0.4638671875,-0.064697265625,-0.1005859375,0.2686
2.7786259541984735,0.8396946564885496,-1.6793893129770991,-0.461181640625,-0.062744140625,-0.098876953125,0.2703
2.7480916030534353,0.8244274809160306,-1.8931297709923665,-0.461181640625,-0.0654296875,-0.103271484375,0.27199999999999996
2.7786259541984735,1.0229007633587786,-1.7251908396946565,-0.463623046875,-0.06298828125,-0.0986328125,0.2737
2.7022900763358777,0.8549618320610687,-1.816793893129771,-0.460693359375,-0.06103515625,-0.10693359375,0.2754
2.7480916030534353,0.8396946564885496,-1.8778625954198473,-0.45849609375,-0.064453125,-0.1044921875,0.27709999999999996
2.549618320610687,0.916030534351145,-1.7557251908396947,-0.463134765625,-0.064208984375,-0.106689453125,0.2788
2.6412213740458017,0.9618320610687023,-1.8473282442748091,-0.462158203125,-0.065673828125,-0.105712890625,0.28049999999999997
2.7786259541984735,0.9618320610687023,-1.8473282442748091,-0.461181640625,-0.066162109375,-0.09619140625,0.2822
2.595419847328244,0.9923664122137404,-1.8931297709923665,-0.46533203125,-0.063720703125,-0.1083984375,0.2839
2.564885496183206,1.2213740458015268,-2.1068702290076335,-0.46142578125,-0.0625,-0.104736328125,0.28559999999999997
2.366412213740458,0.9923664122137404,-2.0610687022900764,-0.4619140625,-0.062255859375,-0.09521484375,0.2873
2.1374045801526718,0.8549618320610687,-1.9236641221374047,-0.461181640625,-0.065185546875,-0.101318359375,0.289
2.381679389312977,1.0381679389312977,-1.7557251908396947,-0.459716796875,-0.060791015625,-0.107666015625,0.29069999999999996
2.2748091603053435,1.282442748091603,-1.9389312977099236,-0.462646484375,-0.0615234375,-0.09814453125,0.2924
1.816793893129771,1.2213740458015268,-2.16793893129771,-0.462646484375,-0.060302734375,-0.1005859375,0.2941
1.7557251908396947,1.0687022900763359,-1.8473282442748091,-0.4609375,-0.061767578125,-0.1005859375,0.2958
1.5419847328244274,1.099236641221374,-2.045801526717557,-0.462158203125,-0.06640625,-0.095703125,0.2975
1.8625954198473282,1.1450381679389312,-1.8625954198473282,-0.462158203125,-0.061767578125,-0.09912109375,0.29919999999999997
1.633587786259542,0.9618320610687023,-1.984732824427481,-0.462646484375,-0.06591796875,-0.10107421875,0.3009
1.5419847328244274,0.9618320610687023,-2.0610687022900764,-0.464111328125,-0.06689453125,-0.101318359375,0.3026
1.5267175572519085,1.0687022900763359,-2.1068702290076335,-0.46142578125,-0.065673828125,-0.101806640625,0.30429999999999996
1.251908396946565,1.0076335877862594,-2.16793893129771,-0.46728515625,-0.069091796875,-0.105224609375,0.306
1.3129770992366412,1.0381679389312977,-1.9083969465648856,-0.468994140625,-0.063720703125,-0.104248046875,0.3077
1.083969465648855,1.0076335877862594,-1.8473282442748091,-0.460693359375,-0.062255859375,-0.103271484375,0.3094
1.0076335877862594,0.9312977099236641,-1.6793893129770991,-0.4619140625,-0.06201171875,-0.1064453125,0.3111
1.099236641221374,0.9618320610687023,-2.030534351145038,-0.462890625,-0.06396484375,-0.108154296875,0.31279999999999997
0.9007633587786259,1.2671755725190839,-1.9236641221374047,-0.46533203125,-0.06298828125,-0.106689453125,0.3145
0.7633587786259542,1.1908396946564885,-2.0,-0.4609375,-0.063232421875,-0.109130859375,0.3162
0.8854961832061069,1.2213740458015268,-1.8015267175572518,-0.466064453125,-0.056884765625,-0.104736328125,0.31789999999999996
1.0381679389312977,1.1755725190839694,-1.7404580152671756,-0.461669921875,-0.06396484375,-0.104248046875,0.3196
0.5801526717557252,1.2213740458015268,-1.8931297709923665,-0.462890625,-0.062255859375,-0.1064453125,0.3213
0.9007633587786259,1.0687022900763359,-1.786259541984733,-0.462890625,-0.06396484375,-0.106201171875,0.323
0.732824427480916,1.282442748091603,-1.8015267175572518,-0.461181640625,-0.059814453125,-0.106689453125,0.3247
0.6870229007633588,1.251908396946565,-1.786259541984733,-0.46484375,-0.055908203125,-0.100341796875,0.32639999999999997
0.5343511450381679,1.1755725190839694,-1.8625954198473282,-0.46484375,-0.064453125,-0.097412109375,0.3281
0.6412213740458015,1.1145038167938932,-1.7251908396946565,-0.465087890625,-0.059814453125,-0.099365234375,0.3298
0.3969465648854962,1.083969465648855,-1.6793893129770991,-0.463623046875,-0.0595703125,-0.107421875,0.33149999999999996
0.48854961832061067,1.1908396946564885,-1.8625954198473282,-0.4609375,-0.056884765625,-0.106201171875,0.3332
0.42748091603053434,1.2061068702290076,-1.7251908396946565,-0.464599609375,-0.0625,-0.10107421875,0.3349
0.7480916030534351,1.3893129770992367,-1.7709923664122138,-0.460205078125,-0.05810546875,-0.098876953125,0.33659999999999995
0.7633587786259542,1.4045801526717556,-1.6946564885496183,-0.460205078125,-0.0634765625,-0.104248046875,0.3383
0.6717557251908397,1.618320610687023,-1.6030534351145038,-0.46533203125,-0.056640625,-0.097412109375,0.33999999999999997
0.5343511450381679,1.450381679389313,-1.5419847328244274,-0.466064453125,-0.060546875,-0.101806640625,0.3417
0.9007633587786259,1.2366412213740459,-1.8625954198473282,-0.467041015625,-0.056640625,-0.1064453125,0.3434
1.251908396946565,1.3282442748091603,-1.6641221374045803,-0.4697265625,-0.05908203125,-0.101318359375,0.34509999999999996
1.1755725190839694,1.6641221374045803,-1.6946564885496183,-0.463623046875,-0.05712890625,-0.10546875,0.3468
1.2366412213740459,1.465648854961832,-1.6488549618320612,-0.46630859375,-0.05859375,-0.10546875,0.3485
1.4351145038167938,1.5267175572519085,-1.7099236641221374,-0.47314453125,-0.0615234375,-0.105224609375,0.35019999999999996
1.2366412213740459,1.4961832061068703,-1.5572519083969465,-0.46630859375,-0.061767578125,-0.101806640625,0.3519
1.450381679389313,1.5419847328244274,-1.7709923664122138,-0.467529296875,-0.059326171875,-0.099853515625,0.35359999999999997
1.5419847328244274,1.6641221374045803,-1.5877862595419847,-0.46435546875,-0.063232421875,-0.100830078125,0.3553
1.618320610687023,1.5267175572519085,-1.5572519083969465,-0.46630859375,-0.05859375,-0.1025390625,0.357
1.6793893129770991,1.4809160305343512,-1.6488549618320612,-0.47021484375,-0.05810546875,-0.099853515625,0.35869999999999996
1.6030534351145038,1.5114503816793894,-1.6946564885496183,-0.46728515625,-0.053955078125,-0.102294921875,0.3604
1.6488549618320612,1.633587786259542,-1.8015267175572518,-0.466552734375,-0.060791015625,-0.105224609375,0.3621
1.8015267175572518,1.7404580152671756,-1.6946564885496183,-0.466796875,-0.0595703125,-0.103271484375,0.36379999999999996
2.045801526717557,1.786259541984733,-1.633587786259542,-0.46533203125,-0.05859375,-0.099853515625,0.3655
2.198473282442748,1.5572519083969465,-1.6793893129770991,-0.468017578125,-0.061767578125,-0.095947265625,0.36719999999999997
2.1068702290076335,1.6030534351145038,-1.5267175572519085,-0.466552734375,-0.05810546875,-0.1005859375,0.3689
2.2290076335877864,1.5419847328244274,-1.8625954198473282,-0.462890625,-0.057373046875,-0.091552734375,0.3706
2.427480916030534,1.3740458015267176,-1.9236641221374047,-0.46337890625,-0.059326171875,-0.095458984375,0.37229999999999996
2.6259541984732824,1.4198473282442747,-1.8778625954198473,-0.465087890625,-0.0634765625,-0.1005859375,0.374
2.564885496183206,1.465648854961832,-2.0916030534351147,-0.462158203125,-0.06201171875,-0.1005859375,0.3757
2.717557251908397,1.450381679389313,-1.9541984732824427,-0.46435546875,-0.056884765625,-0.094970703125,0.37739999999999996
2.4732824427480917,1.5572519083969465,-1.7709923664122138,-0.46875,-0.06201171875,-0.0966796875,0.3791
2.4122137404580153,1.633587786259542,-2.0610687022900764,-0.46630859375,-0.0615234375,-0.1005859375,0.38079999999999997
2.351145038167939,1.5267175572519085,-2.198473282442748,-0.466796875,-0.0654296875,-0.099853515625,0.38249999999999995
2.3053435114503817,1.450381679389313,-2.1374045801526718,-0.463134765625,-0.05908203125,-0.1103515625,0.3842
2.33587786259542,1.5419847328244274,-1.9694656488549618,-0.4677734375,-0.066650390625,-0.101806640625,0.38589999999999997
2.2595419847328246,1.6488549618320612,-2.16793893129771,-0.46435546875,-0.065185546875,-0.107666015625,0.3876
2.3053435114503817,1.6488549618320612,-2.1068702290076335,-0.460205078125,-0.0615234375,-0.104248046875,0.3893
1.8473282442748091,1.5725190839694656,-2.183206106870229,-0.460205078125,-0.06201171875,-0.095458984375,0.39099999999999996
2.0,1.7251908396946565,-2.213740458015267,-0.466552734375,-0.059326171875,-0.10400390625,0.3927
2.015267175572519,1.6793893129770991,-2.2290076335877864,-0.468017578125,-0.059814453125,-0.107421875,0.3944
1.9236641221374047,1.7557251908396947,-2.030534351145038,-0.46044921875,-0.064453125,-0.103759765625,0.39609999999999995
1.4809160305343512,1.6641221374045803,-2.198473282442748,-0.462158203125,-0.0634765625,-0.102783203125,0.3978
1.6488549618320612,1.6793893129770991,-2.4580152671755724,-0.462646484375,-0.0634765625,-0.105712890625,0.39949999999999997
1.7709923664122138,1.8015267175572518,-2.1068702290076335,-0.465576171875,-0.064697265625,-0.093994140625,0.4012
1.450381679389313,1.83206106870229,-1.9541984732824427,-0.46435546875,-0.06640625,-0.092041015625,0.4029
1.3129770992366412,1.8778625954198473,-2.198473282442748,-0.465576171875,-0.0634765625,-0.10009765625,0.40459999999999996
1.2671755725190839,1.6793893129770991,-2.2900763358778624,-0.46826171875,-0.066162109375,-0.10009765625,0.4063
1.2671755725190839,1.7557251908396947,-1.9694656488549618,-0.46142578125,-0.05859375,-0.103515625,0.408
1.1908396946564885,1.83206106870229,-1.9389312977099236,-0.464111328125,-0.0615234375,-0.10107421875,0.40969999999999995
0.9007633587786259,1.816793893129771,-2.183206106870229,-0.46630859375,-0.06103515625,-0.100830078125,0.4114
0.6717557251908397,1.9541984732824427,-2.045801526717557,-0.47021484375,-0.064208984375,-0.097900390625,0.41309999999999997
0.8702290076335878,1.9389312977099236,-2.1374045801526718,-0.46435546875,-0.06298828125,-0.108154296875,0.4148
0.6259541984732825,1.83206106870229,-1.9694656488549618,-0.46728515625,-0.05712890625,-0.098388671875,0.4165
0.4732824427480916,1.8778625954198473,-2.16793893129771,-0.4619140625,-0.063232421875,-0.10595703125,0.41819999999999996
0.2595419847328244,1.8625954198473282,-2.045801526717557,-0.468017578125,-0.06201171875,-0.106689453125,0.4199
0.44274809160305345,1.7709923664122138,-1.9694656488549618,-0.464599609375,-0.05859375,-0.1044921875,0.4216
0.4732824427480916,1.7404580152671756,-1.618320610687023,-0.4609375,-0.067138671875,-0.102783203125,0.42329999999999995
0.33587786259541985,1.6793893129770991,-2.030534351145038,-0.46728515625,-0.057373046875,-0.10498046875,0.425
0.12213740458015267,1.7099236641221374,-1.6488549618320612,-0.46044921875,-0.058349609375,-0.09814453125,0.42669999999999997
0.44274809160305345,1.7557251908396947,-1.9083969465648856,-0.460693359375,-0.054931640625,-0.1005859375,0.4284
0.4122137404580153,1.6488549618320612,-1.7251908396946565,-0.461181640625,-0.05810546875,-0.096923828125,0.4301
0.2900763358778626,1.7251908396946565,-1.786259541984733,-0.462158203125,-0.055908203125,-0.099365234375,0.43179999999999996
0.5038167938931297,1.6946564885496183,-1.4809160305343512,-0.461669921875,-0.058837890625,-0.10791015625,0.4335
0.549618320610687,1.7709923664122138,-1.6030534351145038,-0.465087890625,-0.05810546875,-0.103759765625,0.4352
0.549618320610687,1.6793893129770991,-1.6030534351145038,-0.4619140625,-0.057373046875,-0.099609375,0.43689999999999996
0.5343511450381679,1.7557251908396947,-1.7404580152671756,-0.464599609375,-0.05419921875,-0.103271484375,0.4386
0.7175572519083969,1.7557251908396947,-1.3740458015267176,-0.463134765625,-0.056884765625,-0.099853515625,0.44029999999999997
0.7480916030534351,1.7557251908396947,-1.5114503816793894,-0.4658203125,-0.059814453125,-0.103271484375,0.44199999999999995
0.6870229007633588,1.5572519083969465,-1.4198473282442747,-0.46728515625,-0.056396484375,-0.09765625,0.4437
0.916030534351145,1.6793893129770991,-1.4045801526717556,-0.461669921875,-0.055419921875,-0.1064453125,0.44539999999999996
0.8702290076335878,1.7404580152671756,-1.4961832061068703,-0.46484375,-0.0556640625,-0.09814453125,0.4471
1.1450381679389312,1.8625954198473282,-1.465648854961832,-0.465087890625,-0.061767578125,-0.106201171875,0.4488
0.8091603053435115,1.816793893129771,-1.2061068702290076,-0.466552734375,-0.05322265625,-0.107421875,0.45049999999999996
0.9770992366412213,1.9083969465648856,-1.3893129770992367,-0.462890625,-0.057373046875,-0.09716796875,0.4522
1.0381679389312977,1.8778625954198473,-1.3435114503816794,-0.461181640625,-0.054931640625,-0.104736328125,0.45389999999999997
1.297709923664122,1.7709923664122138,-1.450381679389313,-0.466064453125,-0.053955078125,-0.10107421875,0.45559999999999995
1.3740458015267176,1.7404580152671756,-1.083969465648855,-0.465087890625,-0.05810546875,-0.1083984375,0.4573
1.1908396946564885,1.8778625954198473,-1.1297709923664123,-0.461181640625,-0.061767578125,-0.097900390625,0.45899999999999996
1.1908396946564885,1.984732824427481,-1.1755725190839694,-0.460693359375,-0.06201171875,-0.1005859375,0.4607
1.5419847328244274,2.0916030534351147,-1.3129770992366412,-0.467041015625,-0.05810546875,-0.1064453125,0.4624
1.5725190839694656,2.0610687022900764,-1.3129770992366412,-0.468017578125,-0.059814453125,-0.10546875,0.46409999999999996
1.7709923664122138,2.1068702290076335,-1.282442748091603,-0.462646484375,-0.05810546875,-0.10205078125,0.4658
2.122137404580153,2.030534351145038,-1.1450381679389312,-0.464111328125,-0.0576171875,-0.102294921875,0.46749999999999997
2.1068702290076335,1.9541984732824427,-1.2061068702290076,-0.4638671875,-0.05908203125,-0.10595703125,0.46919999999999995
2.4122137404580153,2.0,-1.3129770992366412,-0.462646484375,-0.058837890625,-0.09423828125,0.4709
2.2748091603053435,1.984732824427481,-1.2213740458015268,-0.462890625,-0.056396484375,-0.1025390625,0.47259999999999996
2.4885496183206106,1.9389312977099236,-1.3893129770992367,-0.461669921875,-0.05712890625,-0.095458984375,0.4743
2.4122137404580153,1.9236641221374047,-1.450381679389313,-0.4658203125,-0.05517578125,-0.102783203125,0.476
2.427480916030534,1.83206106870229,-1.297709923664122,-0.465576171875,-0.0615234375,-0.09765625,0.47769999999999996
2.854961832061069,1.7251908396946565,-1.3740458015267176,-0.462646484375,-0.05615234375,-0.10546875,0.4794
2.6259541984732824,1.816793893129771,-1.2671755725190839,-0.46533203125,-0.062744140625,-0.09912109375,0.48109999999999997
2.717557251908397,1.7709923664122138,-1.3893129770992367,-0.4677734375,-0.060302734375,-0.103271484375,0.48279999999999995
2.854961832061069,1.8778625954198473,-1.1603053435114503,-0.4619140625,-0.060791015625,-0.10693359375,0.4845
2.7938931297709924,1.8778625954198473,-1.4351145038167938,-0.465087890625,-0.05810546875,-0.105224609375,0.48619999999999997
2.6564885496183206,1.9236641221374047,-1.4045801526717556,-0.463134765625,-0.0634765625,-0.104736328125,0.4879
2.8702290076335877,1.8931297709923665,-1.3587786259541985,-0.466796875,-0.062255859375,-0.114501953125,0.4896
2.7022900763358777,2.0,-1.3740458015267176,-0.45751953125,-0.0654296875,-0.102783203125,0.49129999999999996
2.763358778625954,2.1526717557251906,-1.3129770992366412,-0.4599609375,-0.06005859375,-0.100830078125,0.493
2.931297709923664,2.045801526717557,-1.4045801526717556,-0.46826171875,-0.060791015625,-0.095947265625,0.4947
2.854961832061069,2.015267175572519,-1.5114503816793894,-0.4658203125,-0.059814453125,-0.110595703125,0.49639999999999995
2.6412213740458017,1.8473282442748091,-1.3893129770992367,-0.459716796875,-0.061279296875,-0.09814453125,0.4981
2.7022900763358777,2.1526717557251906,-1.5572519083969465,-0.463623046875,-0.0654296875,-0.100341796875,0.49979999999999997
2.4732824427480917,2.0610687022900764,-1.5725190839694656,-0.45556640625,-0.06494140625,-0.10302734375,0.5015
2.198473282442748,2.0763358778625953,-1.6946564885496183,-0.468017578125,-0.065185546875,-0.10302734375,0.5032
2.3206106870229006,2.16793893129771,-1.5419847328244274,-0.4599609375,-0.0654296875,-0.104736328125,0.5049
2.030534351145038,2.2595419847328246,-1.6030534351145038,-0.46142578125,-0.06787109375,-0.1044921875,0.5065999999999999
2.1374045801526718,2.3053435114503817,-1.5267175572519085,-0.4638671875,-0.0625,-0.09375,0.5083
2.1068702290076335,2.1526717557251906,-1.7099236641221374,-0.46044921875,-0.0576171875,-0.111328125,0.51
1.9236641221374047,2.0610687022900764,-1.83206106870229,-0.460205078125,-0.06396484375,-0.0986328125,0.5116999999999999
1.816793893129771,2.2290076335877864,-1.7404580152671756,-0.465087890625,-0.06591796875,-0.103759765625,0.5134
1.7404580152671756,2.0763358778625953,-1.83206106870229,-0.459716796875,-0.060546875,-0.107421875,0.5151
1.5877862595419847,2.045801526717557,-1.9541984732824427,-0.459716796875,-0.066650390625,-0.10498046875,0.5167999999999999
1.4961832061068703,1.9083969465648856,-1.9083969465648856,-0.46044921875,-0.067626953125,-0.107177734375,0.5185
1.6488549618320612,1.8931297709923665,-1.8015267175572518,-0.460205078125,-0.059326171875,-0.10546875,0.5202
1.5725190839694656,2.0,-1.786259541984733,-0.46044921875,-0.062744140625,-0.10302734375,0.5218999999999999
1.5877862595419847,1.984732824427481,-1.9236641221374047,-0.46044921875,-0.069091796875,-0.09619140625,0.5236
1.3740458015267176,1.7404580152671756,-1.786259541984733,-0.4619140625,-0.06298828125,-0.1015625,0.5253
1.3282442748091603,1.786259541984733,-1.9236641221374047,-0.46630859375,-0.06298828125,-0.102783203125,0.527
1.1145038167938932,1.618320610687023,-1.9541984732824427,-0.461181640625,-0.058349609375,-0.10888671875,0.5287
1.251908396946565,1.7251908396946565,-2.015267175572519,-0.4619140625,-0.064208984375,-0.10302734375,0.5304
1.450381679389313,1.7557251908396947,-1.816793893129771,-0.46875,-0.0654296875,-0.09521484375,0.5321
1.1450381679389312,1.5877862595419847,-1.816793893129771,-0.4697265625,-0.062744140625,-0.096923828125,0.5337999999999999
1.282442748091603,1.6793893129770991,-1.7709923664122138,-0.4560546875,-0.05712890625,-0.10107421875,0.5355
0.9618320610687023,1.4351145038167938,-1.8931297709923665,-0.458251953125,-0.063720703125,-0.10400390625,0.5372
0.9007633587786259,1.6641221374045803,-1.9083969465648856,-0.46337890625,-0.05908203125,-0.1025390625,0.5388999999999999
1.0076335877862594,1.7251908396946565,-1.7709923664122138,-0.4619140625,-0.05712890625,-0.1005859375,0.5406
1.3282442748091603,1.633587786259542,-1.7251908396946565,-0.46044921875,-0.056640625,-0.10302734375,0.5423
1.099236641221374,1.633587786259542,-1.786259541984733,-0.462890625,-0.058837890625,-0.10595703125,0.5439999999999999
1.2061068702290076,1.6946564885496183,-1.6946564885496183,-0.46630859375,-0.059326171875,-0.105224609375,0.5457
1.3740458015267176,1.6641221374045803,-1.7099236641221374,-0.467041015625,-0.057861328125,-0.102783203125,0.5474
1.3587786259541985,1.7404580152671756,-1.8015267175572518,-0.458740234375,-0.0576171875,-0.102783203125,0.5490999999999999
1.1450381679389312,1.816793893129771,-1.5572519083969465,-0.459716796875,-0.05859375,-0.098876953125,0.5508
1.4351145038167938,1.5725190839694656,-1.6946564885496183,-0.4638671875,-0.05859375,-0.107177734375,0.5525
1.4961832061068703,1.633587786259542,-1.618320610687023,-0.46533203125,-0.05517578125,-0.1015625,0.5541999999999999
1.450381679389313,1.4809160305343512,-1.5877862595419847,-0.461669921875,-0.05859375,-0.110595703125,0.5559
1.6030534351145038,1.633587786259542,-1.5267175572519085,-0.46533203125,-0.059814453125,-0.104248046875,0.5576
1.5419847328244274,1.7404580152671756,-1.6030534351145038,-0.46435546875,-0.0537109375,-0.1044921875,0.5593
1.618320610687023,1.5267175572519085,-1.6641221374045803,-0.463134765625,-0.05859375,-0.107421875,0.5609999999999999
1.7709923664122138,1.4351145038167938,-1.465648854961832,-0.4580078125,-0.054443359375,-0.099609375,0.5627
1.9694656488549618,1.633587786259542,-1.450381679389313,-0.46240234375,-0.06103515625,-0.104248046875,0.5644
2.045801526717557,1.5877862595419847,-1.7557251908396947,-0.463134765625,-0.05517578125,-0.10888671875,0.5660999999999999
1.8473282442748091,1.7251908396946565,-1.5572519083969465,-0.461669921875,-0.057373046875,-0.103759765625,0.5678
1.816793893129771,1.786259541984733,-1.5725190839694656,-0.46435546875,-0.058837890625,-0.103759765625,0.5695
2.2595419847328246,1.7099236641221374,-1.7557251908396947,-0.463134765625,-0.061279296875,-0.100341796875,0.5711999999999999
2.2748091603053435,1.83206106870229,-1.8931297709923665,-0.464599609375,-0.05810546875,-0.104736328125,0.5729
2.3053435114503817,1.9389312977099236,-1.7709923664122138,-0.466552734375,-0.06494140625,-0.111083984375,0.5746
2.33587786259542,1.8473282442748091,-1.984732824427481,-0.458740234375,-0.059326171875,-0.099365234375,0.5762999999999999
2.3053435114503817,1.8931297709923665,-1.9236641221374047,-0.456787109375,-0.05908203125,-0.1015625,0.578
2.687022900763359,1.8625954198473282,-2.2442748091603053,-0.46337890625,-0.05908203125,-0.0986328125,0.5797
2.4580152671755724,1.8015267175572518,-2.030534351145038,-0.46484375,-0.066162109375,-0.104248046875,0.5813999999999999
2.4580152671755724,1.6641221374045803,-2.2595419847328246,-0.462646484375,-0.064453125,-0.103271484375,0.5831
2.351145038167939,1.786259541984733,-2.213740458015267,-0.46240234375,-0.05908203125,-0.096435546875,0.5848
2.564885496183206,1.816793893129771,-2.3053435114503817,-0.462158203125,-0.0595703125,-0.099853515625,0.5865
2.4427480916030535,1.9083969465648856,-2.198473282442748,-0.4638671875,-0.06201171875,-0.10205078125,0.5882
2.16793893129771,1.7709923664122138,-2.2900763358778624,-0.463134765625,-0.0615234375,-0.107421875,0.5899
2.33587786259542,1.9541984732824427,-2.427480916030534,-0.46142578125,-0.062744140625,-0.10400390625,0.5916
2.0763358778625953,1.9083969465648856,-2.33587786259542,-0.465576171875,-0.065185546875,-0.105712890625,0.5932999999999999
2.198473282442748,1.8473282442748091,-2.381679389312977,-0.460693359375,-0.06494140625,-0.103271484375,0.595
2.351145038167939,1.9389312977099236,-2.7022900763358777,-0.464599609375,-0.06640625,-0.1025390625,0.5967
2.2442748091603053,2.045801526717557,-2.7022900763358777,-0.467529296875,-0.0625,-0.1005859375,0.5983999999999999
2.2442748091603053,1.786259541984733,-2.5343511450381677,-0.46240234375,-0.06396484375,-0.108154296875,0.6001
1.984732824427481,1.8015267175572518,-2.564885496183206,-0.4599609375,-0.06787109375,-0.09912109375,0.6018
2.3053435114503817,1.8473282442748091,-2.5801526717557253,-0.463623046875,-0.06689453125,-0.10400390625,0.6034999999999999
1.9236641221374047,1.83206106870229,-2.6412213740458017,-0.46337890625,-0.06396484375,-0.0986328125,0.6052
1.984732824427481,1.8931297709923665,-2.717557251908397,-0.461669921875,-0.069091796875,-0.10107421875,0.6069
1.9389312977099236,1.6946564885496183,-2.5343511450381677,-0.4609375,-0.072509765625,-0.109130859375,0.6085999999999999
1.9541984732824427,1.5725190839694656,-2.8091603053435112,-0.46484375,-0.064208984375,-0.101318359375,0.6103
1.7099236641221374,1.8473282442748091,-2.7480916030534353,-0.460205078125,-0.067138671875,-0.101318359375,0.612
1.6946564885496183,1.7404580152671756,-2.595419847328244,-0.461181640625,-0.064697265625,-0.114501953125,0.6136999999999999
1.5419847328244274,1.6488549618320612,-2.7022900763358777,-0.459228515625,-0.063720703125,-0.1064453125,0.6154
1.3435114503816794,1.5877862595419847,-2.6717557251908395,-0.463134765625,-0.066650390625,-0.104736328125,0.6171
1.3282442748091603,1.6030534351145038,-2.4122137404580153,-0.45849609375,-0.065673828125,-0.11083984375,0.6188
1.099236641221374,1.6946564885496183,-2.4885496183206106,-0.464111328125,-0.060302734375,-0.10205078125,0.6204999999999999
0.8091603053435115,1.4809160305343512,-2.5343511450381677,-0.461181640625,-0.06689453125,-0.10302734375,0.6222
0.7786259541984732,1.450381679389313,-2.351145038167939,-0.466064453125,-0.063720703125,-0.107177734375,0.6239
0.549618320610687,1.4045801526717556,-2.4427480916030535,-0.45654296875,-0.05859375,-0.107177734375,0.6255999999999999
0.21374045801526717,1.4045801526717556,-2.2595419847328246,-0.465087890625,-0.06591796875,-0.1142578125,0.6273
0.0916030534351145,1.3435114503816794,-2.2442748091603053,-0.458984375,-0.06201171875,-0.104248046875,0.629
0.13740458015267176,1.2213740458015268,-2.045801526717557,-0.45947265625,-0.064208984375,-0.100830078125,0.6306999999999999
-0.13740458015267176,1.4045801526717556,-2.122137404580153,-0.454345703125,-0.06298828125,-0.100341796875,0.6324
0.030534351145038167,1.4045801526717556,-2.1374045801526718,-0.462646484375,-0.06005859375,-0.10009765625,0.6341
0.21374045801526717,1.4198473282442747,-2.1374045801526718,-0.45947265625,-0.059814453125,-0.110595703125,0.6357999999999999
-0.13740458015267176,1.5877862595419847,-1.9236641221374047,-0.466796875,-0.057861328125,-0.112060546875,0.6375
-0.16793893129770993,1.5267175572519085,-1.8625954198473282,-0.4619140625,-0.063232421875,-0.105224609375,0.6392
-0.22900763358778625,1.4045801526717556,-1.8473282442748091,-0.458251953125,-0.064697265625,-0.100830078125,0.6408999999999999
-0.13740458015267176,1.4809160305343512,-1.7404580152671756,-0.4560546875,-0.064208984375,-0.101806640625,0.6426
-0.030534351145038167,1.6030534351145038,-1.8778625954198473,-0.460693359375,-0.062255859375,-0.111572265625,0.6443
-0.3053435114503817,1.4351145038167938,-1.5877862595419847,-0.459228515625,-0.059326171875,-0.10791015625,0.646
-0.3511450381679389,1.3282442748091603,-1.6946564885496183,-0.458740234375,-0.0654296875,-0.104248046875,0.6476999999999999
-0.16793893129770993,1.4809160305343512,-1.465648854961832,-0.46337890625,-0.0595703125,-0.09716796875,0.6494
-0.015267175572519083,1.3893129770992367,-1.4351145038167938,-0.463623046875,-0.063720703125,-0.104248046875,0.6511
-0.061068702290076333,1.3435114503816794,-1.4809160305343512,-0.464599609375,-0.0615234375,-0.099609375,0.6527999999999999
0.10687022900763359,1.3129770992366412,-1.3435114503816794,-0.458984375,-0.06103515625,-0.104736328125,0.6545
0.183206106870229,1.3129770992366412,-1.1908396946564885,-0.46142578125,-0.060302734375,-0.10986328125,0.6562
0.04580152671755725,1.3435114503816794,-1.3129770992366412,-0.4619140625,-0.05615234375,-0.10400390625,0.6578999999999999
0.22900763358778625,1.1603053435114503,-1.465648854961832,-0.460693359375,-0.05908203125,-0.10498046875,0.6596
0.3511450381679389,1.4198473282442747,-1.3435114503816794,-0.4638671875,-0.05615234375,-0.09912109375,0.6613
0.5648854961832062,1.3129770992366412,-1.2061068702290076,-0.4609375,-0.05517578125,-0.104736328125,0.6629999999999999
0.5801526717557252,1.2213740458015268,-1.1755725190839694,-0.4580078125,-0.059326171875,-0.095703125,0.6647
0.7786259541984732,1.2213740458015268,-1.251908396946565,-0.465087890625,-0.05908203125,-0.089111328125,0.6664
0.9618320610687023,1.3740458015267176,-1.2671755725190839,-0.468505859375,-0.0537109375,-0.09375,0.6680999999999999
1.083969465648855,1.251908396946565,-1.1450381679389312,-0.464111328125,-0.059326171875,-0.098876953125,0.6698
1.0687022900763359,0.9618320610687023,-1.3129770992366412,-0.46435546875,-0.060302734375,-0.10546875,0.6715
1.083969465648855,1.251908396946565,-1.297709923664122,-0.4609375,-0.059326171875,-0.108154296875,0.6731999999999999
1.282442748091603,1.1145038167938932,-1.1908396946564885,-0.4697265625,-0.0595703125,-0.104736328125,0.6748999999999999
1.3282442748091603,1.1145038167938932,-0.9923664122137404,-0.467041015625,-0.0546875,-0.093994140625,0.6766
1.3129770992366412,1.251908396946565,-1.3282442748091603,-0.4619140625,-0.057373046875,-0.09814453125,0.6783
1.465648854961832,1.2366412213740459,-1.099236641221374,-0.46484375,-0.05859375,-0.10546875,0.6799999999999999
1.6641221374045803,1.3587786259541985,-1.3129770992366412,-0.4638671875,-0.055908203125,-0.1025390625,0.6817
1.8778625954198473,1.251908396946565,-1.282442748091603,-0.462158203125,-0.056396484375,-0.105224609375,0.6834
1.816793893129771,1.282442748091603,-1.282442748091603,-0.4638671875,-0.056884765625,-0.108642578125,0.6850999999999999
1.7099236641221374,1.3893129770992367,-1.0229007633587786,-0.46875,-0.06201171875,-0.100341796875,0.6868
1.8778625954198473,1.2671755725190839,-1.2671755725190839,-0.463134765625,-0.05517578125,-0.10546875,0.6885
2.030534351145038,1.3435114503816794,-1.282442748091603,-0.465087890625,-0.05859375,-0.097412109375,0.6901999999999999
2.1374045801526718,1.465648854961832,-1.2671755725190839,-0.4658203125,-0.059326171875,-0.1083984375,0.6919
2.1068702290076335,1.3587786259541985,-1.0229007633587786,-0.466552734375,-0.065673828125,-0.103759765625,0.6936
2.045801526717557,1.5725190839694656,-1.3129770992366412,-0.46630859375,-0.060791015625,-0.10693359375,0.6952999999999999
2.1068702290076335,1.4961832061068703,-1.3435114503816794,-0.463623046875,-0.05810546875,-0.10693359375,0.697
2.122137404580153,1.4045801526717556,-1.3893129770992367,-0.463623046875,-0.06005859375,-0.105224609375,0.6987
1.8778625954198473,1.3435114503816794,-1.1908396946564885,-0.471435546875,-0.066162109375,-0.111328125,0.7003999999999999
2.0,1.4198473282442747,-1.4045801526717556,-0.4697265625,-0.06591796875,-0.106201171875,0.7021
2.045801526717557,1.4809160305343512,-1.3282442748091603,-0.4677734375,-0.0595703125,-0.107421875,0.7038
1.816793893129771,1.3893129770992367,-1.450381679389313,-0.460205078125,-0.0595703125,-0.1044921875,0.7055
1.7709923664122138,1.2061068702290076,-1.465648854961832,-0.46240234375,-0.059326171875,-0.108642578125,0.7071999999999999
1.7404580152671756,1.3893129770992367,-1.2213740458015268,-0.463623046875,-0.061279296875,-0.10888671875,0.7089
1.6946564885496183,1.465648854961832,-1.3435114503816794,-0.468017578125,-0.061767578125,-0.098388671875,0.7106
1.8778625954198473,1.2366412213740459,-1.450381679389313,-0.470458984375,-0.065185546875,-0.103271484375,0.7122999999999999
1.8625954198473282,1.2671755725190839,-1.297709923664122,-0.465576171875,-0.057861328125,-0.102294921875,0.714
1.5419847328244274,1.2213740458015268,-1.3435114503816794,-0.465087890625,-0.0615234375,-0.108642578125,0.7157
0.9465648854961832,1.3129770992366412,-1.251908396946565,-0.46337890625,-0.060791015625,-0.105712890625,0.7173999999999999
1.2366412213740459,0.9465648854961832,-1.4198473282442747,-0.46142578125,-0.061767578125,-0.102783203125,0.7191
1.3893129770992367,0.9770992366412213,-1.2213740458015268,-0.46142578125,-0.0634765625,-0.093994140625,0.7208
1.2061068702290076,1.0534351145038168,-1.3282442748091603,-0.463134765625,-0.06298828125,-0.10546875,0.7224999999999999
1.1450381679389312,0.916030534351145,-1.282442748091603,-0.462890625,-0.06591796875,-0.1015625,0.7242
1.0076335877862594,0.916030534351145,-1.3435114503816794,-0.4619140625,-0.05810546875,-0.109375,0.7259
1.0534351145038168,0.9618320610687023,-1.0229007633587786,-0.464599609375,-0.056640625,-0.108154296875,0.7275999999999999
0.8396946564885496,0.8854961832061069,-1.2061068702290076,-0.4609375,-0.06201171875,-0.106689453125,0.7293
0.9465648854961832,0.8396946564885496,-1.1145038167938932,-0.4638671875,-0.0625,-0.101806640625,0.731
0.8091603053435115,0.8702290076335878,-1.0076335877862594,-0.459716796875,-0.061767578125,-0.1064453125,0.7326999999999999
0.9618320610687023,0.7175572519083969,-1.0229007633587786,-0.46533203125,-0.059326171875,-0.104736328125,0.7343999999999999
0.8244274809160306,0.8091603053435115,-1.0381679389312977,-0.46142578125,-0.060791015625,-0.092529296875,0.7361
0.8549618320610687,0.8091603053435115,-0.9312977099236641,-0.458251953125,-0.056640625,-0.098876953125,0.7378
0.7175572519083969,0.732824427480916,-1.0381679389312977,-0.457763671875,-0.06103515625,-0.1015625,0.7394999999999999
0.6870229007633588,1.0076335877862594,-0.6717557251908397,-0.45947265625,-0.06103515625,-0.10107421875,0.7412
0.7022900763358778,0.8244274809160306,-0.7633587786259542,-0.461181640625,-0.059326171875,-0.096923828125,0.7429
0.6412213740458015,0.7022900763358778,-0.732824427480916,-0.4599609375,-0.0615234375,-0.0986328125,0.7445999999999999
0.7022900763358778,0.916030534351145,-0.7938931297709924,-0.458251953125,-0.06298828125,-0.10693359375,0.7463
0.9007633587786259,1.083969465648855,-0.5954198473282443,-0.45703125,-0.060546875,-0.092529296875,0.748
0.8091603053435115,0.8854961832061069,-0.7786259541984732,-0.461181640625,-0.05322265625,-0.105712890625,0.7496999999999999
0.9923664122137404,0.8244274809160306,-0.8244274809160306,-0.465576171875,-0.0576171875,-0.09765625,0.7514
1.297709923664122,0.8549618320610687,-0.7786259541984732,-0.46240234375,-0.0625,-0.099609375,0.7531
1.251908396946565,0.916030534351145,-0.7022900763358778,-0.46044921875,-0.05859375,-0.093505859375,0.7547999999999999
1.297709923664122,0.9007633587786259,-0.9007633587786259,-0.460205078125,-0.05859375,-0.09228515625,0.7565
1.3893129770992367,0.8244274809160306,-0.8244274809160306,-0.462158203125,-0.058837890625,-0.1044921875,0.7582
1.618320610687023,0.8854961832061069,-0.8549618320610687,-0.459228515625,-0.06005859375,-0.10693359375,0.7598999999999999
1.9389312977099236,0.5801526717557252,-0.8244274809160306,-0.4560546875,-0.06103515625,-0.09765625,0.7615999999999999
1.816793893129771,0.8244274809160306,-0.9618320610687023,-0.45947265625,-0.05810546875,-0.100341796875,0.7633
1.7709923664122138,0.6870229007633588,-0.6870229007633588,-0.461669921875,-0.057373046875,-0.094970703125,0.7649999999999999
1.9541984732824427,0.8244274809160306,-1.1755725190839694,-0.469970703125,-0.060546875,-0.100830078125,0.7666999999999999
2.16793893129771,0.7480916030534351,-1.0381679389312977,-0.46240234375,-0.061767578125,-0.1005859375,0.7684
2.0916030534351147,0.9007633587786259,-1.1603053435114503,-0.46044921875,-0.053955078125,-0.104736328125,0.7701
2.045801526717557,0.8549618320610687,-1.0687022900763359,-0.4619140625,-0.059326171875,-0.09912109375,0.7717999999999999
1.8778625954198473,0.7480916030534351,-1.0076335877862594,-0.462158203125,-0.06298828125,-0.103759765625,0.7735
1.9541984732824427,0.8244274809160306,-0.9618320610687023,-0.457763671875,-0.056396484375,-0.1025390625,0.7752
1.7557251908396947,0.8244274809160306,-1.0229007633587786,-0.46240234375,-0.06298828125,-0.101806640625,0.7768999999999999
1.7251908396946565,0.916030534351145,-0.9312977099236641,-0.46240234375,-0.060791015625,-0.091796875,0.7786
1.786259541984733,1.0534351145038168,-1.0381679389312977,-0.46044921875,-0.0595703125,-0.1025390625,0.7803
1.6793893129770991,1.0381679389312977,-0.916030534351145,-0.460205078125,-0.060302734375,-0.10791015625,0.7819999999999999
1.4045801526717556,0.8244274809160306,-1.0229007633587786,-0.45849609375,-0.05859375,-0.105712890625,0.7837
1.4961832061068703,1.0381679389312977,-0.9618320610687023,-0.4580078125,-0.059814453125,-0.105712890625,0.7854
1.297709923664122,0.8549618320610687,-1.0381679389312977,-0.4619140625,-0.06201171875,-0.10595703125,0.7870999999999999
1.1603053435114503,0.7175572519083969,-1.0381679389312977,-0.4638671875,-0.061767578125,-0.100830078125,0.7888
1.282442748091603,0.9618320610687023,-1.1297709923664123,-0.46630859375,-0.064697265625,-0.103759765625,0.7905
1.0687022900763359,0.8702290076335878,-1.0687022900763359,-0.460205078125,-0.05859375,-0.094482421875,0.7921999999999999
0.9312977099236641,1.0076335877862594,-0.9618320610687023,-0.4619140625,-0.0634765625,-0.109375,0.7938999999999999
0.9312977099236641,1.0687022900763359,-1.0534351145038168,-0.458984375,-0.061767578125,-0.106201171875,0.7956
0.916030534351145,0.916030534351145,-1.0381679389312977,-0.45849609375,-0.062744140625,-0.10009765625,0.7973
0.7633587786259542,1.0381679389312977,-0.9465648854961832,-0.458740234375,-0.0576171875,-0.107421875,0.7989999999999999
0.7786259541984732,0.9465648854961832,-1.1755725190839694,-0.454345703125,-0.060302734375,-0.101806640625,0.8007
0.8702290076335878,0.9007633587786259,-1.2213740458015268,-0.461181640625,-0.061279296875,-0.096923828125,0.8024
0.5648854961832062,0.8091603053435115,-1.2671755725190839,-0.45703125,-0.05810546875,-0.098388671875,0.8040999999999999
0.48854961832061067,0.9007633587786259,-1.1908396946564885,-0.460693359375,-0.060546875,-0.101318359375,0.8058
0.549618320610687,0.732824427480916,-0.9770992366412213,-0.46337890625,-0.0634765625,-0.101318359375,0.8075
0.183206106870229,0.8091603053435115,-1.083969465648855,-0.46435546875,-0.05712890625,-0.0908203125,0.8091999999999999
0.13740458015267176,0.732824427480916,-1.1145038167938932,-0.462158203125,-0.057373046875,-0.103271484375,0.8109
0.1984732824427481,0.8702290076335878,-1.1755725190839694,-0.459716796875,-0.055908203125,-0.108642578125,0.8126
0.0916030534351145,0.7022900763358778,-1.0687022900763359,-0.462890625,-0.060546875,-0.103759765625,0.8142999999999999
-0.030534351145038167,0.7938931297709924,-1.099236641221374,-0.4580078125,-0.0576171875,-0.089599609375,0.816
-0.015267175572519083,0.732824427480916,-1.0534351145038168,-0.462646484375,-0.059814453125,-0.098388671875,0.8177
0.0916030534351145,0.7480916030534351,-1.0687022900763359,-0.46142578125,-0.058349609375,-0.092529296875,0.8193999999999999
-0.10687022900763359,0.7022900763358778,-1.0076335877862594,-0.461669921875,-0.0634765625,-0.1015625,0.8210999999999999
-0.15267175572519084,0.5190839694656488,-1.1145038167938932,-0.46044921875,-0.056396484375,-0.10205078125,0.8228
-0.2748091603053435,0.6412213740458015,-1.1145038167938932,-0.46142578125,-0.05615234375,-0.102783203125,0.8244999999999999
-0.22900763358778625,0.6106870229007634,-1.1145038167938932,-0.462646484375,-0.054931640625,-0.09912109375,0.8261999999999999
-0.366412213740458,0.6870229007633588,-1.1755725190839694,-0.46240234375,-0.05078125,-0.105712890625,0.8279
-0.33587786259541985,0.5190839694656488,-0.916030534351145,-0.461181640625,-0.05908203125,-0.10107421875,0.8296
0.04580152671755725,0.5801526717557252,-0.8549618320610687,-0.462158203125,-0.056640625,-0.097412109375,0.8312999999999999
-0.22900763358778625,0.7175572519083969,-1.083969465648855,-0.461669921875,-0.057373046875,-0.099365234375,0.833
-0.10687022900763359,0.8244274809160306,-0.7938931297709924,-0.462890625,-0.062744140625,-0.1015625,0.8347
0.13740458015267176,0.6717557251908397,-0.9312977099236641,-0.467041015625,-0.052734375,-0.101318359375,0.8363999999999999
-0.061068702290076333,0.9007633587786259,-0.8091603053435115,-0.466064453125,-0.05810546875,-0.1025390625,0.8381
0.0916030534351145,0.7938931297709924,-0.7480916030534351,-0.468505859375,-0.052490234375,-0.100830078125,0.8398
0.24427480916030533,0.9923664122137404,-0.6870229007633588,-0.46484375,-0.058349609375,-0.109619140625,0.8414999999999999
0.6106870229007634,0.9923664122137404,-0.6412213740458015,-0.468994140625,-0.049072265625,-0.1123046875,0.8432
0.5648854961832062,0.9770992366412213,-0.7480916030534351,-0.460205078125,-0.057861328125,-0.104736328125,0.8449
0.8244274809160306,0.8702290076335878,-0.8396946564885496,-0.46337890625,-0.05419921875,-0.10595703125,0.8465999999999999
0.9007633587786259,0.8702290076335878,-0.8396946564885496,-0.457275390625,-0.05419921875,-0.108642578125,0.8482999999999999
1.4045801526717556,1.0381679389312977,-0.7633587786259542,-0.464599609375,-0.05712890625,-0.110107421875,0.85
1.4809160305343512,1.1145038167938932,-0.7786259541984732,-0.468017578125,-0.0537109375,-0.110595703125,0.8516999999999999
1.5419847328244274,0.9770992366412213,-0.7633587786259542,-0.46484375,-0.0556640625,-0.10791015625,0.8533999999999999
1.7557251908396947,1.0534351145038168,-0.7938931297709924,-0.462646484375,-0.0576171875,-0.1025390625,0.8551
1.9083969465648856,1.282442748091603,-0.8702290076335878,-0.46533203125,-0.0576171875,-0.106201171875,0.8568
2.1526717557251906,1.1908396946564885,-0.8244274809160306,-0.46728515625,-0.05908203125,-0.1005859375,0.8584999999999999
2.015267175572519,1.1755725190839694,-0.7175572519083969,-0.46435546875,-0.0556640625,-0.1064453125,0.8602
2.198473282442748,1.465648854961832,-0.7022900763358778,-0.463623046875,-0.056884765625,-0.104248046875,0.8619
2.381679389312977,1.4351145038167938,-0.9007633587786259,-0.463134765625,-0.058837890625,-0.107666015625,0.8635999999999999
2.2442748091603053,1.4198473282442747,-0.8091603053435115,-0.46630859375,-0.05908203125,-0.0986328125,0.8653
2.3206106870229006,1.5419847328244274,-0.732824427480916,-0.46240234375,-0.057373046875,-0.104736328125,0.867
2.381679389312977,1.633587786259542,-0.8854961832061069,-0.4619140625,-0.06201171875,-0.104248046875,0.8686999999999999
2.183206106870229,1.618320610687023,-0.9312977099236641,-0.463134765625,-0.058349609375,-0.10205078125,0.8704
2.366412213740458,1.3435114503816794,-1.1603053435114503,-0.46533203125,-0.06298828125,-0.112060546875,0.8721
2.1526717557251906,1.4961832061068703,-1.251908396946565,-0.466552734375,-0.0625,-0.11328125,0.8737999999999999
2.183206106870229,1.4198473282442747,-1.2213740458015268,-0.46630859375,-0.065673828125,-0.1025390625,0.8755
2.045801526717557,1.2213740458015268,-1.251908396946565,-0.462646484375,-0.061767578125,-0.107421875,0.8772
2.0763358778625953,1.2671755725190839,-1.1908396946564885,-0.46484375,-0.070068359375,-0.094970703125,0.8788999999999999
1.7557251908396947,1.099236641221374,-1.4351145038167938,-0.46533203125,-0.063232421875,-0.0986328125,0.8805999999999999
1.83206106870229,1.1755725190839694,-1.282442748091603,-0.470947265625,-0.06640625,-0.100830078125,0.8823
1.8015267175572518,1.1297709923664123,-1.5267175572519085,-0.461181640625,-0.064697265625,-0.097412109375,0.8839999999999999
1.8015267175572518,1.1755725190839694,-1.465648854961832,-0.46435546875,-0.065185546875,-0.096923828125,0.8856999999999999
1.4045801526717556,1.1297709923664123,-1.7557251908396947,-0.463623046875,-0.068115234375,-0.106201171875,0.8874
1.1908396946564885,1.1603053435114503,-1.6641221374045803,-0.46533203125,-0.063720703125,-0.104248046875,0.8891
1.4198473282442747,1.3129770992366412,-1.5572519083969465,-0.467529296875,-0.064697265625,-0.101806640625,0.8907999999999999
1.1297709923664123,1.099236641221374,-1.618320610687023,-0.47119140625,-0.0654296875,-0.10107421875,0.8925
1.0229007633587786,1.1908396946564885,-1.6488549618320612,-0.466552734375,-0.06591796875,-0.099609375,0.8942
0.6259541984732825,1.1450381679389312,-1.633587786259542,-0.46240234375,-0.0712890625,-0.111572265625,0.8958999999999999
0.4580152671755725,1.0534351145038168,-1.9083969465648856,-0.46630859375,-0.069091796875,-0.104736328125,0.8976
0.549618320610687,1.083969465648855,-1.786259541984733,-0.461181640625,-0.065185546875,-0.103759765625,0.8993
0.6717557251908397,1.0229007633587786,-1.786259541984733,-0.46728515625,-0.061767578125,-0.09765625,0.9009999999999999
0.5648854961832062,0.8549618320610687,-1.83206106870229,-0.46337890625,-0.061279296875,-0.107666015625,0.9027
0.44274809160305345,0.8854961832061069,-1.984732824427481,-0.465087890625,-0.0673828125,-0.11181640625,0.9044
0.3053435114503817,0.9923664122137404,-1.7557251908396947,-0.4638671875,-0.0634765625,-0.093017578125,0.9060999999999999
0.13740458015267176,0.7786259541984732,-2.045801526717557,-0.464111328125,-0.0625,-0.09814453125,0.9077999999999999
0.2595419847328244,0.9007633587786259,-1.8625954198473282,-0.46142578125,-0.059814453125,-0.104248046875,0.9095
0.2595419847328244,0.8854961832061069,-1.9236641221374047,-0.462646484375,-0.059326171875,-0.100830078125,0.9111999999999999
0.5038167938931297,0.7938931297709924,-1.633587786259542,-0.46240234375,-0.060302734375,-0.1015625,0.9128999999999999
0.5190839694656488,0.7022900763358778,-1.9236641221374047,-0.461669921875,-0.06201171875,-0.102294921875,0.9146
0.5801526717557252,0.8091603053435115,-1.8931297709923665,-0.462646484375,-0.06640625,-0.102783203125,0.9163
0.6717557251908397,0.7480916030534351,-1.8778625954198473,-0.4638671875,-0.055419921875,-0.1005859375,0.9179999999999999
0.8396946564885496,0.7786259541984732,-1.816793893129771,-0.4638671875,-0.059326171875,-0.10595703125,0.9197
1.0687022900763359,0.9465648854961832,-1.7709923664122138,-0.465087890625,-0.054931640625,-0.1044921875,0.9214
1.099236641221374,0.916030534351145,-1.7099236641221374,-0.465087890625,-0.0556640625,-0.10546875,0.9230999999999999
1.1145038167938932,0.7633587786259542,-1.8625954198473282,-0.46533203125,-0.055908203125,-0.10693359375,0.9248
1.1297709923664123,1.0229007633587786,-1.7404580152671756,-0.457763671875,-0.058837890625,-0.104248046875,0.9265
1.297709923664122,1.0687022900763359,-1.5877862595419847,-0.468505859375,-0.0615234375,-0.10595703125,0.9281999999999999
1.5725190839694656,0.9312977099236641,-1.633587786259542,-0.4619140625,-0.059814453125,-0.100830078125,0.9299
1.6641221374045803,1.3587786259541985,-1.618320610687023,-0.464599609375,-0.060546875,-0.10302734375,0.9316
1.450381679389313,1.282442748091603,-1.3587786259541985,-0.46435546875,-0.056396484375,-0.116455078125,0.9332999999999999
1.4809160305343512,1.3587786259541985,-1.4198473282442747,-0.4560546875,-0.0556640625,-0.108154296875,0.9349999999999999
1.4961832061068703,1.5267175572519085,-1.4045801526717556,-0.457275390625,-0.05712890625,-0.100830078125,0.9367
1.7557251908396947,1.6030534351145038,-1.4809160305343512,-0.460205078125,-0.05517578125,-0.108154296875,0.9383999999999999
1.4809160305343512,1.5267175572519085,-1.282442748091603,-0.464599609375,-0.0556640625,-0.112060546875,0.9400999999999999
1.5419847328244274,1.6488549618320612,-1.450381679389313,-0.4609375,-0.05419921875,-0.101806640625,0.9418
1.8015267175572518,1.8931297709923665,-1.3129770992366412,-0.46484375,-0.061279296875,-0.108154296875,0.9434999999999999
1.7557251908396947,1.6488549618320612,-1.2671755725190839,-0.4609375,-0.06298828125,-0.1005859375,0.9451999999999999
1.7404580152671756,1.7557251908396947,-1.1755725190839694,-0.463134765625,-0.0615234375,-0.103515625,0.9469
1.8625954198473282,1.633587786259542,-1.2213740458015268,-0.457763671875,-0.06103515625,-0.101806640625,0.9486
2.0763358778625953,1.5877862595419847,-1.1297709923664123,-0.459228515625,-0.065185546875,-0.105224609375,0.9502999999999999
1.816793893129771,1.8625954198473282,-1.3129770992366412,-0.460205078125,-0.0673828125,-0.108642578125,0.952
2.0610687022900764,1.6793893129770991,-1.297709923664122,-0.46142578125,-0.06298828125,-0.107177734375,0.9537
1.9694656488549618,1.5419847328244274,-1.3740458015267176,-0.46826171875,-0.061767578125,-0.111083984375,0.9553999999999999
2.16793893129771,1.618320610687023,-1.1450381679389312,-0.4638671875,-0.06298828125,-0.095458984375,0.9571
2.427480916030534,1.6641221374045803,-1.3587786259541985,-0.461181640625,-0.06640625,-0.09912109375,0.9588
2.33587786259542,1.5267175572519085,-1.2366412213740459,-0.46533203125,-0.06201171875,-0.102294921875,0.9604999999999999
2.3206106870229006,1.5725190839694656,-1.4045801526717556,-0.459228515625,-0.068603515625,-0.093017578125,0.9621999999999999
2.427480916030534,1.4961832061068703,-1.3282442748091603,-0.46435546875,-0.06787109375,-0.101318359375,0.9639
2.427480916030534,1.465648854961832,-1.3587786259541985,-0.465576171875,-0.068359375,-0.1083984375,0.9655999999999999
2.2595419847328246,1.3129770992366412,-1.297709923664122,-0.461181640625,-0.064208984375,-0.106201171875,0.9672999999999999
2.549618320610687,1.3435114503816794,-1.4045801526717556,-0.45947265625,-0.06640625,-0.10107421875,0.969
2.381679389312977,1.282442748091603,-1.3740458015267176,-0.46728515625,-0.064453125,-0.105224609375,0.9706999999999999
2.519083969465649,1.1755725190839694,-1.633587786259542,-0.46533203125,-0.0634765625,-0.105224609375,0.9723999999999999
2.3969465648854964,1.083969465648855,-1.4045801526717556,-0.465087890625,-0.06396484375,-0.10205078125,0.9741
2.213740458015267,1.2366412213740459,-1.633587786259542,-0.45947265625,-0.0625,-0.10888671875,0.9758
2.2748091603053435,1.1755725190839694,-1.618320610687023,-0.461669921875,-0.060302734375,-0.10693359375,0.9774999999999999
2.2595419847328246,1.1603053435114503,-1.5267175572519085,-0.461669921875,-0.061279296875,-0.10986328125,0.9792
1.984732824427481,1.2671755725190839,-1.450381679389313,-0.460693359375,-0.063720703125,-0.104736328125,0.9809
1.9083969465648856,1.2213740458015268,-1.6641221374045803,-0.463623046875,-0.063720703125,-0.10791015625,0.9825999999999999
1.9541984732824427,1.1145038167938932,-1.5419847328244274,-0.4638671875,-0.0634765625,-0.107421875,0.9843
1.9083969465648856,1.1908396946564885,-1.5419847328244274,-0.466552734375,-0.057861328125,-0.104736328125,0.986
1.6488549618320612,0.9770992366412213,-1.450381679389313,-0.46630859375,-0.06005859375,-0.1103515625,0.9876999999999999
1.465648854961832,1.1145038167938932,-1.5877862595419847,-0.4638671875,-0.065185546875,-0.10595703125,0.9894
1.5572519083969465,0.9465648854961832,-1.465648854961832,-0.46484375,-0.064697265625,-0.1015625,0.9911
1.5267175572519085,1.0229007633587786,-1.5419847328244274,-0.462890625,-0.062744140625,-0.103271484375,0.9927999999999999
1.5725190839694656,1.1755725190839694,-1.5267175572519085,-0.467041015625,-0.06201171875,-0.106689453125,0.9944999999999999
1.297709923664122,1.0534351145038168,-1.5267175572519085,-0.46337890625,-0.0654296875,-0.101318359375,0.9962
1.1908396946564885,1.1908396946564885,-1.3282442748091603,-0.46533203125,-0.068115234375,-0.097900390625,0.9978999999999999
1.4045801526717556,1.2366412213740459,-1.7099236641221374,-0.46240234375,-0.063232421875,-0.1025390625,0.9995999999999999
1.4961832061068703,1.2213740458015268,-1.4961832061068703,-0.46435546875,-0.06396484375,-0.10009765625,1.0012999999999999
1.4198473282442747,1.251908396946565,-1.4809160305343512,-0.4599609375,-0.065673828125,-0.102294921875,1.003
1.450381679389313,1.1908396946564885,-1.5725190839694656,-0.46435546875,-0.0625,-0.107421875,1.0047
1.4045801526717556,1.3587786259541985,-1.5419847328244274,-0.466064453125,-0.06689453125,-0.10693359375,1.0064
1.3587786259541985,1.2061068702290076,-1.3740458015267176,-0.461669921875,-0.06640625,-0.10009765625,1.0081
1.5419847328244274,1.3282442748091603,-1.6641221374045803,-0.4638671875,-0.061279296875,-0.10205078125,1.0098
1.5419847328244274,1.3435114503816794,-1.6946564885496183,-0.464599609375,-0.065185546875,-0.10693359375,1.0114999999999998
1.450381679389313,1.0381679389312977,-1.6793893129770991,-0.46142578125,-0.06201171875,-0.10693359375,1.0131999999999999
1.5267175572519085,1.1908396946564885,-1.5725190839694656,-0.461181640625,-0.067626953125,-0.110595703125,1.0149
1.5114503816793894,1.251908396946565,-1.5877862595419847,-0.46142578125,-0.0615234375,-0.100341796875,1.0166
1.6793893129770991,1.297709923664122,-1.5114503816793894,-0.462646484375,-0.060546875,-0.10498046875,1.0183
1.6946564885496183,1.1755725190839694,-1.7099236641221374,-0.464111328125,-0.06201171875,-0.106201171875,1.02
1.8625954198473282,1.2213740458015268,-1.5419847328244274,-0.461181640625,-0.06298828125,-0.10302734375,1.0217
1.7251908396946565,1.3893129770992367,-1.618320610687023,-0.463134765625,-0.060302734375,-0.1044921875,1.0233999999999999
1.633587786259542,1.3282442748091603,-1.6030534351145038,-0.4638671875,-0.06396484375,-0.10546875,1.0251
1.816793893129771,1.4045801526717556,-1.6030534351145038,-0.465087890625,-0.061279296875,-0.099365234375,1.0268
1.6793893129770991,1.5267175572519085,-1.5725190839694656,-0.4609375,-0.0576171875,-0.10498046875,1.0285
1.816793893129771,1.4809160305343512,-1.5877862595419847,-0.466064453125,-0.06591796875,-0.08935546875,1.0302
1.4961832061068703,1.5419847328244274,-1.4045801526717556,-0.467041015625,-0.062744140625,-0.10302734375,1.0319
1.5267175572519085,1.6641221374045803,-1.3435114503816794,-0.4619140625,-0.0595703125,-0.105712890625,1.0335999999999999
1.5877862595419847,1.6030534351145038,-1.3893129770992367,-0.467041015625,-0.066650390625,-0.107666015625,1.0352999999999999
1.786259541984733,1.6030534351145038,-1.3435114503816794,-0.46533203125,-0.062255859375,-0.107666015625,1.037
1.6641221374045803,1.7099236641221374,-1.4198473282442747,-0.46337890625,-0.056396484375,-0.10205078125,1.0387
1.618320610687023,1.7404580152671756,-1.4045801526717556,-0.462158203125,-0.060791015625,-0.106201171875,1.0404
1.8015267175572518,1.6793893129770991,-1.4045801526717556,-0.462646484375,-0.061279296875,-0.108154296875,1.0421
1.8931297709923665,1.786259541984733,-1.4045801526717556,-0.4638671875,-0.063232421875,-0.110107421875,1.0437999999999998
1.8473282442748091,1.8473282442748091,-1.2671755725190839,-0.459228515625,-0.060791015625,-0.10888671875,1.0454999999999999
2.1068702290076335,1.7557251908396947,-1.297709923664122,-0.460693359375,-0.064208984375,-0.11083984375,1.0472
1.8625954198473282,1.9389312977099236,-1.282442748091603,-0.466796875,-0.06787109375,-0.110107421875,1.0489
2.0,1.9083969465648856,-1.1755725190839694,-0.464599609375,-0.066650390625,-0.106201171875,1.0506
1.9236641221374047,1.8473282442748091,-1.1755725190839694,-0.46435546875,-0.067138671875,-0.10400390625,1.0523
1.83206106870229,1.9541984732824427,-1.1603053435114503,-0.467529296875,-0.066162109375,-0.104736328125,1.054
1.6793893129770991,1.8625954198473282,-1.2213740458015268,-0.4638671875,-0.062255859375,-0.107666015625,1.0556999999999999
1.786259541984733,1.8473282442748091,-1.1145038167938932,-0.458251953125,-0.064697265625,-0.104248046875,1.0574
1.786259541984733,1.9694656488549618,-1.0229007633587786,-0.45849609375,-0.06396484375,-0.106201171875,1.0591
1.7557251908396947,2.0916030534351147,-0.9770992366412213,-0.460693359375,-0.067138671875,-0.10107421875,1.0608
1.6641221374045803,1.8015267175572518,-0.9312977099236641,-0.4638671875,-0.06591796875,-0.10498046875,1.0625
1.297709923664122,1.8015267175572518,-0.9465648854961832,-0.464111328125,-0.06591796875,-0.1015625,1.0642
1.4351145038167938,1.8778625954198473,-0.7786259541984732,-0.466552734375,-0.06787109375,-0.112060546875,1.0658999999999998
1.1603053435114503,1.8778625954198473,-0.6412213740458015,-0.462158203125,-0.063720703125,-0.109619140625,1.0675999999999999
1.251908396946565,1.9083969465648856,-0.916030534351145,-0.4619140625,-0.06298828125,-0.1123046875,1.0693
1.083969465648855,1.5725190839694656,-0.916030534351145,-0.464111328125,-0.06494140625,-0.109619140625,1.071
1.1145038167938932,1.5114503816793894,-0.7938931297709924,-0.460205078125,-0.061279296875,-0.109375,1.0727
1.1450381679389312,1.4198473282442747,-0.5954198473282443,-0.464599609375,-0.068359375,-0.1015625,1.0744
0.8244274809160306,1.3893129770992367,-0.7938931297709924,-0.466796875,-0.062744140625,-0.10693359375,1.0760999999999998
0.7938931297709924,1.3740458015267176,-0.6870229007633588,-0.463134765625,-0.06689453125,-0.107421875,1.0777999999999999
0.732824427480916,1.4045801526717556,-0.6106870229007634,-0.464111328125,-0.062255859375,-0.112548828125,1.0795
0.42748091603053434,1.3282442748091603,-0.549618320610687,-0.4599609375,-0.06201171875,-0.10546875,1.0812
0.7175572519083969,1.1908396946564885,-0.42748091603053434,-0.464111328125,-0.06201171875,-0.104248046875,1.0829
0.5190839694656488,1.297709923664122,-0.6106870229007634,-0.464111328125,-0.065185546875,-0.105224609375,1.0846
0.0916030534351145,1.1908396946564885,-0.6870229007633588,-0.4638671875,-0.06640625,-0.100341796875,1.0863
0.3969465648854962,1.0687022900763359,-0.6717557251908397,-0.460693359375,-0.063720703125,-0.09765625,1.0879999999999999
0.22900763358778625,1.1145038167938932,-0.5954198473282443,-0.460693359375,-0.0654296875,-0.09716796875,1.0897
0.21374045801526717,1.0381679389312977,-0.5343511450381679,-0.45849609375,-0.066162109375,-0.098876953125,1.0914
0.2748091603053435,0.8549618320610687,-0.7175572519083969,-0.461181640625,-0.062744140625,-0.110595703125,1.0931
0.3969465648854962,0.916030534351145,-0.7022900763358778,-0.465087890625,-0.061279296875,-0.101806640625,1.0948
0.3053435114503817,0.8549618320610687,-0.9465648854961832,-0.459228515625,-0.061279296875,-0.103759765625,1.0965
0.6106870229007634,0.6259541984732825,-1.0229007633587786,-0.464111328125,-0.063720703125,-0.1015625,1.0981999999999998
0.8244274809160306,0.5648854961832062,-0.9923664122137404,-0.465576171875,-0.0634765625,-0.0986328125,1.0998999999999999
0.7786259541984732,0.6106870229007634,-1.0534351145038168,-0.460693359375,-0.060546875,-0.1015625,1.1016
0.7480916030534351,0.6106870229007634,-1.1908396946564885,-0.458740234375,-0.06005859375,-0.099853515625,1.1033
0.6412213740458015,0.6259541984732825,-1.2061068702290076,-0.463134765625,-0.064697265625,-0.10400390625,1.105
1.0229007633587786,0.6106870229007634,-1.2213740458015268,-0.46044921875,-0.05712890625,-0.103515625,1.1067
1.083969465648855,0.4732824427480916,-1.2061068702290076,-0.46142578125,-0.059326171875,-0.10400390625,1.1083999999999998
1.1755725190839694,0.22900763358778625,-1.3740458015267176,-0.4580078125,-0.060546875,-0.098388671875,1.1100999999999999
1.2213740458015268,0.366412213740458,-1.3893129770992367,-0.464111328125,-0.05859375,-0.0927734375,1.1118
1.3129770992366412,0.366412213740458,-1.4045801526717556,-0.461669921875,-0.059326171875,-0.102783203125,1.1135
1.4045801526717556,0.42748091603053434,-1.2213740458015268,-0.462158203125,-0.05908203125,-0.096923828125,1.1152
1.5419847328244274,0.2748091603053435,-1.4351145038167938,-0.463134765625,-0.06201171875,-0.105224609375,1.1169
1.5267175572519085,0.42748091603053434,-1.4198473282442747,-0.458984375,-0.05419921875,-0.101806640625,1.1186
1.4809160305343512,0.5801526717557252,-1.465648854961832,-0.4619140625,-0.05810546875,-0.10888671875,1.1202999999999999
1.4351145038167938,0.7175572519083969,-1.4809160305343512,-0.462158203125,-0.059326171875,-0.10009765625,1.1219999999999999
1.5572519083969465,0.5343511450381679,-1.5267175572519085,-0.4658203125,-0.058349609375,-0.1015625,1.1237
1.7251908396946565,0.5038167938931297,-1.450381679389313,-0.467529296875,-0.057861328125,-0.09619140625,1.1254
1.465648854961832,0.4732824427480916,-1.5572519083969465,-0.4638671875,-0.0576171875,-0.101318359375,1.1271
1.6641221374045803,0.5954198473282443,-1.465648854961832,-0.467041015625,-0.060302734375,-0.105224609375,1.1288
1.5114503816793894,0.7022900763358778,-1.633587786259542,-0.462158203125,-0.057861328125,-0.105712890625,1.1304999999999998
1.4961832061068703,0.7480916030534351,-1.4351145038167938,-0.4677734375,-0.0615234375,-0.109619140625,1.1321999999999999
1.2671755725190839,0.9923664122137404,-1.450381679389313,-0.464599609375,-0.05859375,-0.108154296875,1.1339
1.1450381679389312,0.9770992366412213,-1.3282442748091603,-0.46630859375,-0.065673828125,-0.105224609375,1.1356
1.1297709923664123,1.0534351145038168,-1.5877862595419847,-0.463623046875,-0.06640625,-0.10888671875,1.1373
1.0687022900763359,0.916030534351145,-1.4045801526717556,-0.46142578125,-0.061279296875,-0.109375,1.139
0.8549618320610687,1.0076335877862594,-1.450381679389313,-0.467041015625,-0.062255859375,-0.099609375,1.1407
0.8244274809160306,0.9465648854961832,-1.3129770992366412,-0.46435546875,-0.0625,-0.099609375,1.1423999999999999
0.8702290076335878,0.9465648854961832,-1.3740458015267176,-0.463134765625,-0.06494140625,-0.103271484375,1.1441
0.7633587786259542,1.1450381679389312,-1.297709923664122,-0.46875,-0.059814453125,-0.10498046875,1.1458
0.8244274809160306,1.1755725190839694,-1.3740458015267176,-0.4677734375,-0.06201171875,-0.107177734375,1.1475
0.9923664122137404,1.2061068702290076,-1.3435114503816794,-0.461669921875,-0.05810546875,-0.10791015625,1.1492
1.1450381679389312,1.4198473282442747,-1.1755725190839694,-0.46533203125,-0.0634765625,-0.114013671875,1.1509
0.916030534351145,1.5114503816793894,-1.251908396946565,-0.46484375,-0.06494140625,-0.11083984375,1.1525999999999998
1.1755725190839694,1.5572519083969465,-1.3740458015267176,-0.46728515625,-0.061279296875,-0.111328125,1.1542999999999999
1.1450381679389312,1.3893129770992367,-1.1755725190839694,-0.4658203125,-0.062255859375,-0.10888671875,1.156
0.7480916030534351,1.5267175572519085,-0.9465648854961832,-0.458251953125,-0.06298828125,-0.102783203125,1.1577
0.8396946564885496,1.5877862595419847,-0.8091603053435115,-0.4609375,-0.0615234375,-0.1025390625,1.1594
0.6564885496183206,1.5419847328244274,-1.099236641221374,-0.4638671875,-0.064208984375,-0.0986328125,1.1611
0.7022900763358778,1.297709923664122,-0.8396946564885496,-0.47021484375,-0.060302734375,-0.103271484375,1.1627999999999998
0.5954198473282443,1.4809160305343512,-0.8091603053435115,-0.467529296875,-0.054443359375,-0.102783203125,1.1644999999999999
0.24427480916030533,1.465648854961832,-0.9312977099236641,-0.46533203125,-0.056884765625,-0.11376953125,1.1662
0.3969465648854962,1.450381679389313,-0.8396946564885496,-0.46435546875,-0.057373046875,-0.104248046875,1.1679
0.22900763358778625,1.251908396946565,-0.7175572519083969,-0.46142578125,-0.057861328125,-0.10595703125,1.1696
-0.04580152671755725,1.2213740458015268,-0.6412213740458015,-0.466064453125,-0.06298828125,-0.109130859375,1.1713
-0.015267175572519083,1.1908396946564885,-0.3511450381679389,-0.462890625,-0.05859375,-0.103271484375,1.173
-0.030534351145038167,1.083969465648855,-0.6564885496183206,-0.46337890625,-0.055419921875,-0.096435546875,1.1746999999999999
-0.13740458015267176,1.0076335877862594,-0.5190839694656488,-0.46435546875,-0.0556640625,-0.100341796875,1.1764
-0.015267175572519083,0.7786259541984732,-0.5038167938931297,-0.46533203125,-0.052734375,-0.103271484375,1.1781
-0.183206106870229,0.7786259541984732,-0.3053435114503817,-0.464599609375,-0.055908203125,-0.10205078125,1.1798
-0.061068702290076333,0.8091603053435115,-0.3816793893129771,-0.458740234375,-0.0537109375,-0.09765625,1.1815
-0.015267175572519083,0.5038167938931297,-0.24427480916030533,-0.458251953125,-0.0595703125,-0.09619140625,1.1832
0.0916030534351145,0.6870229007633588,-0.3511450381679389,-0.46533203125,-0.0537109375,-0.096923828125,1.1848999999999998
0.13740458015267176,0.8091603053435115,-0.3816793893129771,-0.462646484375,-0.05419921875,-0.0986328125,1.1865999999999999
0.1984732824427481,0.5801526717557252,-0.5648854961832062,-0.46826171875,-0.05810546875,-0.085205078125,1.1883
0.5648854961832062,0.42748091603053434,-0.44274809160305345,-0.4638671875,-0.052978515625,-0.096435546875,1.19
0.5801526717557252,0.5190839694656488,-0.4580152671755725,-0.46484375,-0.054931640625,-0.095458984375,1.1917
0.9312977099236641,0.16793893129770993,-0.44274809160305345,-0.459716796875,-0.059326171875,-0.104248046875,1.1934
0.9618320610687023,0.12213740458015267,-0.6259541984732825,-0.463623046875,-0.057373046875,-0.1015625,1.1950999999999998
1.099236641221374,0.22900763358778625,-0.5190839694656488,-0.460693359375,-0.05224609375,-0.109375,1.1967999999999999
1.3893129770992367,0.2595419847328244,-0.7175572519083969,-0.460205078125,-0.05712890625,-0.106201171875,1.1985
1.3282442748091603,0.07633587786259542,-0.7175572519083969,-0.455078125,-0.062255859375,-0.097900390625,1.2002
1.450381679389313,-0.015267175572519083,-0.9312977099236641,-0.459716796875,-0.059326171875,-0.09716796875,1.2019
1.5267175572519085,-0.15267175572519084,-0.7938931297709924,-0.462158203125,-0.062255859375,-0.10009765625,1.2036
1.618320610687023,-0.10687022900763359,-0.9312977099236641,-0.45556640625,-0.060546875,-0.099365234375,1.2053
1.6793893129770991,-0.07633587786259542,-1.0381679389312977,-0.45556640625,-0.053466796875,-0.1025390625,1.2069999999999999
1.786259541984733,-0.07633587786259542,-1.1603053435114503,-0.466796875,-0.0546875,-0.096923828125,1.2086999999999999
1.7404580152671756,-0.07633587786259542,-1.0229007633587786,-0.465087890625,-0.057861328125,-0.099609375,1.2104
1.7557251908396947,-0.12213740458015267,-1.4809160305343512,-0.460693359375,-0.057861328125,-0.091796875,1.2121
1.8778625954198473,-0.13740458015267176,-1.3587786259541985,-0.466064453125,-0.05908203125,-0.103759765625,1.2138
1.9083969465648856,-0.04580152671755725,-1.4961832061068703,-0.46142578125,-0.06298828125,-0.1025390625,1.2155
1.8625954198473282,0.061068702290076333,-1.4809160305343512,-0.462158203125,-0.059814453125,-0.097900390625,1.2171999999999998
2.1374045801526718,-0.07633587786259542,-1.4809160305343512,-0.4638671875,-0.061279296875,-0.113037109375,1.2188999999999999
2.1526717557251906,-0.10687022900763359,-1.5572519083969465,-0.465576171875,-0.061279296875,-0.107177734375,1.2206
2.2748091603053435,0.04580152671755725,-1.7709923664122138,-0.461669921875,-0.059814453125,-0.099365234375,1.2223
2.2595419847328246,0.07633587786259542,-1.8625954198473282,-0.461669921875,-0.0576171875,-0.109130859375,1.224
2.0763358778625953,0.13740458015267176,-1.8473282442748091,-0.46142578125,-0.055419921875,-0.107177734375,1.2257
2.2748091603053435,0.2900763358778626,-1.7251908396946565,-0.461669921875,-0.0673828125,-0.104248046875,1.2273999999999998
2.3053435114503817,0.2748091603053435,-1.9541984732824427,-0.468017578125,-0.060302734375,-0.107666015625,1.2290999999999999
2.122137404580153,0.42748091603053434,-1.8473282442748091,-0.461669921875,-0.0634765625,-0.109375,1.2308
2.0916030534351147,0.48854961832061067,-2.1068702290076335,-0.45849609375,-0.06201171875,-0.10302734375,1.2325
2.16793893129771,0.4732824427480916,-2.0763358778625953,-0.46484375,-0.063720703125,-0.100341796875,1.2342
2.1374045801526718,0.732824427480916,-2.2442748091603053,-0.46044921875,-0.063720703125,-0.109130859375,1.2359
1.9694656488549618,0.7938931297709924,-2.030534351145038,-0.464599609375,-0.065185546875,-0.110595703125,1.2376
1.7404580152671756,0.9007633587786259,-2.198473282442748,-0.46875,-0.06396484375,-0.109619140625,1.2392999999999998
1.9083969465648856,0.8702290076335878,-2.015267175572519,-0.468994140625,-0.066650390625,-0.1044921875,1.2409999999999999
1.618320610687023,0.7938931297709924,-2.183206106870229,-0.463134765625,-0.065673828125,-0.10302734375,1.2427
1.5267175572519085,1.1297709923664123,-2.0610687022900764,-0.467041015625,-0.061279296875,-0.106201171875,1.2444
1.3740458015267176,1.099236641221374,-2.3053435114503817,-0.464599609375,-0.060791015625,-0.10107421875,1.2461
1.465648854961832,1.1603053435114503,-2.0763358778625953,-0.46435546875,-0.067138671875,-0.10888671875,1.2478
1.4809160305343512,1.1297709923664123,-2.183206106870229,-0.46337890625,-0.0673828125,-0.101806640625,1.2494999999999998
1.083969465648855,1.2213740458015268,-2.0916030534351147,-0.46923828125,-0.06201171875,-0.10791015625,1.2511999999999999
1.3893129770992367,1.1755725190839694,-2.381679389312977,-0.46728515625,-0.064697265625,-0.105224609375,1.2529
1.0076335877862594,1.1603053435114503,-2.0763358778625953,-0.469482421875,-0.058837890625,-0.10693359375,1.2546
1.0076335877862594,1.0381679389312977,-2.183206106870229,-0.462646484375,-0.062744140625,-0.111328125,1.2563
1.0534351145038168,0.9923664122137404,-2.2595419847328246,-0.463134765625,-0.061767578125,-0.1015625,1.258
0.7175572519083969,0.9770992366412213,-2.1374045801526718,-0.4638671875,-0.061767578125,-0.103759765625,1.2596999999999998
0.7175572519083969,1.0229007633587786,-2.1526717557251906,-0.466552734375,-0.06591796875,-0.107421875,1.2613999999999999
0.7786259541984732,1.0229007633587786,-2.2290076335877864,-0.45703125,-0.059326171875,-0.098388671875,1.2631
0.7786259541984732,1.0534351145038168,-2.030534351145038,-0.460693359375,-0.060546875,-0.10498046875,1.2648
0.6870229007633588,0.8702290076335878,-2.045801526717557,-0.456298828125,-0.059326171875,-0.105224609375,1.2665
0.5343511450381679,0.9007633587786259,-2.183206106870229,-0.459716796875,-0.06591796875,-0.1015625,1.2682
0.7480916030534351,0.9007633587786259,-1.984732824427481,-0.465087890625,-0.064208984375,-0.10205078125,1.2699
0.7022900763358778,1.0076335877862594,-1.984732824427481,-0.4638671875,-0.061279296875,-0.0986328125,1.2715999999999998
0.7022900763358778,0.8702290076335878,-2.122137404580153,-0.46435546875,-0.0673828125,-0.105224609375,1.2732999999999999
0.5801526717557252,0.9007633587786259,-1.9694656488549618,-0.466064453125,-0.062255859375,-0.10595703125,1.275
0.5801526717557252,0.916030534351145,-1.83206106870229,-0.465576171875,-0.05712890625,-0.099609375,1.2767
0.6259541984732825,0.8091603053435115,-1.984732824427481,-0.45751953125,-0.06103515625,-0.100830078125,1.2784
0.6259541984732825,0.9618320610687023,-1.8015267175572518,-0.464111328125,-0.064697265625,-0.103515625,1.2801
0.48854961832061067,0.9465648854961832,-1.8473282442748091,-0.46435546875,-0.06298828125,-0.10693359375,1.2817999999999998
0.7786259541984732,0.9312977099236641,-2.0,-0.458740234375,-0.06005859375,-0.104248046875,1.2834999999999999
0.6717557251908397,0.7938931297709924,-1.6641221374045803,-0.465087890625,-0.059326171875,-0.10546875,1.2852
0.5648854961832062,1.0229007633587786,-1.7099236641221374,-0.462646484375,-0.05419921875,-0.10693359375,1.2869
0.6717557251908397,0.7786259541984732,-1.6793893129770991,-0.463623046875,-0.05859375,-0.1103515625,1.2886
0.7175572519083969,0.8244274809160306,-1.9083969465648856,-0.463623046875,-0.0595703125,-0.11279296875,1.2903
0.8854961832061069,0.7786259541984732,-1.618320610687023,-0.46435546875,-0.059326171875,-0.107666015625,1.292
0.7480916030534351,0.8702290076335878,-1.4961832061068703,-0.46240234375,-0.05859375,-0.10986328125,1.2936999999999999
0.6717557251908397,0.9770992366412213,-1.633587786259542,-0.46142578125,-0.058349609375,-0.10205078125,1.2953999999999999
0.7480916030534351,0.9465648854961832,-1.5114503816793894,-0.46923828125,-0.057373046875,-0.10498046875,1.2971
0.9770992366412213,1.0229007633587786,-1.5725190839694656,-0.467041015625,-0.0556640625,-0.097900390625,1.2988
0.7480916030534351,1.0381679389312977,-1.5725190839694656,-0.46533203125,-0.057861328125,-0.099609375,1.3005
0.7938931297709924,0.9923664122137404,-1.3587786259541985,-0.46435546875,-0.065185546875,-0.10791015625,1.3022
0.7480916030534351,1.0381679389312977,-1.4961832061068703,-0.46435546875,-0.06396484375,-0.110107421875,1.3038999999999998
0.8854961832061069,1.0076335877862594,-1.5877862595419847,-0.462890625,-0.06298828125,-0.106201171875,1.3055999999999999
1.099236641221374,0.9312977099236641,-1.465648854961832,-0.46435546875,-0.06201171875,-0.10888671875,1.3073
1.0687022900763359,0.9618320610687023,-1.5114503816793894,-0.46337890625,-0.056884765625,-0.096923828125,1.309
1.0381679389312977,0.8702290076335878,-1.5877862595419847,-0.46728515625,-0.056884765625,-0.095703125,1.3107
1.0381679389312977,0.8549618320610687,-1.5725190839694656,-0.46630859375,-0.05859375,-0.098388671875,1.3124
1.282442748091603,0.8549618320610687,-1.5877862595419847,-0.464599609375,-0.0625,-0.107177734375,1.3140999999999998
1.2671755725190839,0.7022900763358778,-1.5725190839694656,-0.46240234375,-0.06103515625,-0.105224609375,1.3157999999999999
1.1603053435114503,0.732824427480916,-1.633587786259542,-0.466796875,-0.05908203125,-0.093505859375,1.3175
1.1603053435114503,0.6259541984732825,-1.465648854961832,-0.464599609375,-0.0615234375,-0.104736328125,1.3192
1.0687022900763359,0.5801526717557252,-1.4961832061068703,-0.46484375,-0.06005859375,-0.107421875,1.3209
1.297709923664122,0.7480916030534351,-1.6030534351145038,-0.4638671875,-0.058349609375,-0.10400390625,1.3226
1.1297709923664123,0.6717557251908397,-1.4961832061068703,-0.46337890625,-0.059814453125,-0.105224609375,1.3243
1.3435114503816794,0.6870229007633588,-1.3587786259541985,-0.4599609375,-0.057373046875,-0.095458984375,1.3259999999999998
1.0687022900763359,0.42748091603053434,-1.5114503816793894,-0.46240234375,-0.059814453125,-0.09765625,1.3276999999999999
1.2671755725190839,0.4580152671755725,-1.3129770992366412,-0.462158203125,-0.05859375,-0.10498046875,1.3294
1.1145038167938932,0.4580152671755725,-1.3587786259541985,-0.464111328125,-0.05859375,-0.114501953125,1.3311
0.9618320610687023,0.5801526717557252,-1.2213740458015268,-0.460693359375,-0.055908203125,-0.1103515625,1.3328
1.1450381679389312,0.5343511450381679,-1.1908396946564885,-0.464111328125,-0.05908203125,-0.094482421875,1.3345
1.1603053435114503,0.366412213740458,-1.4198473282442747,-0.467529296875,-0.060791015625,-0.097412109375,1.3361999999999998
1.0687022900763359,0.6106870229007634,-1.3740458015267176,-0.4619140625,-0.058349609375,-0.095947265625,1.3378999999999999
1.0534351145038168,0.42748091603053434,-1.1908396946564885,-0.463623046875,-0.066162109375,-0.105224609375,1.3396
1.1603053435114503,0.3816793893129771,-1.4351145038167938,-0.4638671875,-0.06103515625,-0.103271484375,1.3413
1.251908396946565,0.42748091603053434,-1.4198473282442747,-0.462890625,-0.0625,-0.095458984375,1.343
1.3282442748091603,0.48854961832061067,-1.6946564885496183,-0.46142578125,-0.06591796875,-0.102783203125,1.3447
1.3282442748091603,0.5190839694656488,-1.3282442748091603,-0.461181640625,-0.06640625,-0.099609375,1.3463999999999998
1.633587786259542,0.15267175572519084,-1.6793893129770991,-0.4658203125,-0.067626953125,-0.098876953125,1.3480999999999999
1.3740458015267176,0.13740458015267176,-1.465648854961832,-0.46728515625,-0.061279296875,-0.097900390625,1.3497999999999999
1.4045801526717556,-0.015267175572519083,-1.6641221374045803,-0.463134765625,-0.065673828125,-0.093017578125,1.3515
1.6488549618320612,-0.04580152671755725,-1.6793893129770991,-0.462158203125,-0.06494140625,-0.107177734375,1.3532
1.4198473282442747,-0.10687022900763359,-1.7709923664122138,-0.460205078125,-0.06640625,-0.10205078125,1.3549
1.6488549618320612,-0.1984732824427481,-1.7251908396946565,-0.458740234375,-0.061279296875,-0.09716796875,1.3566
1.633587786259542,-0.12213740458015267,-1.7404580152671756,-0.46533203125,-0.066162109375,-0.102294921875,1.3582999999999998
1.5725190839694656,-0.22900763358778625,-1.9083969465648856,-0.464599609375,-0.065185546875,-0.098388671875,1.3599999999999999
1.4351145038167938,-0.2748091603053435,-1.816793893129771,-0.46044921875,-0.0634765625,-0.103271484375,1.3617
1.6641221374045803,-0.22900763358778625,-1.7099236641221374,-0.458984375,-0.0625,-0.10302734375,1.3634
1.6946564885496183,-0.1984732824427481,-1.633587786259542,-0.462646484375,-0.060302734375,-0.095947265625,1.3651
1.6793893129770991,-0.183206106870229,-1.6488549618320612,-0.4580078125,-0.06787109375,-0.096923828125,1.3668
1.6641221374045803,-0.3816793893129771,-1.633587786259542,-0.46142578125,-0.0673828125,-0.101318359375,1.3684999999999998
1.5267175572519085,-0.3816793893129771,-1.6793893129770991,-0.461181640625,-0.061279296875,-0.1015625,1.3701999999999999
1.4809160305343512,-0.366412213740458,-1.6488549618320612,-0.46337890625,-0.06591796875,-0.1005859375,1.3719
1.297709923664122,-0.44274809160305345,-1.6946564885496183,-0.461181640625,-0.068603515625,-0.11083984375,1.3736
1.1145038167938932,-0.42748091603053434,-1.6488549618320612,-0.459716796875,-0.05908203125,-0.099365234375,1.3753
1.1908396946564885,-0.2900763358778626,-1.6793893129770991,-0.460205078125,-0.0595703125,-0.101318359375,1.377
0.8702290076335878,-0.6259541984732825,-1.450381679389313,-0.46044921875,-0.061767578125,-0.10595703125,1.3786999999999998
0.7633587786259542,-0.5954198473282443,-1.4045801526717556,-0.459228515625,-0.06298828125,-0.099365234375,1.3803999999999998
0.6717557251908397,-0.3969465648854962,-1.3740458015267176,-0.455810546875,-0.060791015625,-0.107421875,1.3820999999999999
0.6870229007633588,-0.3511450381679389,-1.3587786259541985,-0.46533203125,-0.0625,-0.10888671875,1.3838
0.4580152671755725,-0.366412213740458,-1.3740458015267176,-0.4697265625,-0.063720703125,-0.0986328125,1.3855
0.3053435114503817,-0.21374045801526717,-1.465648854961832,-0.465576171875,-0.05810546875,-0.108642578125,1.3872
0.6412213740458015,-0.2900763358778626,-1.3282442748091603,-0.460205078125,-0.05859375,-0.104736328125,1.3889
0.44274809160305345,-0.04580152671755725,-1.282442748091603,-0.463134765625,-0.06640625,-0.10595703125,1.3905999999999998
0.2748091603053435,-0.07633587786259542,-1.0534351145038168,-0.46484375,-0.058349609375,-0.1083984375,1.3922999999999999
0.2900763358778626,0.12213740458015267,-1.1908396946564885,-0.461181640625,-0.0595703125,-0.10595703125,1.394
0.12213740458015267,0.10687022900763359,-1.099236641221374,-0.462158203125,-0.0615234375,-0.10791015625,1.3957
0.21374045801526717,0.061068702290076333,-1.1450381679389312,-0.46533203125,-0.0556640625,-0.114501953125,1.3974
0.24427480916030533,0.0916030534351145,-1.1603053435114503,-0.462646484375,-0.0546875,-0.11181640625,1.3991
-0.015267175572519083,0.2748091603053435,-1.083969465648855,-0.458740234375,-0.0546875,-0.118408203125,1.4007999999999998
0.015267175572519083,0.2748091603053435,-1.1450381679389312,-0.460205078125,-0.05419921875,-0.10400390625,1.4024999999999999
0.2595419847328244,0.2748091603053435,-1.099236641221374,-0.4638671875,-0.0595703125,-0.109130859375,1.4042
0.21374045801526717,0.366412213740458,-0.9923664122137404,-0.465576171875,-0.0615234375,-0.112548828125,1.4059
0.32061068702290074,0.3053435114503817,-0.9007633587786259,-0.463623046875,-0.05859375,-0.10400390625,1.4076
0.07633587786259542,0.4122137404580153,-0.8244274809160306,-0.46142578125,-0.057373046875,-0.10595703125,1.4093
0.1984732824427481,0.6106870229007634,-0.8549618320610687,-0.462158203125,-0.0595703125,-0.107666015625,1.411
0.13740458015267176,0.5954198473282443,-0.7480916030534351,-0.464599609375,-0.05908203125,-0.099365234375,1.4126999999999998
0.16793893129770993,0.5648854961832062,-0.9007633587786259,-0.463134765625,-0.059326171875,-0.111083984375,1.4143999999999999
0.21374045801526717,0.5648854961832062,-0.7175572519083969,-0.463134765625,-0.062744140625,-0.11328125,1.4161
0.366412213740458,0.549618320610687,-0.8091603053435115,-0.4609375,-0.06201171875,-0.101318359375,1.4178
0.48854961832061067,0.8854961832061069,-0.7022900763358778,-0.4599609375,-0.0625,-0.1083984375,1.4195
0.42748091603053434,0.8854961832061069,-0.7633587786259542,-0.463134765625,-0.059326171875,-0.10791015625,1.4212
0.5038167938931297,0.8091603053435115,-0.6717557251908397,-0.460693359375,-0.063232421875,-0.09716796875,1.4228999999999998
0.48854961832061067,0.7786259541984732,-0.7175572519083969,-0.464599609375,-0.0625,-0.11376953125,1.4245999999999999
0.366412213740458,0.916030534351145,-0.7022900763358778,-0.4619140625,-0.062255859375,-0.103759765625,1.4263
0.7633587786259542,0.9923664122137404,-0.9618320610687023,-0.46142578125,-0.0634765625,-0.102294921875,1.428
0.7175572519083969,1.0381679389312977,-0.6870229007633588,-0.4619140625,-0.06298828125,-0.094482421875,1.4297
0.7786259541984732,0.9923664122137404,-0.8091603053435115,-0.46435546875,-0.059326171875,-0.107421875,1.4314
0.916030534351145,1.0687022900763359,-0.6564885496183206,-0.4619140625,-0.060302734375,-0.108642578125,1.4330999999999998
1.2366412213740459,1.3587786259541985,-0.7938931297709924,-0.461669921875,-0.060302734375,-0.09619140625,1.4347999999999999
1.2213740458015268,1.5419847328244274,-0.732824427480916,-0.458740234375,-0.065673828125,-0.09912109375,1.4364999999999999
1.2213740458015268,1.2671755725190839,-0.8854961832061069,-0.45947265625,-0.065185546875,-0.1025390625,1.4382
1.1908396946564885,1.6030534351145038,-0.7480916030534351,-0.467041015625,-0.067138671875,-0.108154296875,1.4399
1.5267175572519085,1.5419847328244274,-1.083969465648855,-0.462158203125,-0.059814453125,-0.10498046875,1.4416
1.5114503816793894,1.5114503816793894,-0.916030534351145,-0.4658203125,-0.063232421875,-0.105224609375,1.4433
1.3129770992366412,1.5114503816793894,-1.0534351145038168,-0.46728515625,-0.065673828125,-0.10107421875,1.4449999999999998
1.4351145038167938,1.6793893129770991,-0.8549618320610687,-0.462158203125,-0.065673828125,-0.09521484375,1.4466999999999999
1.1908396946564885,1.7709923664122138,-1.2213740458015268,-0.47021484375,-0.06298828125,-0.11376953125,1.4484
1.0534351145038168,1.6030534351145038,-0.9923664122137404,-0.467529296875,-0.06494140625,-0.11181640625,1.4501
1.1755725190839694,1.633587786259542,-1.0534351145038168,-0.4677734375,-0.06201171875,-0.10107421875,1.4518
1.099236641221374,1.8473282442748091,-1.0534351145038168,-0.468994140625,-0.069091796875,-0.099609375,1.4535
1.0229007633587786,1.786259541984733,-1.1603053435114503,-0.469482421875,-0.06689453125,-0.09619140625,1.4551999999999998
1.0381679389312977,1.4809160305343512,-1.2061068702290076,-0.46728515625,-0.06884765625,-0.106201171875,1.4568999999999999
0.7786259541984732,1.465648854961832,-1.1603053435114503,-0.47265625,-0.062744140625,-0.095458984375,1.4586
0.8396946564885496,1.465648854961832,-1.251908396946565,-0.470703125,-0.067138671875,-0.099853515625,1.4603
0.8396946564885496,1.5725190839694656,-1.2213740458015268,-0.46728515625,-0.06787109375,-0.09423828125,1.462
0.6259541984732825,1.3435114503816794,-1.0534351145038168,-0.46826171875,-0.068359375,-0.090087890625,1.4637
0.3816793893129771,1.4045801526717556,-1.2213740458015268,-0.46630859375,-0.068603515625,-0.10791015625,1.4653999999999998
0.2748091603053435,1.099236641221374,-1.2671755725190839,-0.467529296875,-0.069580078125,-0.10595703125,1.4670999999999998
0.4122137404580153,0.9007633587786259,-1.3893129770992367,-0.46826171875,-0.06494140625,-0.100830078125,1.4687999999999999
0.12213740458015267,1.0076335877862594,-1.2213740458015268,-0.472412109375,-0.06591796875,-0.10595703125,1.4705
-0.061068702290076333,0.9770992366412213,-1.1755725190839694,-0.470703125,-0.063720703125,-0.107421875,1.4722
-0.12213740458015267,0.8702290076335878,-1.0687022900763359,-0.47216796875,-0.060791015625,-0.110595703125,1.4739
-0.015267175572519083,1.1145038167938932,-1.1755725190839694,-0.46484375,-0.06640625,-0.109130859375,1.4756
-0.061068702290076333,0.8854961832061069,-1.1603053435114503,-0.466064453125,-0.06396484375,-0.106689453125,1.4772999999999998
-0.1984732824427481,0.7786259541984732,-1.0381679389312977,-0.46923828125,-0.063232421875,-0.1123046875,1.4789999999999999
-0.2900763358778626,0.7480916030534351,-0.8396946564885496,-0.46630859375,-0.061279296875,-0.103271484375,1.4807
-0.6259541984732825,0.6564885496183206,-1.0381679389312977,-0.466552734375,-0.061767578125,-0.103271484375,1.4824
-0.4580152671755725,0.5343511450381679,-0.8244274809160306,-0.4697265625,-0.06396484375,-0.102783203125,1.4841
-0.6564885496183206,0.6259541984732825,-0.9923664122137404,-0.466796875,-0.05859375,-0.10107421875,1.4858
-0.6717557251908397,0.48854961832061067,-0.6564885496183206,-0.464599609375,-0.0615234375,-0.1025390625,1.4874999999999998
-0.9770992366412213,0.1984732824427481,-0.7480916030534351,-0.465576171875,-0.057373046875,-0.099853515625,1.4891999999999999
-0.7175572519083969,0.2595419847328244,-0.6106870229007634,-0.4677734375,-0.060791015625,-0.10498046875,1.4909
-0.7480916030534351,0.2748091603053435,-0.8396946564885496,-0.463623046875,-0.058837890625,-0.096435546875,1.4926
-0.8091603053435115,0.16793893129770993,-0.44274809160305345,-0.465576171875,-0.0576171875,-0.103759765625,1.4943
-0.5648854961832062,0.32061068702290074,-0.4732824427480916,-0.468505859375,-0.058837890625,-0.096923828125,1.496
-0.7480916030534351,0.13740458015267176,-0.32061068702290074,-0.46484375,-0.059814453125,-0.103271484375,1.4976999999999998
-0.8854961832061069,0.15267175572519084,-0.42748091603053434,-0.460693359375,-0.058349609375,-0.106201171875,1.4993999999999998
-0.7786259541984732,0.183206106870229,-0.0916030534351145,-0.464111328125,-0.05517578125,-0.104736328125,1.5010999999999999
-0.4580152671755725,0.015267175572519083,-0.3511450381679389,-0.463134765625,-0.054931640625,-0.097900390625,1.5028
-0.5954198473282443,-0.0916030534351145,-0.15267175572519084,-0.4619140625,-0.05859375,-0.111083984375,1.5045
-0.7480916030534351,0.12213740458015267,-0.16793893129770993,-0.46044921875,-0.061767578125,-0.097412109375,1.5062
-0.4732824427480916,0.0916030534351145,-0.13740458015267176,-0.463623046875,-0.058837890625,-0.095703125,1.5079
-0.32061068702290074,-0.04580152671755725,-0.22900763358778625,-0.468505859375,-0.05908203125,-0.0947265625,1.5095999999999998
-0.42748091603053434,0.0916030534351145,-0.07633587786259542,-0.46484375,-0.054931640625,-0.098876953125,1.5112999999999999
-0.22900763358778625,-0.030534351145038167,-0.10687022900763359,-0.466552734375,-0.053955078125,-0.099609375,1.513
0.015267175572519083,0.12213740458015267,-0.24427480916030533,-0.4599609375,-0.055908203125,-0.098876953125,1.5147
-0.061068702290076333,0.1984732824427481,-0.16793893129770993,-0.46044921875,-0.058349609375,-0.100341796875,1.5164
0.3053435114503817,0.2595419847328244,-0.22900763358778625,-0.463134765625,-0.055419921875,-0.103271484375,1.5181
0.3053435114503817,0.3053435114503817,-0.32061068702290074,-0.46240234375,-0.05810546875,-0.1083984375,1.5197999999999998
0.16793893129770993,0.44274809160305345,-0.22900763358778625,-0.462158203125,-0.059814453125,-0.09619140625,1.5214999999999999
0.2595419847328244,0.5038167938931297,-0.21374045801526717,-0.45947265625,-0.056640625,-0.098876953125,1.5231999999999999
0.44274809160305345,0.5648854961832062,-0.33587786259541985,-0.46240234375,-0.059326171875,-0.103759765625,1.5249
0.5038167938931297,0.7022900763358778,-0.42748091603053434,-0.463623046875,-0.05859375,-0.107666015625,1.5266
0.44274809160305345,0.9007633587786259,-0.24427480916030533,-0.466064453125,-0.059326171875,-0.103759765625,1.5283
0.2748091603053435,0.9007633587786259,-0.5190839694656488,-0.463134765625,-0.056640625,-0.115234375,1.5299999999999998
0.4122137404580153,1.1908396946564885,-0.4732824427480916,-0.4619140625,-0.056396484375,-0.113037109375,1.5316999999999998
0.42748091603053434,0.9770992366412213,-0.7022900763358778,-0.459716796875,-0.05859375,-0.111572265625,1.5333999999999999
0.366412213740458,1.1450381679389312,-0.5190839694656488,-0.46875,-0.065185546875,-0.10205078125,1.5351
0.21374045801526717,1.2213740458015268,-0.6106870229007634,-0.462646484375,-0.059814453125,-0.1083984375,1.5368
0.24427480916030533,1.0687022900763359,-0.6870229007633588,-0.4677734375,-0.061279296875,-0.10888671875,1.5385
0.21374045801526717,1.3435114503816794,-0.7786259541984732,-0.468505859375,-0.060546875,-0.11083984375,1.5402
0.21374045801526717,1.3435114503816794,-0.6717557251908397,-0.47021484375,-0.058349609375,-0.107421875,1.5418999999999998
0.33587786259541985,1.3893129770992367,-0.7938931297709924,-0.4658203125,-0.054931640625,-0.10498046875,1.5435999999999999
0.2595419847328244,1.3740458015267176,-0.6564885496183206,-0.465576171875,-0.05615234375,-0.10986328125,1.5453
0.07633587786259542,1.5114503816793894,-0.8549618320610687,-0.463134765625,-0.05908203125,-0.10791015625,1.547
0.21374045801526717,1.7709923664122138,-0.9618320610687023,-0.4609375,-0.0615234375,-0.10693359375,1.5487
0.32061068702290074,1.5725190839694656,-0.9923664122137404,-0.46630859375,-0.05859375,-0.103759765625,1.5504
0.32061068702290074,1.6946564885496183,-0.8702290076335878,-0.464599609375,-0.064697265625,-0.10693359375,1.5520999999999998
0.21374045801526717,1.8473282442748091,-0.9007633587786259,-0.466064453125,-0.067138671875,-0.109619140625,1.5537999999999998
0.0916030534351145,1.8015267175572518,-0.9007633587786259,-0.46533203125,-0.068115234375,-0.109130859375,1.5554999999999999
0.2595419847328244,1.8015267175572518,-1.0229007633587786,-0.465087890625,-0.0625,-0.110107421875,1.5572
0.2748091603053435,1.83206106870229,-0.9923664122137404,-0.46240234375,-0.0625,-0.103759765625,1.5589
-0.030534351145038167,1.7404580152671756,-0.8702290076335878,-0.46044921875,-0.06494140625,-0.097412109375,1.5606
-0.3969465648854962,1.6030534351145038,-0.9465648854961832,-0.4609375,-0.062744140625,-0.095458984375,1.5623
-0.10687022900763359,1.5725190839694656,-0.9007633587786259,-0.46728515625,-0.05810546875,-0.103515625,1.5639999999999998
-0.061068702290076333,1.618320610687023,-0.9923664122137404,-0.46533203125,-0.061767578125,-0.1064453125,1.5656999999999999
-0.13740458015267176,1.8473282442748091,-1.0381679389312977,-0.4658203125,-0.052978515625,-0.1025390625,1.5674
-0.33587786259541985,1.7557251908396947,-0.8854961832061069,-0.465576171875,-0.0634765625,-0.098876953125,1.5691
-0.33587786259541985,1.7099236641221374,-0.8396946564885496,-0.462646484375,-0.05859375,-0.102783203125,1.5708
-0.2595419847328244,1.8778625954198473,-0.8854961832061069,-0.461181640625,-0.057373046875,-0.097412109375,1.5725
-0.549618320610687,1.7099236641221374,-0.8702290076335878,-0.463134765625,-0.057861328125,-0.1015625,1.5741999999999998
-0.5038167938931297,1.816793893129771,-0.9312977099236641,-0.469970703125,-0.054931640625,-0.102294921875,1.5758999999999999
-0.4732824427480916,1.9236641221374047,-0.9618320610687023,-0.46630859375,-0.052978515625,-0.103515625,1.5776
-0.2900763358778626,1.6641221374045803,-0.9007633587786259,-0.464599609375,-0.064697265625,-0.10791015625,1.5793
-0.4122137404580153,1.7099236641221374,-0.916030534351145,-0.459716796875,-0.055908203125,-0.095947265625,1.581
-0.5190839694656488,1.7099236641221374,-0.8702290076335878,-0.460693359375,-0.063232421875,-0.094970703125,1.5827
-0.4122137404580153,1.5725190839694656,-0.9923664122137404,-0.460205078125,-0.05810546875,-0.09423828125,1.5843999999999998
-0.48854961832061067,1.5419847328244274,-0.9618320610687023,-0.46435546875,-0.063232421875,-0.101318359375,1.5860999999999998
-0.6717557251908397,1.5419847328244274,-0.8244274809160306,-0.46630859375,-0.058837890625,-0.101806640625,1.5877999999999999
-0.6259541984732825,1.5725190839694656,-0.8854961832061069,-0.463623046875,-0.053955078125,-0.103271484375,1.5895
-0.5801526717557252,1.5419847328244274,-1.0229007633587786,-0.4599609375,-0.05712890625,-0.1005859375,1.5912
-0.3816793893129771,1.5572519083969465,-0.8396946564885496,-0.466796875,-0.05322265625,-0.095947265625,1.5929
-0.32061068702290074,1.6641221374045803,-1.0076335877862594,-0.460205078125,-0.055419921875,-0.094482421875,1.5946
-0.2900763358778626,1.6641221374045803,-0.8396946564885496,-0.461669921875,-0.056884765625,-0.1025390625,1.5962999999999998
-0.3053435114503817,1.4045801526717556,-1.0076335877862594,-0.463134765625,-0.05615234375,-0.10302734375,1.5979999999999999
-0.42748091603053434,1.4809160305343512,-0.9770992366412213,-0.46337890625,-0.060791015625,-0.1015625,1.5997
-0.4122137404580153,1.465648854961832,-0.916030534351145,-0.46337890625,-0.056396484375,-0.1044921875,1.6014
-0.2900763358778626,1.5419847328244274,-1.099236641221374,-0.466064453125,-0.051513671875,-0.103515625,1.6031
-0.366412213740458,1.4961832061068703,-0.8091603053435115,-0.466796875,-0.055419921875,-0.101318359375,1.6048
-0.16793893129770993,1.5419847328244274,-1.083969465648855,-0.462158203125,-0.059814453125,-0.107421875,1.6064999999999998
-0.15267175572519084,1.4809160305343512,-1.0687022900763359,-0.463134765625,-0.0615234375,-0.100341796875,1.6081999999999999
-0.0916030534351145,1.4045801526717556,-1.0076335877862594,-0.46630859375,-0.061279296875,-0.09814453125,1.6098999999999999
0.2748091603053435,1.297709923664122,-1.1755725190839694,-0.463134765625,-0.061767578125,-0.101318359375,1.6116
0.24427480916030533,1.465648854961832,-1.3587786259541985,-0.46533203125,-0.056884765625,-0.09521484375,1.6133
0.2900763358778626,1.2366412213740459,-1.083969465648855,-0.4697265625,-0.0595703125,-0.1005859375,1.615
0.549618320610687,1.2366412213740459,-1.1755725190839694,-0.469482421875,-0.05859375,-0.102294921875,1.6166999999999998
0.4580152671755725,1.1755725190839694,-1.251908396946565,-0.46435546875,-0.0576171875,-0.104248046875,1.6183999999999998
0.32061068702290074,1.2366412213740459,-1.297709923664122,-0.462646484375,-0.052490234375,-0.09765625,1.6200999999999999
0.5801526717557252,1.1450381679389312,-1.251908396946565,-0.465576171875,-0.05419921875,-0.100830078125,1.6218
0.5190839694656488,1.251908396946565,-1.2366412213740459,-0.46826171875,-0.055908203125,-0.10546875,1.6235
0.42748091603053434,1.1755725190839694,-1.2671755725190839,-0.466552734375,-0.056640625,-0.101318359375,1.6252
0.48854961832061067,1.099236641221374,-1.3740458015267176,-0.46435546875,-0.054931640625,-0.103759765625,1.6269
0.3969465648854962,1.083969465648855,-1.251908396946565,-0.46240234375,-0.051513671875,-0.098876953125,1.6285999999999998
0.4732824427480916,1.251908396946565,-1.3435114503816794,-0.46484375,-0.055419921875,-0.111572265625,1.6302999999999999
0.6106870229007634,1.2213740458015268,-1.2366412213740459,-0.464599609375,-0.05908203125,-0.103515625,1.632
0.3816793893129771,1.2366412213740459,-1.099236641221374,-0.462158203125,-0.056396484375,-0.106201171875,1.6337
0.549618320610687,1.2671755725190839,-1.083969465648855,-0.46435546875,-0.058349609375,-0.10302734375,1.6354
0.44274809160305345,1.1145038167938932,-1.2061068702290076,-0.465576171875,-0.05908203125,-0.107666015625,1.6371
0.4122137404580153,1.0687022900763359,-1.297709923664122,-0.46337890625,-0.05810546875,-0.1025390625,1.6387999999999998
0.3816793893129771,1.2671755725190839,-1.1908396946564885,-0.46044921875,-0.055908203125,-0.10400390625,1.6404999999999998
0.42748091603053434,1.3587786259541985,-1.1603053435114503,-0.463623046875,-0.05712890625,-0.11279296875,1.6421999999999999
0.33587786259541985,1.297709923664122,-1.3129770992366412,-0.464599609375,-0.0556640625,-0.11083984375,1.6439
0.33587786259541985,1.3893129770992367,-1.1603053435114503,-0.465576171875,-0.0546875,-0.10302734375,1.6456
0.44274809160305345,1.2671755725190839,-1.2671755725190839,-0.46875,-0.056640625,-0.103759765625,1.6473
0.6717557251908397,1.5267175572519085,-1.099236641221374,-0.4658203125,-0.05908203125,-0.103515625,1.6489999999999998
0.44274809160305345,1.3893129770992367,-1.1908396946564885,-0.465087890625,-0.056396484375,-0.102783203125,1.6506999999999998
0.7022900763358778,1.4045801526717556,-1.2213740458015268,-0.4658203125,-0.055419921875,-0.10400390625,1.6523999999999999
0.5343511450381679,1.4198473282442747,-1.3129770992366412,-0.468994140625,-0.059326171875,-0.1015625,1.6541
0.6564885496183206,1.6488549618320612,-1.2366412213740459,-0.467041015625,-0.05908203125,-0.099609375,1.6558
0.6412213740458015,1.5419847328244274,-1.282442748091603,-0.47216796875,-0.063232421875,-0.105224609375,1.6575
0.5343511450381679,1.5419847328244274,-1.1603053435114503,-0.462646484375,-0.052978515625,-0.10986328125,1.6592
0.6870229007633588,1.3282442748091603,-1.297709923664122,-0.46728515625,-0.05615234375,-0.1083984375,1.6608999999999998
0.6564885496183206,1.4198473282442747,-1.3740458015267176,-0.463623046875,-0.056396484375,-0.102294921875,1.6625999999999999
0.5038167938931297,1.4045801526717556,-1.450381679389313,-0.4677734375,-0.059814453125,-0.1064453125,1.6643
0.44274809160305345,1.7251908396946565,-1.1755725190839694,-0.46630859375,-0.05615234375,-0.107177734375,1.666
0.6717557251908397,1.4961832061068703,-1.3282442748091603,-0.46630859375,-0.059326171875,-0.100830078125,1.6677
0.7938931297709924,1.4961832061068703,-1.2366412213740459,-0.46923828125,-0.053466796875,-0.103515625,1.6694
0.8091603053435115,1.6793893129770991,-1.2671755725190839,-0.4677734375,-0.0625,-0.111328125,1.6710999999999998
0.8549618320610687,1.816793893129771,-1.0381679389312977,-0.466064453125,-0.058349609375,-0.10107421875,1.6727999999999998
0.732824427480916,1.7404580152671756,-1.1297709923664123,-0.470458984375,-0.05615234375,-0.112548828125,1.6744999999999999
0.7022900763358778,1.7099236641221374,-1.2061068702290076,-0.461669921875,-0.055908203125,-0.103759765625,1.6762
1.1145038167938932,1.7404580152671756,-1.1908396946564885,-0.4677734375,-0.055419921875,-0.1005859375,1.6779
0.8396946564885496,1.7099236641221374,-1.1603053435114503,-0.471435546875,-0.056396484375,-0.10888671875,1.6796
0.8091603053435115,1.8931297709923665,-1.3129770992366412,-0.466796875,-0.060791015625,-0.107666015625,1.6813
0.8091603053435115,1.816793893129771,-1.2213740458015268,-0.46484375,-0.064208984375,-0.1083984375,1.6829999999999998
1.083969465648855,2.045801526717557,-1.251908396946565,-0.467041015625,-0.05908203125,-0.106201171875,1.6846999999999999
1.2213740458015268,2.030534351145038,-1.099236641221374,-0.468505859375,-0.060791015625,-0.1064453125,1.6864
1.3129770992366412,2.16793893129771,-1.251908396946565,-0.466796875,-0.057861328125,-0.0986328125,1.6881
1.3129770992366412,2.213740458015267,-1.1908396946564885,-0.463623046875,-0.06005859375,-0.1005859375,1.6898
1.4045801526717556,2.1068702290076335,-1.3435114503816794,-0.460693359375,-0.05712890625,-0.1123046875,1.6915
1.618320610687023,2.1374045801526718,-1.251908396946565,-0.4638671875,-0.059326171875,-0.103515625,1.6931999999999998
1.7099236641221374,2.183206106870229,-1.3740458015267176,-0.4619140625,-0.0625,-0.10009765625,1.6948999999999999
1.7404580152671756,2.3053435114503817,-1.282442748091603,-0.4609375,-0.060302734375,-0.100830078125,1.6965999999999999
1.8625954198473282,2.183206106870229,-1.4351145038167938,-0.463623046875,-0.060546875,-0.095947265625,1.6983
2.045801526717557,2.3053435114503817,-1.4809160305343512,-0.462646484375,-0.054443359375,-0.101318359375,1.7
1.984732824427481,2.213740458015267,-1.6030534351145038,-0.46337890625,-0.06005859375,-0.097412109375,1.7017
2.015267175572519,2.213740458015267,-1.1908396946564885,-0.46044921875,-0.05810546875,-0.11083984375,1.7033999999999998
1.7709923664122138,2.4427480916030535,-1.4045801526717556,-0.461181640625,-0.056396484375,-0.100830078125,1.7050999999999998
1.8015267175572518,2.351145038167939,-1.1450381679389312,-0.462158203125,-0.059326171875,-0.104248046875,1.7067999999999999
2.122137404580153,2.3053435114503817,-1.282442748091603,-0.46533203125,-0.06103515625,-0.108642578125,1.7085
1.83206106870229,2.3969465648854964,-1.282442748091603,-0.465087890625,-0.06005859375,-0.1044921875,1.7102
1.9236641221374047,2.33587786259542,-1.3893129770992367,-0.460205078125,-0.0537109375,-0.1044921875,1.7119
1.6793893129770991,2.2442748091603053,-1.1450381679389312,-0.458740234375,-0.05517578125,-0.1044921875,1.7136
1.6946564885496183,2.045801526717557,-1.2366412213740459,-0.462158203125,-0.0615234375,-0.100830078125,1.7152999999999998
1.7709923664122138,2.183206106870229,-1.0381679389312977,-0.4677734375,-0.06640625,-0.094970703125,1.7169999999999999
1.6946564885496183,1.8931297709923665,-1.1755725190839694,-0.4609375,-0.060791015625,-0.098876953125,1.7187
1.5267175572519085,1.83206106870229,-0.9618320610687023,-0.460693359375,-0.062255859375,-0.09423828125,1.7204
1.5877862595419847,1.9694656488549618,-1.1145038167938932,-0.46044921875,-0.06396484375,-0.10009765625,1.7221
1.5267175572519085,1.8931297709923665,-0.9618320610687023,-0.461181640625,-0.061767578125,-0.0986328125,1.7238
1.3587786259541985,1.7404580152671756,-1.0687022900763359,-0.461669921875,-0.0654296875,-0.1015625,1.7254999999999998
1.3893129770992367,1.6946564885496183,-1.099236641221374,-0.462646484375,-0.065185546875,-0.09033203125,1.7271999999999998
1.2213740458015268,1.8625954198473282,-1.1145038167938932,-0.46337890625,-0.061279296875,-0.097412109375,1.7288999999999999
1.297709923664122,1.6793893129770991,-0.9923664122137404,-0.4580078125,-0.065185546875,-0.103271484375,1.7306
1.4045801526717556,1.5572519083969465,-1.0229007633587786,-0.461181640625,-0.060302734375,-0.102783203125,1.7323
1.099236641221374,1.4045801526717556,-1.0381679389312977,-0.46435546875,-0.06298828125,-0.094970703125,1.734
1.1603053435114503,1.5114503816793894,-1.2213740458015268,-0.462890625,-0.059814453125,-0.099609375,1.7356999999999998
0.9465648854961832,1.450381679389313,-1.1755725190839694,-0.45849609375,-0.060546875,-0.1015625,1.7373999999999998
1.0076335877862594,1.2366412213740459,-1.2366412213740459,-0.461181640625,-0.06396484375,-0.0986328125,1.7390999999999999
0.9312977099236641,1.1297709923664123,-0.9465648854961832,-0.45556640625,-0.06201171875,-0.101806640625,1.7408
0.7022900763358778,0.9618320610687023,-0.9923664122137404,-0.4609375,-0.062744140625,-0.102783203125,1.7425
0.6564885496183206,1.1145038167938932,-1.2061068702290076,-0.462158203125,-0.064208984375,-0.098388671875,1.7442
0.5648854961832062,1.0534351145038168,-1.3129770992366412,-0.463134765625,-0.058349609375,-0.099365234375,1.7459
0.549618320610687,0.9618320610687023,-1.1450381679389312,-0.4619140625,-0.06396484375,-0.105712890625,1.7475999999999998
0.366412213740458,0.7786259541984732,-1.3435114503816794,-0.460693359375,-0.05712890625,-0.10302734375,1.7492999999999999
0.3053435114503817,1.0076335877862594,-1.1450381679389312,-0.4619140625,-0.05859375,-0.1083984375,1.751
0.2900763358778626,0.9312977099236641,-1.3129770992366412,-0.460693359375,-0.0654296875,-0.10595703125,1.7527
0.4580152671755725,0.8396946564885496,-1.1603053435114503,-0.459228515625,-0.0634765625,-0.10498046875,1.7544
0.22900763358778625,0.7786259541984732,-1.1755725190839694,-0.462890625,-0.067626953125,-0.096923828125,1.7561
0.21374045801526717,0.8702290076335878,-1.4351145038167938,-0.4580078125,-0.063720703125,-0.101806640625,1.7577999999999998
0.5343511450381679,1.1297709923664123,-1.282442748091603,-0.466552734375,-0.063232421875,-0.104248046875,1.7594999999999998
0.7633587786259542,1.0381679389312977,-1.1908396946564885,-0.465087890625,-0.060302734375,-0.100830078125,1.7611999999999999
0.732824427480916,1.083969465648855,-1.2213740458015268,-0.458984375,-0.05908203125,-0.095947265625,1.7629
0.7786259541984732,1.1145038167938932,-1.0687022900763359,-0.46533203125,-0.059326171875,-0.0986328125,1.7646
1.2061068702290076,1.1297709923664123,-1.4198473282442747,-0.46484375,-0.060791015625,-0.100830078125,1.7663
1.3282442748091603,1.083969465648855,-1.251908396946565,-0.462158203125,-0.061767578125,-0.10302734375,1.7679999999999998
1.0687022900763359,1.2366412213740459,-1.4961832061068703,-0.46435546875,-0.061279296875,-0.102783203125,1.7696999999999998
1.0687022900763359,1.2213740458015268,-1.3893129770992367,-0.467529296875,-0.0634765625,-0.096435546875,1.7713999999999999
1.633587786259542,1.282442748091603,-1.3129770992366412,-0.461669921875,-0.061767578125,-0.100830078125,1.7731
1.5114503816793894,1.2213740458015268,-1.5877862595419847,-0.456787109375,-0.0634765625,-0.10791015625,1.7748
1.4351145038167938,1.3129770992366412,-1.3740458015267176,-0.460693359375,-0.064208984375,-0.095703125,1.7765
1.633587786259542,1.5725190839694656,-1.450381679389313,-0.46630859375,-0.05908203125,-0.109130859375,1.7782
1.5114503816793894,1.6030534351145038,-1.5267175572519085,-0.46240234375,-0.060546875,-0.11083984375,1.7798999999999998
1.5114503816793894,1.3893129770992367,-1.4198473282442747,-0.464599609375,-0.06103515625,-0.104736328125,1.7815999999999999
1.7709923664122138,1.5267175572519085,-1.3740458015267176,-0.46826171875,-0.05859375,-0.10400390625,1.7832999999999999
1.618320610687023,1.6793893129770991,-1.3740458015267176,-0.46533203125,-0.056884765625,-0.10009765625,1.785
