gyrox1,gyroy1,gyroz1,accelx1,accely1,accelz1,Time
0.22900763358778625,1.1603053435114503,-1.297709923664122,0.0810546875,-0.0849609375,-0.5947265625,0.0
0.44274809160305345,1.1755725190839694,-1.4351145038167938,0.075439453125,-0.0810546875,-0.607666015625,0.0017
0.15267175572519084,1.3587786259541985,-1.3435114503816794,0.077880859375,-0.086181640625,-0.5927734375,0.0034
0.10687022900763359,1.1145038167938932,-1.465648854961832,0.07666015625,-0.083984375,-0.59814453125,0.0050999999999999995
0.21374045801526717,0.9618320610687023,-1.450381679389313,0.078125,-0.08544921875,-0.5986328125,0.0068
-0.10687022900763359,1.099236641221374,-1.6793893129770991,0.08251953125,-0.080322265625,-0.59619140625,0.008499999999999999
-0.030534351145038167,1.083969465648855,-1.251908396946565,0.078369140625,-0.080810546875,-0.600830078125,0.010199999999999999
-0.15267175572519084,1.2061068702290076,-1.5572519083969465,0.07421875,-0.082275390625,-0.59619140625,0.011899999999999999
-0.5343511450381679,1.083969465648855,-1.5419847328244274,0.080322265625,-0.079833984375,-0.599365234375,0.0136
-0.5954198473282443,1.297709923664122,-1.465648854961832,0.079345703125,-0.0791015625,-0.605224609375,0.0153
-0.6717557251908397,1.297709923664122,-1.3740458015267176,0.081787109375,-0.078857421875,-0.599609375,0.016999999999999998
-0.7786259541984732,1.4198473282442747,-1.450381679389313,0.07666015625,-0.078857421875,-0.5986328125,0.018699999999999998
-0.9770992366412213,1.4809160305343512,-1.3893129770992367,0.08154296875,-0.080078125,-0.603515625,0.020399999999999998
-0.9465648854961832,1.465648854961832,-1.4198473282442747,0.078369140625,-0.080078125,-0.604736328125,0.022099999999999998
-0.9007633587786259,1.3587786259541985,-1.450381679389313,0.078125,-0.078857421875,-0.596923828125,0.023799999999999998
-0.8549618320610687,1.4351145038167938,-1.450381679389313,0.078857421875,-0.07958984375,-0.60546875,0.0255
-0.5038167938931297,1.5114503816793894,-1.4045801526717556,0.07861328125,-0.081298828125,-0.604736328125,0.0272
-0.3969465648854962,1.5877862595419847,-1.465648854961832,0.075439453125,-0.0830078125,-0.6005859375,0.0289
-0.24427480916030533,1.5572519083969465,-1.282442748091603,0.074462890625,-0.07763671875,-0.6005859375,0.0306
-0.12213740458015267,1.3587786259541985,-1.6641221374045803,0.077880859375,-0.078857421875,-0.598388671875,0.032299999999999995
-0.0916030534351145,1.282442748091603,-1.5725190839694656,0.0810546875,-0.081298828125,-0.599609375,0.033999999999999996
0.061068702290076333,1.4045801526717556,-1.450381679389313,0.077880859375,-0.073486328125,-0.60302734375,0.035699999999999996
0.07633587786259542,1.4809160305343512,-1.2213740458015268,0.0810546875,-0.079345703125,-0.601806640625,0.037399999999999996
0.10687022900763359,1.4351145038167938,-1.4198473282442747,0.081298828125,-0.081298828125,-0.605224609375,0.039099999999999996
0.22900763358778625,1.6030534351145038,-1.4198473282442747,0.0732421875,-0.075439453125,-0.604736328125,0.040799999999999996
0.2748091603053435,1.7251908396946565,-1.3282442748091603,0.07373046875,-0.076416015625,-0.605224609375,0.042499999999999996
0.2595419847328244,1.5725190839694656,-1.2671755725190839,0.07275390625,-0.07763671875,-0.59912109375,0.044199999999999996
0.24427480916030533,1.8778625954198473,-1.4351145038167938,0.07958984375,-0.071533203125,-0.596435546875,0.045899999999999996
0.5038167938931297,1.786259541984733,-1.099236641221374,0.080322265625,-0.079345703125,-0.61083984375,0.047599999999999996
0.32061068702290074,1.8625954198473282,-1.1908396946564885,0.080322265625,-0.078369140625,-0.60888671875,0.0493
0.5038167938931297,1.8015267175572518,-1.2366412213740459,0.07861328125,-0.08203125,-0.60009765625,0.051
0.6870229007633588,1.83206106870229,-1.251908396946565,0.0771484375,-0.073974609375,-0.6005859375,0.0527
0.7633587786259542,1.8625954198473282,-1.2061068702290076,0.078369140625,-0.077392578125,-0.60595703125,0.0544
0.8854961832061069,1.7251908396946565,-1.4351145038167938,0.078125,-0.077392578125,-0.60693359375,0.0561
1.0076335877862594,1.7251908396946565,-1.4198473282442747,0.073974609375,-0.076171875,-0.607177734375,0.0578
0.916030534351145,1.8778625954198473,-1.4198473282442747,0.075927734375,-0.0751953125,-0.610107421875,0.0595
0.9770992366412213,1.83206106870229,-1.2366412213740459,0.07275390625,-0.073974609375,-0.614501953125,0.0612
0.8244274809160306,1.9236641221374047,-1.450381679389313,0.074462890625,-0.07177734375,-0.6005859375,0.0629
0.9618320610687023,1.9236641221374047,-1.3282442748091603,0.078857421875,-0.065673828125,-0.6025390625,0.06459999999999999
1.1755725190839694,2.045801526717557,-1.3129770992366412,0.080078125,-0.07177734375,-0.60888671875,0.0663
0.916030534351145,1.9389312977099236,-1.618320610687023,0.08056640625,-0.080078125,-0.598876953125,0.06799999999999999
0.6106870229007634,2.213740458015267,-1.4351145038167938,0.0712890625,-0.076171875,-0.603759765625,0.0697
0.6717557251908397,2.33587786259542,-1.2061068702290076,0.078857421875,-0.0751953125,-0.599609375,0.07139999999999999
0.7633587786259542,2.2595419847328246,-1.1297709923664123,0.0771484375,-0.07275390625,-0.60595703125,0.0731
0.6564885496183206,2.3206106870229006,-1.2366412213740459,0.072265625,-0.0771484375,-0.6025390625,0.07479999999999999
0.44274809160305345,2.4580152671755724,-1.282442748091603,0.071533203125,-0.07861328125,-0.603271484375,0.0765
0.5801526717557252,2.6717557251908395,-0.9618320610687023,0.0751953125,-0.07958984375,-0.595703125,0.07819999999999999
0.4580152671755725,2.5801526717557253,-1.083969465648855,0.077392578125,-0.07421875,-0.60546875,0.0799
0.366412213740458,2.6259541984732824,-1.099236641221374,0.080322265625,-0.078125,-0.6064453125,0.08159999999999999
0.5343511450381679,2.564885496183206,-1.0229007633587786,0.0771484375,-0.080078125,-0.60498046875,0.0833
0.5343511450381679,2.595419847328244,-1.083969465648855,0.080322265625,-0.0859375,-0.60791015625,0.08499999999999999
0.366412213740458,2.549618320610687,-1.3435114503816794,0.07861328125,-0.084716796875,-0.604736328125,0.0867
0.44274809160305345,2.6412213740458017,-1.3893129770992367,0.083251953125,-0.081298828125,-0.60302734375,0.08839999999999999
0.22900763358778625,2.7022900763358777,-1.450381679389313,0.077392578125,-0.084716796875,-0.60400390625,0.0901
0.2900763358778626,2.6106870229007635,-1.5877862595419847,0.077880859375,-0.079833984375,-0.60498046875,0.09179999999999999
0.3053435114503817,2.6259541984732824,-1.7251908396946565,0.07666015625,-0.087158203125,-0.6064453125,0.0935
0.4122137404580153,2.6106870229007635,-1.7099236641221374,0.074462890625,-0.085205078125,-0.60400390625,0.09519999999999999
0.10687022900763359,2.564885496183206,-1.7404580152671756,0.08056640625,-0.083740234375,-0.60498046875,0.0969
0.15267175572519084,2.6717557251908395,-1.8473282442748091,0.07763671875,-0.080078125,-0.60009765625,0.0986
0.16793893129770993,2.50381679389313,-1.984732824427481,0.0791015625,-0.0771484375,-0.605224609375,0.1003
-0.061068702290076333,2.6106870229007635,-1.816793893129771,0.079833984375,-0.0830078125,-0.593994140625,0.102
0.0,2.6564885496183206,-1.9083969465648856,0.078125,-0.076171875,-0.609130859375,0.1037
0.04580152671755725,2.687022900763359,-2.0,0.073486328125,-0.071533203125,-0.60009765625,0.1054
0.030534351145038167,2.732824427480916,-1.8473282442748091,0.07666015625,-0.081787109375,-0.591064453125,0.1071
0.10687022900763359,2.7022900763358777,-1.6030534351145038,0.078857421875,-0.07763671875,-0.60009765625,0.1088
0.07633587786259542,2.7022900763358777,-1.7709923664122138,0.080810546875,-0.07470703125,-0.60107421875,0.11049999999999999
0.3053435114503817,2.900763358778626,-1.633587786259542,0.080810546875,-0.078369140625,-0.599853515625,0.1122
0.12213740458015267,2.8091603053435112,-1.6488549618320612,0.079833984375,-0.071533203125,-0.6044921875,0.11389999999999999
-0.12213740458015267,2.7786259541984735,-1.465648854961832,0.07861328125,-0.080810546875,-0.59912109375,0.1156
0.0916030534351145,2.717557251908397,-1.450381679389313,0.077880859375,-0.07958984375,-0.5947265625,0.11729999999999999
-0.04580152671755725,2.6106870229007635,-1.5419847328244274,0.077880859375,-0.075439453125,-0.606689453125,0.119
-0.061068702290076333,2.6717557251908395,-1.5572519083969465,0.081298828125,-0.07763671875,-0.602783203125,0.12069999999999999
0.061068702290076333,2.687022900763359,-1.6030534351145038,0.082275390625,-0.07470703125,-0.594970703125,0.1224
0.030534351145038167,2.595419847328244,-1.5114503816793894,0.076904296875,-0.080078125,-0.604248046875,0.12409999999999999
0.04580152671755725,2.6564885496183206,-1.633587786259542,0.080322265625,-0.077880859375,-0.6025390625,0.1258
0.183206106870229,2.7786259541984735,-1.5419847328244274,0.084228515625,-0.0810546875,-0.59912109375,0.1275
0.22900763358778625,2.519083969465649,-1.633587786259542,0.08251953125,-0.077880859375,-0.597900390625,0.12919999999999998
0.3816793893129771,2.33587786259542,-1.4351145038167938,0.0810546875,-0.075927734375,-0.6005859375,0.1309
0.5038167938931297,2.366412213740458,-1.5572519083969465,0.0791015625,-0.077880859375,-0.60302734375,0.1326
0.7786259541984732,2.2900763358778624,-1.5877862595419847,0.08056640625,-0.076904296875,-0.600341796875,0.1343
0.8244274809160306,2.198473282442748,-1.6488549618320612,0.080078125,-0.078369140625,-0.599365234375,0.13599999999999998
1.1603053435114503,2.33587786259542,-1.465648854961832,0.078857421875,-0.077880859375,-0.595703125,0.1377
1.4351145038167938,2.2442748091603053,-1.5114503816793894,0.080078125,-0.07861328125,-0.601806640625,0.1394
1.251908396946565,2.2595419847328246,-1.3740458015267176,0.078369140625,-0.07421875,-0.604736328125,0.1411
1.1908396946564885,2.183206106870229,-1.618320610687023,0.080322265625,-0.081787109375,-0.60693359375,0.14279999999999998
1.4961832061068703,2.1374045801526718,-1.4198473282442747,0.08154296875,-0.073486328125,-0.6015625,0.1445
1.5572519083969465,2.2595419847328246,-1.2213740458015268,0.075439453125,-0.07958984375,-0.61181640625,0.1462
1.6641221374045803,2.045801526717557,-1.3282442748091603,0.0751953125,-0.076416015625,-0.59228515625,0.1479
1.5114503816793894,1.9541984732824427,-1.3129770992366412,0.07568359375,-0.0791015625,-0.603515625,0.14959999999999998
1.5725190839694656,2.198473282442748,-1.2366412213740459,0.084716796875,-0.08203125,-0.600830078125,0.1513
1.6946564885496183,2.122137404580153,-1.2213740458015268,0.076416015625,-0.081298828125,-0.602294921875,0.153
1.450381679389313,2.0610687022900764,-1.2061068702290076,0.074951171875,-0.080078125,-0.595458984375,0.1547
1.633587786259542,2.2290076335877864,-1.1145038167938932,0.08251953125,-0.07958984375,-0.596923828125,0.15639999999999998
1.7709923664122138,2.0916030534351147,-1.099236641221374,0.07421875,-0.08447265625,-0.594970703125,0.1581
1.5114503816793894,2.198473282442748,-1.099236641221374,0.076416015625,-0.07666015625,-0.59521484375,0.1598
1.6793893129770991,2.351145038167939,-0.8244274809160306,0.068359375,-0.080810546875,-0.597900390625,0.1615
1.5114503816793894,2.2290076335877864,-1.0381679389312977,0.0751953125,-0.075439453125,-0.59716796875,0.16319999999999998
1.4961832061068703,2.351145038167939,-0.9618320610687023,0.07275390625,-0.081298828125,-0.59423828125,0.1649
1.465648854961832,2.5343511450381677,-0.9770992366412213,0.07421875,-0.08154296875,-0.6025390625,0.1666
1.1450381679389312,2.5801526717557253,-0.8854961832061069,0.072265625,-0.08203125,-0.598388671875,0.16829999999999998
1.3587786259541985,2.549618320610687,-0.9312977099236641,0.07421875,-0.080810546875,-0.6044921875,0.16999999999999998
1.3893129770992367,2.549618320610687,-1.0687022900763359,0.077392578125,-0.08203125,-0.602294921875,0.1717
1.3435114503816794,2.50381679389313,-0.9312977099236641,0.076904296875,-0.07958984375,-0.6015625,0.1734
1.1297709923664123,2.564885496183206,-0.9007633587786259,0.07666015625,-0.082275390625,-0.60009765625,0.17509999999999998
1.2366412213740459,2.7022900763358777,-1.2366412213740459,0.07861328125,-0.076904296875,-0.605224609375,0.17679999999999998
0.9618320610687023,2.5343511450381677,-1.0076335877862594,0.07861328125,-0.078369140625,-0.59912109375,0.1785
1.1450381679389312,2.3969465648854964,-0.9312977099236641,0.075927734375,-0.08056640625,-0.598876953125,0.1802
1.0687022900763359,2.6564885496183206,-1.1297709923664123,0.073486328125,-0.08544921875,-0.6044921875,0.18189999999999998
1.1603053435114503,2.6412213740458017,-1.1603053435114503,0.07666015625,-0.08349609375,-0.603759765625,0.18359999999999999
1.282442748091603,2.381679389312977,-1.1145038167938932,0.07763671875,-0.078369140625,-0.610595703125,0.1853
1.1297709923664123,2.50381679389313,-1.083969465648855,0.072265625,-0.083984375,-0.603515625,0.187
1.297709923664122,2.6717557251908395,-0.8702290076335878,0.07568359375,-0.086181640625,-0.60009765625,0.18869999999999998
1.083969465648855,2.50381679389313,-1.282442748091603,0.0771484375,-0.077880859375,-0.60498046875,0.19039999999999999
0.9923664122137404,2.549618320610687,-1.1755725190839694,0.074951171875,-0.08056640625,-0.59912109375,0.1921
1.0381679389312977,2.549618320610687,-1.3740458015267176,0.076171875,-0.0791015625,-0.608154296875,0.1938
1.0381679389312977,2.595419847328244,-1.4045801526717556,0.07470703125,-0.07666015625,-0.609130859375,0.19549999999999998
0.7022900763358778,2.6412213740458017,-1.6030534351145038,0.07421875,-0.076416015625,-0.612060546875,0.1972
0.5343511450381679,2.50381679389313,-1.6488549618320612,0.08056640625,-0.082275390625,-0.599365234375,0.1989
0.5954198473282443,2.4885496183206106,-1.83206106870229,0.073974609375,-0.080078125,-0.594482421875,0.2006
0.7175572519083969,2.4885496183206106,-1.7557251908396947,0.080810546875,-0.077880859375,-0.600830078125,0.20229999999999998
0.7938931297709924,2.366412213740458,-2.122137404580153,0.0771484375,-0.077880859375,-0.60595703125,0.204
0.6564885496183206,2.3206106870229006,-1.8931297709923665,0.07861328125,-0.081787109375,-0.60302734375,0.2057
0.8091603053435115,2.50381679389313,-2.030534351145038,0.07861328125,-0.077880859375,-0.6083984375,0.2074
0.6717557251908397,2.4427480916030535,-2.030534351145038,0.080078125,-0.078857421875,-0.599609375,0.20909999999999998
0.8854961832061069,2.198473282442748,-2.1374045801526718,0.0810546875,-0.081298828125,-0.59814453125,0.2108
0.8702290076335878,2.427480916030534,-2.045801526717557,0.081787109375,-0.080322265625,-0.60107421875,0.2125
0.7022900763358778,2.3053435114503817,-2.1068702290076335,0.081787109375,-0.078369140625,-0.61181640625,0.2142
0.9618320610687023,2.16793893129771,-1.9083969465648856,0.082763671875,-0.078369140625,-0.58935546875,0.21589999999999998
0.8091603053435115,2.0916030534351147,-2.122137404580153,0.08349609375,-0.079833984375,-0.59423828125,0.2176
0.8244274809160306,2.33587786259542,-1.7709923664122138,0.080078125,-0.07763671875,-0.600341796875,0.2193
0.916030534351145,2.351145038167939,-2.122137404580153,0.078857421875,-0.0859375,-0.603759765625,0.22099999999999997
0.8854961832061069,2.015267175572519,-1.8473282442748091,0.07958984375,-0.08544921875,-0.603515625,0.22269999999999998
0.7022900763358778,2.16793893129771,-1.9236641221374047,0.081298828125,-0.07666015625,-0.60205078125,0.2244
0.916030534351145,2.2442748091603053,-1.8931297709923665,0.079833984375,-0.077392578125,-0.600341796875,0.2261
0.916030534351145,2.0,-2.0610687022900764,0.079345703125,-0.07958984375,-0.59423828125,0.22779999999999997
0.7633587786259542,1.9541984732824427,-2.045801526717557,0.078857421875,-0.081787109375,-0.603759765625,0.22949999999999998
0.6412213740458015,1.9389312977099236,-1.984732824427481,0.072998046875,-0.078369140625,-0.599853515625,0.2312
0.8396946564885496,2.0610687022900764,-1.786259541984733,0.073486328125,-0.08203125,-0.606689453125,0.2329
0.6717557251908397,1.83206106870229,-1.9389312977099236,0.077880859375,-0.0791015625,-0.596923828125,0.23459999999999998
0.48854961832061067,1.816793893129771,-1.7557251908396947,0.07861328125,-0.07763671875,-0.59716796875,0.23629999999999998
0.3816793893129771,1.9389312977099236,-1.786259541984733,0.080810546875,-0.080810546875,-0.59521484375,0.238
0.6412213740458015,2.030534351145038,-1.8015267175572518,0.07861328125,-0.078369140625,-0.593505859375,0.2397
0.4732824427480916,1.83206106870229,-1.8931297709923665,0.084228515625,-0.08544921875,-0.60693359375,0.24139999999999998
0.5038167938931297,1.9389312977099236,-1.5877862595419847,0.08056640625,-0.08349609375,-0.597412109375,0.24309999999999998
0.5190839694656488,1.8931297709923665,-1.6641221374045803,0.078125,-0.08544921875,-0.599365234375,0.2448
0.5648854961832062,1.984732824427481,-1.6946564885496183,0.08203125,-0.079833984375,-0.593017578125,0.2465
0.4732824427480916,2.045801526717557,-1.3740458015267176,0.0771484375,-0.08203125,-0.596923828125,0.24819999999999998
0.04580152671755725,2.0763358778625953,-1.2061068702290076,0.0810546875,-0.086181640625,-0.595947265625,0.24989999999999998
0.2900763358778626,1.8778625954198473,-1.4198473282442747,0.07958984375,-0.078857421875,-0.59619140625,0.2516
0.32061068702290074,1.7709923664122138,-1.2061068702290076,0.078125,-0.07666015625,-0.599365234375,0.25329999999999997
0.061068702290076333,1.8931297709923665,-1.4961832061068703,0.0771484375,-0.076416015625,-0.592529296875,0.255
0.12213740458015267,1.8778625954198473,-1.4045801526717556,0.08056640625,-0.080810546875,-0.59619140625,0.2567
0.12213740458015267,1.9083969465648856,-1.2061068702290076,0.082763671875,-0.07763671875,-0.59912109375,0.25839999999999996
0.10687022900763359,1.8778625954198473,-1.2213740458015268,0.080322265625,-0.074462890625,-0.6005859375,0.2601
0.2595419847328244,1.5419847328244274,-1.297709923664122,0.080322265625,-0.081787109375,-0.60107421875,0.2618
0.366412213740458,1.7251908396946565,-1.4351145038167938,0.08642578125,-0.07666015625,-0.60009765625,0.2635
0.3969465648854962,1.5419847328244274,-1.282442748091603,0.083740234375,-0.076171875,-0.59814453125,0.2652
0.2900763358778626,1.1755725190839694,-1.2366412213740459,0.082763671875,-0.07373046875,-0.589111328125,0.26689999999999997
-0.0916030534351145,1.1450381679389312,-1.297709923664122,0.084228515625,-0.080810546875,-0.607421875,0.2686
0.3816793893129771,1.2061068702290076,-1.6030534351145038,0.0830078125,-0.082763671875,-0.59228515625,0.2703
0.2595419847328244,0.8702290076335878,-1.5572519083969465,0.07763671875,-0.076904296875,-0.603515625,0.27199999999999996
0.3511450381679389,0.8396946564885496,-1.465648854961832,0.081298828125,-0.078125,-0.615234375,0.2737
0.6259541984732825,0.732824427480916,-1.5877862595419847,0.0830078125,-0.078857421875,-0.601806640625,0.2754
0.5343511450381679,0.5038167938931297,-1.618320610687023,0.08935546875,-0.069091796875,-0.60009765625,0.27709999999999996
0.6412213740458015,0.32061068702290074,-1.8015267175572518,0.08251953125,-0.07373046875,-0.604736328125,0.2788
0.9923664122137404,0.42748091603053434,-1.6641221374045803,0.086669921875,-0.07421875,-0.5986328125,0.28049999999999997
1.0381679389312977,0.2900763358778626,-1.5877862595419847,0.076904296875,-0.073486328125,-0.60693359375,0.2822
1.297709923664122,0.183206106870229,-1.3740458015267176,0.080078125,-0.072998046875,-0.603271484375,0.2839
1.4809160305343512,0.2595419847328244,-1.450381679389313,0.079833984375,-0.06640625,-0.6025390625,0.28559999999999997
1.450381679389313,0.12213740458015267,-1.5725190839694656,0.080078125,-0.072265625,-0.6015625,0.2873
1.6030534351145038,0.2900763358778626,-1.5419847328244274,0.079345703125,-0.072998046875,-0.60009765625,0.289
1.9083969465648856,0.366412213740458,-1.5267175572519085,0.074462890625,-0.06640625,-0.606201171875,0.29069999999999996
2.122137404580153,0.366412213740458,-1.4351145038167938,0.0859375,-0.068603515625,-0.602294921875,0.2924
2.2748091603053435,0.3969465648854962,-1.3435114503816794,0.076904296875,-0.074951171875,-0.60302734375,0.2941
2.687022900763359,0.42748091603053434,-1.4961832061068703,0.079833984375,-0.07470703125,-0.60107421875,0.2958
3.114503816793893,0.5648854961832062,-1.2366412213740459,0.07763671875,-0.06787109375,-0.601318359375,0.2975
3.2061068702290076,0.3969465648854962,-1.282442748091603,0.0732421875,-0.078369140625,-0.591064453125,0.29919999999999997
3.572519083969466,0.48854961832061067,-1.3129770992366412,0.072021484375,-0.0791015625,-0.593017578125,0.3009
3.83206106870229,0.5648854961832062,-1.4198473282442747,0.078369140625,-0.07275390625,-0.598388671875,0.3026
4.0,0.48854961832061067,-1.282442748091603,0.076904296875,-0.078857421875,-0.60009765625,0.30429999999999996
3.877862595419847,0.6564885496183206,-1.251908396946565,0.07373046875,-0.080078125,-0.59326171875,0.306
3.9236641221374047,0.5954198473282443,-1.251908396946565,0.0771484375,-0.076904296875,-0.597412109375,0.3077
4.0458015267175576,0.7175572519083969,-1.3893129770992367,0.074462890625,-0.0791015625,-0.60107421875,0.3094
3.954198473282443,0.8854961832061069,-1.2213740458015268,0.071533203125,-0.082763671875,-0.596435546875,0.3111
3.8931297709923665,0.9465648854961832,-1.1145038167938932,0.0751953125,-0.080078125,-0.607177734375,0.31279999999999997
3.5877862595419847,0.8549618320610687,-1.297709923664122,0.077392578125,-0.079833984375,-0.598876953125,0.3145
3.648854961832061,1.1908396946564885,-1.2061068702290076,0.073486328125,-0.078125,-0.607666015625,0.3162
3.3587786259541983,1.1450381679389312,-1.2213740458015268,0.0732421875,-0.082275390625,-0.601318359375,0.31789999999999996
3.0076335877862594,1.2213740458015268,-1.251908396946565,0.074951171875,-0.08544921875,-0.6044921875,0.3196
2.7938931297709924,1.2366412213740459,-1.3740458015267176,0.076171875,-0.0771484375,-0.595947265625,0.3213
2.50381679389313,1.4045801526717556,-1.3282442748091603,0.074951171875,-0.085693359375,-0.595458984375,0.323
2.122137404580153,1.4045801526717556,-1.465648854961832,0.0771484375,-0.082275390625,-0.598388671875,0.3247
1.6793893129770991,1.4198473282442747,-1.4198473282442747,0.07568359375,-0.09130859375,-0.603515625,0.32639999999999997
1.3587786259541985,1.5725190839694656,-1.4045801526717556,0.0751953125,-0.092041015625,-0.6044921875,0.3281
1.0229007633587786,1.5572519083969465,-1.5267175572519085,0.07568359375,-0.087646484375,-0.59619140625,0.3298
0.7633587786259542,1.5725190839694656,-1.633587786259542,0.0810546875,-0.083251953125,-0.601806640625,0.33149999999999996
0.366412213740458,1.6488549618320612,-1.618320610687023,0.07666015625,-0.08447265625,-0.600830078125,0.3332
0.0,1.4198473282442747,-1.6793893129770991,0.079833984375,-0.08251953125,-0.60595703125,0.3349
-0.21374045801526717,1.5114503816793894,-1.5419847328244274,0.079833984375,-0.084716796875,-0.60595703125,0.33659999999999995
-0.3053435114503817,1.4045801526717556,-1.7709923664122138,0.084228515625,-0.082275390625,-0.609130859375,0.3383
-0.5038167938931297,1.3435114503816794,-1.6641221374045803,0.08544921875,-0.078857421875,-0.61279296875,0.33999999999999997
-0.44274809160305345,1.1603053435114503,-1.7404580152671756,0.07958984375,-0.0830078125,-0.601318359375,0.3417
-0.42748091603053434,0.916030534351145,-1.7404580152671756,0.082275390625,-0.079345703125,-0.601318359375,0.3434
-0.7022900763358778,0.8396946564885496,-1.8015267175572518,0.079833984375,-0.080810546875,-0.6005859375,0.34509999999999996
-0.7480916030534351,0.6412213740458015,-1.8015267175572518,0.08349609375,-0.083984375,-0.608642578125,0.3468
-0.6717557251908397,0.6870229007633588,-1.8778625954198473,0.088134765625,-0.079833984375,-0.603515625,0.3485
-0.7175572519083969,0.4580152671755725,-1.9389312977099236,0.085205078125,-0.076171875,-0.610595703125,0.35019999999999996
-0.6717557251908397,0.33587786259541985,-1.9389312977099236,0.083740234375,-0.074951171875,-0.603759765625,0.3519
-0.5801526717557252,0.13740458015267176,-1.8931297709923665,0.08740234375,-0.071044921875,-0.610107421875,0.35359999999999997
-0.5648854961832062,0.2748091603053435,-1.8778625954198473,0.086181640625,-0.077880859375,-0.6044921875,0.3553
-0.4122137404580153,0.2900763358778626,-1.7404580152671756,0.088134765625,-0.075927734375,-0.603271484375,0.357
-0.22900763358778625,0.2595419847328244,-1.8778625954198473,0.08154296875,-0.0732421875,-0.607177734375,0.35869999999999996
-0.061068702290076333,0.21374045801526717,-1.8473282442748091,0.0810546875,-0.06884765625,-0.603515625,0.3604
-0.12213740458015267,0.0,-1.7709923664122138,0.077880859375,-0.06982421875,-0.6044921875,0.3621
0.04580152671755725,0.0916030534351145,-1.4809160305343512,0.08056640625,-0.067138671875,-0.60498046875,0.36379999999999996
0.4732824427480916,0.10687022900763359,-1.7404580152671756,0.07861328125,-0.07177734375,-0.60400390625,0.3655
0.6717557251908397,0.015267175572519083,-1.3893129770992367,0.078369140625,-0.078857421875,-0.604248046875,0.36719999999999997
0.7938931297709924,0.030534351145038167,-1.9541984732824427,0.080322265625,-0.070556640625,-0.595703125,0.3689
1.099236641221374,0.015267175572519083,-1.5572519083969465,0.0830078125,-0.07177734375,-0.606201171875,0.3706
1.6793893129770991,-0.015267175572519083,-1.7099236641221374,0.079345703125,-0.072021484375,-0.607177734375,0.37229999999999996
1.786259541984733,-0.061068702290076333,-1.5114503816793894,0.078369140625,-0.071044921875,-0.60888671875,0.374
2.1526717557251906,0.13740458015267176,-1.5267175572519085,0.079345703125,-0.072998046875,-0.606201171875,0.3757
2.6412213740458017,0.07633587786259542,-1.4198473282442747,0.087158203125,-0.074462890625,-0.602294921875,0.37739999999999996
2.885496183206107,0.15267175572519084,-1.5114503816793894,0.07763671875,-0.0751953125,-0.6025390625,0.3791
3.1908396946564888,0.12213740458015267,-1.3740458015267176,0.075927734375,-0.07666015625,-0.598876953125,0.38079999999999997
3.49618320610687,0.0916030534351145,-1.6030534351145038,0.08154296875,-0.072509765625,-0.595947265625,0.38249999999999995
3.8931297709923665,0.10687022900763359,-1.2061068702290076,0.082275390625,-0.073486328125,-0.598388671875,0.3842
3.9083969465648853,0.1984732824427481,-1.251908396946565,0.076904296875,-0.07080078125,-0.60009765625,0.38589999999999997
4.152671755725191,0.24427480916030533,-1.1755725190839694,0.07861328125,-0.076171875,-0.589599609375,0.3876
4.061068702290076,0.12213740458015267,-1.1603053435114503,0.07861328125,-0.07568359375,-0.594482421875,0.3893
4.1679389312977095,0.07633587786259542,-1.1297709923664123,0.074462890625,-0.07666015625,-0.593994140625,0.39099999999999996
4.0458015267175576,0.21374045801526717,-1.297709923664122,0.073486328125,-0.080078125,-0.602783203125,0.3927
3.83206106870229,0.33587786259541985,-1.083969465648855,0.07861328125,-0.07470703125,-0.600341796875,0.3944
3.7404580152671754,0.44274809160305345,-1.0381679389312977,0.080322265625,-0.07666015625,-0.6025390625,0.39609999999999995
3.404580152671756,0.5190839694656488,-0.9770992366412213,0.08056640625,-0.08056640625,-0.6044921875,0.3978
3.1297709923664123,0.4732824427480916,-1.099236641221374,0.07763671875,-0.081298828125,-0.598876953125,0.39949999999999997
2.9770992366412212,0.549618320610687,-0.9007633587786259,0.079345703125,-0.080322265625,-0.59814453125,0.4012
2.885496183206107,0.5648854961832062,-0.8702290076335878,0.078125,-0.081787109375,-0.60302734375,0.4029
2.7480916030534353,0.7633587786259542,-1.0229007633587786,0.076904296875,-0.080078125,-0.600341796875,0.40459999999999996
2.4122137404580153,0.7786259541984732,-1.083969465648855,0.07763671875,-0.080078125,-0.599609375,0.4063
2.0610687022900764,0.6564885496183206,-1.0687022900763359,0.078125,-0.086669921875,-0.59912109375,0.408
1.9083969465648856,0.6412213740458015,-1.1603053435114503,0.07470703125,-0.084228515625,-0.604248046875,0.40969999999999995
1.6793893129770991,0.8091603053435115,-1.1145038167938932,0.080078125,-0.088134765625,-0.60498046875,0.4114
1.4351145038167938,0.7480916030534351,-1.4045801526717556,0.078369140625,-0.085693359375,-0.6015625,0.41309999999999997
1.3282442748091603,0.7938931297709924,-1.4961832061068703,0.076904296875,-0.08740234375,-0.599853515625,0.4148
1.0076335877862594,0.8854961832061069,-1.4045801526717556,0.0791015625,-0.083984375,-0.603759765625,0.4165
0.8854961832061069,0.7480916030534351,-1.4351145038167938,0.077880859375,-0.085205078125,-0.597412109375,0.41819999999999996
0.5648854961832062,0.7480916030534351,-1.450381679389313,0.078125,-0.0859375,-0.595703125,0.4199
0.33587786259541985,0.8702290076335878,-1.450381679389313,0.074951171875,-0.080322265625,-0.60302734375,0.4216
0.2595419847328244,0.9770992366412213,-1.7404580152671756,0.077880859375,-0.07958984375,-0.608642578125,0.42329999999999995
-0.0916030534351145,0.9923664122137404,-1.6488549618320612,0.08203125,-0.08447265625,-0.596435546875,0.425
-0.3816793893129771,0.8396946564885496,-1.9236641221374047,0.074462890625,-0.07958984375,-0.605712890625,0.42669999999999997
-0.44274809160305345,0.8091603053435115,-1.633587786259542,0.08056640625,-0.07470703125,-0.59521484375,0.4284
-0.48854961832061067,0.7786259541984732,-1.6488549618320612,0.0751953125,-0.07666015625,-0.607177734375,0.4301
-0.6412213740458015,0.7022900763358778,-1.8015267175572518,0.080810546875,-0.081787109375,-0.608154296875,0.43179999999999996
-0.44274809160305345,0.8244274809160306,-1.5877862595419847,0.081298828125,-0.081298828125,-0.6103515625,0.4335
-0.4122137404580153,0.732824427480916,-1.6793893129770991,0.0859375,-0.073974609375,-0.60986328125,0.4352
-0.549618320610687,0.6870229007633588,-1.5725190839694656,0.07763671875,-0.077392578125,-0.60302734375,0.43689999999999996
-0.3053435114503817,0.6870229007633588,-1.4961832061068703,0.0791015625,-0.075439453125,-0.597412109375,0.4386
0.10687022900763359,0.7175572519083969,-1.5877862595419847,0.07861328125,-0.075927734375,-0.601318359375,0.44029999999999997
0.030534351145038167,0.732824427480916,-1.816793893129771,0.081787109375,-0.0751953125,-0.609375,0.44199999999999995
0.4732824427480916,0.5343511450381679,-1.7099236641221374,0.080322265625,-0.074951171875,-0.6064453125,0.4437
0.6564885496183206,0.7175572519083969,-1.5267175572519085,0.077392578125,-0.0712890625,-0.612060546875,0.44539999999999996
0.8244274809160306,0.5190839694656488,-1.5877862595419847,0.079345703125,-0.0751953125,-0.61083984375,0.4471
0.916030534351145,0.5038167938931297,-1.8473282442748091,0.07275390625,-0.072509765625,-0.60302734375,0.4488
1.1755725190839694,0.5038167938931297,-1.6946564885496183,0.079833984375,-0.07568359375,-0.60107421875,0.45049999999999996
1.5725190839694656,0.5190839694656488,-1.786259541984733,0.08203125,-0.0732421875,-0.599365234375,0.4522
1.9541984732824427,0.4580152671755725,-1.9083969465648856,0.08056640625,-0.07275390625,-0.60595703125,0.45389999999999997
2.0763358778625953,0.6106870229007634,-1.816793893129771,0.080810546875,-0.076416015625,-0.6015625,0.45559999999999995
2.0916030534351147,0.7022900763358778,-1.9236641221374047,0.080078125,-0.07421875,-0.598388671875,0.4573
2.33587786259542,0.6564885496183206,-1.816793893129771,0.081787109375,-0.0791015625,-0.60302734375,0.45899999999999996
2.2442748091603053,0.6106870229007634,-1.9389312977099236,0.076416015625,-0.07373046875,-0.598876953125,0.4607
2.33587786259542,0.9007633587786259,-1.8778625954198473,0.079345703125,-0.077880859375,-0.59716796875,0.4624
2.33587786259542,0.9007633587786259,-1.7709923664122138,0.0751953125,-0.073974609375,-0.6015625,0.46409999999999996
2.5801526717557253,0.9312977099236641,-1.8473282442748091,0.078857421875,-0.072265625,-0.60107421875,0.4658
2.6564885496183206,0.8854961832061069,-1.984732824427481,0.078857421875,-0.072265625,-0.599853515625,0.46749999999999997
2.3969465648854964,0.9312977099236641,-1.8778625954198473,0.0771484375,-0.07275390625,-0.60791015625,0.46919999999999995
2.564885496183206,1.0229007633587786,-1.786259541984733,0.080322265625,-0.074462890625,-0.596435546875,0.4709
2.564885496183206,0.9312977099236641,-1.7709923664122138,0.08349609375,-0.072265625,-0.602294921875,0.47259999999999996
2.33587786259542,0.9007633587786259,-1.9389312977099236,0.08154296875,-0.072265625,-0.595947265625,0.4743
2.3969465648854964,0.8549618320610687,-1.9389312977099236,0.086181640625,-0.08203125,-0.6044921875,0.476
2.519083969465649,0.916030534351145,-1.9389312977099236,0.078125,-0.080078125,-0.61083984375,0.47769999999999996
2.3206106870229006,1.0534351145038168,-1.8778625954198473,0.078369140625,-0.08056640625,-0.60693359375,0.4794
2.3206106870229006,0.9770992366412213,-1.8473282442748091,0.0859375,-0.079345703125,-0.59814453125,0.48109999999999997
2.351145038167939,0.8244274809160306,-1.8015267175572518,0.082763671875,-0.08447265625,-0.59912109375,0.48279999999999995
2.427480916030534,0.916030534351145,-1.9694656488549618,0.080078125,-0.083984375,-0.60595703125,0.4845
2.1374045801526718,0.9618320610687023,-1.9541984732824427,0.08056640625,-0.077880859375,-0.613037109375,0.48619999999999997
1.8473282442748091,0.8854961832061069,-2.0610687022900764,0.07861328125,-0.08349609375,-0.608642578125,0.4879
1.6946564885496183,0.9770992366412213,-2.1068702290076335,0.07958984375,-0.081298828125,-0.610595703125,0.4896
1.7099236641221374,1.0076335877862594,-1.9236641221374047,0.0771484375,-0.080810546875,-0.60693359375,0.49129999999999996
1.633587786259542,1.0381679389312977,-2.030534351145038,0.075927734375,-0.081787109375,-0.608642578125,0.493
1.4809160305343512,1.1450381679389312,-2.030534351145038,0.078857421875,-0.083984375,-0.6015625,0.4947
1.0534351145038168,1.1603053435114503,-2.213740458015267,0.07666015625,-0.088623046875,-0.60302734375,0.49639999999999995
1.0534351145038168,1.3129770992366412,-2.183206106870229,0.07373046875,-0.0830078125,-0.611572265625,0.4981
0.6564885496183206,1.3435114503816794,-2.16793893129771,0.0810546875,-0.08203125,-0.60595703125,0.49979999999999997
0.5190839694656488,1.3435114503816794,-2.33587786259542,0.084228515625,-0.0869140625,-0.599609375,0.5015
0.3511450381679389,1.1297709923664123,-2.1374045801526718,0.076904296875,-0.083251953125,-0.607177734375,0.5032
-0.015267175572519083,1.4198473282442747,-2.1526717557251906,0.079345703125,-0.08203125,-0.604248046875,0.5049
-0.21374045801526717,1.3282442748091603,-2.213740458015267,0.08056640625,-0.082763671875,-0.60498046875,0.5065999999999999
0.0,1.4351145038167938,-2.0916030534351147,0.076171875,-0.081298828125,-0.60791015625,0.5083
-0.16793893129770993,1.3740458015267176,-2.198473282442748,0.082763671875,-0.0791015625,-0.603759765625,0.51
-0.4122137404580153,1.3129770992366412,-2.0916030534351147,0.07568359375,-0.082763671875,-0.611328125,0.5116999999999999
-0.22900763358778625,1.3435114503816794,-2.045801526717557,0.072021484375,-0.07861328125,-0.603271484375,0.5134
-0.3511450381679389,1.3740458015267176,-1.9541984732824427,0.080078125,-0.07861328125,-0.592529296875,0.5151
-0.10687022900763359,1.4045801526717556,-2.045801526717557,0.080078125,-0.07568359375,-0.59814453125,0.5167999999999999
-0.3816793893129771,1.3282442748091603,-1.9541984732824427,0.08251953125,-0.0810546875,-0.6005859375,0.5185
-0.0916030534351145,1.282442748091603,-2.045801526717557,0.078369140625,-0.077880859375,-0.60986328125,0.5202
-0.015267175572519083,1.3587786259541985,-2.0,0.0791015625,-0.0810546875,-0.60693359375,0.5218999999999999
-0.13740458015267176,1.3129770992366412,-1.9236641221374047,0.076171875,-0.075927734375,-0.601806640625,0.5236
-0.0916030534351145,1.3435114503816794,-1.9389312977099236,0.079345703125,-0.07470703125,-0.607177734375,0.5253
0.07633587786259542,1.465648854961832,-2.16793893129771,0.078369140625,-0.078369140625,-0.608642578125,0.527
0.183206106870229,1.3435114503816794,-2.0763358778625953,0.07421875,-0.06982421875,-0.604736328125,0.5287
0.16793893129770993,1.3893129770992367,-1.9083969465648856,0.08056640625,-0.069091796875,-0.60546875,0.5304
0.2595419847328244,1.4809160305343512,-1.8625954198473282,0.080810546875,-0.070068359375,-0.607421875,0.5321
0.3053435114503817,1.465648854961832,-1.7557251908396947,0.080078125,-0.074462890625,-0.5986328125,0.5337999999999999
0.42748091603053434,1.5114503816793894,-1.7557251908396947,0.08203125,-0.072509765625,-0.594970703125,0.5355
0.6412213740458015,1.5572519083969465,-1.633587786259542,0.084228515625,-0.0751953125,-0.6005859375,0.5372
0.8396946564885496,1.5419847328244274,-1.5267175572519085,0.080078125,-0.073974609375,-0.609130859375,0.5388999999999999
1.282442748091603,1.5267175572519085,-1.6030534351145038,0.076416015625,-0.074951171875,-0.612548828125,0.5406
1.5725190839694656,1.6030534351145038,-1.4809160305343512,0.079345703125,-0.07275390625,-0.597900390625,0.5423
1.9541984732824427,1.6946564885496183,-1.4198473282442747,0.082763671875,-0.07373046875,-0.6064453125,0.5439999999999999
2.4427480916030535,1.4351145038167938,-1.3587786259541985,0.079345703125,-0.075439453125,-0.60693359375,0.5457
2.732824427480916,1.297709923664122,-1.3282442748091603,0.078857421875,-0.082275390625,-0.60546875,0.5474
3.0381679389312977,1.2366412213740459,-1.2671755725190839,0.084228515625,-0.074462890625,-0.60595703125,0.5490999999999999
3.3893129770992365,1.1450381679389312,-1.5114503816793894,0.077392578125,-0.077392578125,-0.5986328125,0.5508
3.3740458015267176,1.1908396946564885,-1.3129770992366412,0.078369140625,-0.080810546875,-0.60302734375,0.5525
3.4656488549618323,1.2213740458015268,-1.1908396946564885,0.08544921875,-0.072998046875,-0.603759765625,0.5541999999999999
3.5877862595419847,1.2061068702290076,-1.2213740458015268,0.082763671875,-0.076904296875,-0.602294921875,0.5559
3.5572519083969465,1.3587786259541985,-1.3740458015267176,0.07861328125,-0.07763671875,-0.60595703125,0.5576
3.6030534351145036,1.2213740458015268,-1.3435114503816794,0.070556640625,-0.0751953125,-0.597900390625,0.5593
3.5419847328244276,1.4045801526717556,-1.4045801526717556,0.08056640625,-0.078857421875,-0.593505859375,0.5609999999999999
3.5419847328244276,1.450381679389313,-1.297709923664122,0.077880859375,-0.07470703125,-0.5966796875,0.5627
3.267175572519084,1.3740458015267176,-1.465648854961832,0.0771484375,-0.082275390625,-0.596435546875,0.5644
3.4198473282442747,1.2061068702290076,-1.3740458015267176,0.076904296875,-0.07861328125,-0.60791015625,0.5660999999999999
3.114503816793893,1.465648854961832,-1.5114503816793894,0.07666015625,-0.07861328125,-0.6005859375,0.5678
2.8702290076335877,1.5725190839694656,-1.4045801526717556,0.076171875,-0.086181640625,-0.59521484375,0.5695
2.900763358778626,1.633587786259542,-1.3435114503816794,0.07080078125,-0.083740234375,-0.599365234375,0.5711999999999999
2.7786259541984735,1.633587786259542,-1.3893129770992367,0.07763671875,-0.083251953125,-0.604736328125,0.5729
2.351145038167939,1.6793893129770991,-1.618320610687023,0.078125,-0.084716796875,-0.602783203125,0.5746
2.0916030534351147,2.015267175572519,-1.618320610687023,0.07373046875,-0.082763671875,-0.603759765625,0.5762999999999999
1.465648854961832,1.9694656488549618,-1.7709923664122138,0.0693359375,-0.08203125,-0.605712890625,0.578
1.282442748091603,1.9389312977099236,-1.618320610687023,0.074462890625,-0.079345703125,-0.60400390625,0.5797
1.083969465648855,2.0610687022900764,-1.7709923664122138,0.0771484375,-0.082275390625,-0.603515625,0.5813999999999999
0.732824427480916,2.122137404580153,-1.9541984732824427,0.07666015625,-0.080810546875,-0.600830078125,0.5831
0.5648854961832062,2.1068702290076335,-2.0,0.07421875,-0.080078125,-0.597412109375,0.5848
0.2900763358778626,2.1374045801526718,-2.0610687022900764,0.079833984375,-0.080810546875,-0.604248046875,0.5865
0.33587786259541985,2.2442748091603053,-2.2900763358778624,0.0771484375,-0.079345703125,-0.604736328125,0.5882
0.13740458015267176,2.2595419847328246,-1.9236641221374047,0.07763671875,-0.0810546875,-0.60595703125,0.5899
-0.15267175572519084,2.366412213740458,-1.984732824427481,0.081298828125,-0.080078125,-0.6083984375,0.5916
-0.1984732824427481,2.2290076335877864,-2.183206106870229,0.077392578125,-0.0810546875,-0.60546875,0.5932999999999999
-0.15267175572519084,2.2900763358778624,-2.351145038167939,0.082763671875,-0.072021484375,-0.5986328125,0.595
-0.07633587786259542,2.2748091603053435,-2.3206106870229006,0.077880859375,-0.073974609375,-0.5986328125,0.5967
0.030534351145038167,2.2748091603053435,-2.183206106870229,0.081298828125,-0.079345703125,-0.60546875,0.5983999999999999
0.2595419847328244,2.2442748091603053,-2.0,0.082763671875,-0.079833984375,-0.60205078125,0.6001
0.15267175572519084,2.3053435114503817,-2.198473282442748,0.07958984375,-0.080078125,-0.611328125,0.6018
0.48854961832061067,2.213740458015267,-2.16793893129771,0.07421875,-0.07568359375,-0.59716796875,0.6034999999999999
0.4580152671755725,2.045801526717557,-2.1374045801526718,0.083740234375,-0.0791015625,-0.600341796875,0.6052
0.4732824427480916,2.015267175572519,-1.8778625954198473,0.0830078125,-0.0751953125,-0.59765625,0.6069
0.7938931297709924,2.0916030534351147,-2.0610687022900764,0.079833984375,-0.074951171875,-0.597900390625,0.6085999999999999
0.9312977099236641,1.9389312977099236,-1.8931297709923665,0.08056640625,-0.076416015625,-0.598876953125,0.6103
0.9312977099236641,1.9083969465648856,-1.9083969465648856,0.079345703125,-0.078369140625,-0.602294921875,0.612
1.2213740458015268,1.9541984732824427,-1.8625954198473282,0.077392578125,-0.07958984375,-0.60546875,0.6136999999999999
1.1755725190839694,1.7404580152671756,-1.7709923664122138,0.08203125,-0.0751953125,-0.59228515625,0.6154
1.3740458015267176,1.7099236641221374,-1.816793893129771,0.08056640625,-0.07177734375,-0.59912109375,0.6171
1.3587786259541985,1.5877862595419847,-1.7251908396946565,0.08447265625,-0.076171875,-0.599853515625,0.6188
1.0381679389312977,1.4961832061068703,-1.7404580152671756,0.084716796875,-0.080078125,-0.601806640625,0.6204999999999999
1.0381679389312977,1.5419847328244274,-1.9389312977099236,0.083740234375,-0.075439453125,-0.607666015625,0.6222
1.1145038167938932,1.4198473282442747,-1.816793893129771,0.07373046875,-0.08203125,-0.600341796875,0.6239
0.7022900763358778,1.3435114503816794,-1.7709923664122138,0.076416015625,-0.080810546875,-0.604736328125,0.6255999999999999
0.9007633587786259,1.3740458015267176,-1.9236641221374047,0.0791015625,-0.0771484375,-0.599609375,0.6273
0.7786259541984732,1.4045801526717556,-1.8625954198473282,0.076904296875,-0.08203125,-0.608154296875,0.629
0.8396946564885496,1.5267175572519085,-1.7557251908396947,0.076171875,-0.083984375,-0.602783203125,0.6306999999999999
0.8091603053435115,1.4809160305343512,-1.6488549618320612,0.07861328125,-0.081787109375,-0.609130859375,0.6324
0.8396946564885496,1.450381679389313,-1.6946564885496183,0.08447265625,-0.080810546875,-0.608154296875,0.6341
0.9312977099236641,1.5572519083969465,-1.4351145038167938,0.08251953125,-0.084716796875,-0.605712890625,0.6357999999999999
1.083969465648855,1.6030534351145038,-1.450381679389313,0.07568359375,-0.0771484375,-0.60205078125,0.6375
1.2213740458015268,1.5725190839694656,-1.4045801526717556,0.079345703125,-0.077880859375,-0.596923828125,0.6392
1.297709923664122,1.4351145038167938,-1.297709923664122,0.078369140625,-0.0771484375,-0.604736328125,0.6408999999999999
1.297709923664122,1.3740458015267176,-1.4045801526717556,0.07275390625,-0.079833984375,-0.614501953125,0.6426
1.6793893129770991,1.5267175572519085,-1.465648854961832,0.078125,-0.080078125,-0.5908203125,0.6443
1.7709923664122138,1.4045801526717556,-1.5419847328244274,0.076416015625,-0.07666015625,-0.60009765625,0.646
1.5419847328244274,1.4351145038167938,-1.3587786259541985,0.078369140625,-0.078369140625,-0.5986328125,0.6476999999999999
1.7709923664122138,1.251908396946565,-1.4809160305343512,0.072265625,-0.078369140625,-0.604248046875,0.6494
1.9236641221374047,1.1908396946564885,-1.5114503816793894,0.077880859375,-0.080810546875,-0.61279296875,0.6511
1.83206106870229,1.4045801526717556,-1.4961832061068703,0.07763671875,-0.078857421875,-0.61083984375,0.6527999999999999
1.816793893129771,1.2061068702290076,-1.4961832061068703,0.08203125,-0.081298828125,-0.601806640625,0.6545
1.9541984732824427,1.0076335877862594,-1.5267175572519085,0.07421875,-0.081298828125,-0.597412109375,0.6562
1.8473282442748091,1.0229007633587786,-1.8015267175572518,0.079833984375,-0.078369140625,-0.599853515625,0.6578999999999999
1.9389312977099236,0.9923664122137404,-1.6488549618320612,0.074951171875,-0.07568359375,-0.599365234375,0.6596
1.9541984732824427,0.9465648854961832,-1.7099236641221374,0.080078125,-0.076904296875,-0.5986328125,0.6613
1.633587786259542,0.8396946564885496,-1.7709923664122138,0.0751953125,-0.08203125,-0.61181640625,0.6629999999999999
1.5572519083969465,0.8702290076335878,-1.8473282442748091,0.073974609375,-0.073974609375,-0.6064453125,0.6647
1.6488549618320612,1.0076335877862594,-1.5419847328244274,0.077880859375,-0.069580078125,-0.589111328125,0.6664
1.6946564885496183,0.9312977099236641,-1.6488549618320612,0.07763671875,-0.07470703125,-0.606201171875,0.6680999999999999
1.5267175572519085,1.0076335877862594,-1.786259541984733,0.072509765625,-0.07763671875,-0.60693359375,0.6698
1.5114503816793894,0.9923664122137404,-1.7251908396946565,0.083251953125,-0.074462890625,-0.603759765625,0.6715
1.5267175572519085,1.1908396946564885,-1.4961832061068703,0.076416015625,-0.074462890625,-0.603515625,0.6731999999999999
1.7251908396946565,1.1603053435114503,-1.6946564885496183,0.080078125,-0.07275390625,-0.6083984375,0.6748999999999999
1.8778625954198473,1.099236641221374,-1.7099236641221374,0.073486328125,-0.076171875,-0.60546875,0.6766
1.816793893129771,1.1450381679389312,-1.8015267175572518,0.07421875,-0.079345703125,-0.60791015625,0.6783
1.8778625954198473,1.2671755725190839,-1.7099236641221374,0.076171875,-0.07666015625,-0.604248046875,0.6799999999999999
1.984732824427481,1.297709923664122,-1.633587786259542,0.073974609375,-0.078369140625,-0.606201171875,0.6817
2.183206106870229,1.450381679389313,-1.6946564885496183,0.07470703125,-0.0791015625,-0.59912109375,0.6834
2.0916030534351147,1.5114503816793894,-1.8473282442748091,0.075439453125,-0.083251953125,-0.607666015625,0.6850999999999999
2.198473282442748,1.3435114503816794,-1.6946564885496183,0.072509765625,-0.077392578125,-0.60498046875,0.6868
2.366412213740458,1.3435114503816794,-1.7404580152671756,0.07568359375,-0.078125,-0.609619140625,0.6885
2.030534351145038,1.3129770992366412,-1.6641221374045803,0.075439453125,-0.082763671875,-0.608154296875,0.6901999999999999
1.9083969465648856,1.4961832061068703,-1.7709923664122138,0.074462890625,-0.0791015625,-0.598388671875,0.6919
2.015267175572519,1.4198473282442747,-1.7557251908396947,0.074462890625,-0.07470703125,-0.6005859375,0.6936
1.9694656488549618,1.5267175572519085,-1.7404580152671756,0.070068359375,-0.07568359375,-0.604248046875,0.6952999999999999
1.7099236641221374,1.3587786259541985,-1.4351145038167938,0.070068359375,-0.079833984375,-0.597900390625,0.697
1.5572519083969465,1.3435114503816794,-1.4809160305343512,0.076171875,-0.08544921875,-0.603759765625,0.6987
1.7251908396946565,1.4198473282442747,-1.6030534351145038,0.07763671875,-0.07861328125,-0.608642578125,0.7003999999999999
1.7557251908396947,1.3282442748091603,-1.5419847328244274,0.079345703125,-0.078125,-0.60400390625,0.7021
1.3740458015267176,1.2213740458015268,-1.4198473282442747,0.08056640625,-0.083251953125,-0.60498046875,0.7038
1.5114503816793894,1.2366412213740459,-1.4961832061068703,0.078857421875,-0.08154296875,-0.60009765625,0.7055
1.6946564885496183,1.3435114503816794,-1.3435114503816794,0.075439453125,-0.078369140625,-0.599365234375,0.7071999999999999
1.5267175572519085,1.3587786259541985,-1.5114503816793894,0.078857421875,-0.07958984375,-0.602294921875,0.7089
1.465648854961832,1.1450381679389312,-1.2366412213740459,0.07568359375,-0.080810546875,-0.601318359375,0.7106
1.4809160305343512,1.2366412213740459,-1.4351145038167938,0.08154296875,-0.076904296875,-0.607666015625,0.7122999999999999
1.4351145038167938,1.099236641221374,-1.3587786259541985,0.084716796875,-0.08056640625,-0.600341796875,0.714
1.3740458015267176,1.0687022900763359,-1.282442748091603,0.078369140625,-0.0849609375,-0.613037109375,0.7157
1.4045801526717556,1.099236641221374,-1.1297709923664123,0.084716796875,-0.079833984375,-0.599853515625,0.7173999999999999
1.2213740458015268,1.0381679389312977,-1.1297709923664123,0.08447265625,-0.081787109375,-0.595703125,0.7191
1.251908396946565,1.0229007633587786,-1.297709923664122,0.077392578125,-0.08837890625,-0.6015625,0.7208
1.251908396946565,0.8854961832061069,-1.251908396946565,0.0859375,-0.080810546875,-0.60107421875,0.7224999999999999
1.0076335877862594,0.9770992366412213,-1.1908396946564885,0.078125,-0.080078125,-0.59521484375,0.7242
0.9770992366412213,1.0687022900763359,-1.1755725190839694,0.07958984375,-0.08349609375,-0.599853515625,0.7259
0.8396946564885496,0.916030534351145,-1.1145038167938932,0.078857421875,-0.082763671875,-0.6064453125,0.7275999999999999
0.7633587786259542,0.9312977099236641,-1.3282442748091603,0.076171875,-0.083984375,-0.60205078125,0.7293
0.7022900763358778,0.8702290076335878,-1.1450381679389312,0.074951171875,-0.0771484375,-0.6005859375,0.731
0.5190839694656488,0.7938931297709924,-1.083969465648855,0.07763671875,-0.07666015625,-0.60595703125,0.7326999999999999
0.21374045801526717,1.0076335877862594,-1.251908396946565,0.075439453125,-0.080078125,-0.59326171875,0.7343999999999999
0.030534351145038167,0.6717557251908397,-1.5419847328244274,0.07958984375,-0.078857421875,-0.5966796875,0.7361
0.183206106870229,0.6106870229007634,-1.282442748091603,0.081298828125,-0.074951171875,-0.607666015625,0.7378
0.07633587786259542,0.5648854961832062,-1.282442748091603,0.07861328125,-0.07470703125,-0.60498046875,0.7394999999999999
0.15267175572519084,0.5190839694656488,-1.465648854961832,0.0849609375,-0.0732421875,-0.604736328125,0.7412
0.24427480916030533,0.6106870229007634,-1.450381679389313,0.080078125,-0.069091796875,-0.6044921875,0.7429
0.15267175572519084,0.5648854961832062,-1.4961832061068703,0.07958984375,-0.076416015625,-0.607177734375,0.7445999999999999
0.2595419847328244,0.4732824427480916,-1.4809160305343512,0.079833984375,-0.0712890625,-0.599609375,0.7463
0.3053435114503817,0.549618320610687,-1.2213740458015268,0.077392578125,-0.06982421875,-0.606201171875,0.748
0.5954198473282443,0.4122137404580153,-1.633587786259542,0.075927734375,-0.07275390625,-0.604736328125,0.7496999999999999
0.9007633587786259,0.5038167938931297,-1.3129770992366412,0.076904296875,-0.0693359375,-0.595947265625,0.7514
0.9007633587786259,0.3511450381679389,-1.465648854961832,0.079345703125,-0.072998046875,-0.599365234375,0.7531
1.083969465648855,0.4732824427480916,-1.465648854961832,0.080322265625,-0.069580078125,-0.609375,0.7547999999999999
1.1297709923664123,0.48854961832061067,-1.297709923664122,0.076171875,-0.0712890625,-0.603759765625,0.7565
1.618320610687023,0.3816793893129771,-1.2366412213740459,0.07763671875,-0.072998046875,-0.609619140625,0.7582
1.5267175572519085,0.5648854961832062,-1.4809160305343512,0.07666015625,-0.07470703125,-0.5947265625,0.7598999999999999
1.816793893129771,0.2748091603053435,-1.3129770992366412,0.0791015625,-0.0703125,-0.60693359375,0.7615999999999999
2.0610687022900764,0.2900763358778626,-1.4351145038167938,0.0771484375,-0.069091796875,-0.607421875,0.7633
1.8015267175572518,0.5343511450381679,-1.282442748091603,0.076416015625,-0.072265625,-0.610107421875,0.7649999999999999
2.198473282442748,0.2595419847328244,-1.1908396946564885,0.079345703125,-0.076904296875,-0.60693359375,0.7666999999999999
2.3969465648854964,0.24427480916030533,-1.1755725190839694,0.077880859375,-0.071044921875,-0.602294921875,0.7684
2.4580152671755724,0.16793893129770993,-1.2213740458015268,0.081298828125,-0.07666015625,-0.609619140625,0.7701
2.4580152671755724,0.2595419847328244,-1.1450381679389312,0.082275390625,-0.071044921875,-0.60791015625,0.7717999999999999
2.4427480916030535,0.1984732824427481,-1.099236641221374,0.083740234375,-0.080810546875,-0.60205078125,0.7735
2.6564885496183206,0.16793893129770993,-1.0381679389312977,0.080078125,-0.079345703125,-0.6015625,0.7752
2.7022900763358777,0.2748091603053435,-1.1297709923664123,0.07958984375,-0.078125,-0.6005859375,0.7768999999999999
2.519083969465649,0.183206106870229,-1.1297709923664123,0.0830078125,-0.078125,-0.60205078125,0.7786
2.6412213740458017,0.2595419847328244,-1.1755725190839694,0.081787109375,-0.081787109375,-0.604736328125,0.7803
2.564885496183206,0.3511450381679389,-1.083969465648855,0.07568359375,-0.076904296875,-0.609619140625,0.7819999999999999
2.4732824427480917,0.2595419847328244,-1.2061068702290076,0.0810546875,-0.078369140625,-0.601806640625,0.7837
2.381679389312977,0.21374045801526717,-1.3740458015267176,0.07666015625,-0.08056640625,-0.600830078125,0.7854
2.2748091603053435,0.22900763358778625,-1.4198473282442747,0.07763671875,-0.085205078125,-0.603271484375,0.7870999999999999
2.2595419847328246,0.44274809160305345,-1.2366412213740459,0.078125,-0.078857421875,-0.60498046875,0.7888
1.9541984732824427,0.4732824427480916,-1.3893129770992367,0.076904296875,-0.08251953125,-0.60498046875,0.7905
1.786259541984733,0.732824427480916,-1.3740458015267176,0.07275390625,-0.086181640625,-0.603515625,0.7921999999999999
1.6488549618320612,0.6412213740458015,-1.3587786259541985,0.0791015625,-0.08203125,-0.610107421875,0.7938999999999999
1.6946564885496183,0.6870229007633588,-1.282442748091603,0.0751953125,-0.0830078125,-0.601318359375,0.7956
1.618320610687023,0.7938931297709924,-1.618320610687023,0.074462890625,-0.08154296875,-0.6005859375,0.7973
1.465648854961832,0.9465648854961832,-1.5267175572519085,0.07666015625,-0.0869140625,-0.599853515625,0.7989999999999999
1.3587786259541985,0.6870229007633588,-1.5419847328244274,0.080078125,-0.0791015625,-0.598876953125,0.8007
1.3282442748091603,0.7938931297709924,-1.3893129770992367,0.07763671875,-0.080078125,-0.60400390625,0.8024
1.1145038167938932,1.0229007633587786,-1.5267175572519085,0.0751953125,-0.078857421875,-0.603759765625,0.8040999999999999
1.0534351145038168,0.9770992366412213,-1.465648854961832,0.07958984375,-0.07666015625,-0.61279296875,0.8058
0.8854961832061069,0.9923664122137404,-1.633587786259542,0.080322265625,-0.077392578125,-0.609619140625,0.8075
0.8702290076335878,0.9923664122137404,-1.6793893129770991,0.077880859375,-0.077880859375,-0.6025390625,0.8091999999999999
0.8549618320610687,0.9007633587786259,-1.8625954198473282,0.079345703125,-0.07958984375,-0.60498046875,0.8109
0.6870229007633588,0.916030534351145,-1.7251908396946565,0.078125,-0.0810546875,-0.610107421875,0.8126
0.6717557251908397,0.7786259541984732,-1.8778625954198473,0.077880859375,-0.07275390625,-0.602783203125,0.8142999999999999
0.6106870229007634,0.8854961832061069,-1.7251908396946565,0.086181640625,-0.078125,-0.595458984375,0.816
0.5954198473282443,0.7633587786259542,-1.4809160305343512,0.080322265625,-0.0791015625,-0.601806640625,0.8177
0.6564885496183206,0.8091603053435115,-1.6488549618320612,0.080078125,-0.07275390625,-0.601806640625,0.8193999999999999
0.6564885496183206,0.8396946564885496,-1.633587786259542,0.08056640625,-0.07666015625,-0.599365234375,0.8210999999999999
0.5954198473282443,0.7938931297709924,-1.633587786259542,0.0859375,-0.078125,-0.60546875,0.8228
0.8091603053435115,0.7633587786259542,-1.6030534351145038,0.07958984375,-0.077392578125,-0.59716796875,0.8244999999999999
0.8396946564885496,0.7022900763358778,-1.5267175572519085,0.08056640625,-0.076904296875,-0.599853515625,0.8261999999999999
0.9007633587786259,0.7175572519083969,-1.5572519083969465,0.083740234375,-0.076171875,-0.60302734375,0.8279
0.9465648854961832,0.6717557251908397,-1.4961832061068703,0.0791015625,-0.0751953125,-0.603759765625,0.8296
1.1450381679389312,0.8396946564885496,-1.4961832061068703,0.08447265625,-0.0791015625,-0.606689453125,0.8312999999999999
1.1603053435114503,0.7175572519083969,-1.5725190839694656,0.08251953125,-0.07763671875,-0.607177734375,0.833
1.3129770992366412,0.7022900763358778,-1.4809160305343512,0.087158203125,-0.073974609375,-0.605224609375,0.8347
1.3587786259541985,0.8702290076335878,-1.450381679389313,0.081787109375,-0.076416015625,-0.610107421875,0.8363999999999999
1.3435114503816794,0.9312977099236641,-1.4351145038167938,0.083740234375,-0.078369140625,-0.610107421875,0.8381
1.5725190839694656,1.0229007633587786,-1.450381679389313,0.0771484375,-0.079833984375,-0.609130859375,0.8398
1.9236641221374047,0.9770992366412213,-1.4045801526717556,0.085205078125,-0.07958984375,-0.603759765625,0.8414999999999999
1.9236641221374047,1.0229007633587786,-1.297709923664122,0.080322265625,-0.078369140625,-0.603515625,0.8432
2.030534351145038,1.083969465648855,-1.2213740458015268,0.07666015625,-0.07568359375,-0.60546875,0.8449
2.1374045801526718,1.2213740458015268,-1.465648854961832,0.07861328125,-0.084228515625,-0.60791015625,0.8465999999999999
2.2290076335877864,1.099236641221374,-1.4045801526717556,0.074951171875,-0.077880859375,-0.600341796875,0.8482999999999999
2.366412213740458,1.0076335877862594,-1.3587786259541985,0.079345703125,-0.07275390625,-0.6005859375,0.85
2.549618320610687,1.0076335877862594,-1.282442748091603,0.07568359375,-0.082763671875,-0.6103515625,0.8516999999999999
2.7480916030534353,1.0381679389312977,-1.3587786259541985,0.077392578125,-0.075927734375,-0.60693359375,0.8533999999999999
2.732824427480916,0.9770992366412213,-1.3893129770992367,0.07958984375,-0.074462890625,-0.603759765625,0.8551
2.564885496183206,1.0381679389312977,-1.3893129770992367,0.077880859375,-0.07958984375,-0.601806640625,0.8568
2.519083969465649,1.0687022900763359,-1.4961832061068703,0.076904296875,-0.0869140625,-0.609130859375,0.8584999999999999
2.2900763358778624,1.083969465648855,-1.5114503816793894,0.075927734375,-0.080810546875,-0.607421875,0.8602
2.4427480916030535,0.9618320610687023,-1.4045801526717556,0.0751953125,-0.07470703125,-0.60546875,0.8619
2.3053435114503817,0.9465648854961832,-1.618320610687023,0.081298828125,-0.077880859375,-0.600341796875,0.8635999999999999
2.2748091603053435,1.0687022900763359,-1.4809160305343512,0.082763671875,-0.08056640625,-0.60595703125,0.8653
1.786259541984733,0.916030534351145,-1.5877862595419847,0.0771484375,-0.082763671875,-0.599609375,0.867
1.6030534351145038,1.1755725190839694,-1.4961832061068703,0.07763671875,-0.08203125,-0.60498046875,0.8686999999999999
1.6793893129770991,0.9923664122137404,-1.4198473282442747,0.07421875,-0.087646484375,-0.603759765625,0.8704
1.5419847328244274,1.0687022900763359,-1.4045801526717556,0.07861328125,-0.085205078125,-0.604736328125,0.8721
1.5877862595419847,1.1145038167938932,-1.3282442748091603,0.079345703125,-0.08447265625,-0.608642578125,0.8737999999999999
1.5267175572519085,1.1297709923664123,-1.3129770992366412,0.0771484375,-0.08154296875,-0.60888671875,0.8755
1.5114503816793894,1.297709923664122,-1.2671755725190839,0.08056640625,-0.08349609375,-0.600830078125,0.8772
1.2366412213740459,1.1755725190839694,-1.1450381679389312,0.07958984375,-0.08642578125,-0.60595703125,0.8788999999999999
1.3435114503816794,1.282442748091603,-1.2671755725190839,0.07568359375,-0.084716796875,-0.60693359375,0.8805999999999999
1.297709923664122,1.465648854961832,-1.2671755725190839,0.07861328125,-0.085693359375,-0.60009765625,0.8823
1.465648854961832,1.4809160305343512,-1.3740458015267176,0.075439453125,-0.082763671875,-0.6025390625,0.8839999999999999
1.083969465648855,1.5114503816793894,-1.2366412213740459,0.077880859375,-0.07958984375,-0.5986328125,0.8856999999999999
1.2061068702290076,1.4961832061068703,-1.3893129770992367,0.079345703125,-0.082275390625,-0.604736328125,0.8874
1.083969465648855,1.450381679389313,-1.2213740458015268,0.081787109375,-0.085693359375,-0.60888671875,0.8891
0.8854961832061069,1.618320610687023,-1.6030534351145038,0.080078125,-0.084716796875,-0.60205078125,0.8907999999999999
0.8091603053435115,1.5572519083969465,-1.3893129770992367,0.0751953125,-0.08251953125,-0.597900390625,0.8925
0.6564885496183206,1.816793893129771,-1.5572519083969465,0.0771484375,-0.07666015625,-0.591796875,0.8942
0.33587786259541985,1.9083969465648856,-1.4198473282442747,0.0810546875,-0.07958984375,-0.594970703125,0.8958999999999999
0.22900763358778625,1.8778625954198473,-1.6946564885496183,0.075927734375,-0.081298828125,-0.602783203125,0.8976
0.22900763358778625,1.984732824427481,-1.3740458015267176,0.076416015625,-0.0810546875,-0.599853515625,0.8993
0.3053435114503817,1.9389312977099236,-1.5572519083969465,0.08251953125,-0.072509765625,-0.600341796875,0.9009999999999999
0.366412213740458,2.030534351145038,-1.6030534351145038,0.077392578125,-0.072998046875,-0.597412109375,0.9027
0.16793893129770993,2.198473282442748,-1.7404580152671756,0.075439453125,-0.073486328125,-0.60791015625,0.9044
0.2748091603053435,2.1068702290076335,-1.7709923664122138,0.07763671875,-0.073974609375,-0.60986328125,0.9060999999999999
0.42748091603053434,2.1374045801526718,-1.83206106870229,0.078369140625,-0.076171875,-0.600341796875,0.9077999999999999
0.5343511450381679,2.045801526717557,-1.83206106870229,0.08203125,-0.07177734375,-0.597412109375,0.9095
0.6259541984732825,2.2290076335877864,-1.816793893129771,0.084716796875,-0.079833984375,-0.610595703125,0.9111999999999999
0.5343511450381679,2.4122137404580153,-1.9236641221374047,0.08203125,-0.07275390625,-0.60498046875,0.9128999999999999
0.7480916030534351,2.198473282442748,-2.198473282442748,0.08642578125,-0.07861328125,-0.60693359375,0.9146
0.9007633587786259,2.381679389312977,-1.6946564885496183,0.080322265625,-0.072509765625,-0.6044921875,0.9163
1.282442748091603,2.50381679389313,-2.0,0.079345703125,-0.076904296875,-0.608642578125,0.9179999999999999
1.4198473282442747,2.366412213740458,-1.7557251908396947,0.078125,-0.08203125,-0.60205078125,0.9197
1.2061068702290076,2.366412213740458,-1.7251908396946565,0.07861328125,-0.076171875,-0.604736328125,0.9214
1.5877862595419847,2.4732824427480917,-1.7404580152671756,0.087890625,-0.0771484375,-0.605712890625,0.9230999999999999
1.9694656488549618,2.2595419847328246,-1.7099236641221374,0.08203125,-0.07421875,-0.60791015625,0.9248
1.7557251908396947,2.4427480916030535,-1.618320610687023,0.088623046875,-0.073974609375,-0.607421875,0.9265
1.7709923664122138,2.3969465648854964,-1.6946564885496183,0.081787109375,-0.076904296875,-0.603515625,0.9281999999999999
1.8931297709923665,2.4732824427480917,-1.5114503816793894,0.080078125,-0.07373046875,-0.602783203125,0.9299
1.9541984732824427,2.3969465648854964,-1.4045801526717556,0.07861328125,-0.07470703125,-0.59619140625,0.9316
2.045801526717557,2.1526717557251906,-1.3587786259541985,0.084228515625,-0.075439453125,-0.6064453125,0.9332999999999999
1.8931297709923665,2.33587786259542,-1.4961832061068703,0.08251953125,-0.076416015625,-0.6005859375,0.9349999999999999
1.7709923664122138,2.2595419847328246,-1.2671755725190839,0.08203125,-0.076416015625,-0.5947265625,0.9367
2.0,1.9694656488549618,-1.297709923664122,0.081787109375,-0.0751953125,-0.596923828125,0.9383999999999999
1.9694656488549618,2.015267175572519,-1.099236641221374,0.0810546875,-0.074951171875,-0.601318359375,0.9400999999999999
1.9541984732824427,1.9541984732824427,-1.1908396946564885,0.08349609375,-0.07958984375,-0.597900390625,0.9418
2.0,1.7251908396946565,-0.9465648854961832,0.0810546875,-0.078857421875,-0.60302734375,0.9434999999999999
2.1526717557251906,1.7557251908396947,-1.083969465648855,0.083740234375,-0.073486328125,-0.596923828125,0.9451999999999999
2.1068702290076335,1.8015267175572518,-1.0534351145038168,0.080322265625,-0.083984375,-0.596435546875,0.9469
2.2900763358778624,1.633587786259542,-1.2061068702290076,0.08203125,-0.078857421875,-0.6025390625,0.9486
2.33587786259542,1.7099236641221374,-1.0076335877862594,0.079833984375,-0.075439453125,-0.6083984375,0.9502999999999999
2.183206106870229,1.5877862595419847,-1.083969465648855,0.081298828125,-0.08203125,-0.601806640625,0.952
2.2290076335877864,1.5725190839694656,-0.7786259541984732,0.08203125,-0.08349609375,-0.607177734375,0.9537
2.33587786259542,1.5725190839694656,-0.9007633587786259,0.079833984375,-0.079345703125,-0.60546875,0.9553999999999999
2.3206106870229006,1.5419847328244274,-0.8091603053435115,0.083740234375,-0.08056640625,-0.596435546875,0.9571
2.0763358778625953,1.5877862595419847,-0.916030534351145,0.0830078125,-0.081787109375,-0.603759765625,0.9588
1.9236641221374047,1.5877862595419847,-0.6717557251908397,0.084228515625,-0.07861328125,-0.596923828125,0.9604999999999999
1.8778625954198473,1.2671755725190839,-0.7938931297709924,0.08251953125,-0.0810546875,-0.5966796875,0.9621999999999999
1.7099236641221374,1.3435114503816794,-0.8091603053435115,0.07861328125,-0.077392578125,-0.596923828125,0.9639
1.6030534351145038,1.4198473282442747,-0.7022900763358778,0.080322265625,-0.082275390625,-0.608642578125,0.9655999999999999
1.465648854961832,1.3129770992366412,-0.6412213740458015,0.080322265625,-0.083740234375,-0.608154296875,0.9672999999999999
1.5572519083969465,1.3893129770992367,-0.9312977099236641,0.084716796875,-0.081787109375,-0.6005859375,0.969
1.5114503816793894,1.2061068702290076,-0.8244274809160306,0.07958984375,-0.086181640625,-0.593505859375,0.9706999999999999
1.2671755725190839,1.0076335877862594,-0.9770992366412213,0.07666015625,-0.07958984375,-0.598876953125,0.9723999999999999
1.3129770992366412,1.099236641221374,-0.9923664122137404,0.079833984375,-0.08544921875,-0.605712890625,0.9741
1.450381679389313,1.1297709923664123,-1.083969465648855,0.0771484375,-0.0830078125,-0.6005859375,0.9758
1.465648854961832,1.1450381679389312,-1.2061068702290076,0.0810546875,-0.0859375,-0.6064453125,0.9774999999999999
1.4351145038167938,0.9312977099236641,-1.4809160305343512,0.081298828125,-0.079833984375,-0.597412109375,0.9792
1.4961832061068703,0.7938931297709924,-1.2671755725190839,0.07763671875,-0.0830078125,-0.596435546875,0.9809
1.450381679389313,0.9618320610687023,-1.6030534351145038,0.07861328125,-0.08154296875,-0.59326171875,0.9825999999999999
1.5572519083969465,0.8091603053435115,-1.465648854961832,0.0771484375,-0.07470703125,-0.598388671875,0.9843
1.5877862595419847,0.8854961832061069,-1.4351145038167938,0.075439453125,-0.077880859375,-0.600830078125,0.986
1.2366412213740459,0.9618320610687023,-1.4351145038167938,0.07568359375,-0.0791015625,-0.598388671875,0.9876999999999999
1.1908396946564885,1.0381679389312977,-1.3587786259541985,0.076904296875,-0.07373046875,-0.60009765625,0.9894
1.2061068702290076,0.9618320610687023,-1.3587786259541985,0.0732421875,-0.068603515625,-0.60498046875,0.9911
1.0534351145038168,0.9465648854961832,-1.4351145038167938,0.078125,-0.07275390625,-0.601318359375,0.9927999999999999
0.7786259541984732,1.1755725190839694,-1.3129770992366412,0.0771484375,-0.078369140625,-0.602783203125,0.9944999999999999
0.9312977099236641,1.282442748091603,-1.465648854961832,0.074951171875,-0.07177734375,-0.599609375,0.9962
0.9618320610687023,1.2213740458015268,-1.2061068702290076,0.0771484375,-0.078369140625,-0.600830078125,0.9978999999999999
0.7938931297709924,1.4351145038167938,-1.5267175572519085,0.077392578125,-0.074951171875,-0.604736328125,0.9995999999999999
1.1603053435114503,1.3435114503816794,-1.4961832061068703,0.074951171875,-0.07373046875,-0.599609375,1.0012999999999999
1.2213740458015268,1.3893129770992367,-1.3893129770992367,0.080078125,-0.072998046875,-0.6083984375,1.003
1.1908396946564885,1.3893129770992367,-1.4809160305343512,0.080078125,-0.073486328125,-0.604736328125,1.0047
1.2366412213740459,1.465648854961832,-1.4351145038167938,0.078369140625,-0.073974609375,-0.594970703125,1.0064
1.4961832061068703,1.3435114503816794,-1.618320610687023,0.0771484375,-0.07666015625,-0.598876953125,1.0081
1.6030534351145038,1.282442748091603,-1.618320610687023,0.077392578125,-0.074951171875,-0.60693359375,1.0098
1.7251908396946565,1.282442748091603,-1.4045801526717556,0.07568359375,-0.077880859375,-0.604248046875,1.0114999999999998
2.015267175572519,1.3129770992366412,-1.5572519083969465,0.078369140625,-0.080078125,-0.596435546875,1.0131999999999999
2.366412213740458,1.4961832061068703,-1.5877862595419847,0.0751953125,-0.078857421875,-0.603759765625,1.0149
2.33587786259542,1.251908396946565,-1.6488549618320612,0.07470703125,-0.080078125,-0.602294921875,1.0166
2.564885496183206,1.0687022900763359,-1.5572519083969465,0.083740234375,-0.080810546875,-0.602294921875,1.0183
2.6412213740458017,1.1755725190839694,-1.4809160305343512,0.078857421875,-0.076416015625,-0.60400390625,1.02
2.8396946564885495,1.0534351145038168,-1.6946564885496183,0.07861328125,-0.074951171875,-0.605224609375,1.0217
2.8702290076335877,1.2061068702290076,-1.816793893129771,0.080810546875,-0.076416015625,-0.601806640625,1.0233999999999999
2.7786259541984735,1.0229007633587786,-1.6641221374045803,0.075927734375,-0.0771484375,-0.60546875,1.0251
2.9618320610687023,1.0381679389312977,-1.6793893129770991,0.080322265625,-0.081298828125,-0.609130859375,1.0268
2.8702290076335877,1.0076335877862594,-1.633587786259542,0.07421875,-0.08056640625,-0.603759765625,1.0285
2.687022900763359,1.2061068702290076,-1.7251908396946565,0.081787109375,-0.085205078125,-0.603515625,1.0302
2.854961832061069,1.251908396946565,-1.816793893129771,0.076904296875,-0.08251953125,-0.59765625,1.0319
2.2595419847328246,1.1908396946564885,-1.5725190839694656,0.0771484375,-0.08349609375,-0.599365234375,1.0335999999999999
2.1526717557251906,1.282442748091603,-1.7557251908396947,0.078369140625,-0.08349609375,-0.604736328125,1.0352999999999999
2.045801526717557,1.3893129770992367,-1.618320610687023,0.080322265625,-0.081787109375,-0.60107421875,1.037
1.8931297709923665,1.633587786259542,-1.83206106870229,0.075439453125,-0.079345703125,-0.598876953125,1.0387
1.6946564885496183,1.7099236641221374,-1.786259541984733,0.07568359375,-0.084716796875,-0.605712890625,1.0404
1.4045801526717556,1.6030534351145038,-1.786259541984733,0.07421875,-0.078857421875,-0.59765625,1.0421
1.4351145038167938,1.633587786259542,-1.6641221374045803,0.07666015625,-0.08447265625,-0.604736328125,1.0437999999999998
1.2213740458015268,1.7709923664122138,-1.8931297709923665,0.077880859375,-0.08447265625,-0.6005859375,1.0454999999999999
0.8854961832061069,1.816793893129771,-1.9083969465648856,0.076416015625,-0.08056640625,-0.595458984375,1.0472
0.6412213740458015,1.83206106870229,-1.8015267175572518,0.075439453125,-0.084228515625,-0.5966796875,1.0489
0.6106870229007634,2.0610687022900764,-1.816793893129771,0.076904296875,-0.081787109375,-0.6005859375,1.0506
0.4580152671755725,2.030534351145038,-2.1068702290076335,0.076171875,-0.088134765625,-0.6083984375,1.0523
0.549618320610687,2.015267175572519,-1.8931297709923665,0.08154296875,-0.084228515625,-0.60498046875,1.054
0.32061068702290074,2.030534351145038,-2.0,0.08203125,-0.08349609375,-0.5986328125,1.0556999999999999
0.183206106870229,2.0763358778625953,-1.8625954198473282,0.075439453125,-0.079345703125,-0.601806640625,1.0574
0.24427480916030533,2.0916030534351147,-1.9694656488549618,0.084228515625,-0.084716796875,-0.59521484375,1.0591
0.3511450381679389,2.1068702290076335,-2.015267175572519,0.078857421875,-0.078369140625,-0.596435546875,1.0608
0.183206106870229,1.9541984732824427,-2.045801526717557,0.081787109375,-0.08447265625,-0.591064453125,1.0625
0.3816793893129771,1.8931297709923665,-1.984732824427481,0.082763671875,-0.07861328125,-0.60595703125,1.0642
0.2595419847328244,1.83206106870229,-2.015267175572519,0.079345703125,-0.07470703125,-0.60498046875,1.0658999999999998
0.4122137404580153,1.7557251908396947,-1.7557251908396947,0.083984375,-0.077392578125,-0.596435546875,1.0675999999999999
0.5190839694656488,1.8015267175572518,-1.83206106870229,0.084228515625,-0.081298828125,-0.60107421875,1.0693
0.42748091603053434,1.9694656488549618,-1.6488549618320612,0.082763671875,-0.0751953125,-0.603271484375,1.071
0.5038167938931297,1.7557251908396947,-1.7557251908396947,0.078369140625,-0.07861328125,-0.6005859375,1.0727
0.6870229007633588,1.618320610687023,-1.4351145038167938,0.080322265625,-0.073974609375,-0.6025390625,1.0744
0.7938931297709924,1.7099236641221374,-1.4045801526717556,0.084716796875,-0.082275390625,-0.6005859375,1.0760999999999998
1.1297709923664123,1.450381679389313,-1.3435114503816794,0.078857421875,-0.074462890625,-0.60205078125,1.0777999999999999
1.0076335877862594,1.3282442748091603,-1.5114503816793894,0.080810546875,-0.0791015625,-0.604248046875,1.0795
0.8702290076335878,1.3435114503816794,-1.4351145038167938,0.08544921875,-0.078857421875,-0.589599609375,1.0812
1.1755725190839694,1.2366412213740459,-1.3435114503816794,0.08447265625,-0.072998046875,-0.58984375,1.0829
1.099236641221374,0.9312977099236641,-1.2061068702290076,0.080810546875,-0.073486328125,-0.599365234375,1.0846
0.916030534351145,0.9618320610687023,-1.3893129770992367,0.0810546875,-0.083251953125,-0.60009765625,1.0863
1.2061068702290076,0.9465648854961832,-1.099236641221374,0.081298828125,-0.076904296875,-0.5966796875,1.0879999999999999
1.297709923664122,0.9465648854961832,-1.4045801526717556,0.078369140625,-0.082763671875,-0.601806640625,1.0897
1.3282442748091603,0.7633587786259542,-1.2671755725190839,0.086181640625,-0.076904296875,-0.599365234375,1.0914
1.3435114503816794,0.8091603053435115,-1.4198473282442747,0.080078125,-0.082275390625,-0.6005859375,1.0931
1.3893129770992367,0.6259541984732825,-1.2671755725190839,0.078369140625,-0.078857421875,-0.611083984375,1.0948
1.1450381679389312,0.6412213740458015,-1.2061068702290076,0.07763671875,-0.0810546875,-0.611083984375,1.0965
1.465648854961832,0.7786259541984732,-1.3282442748091603,0.077392578125,-0.075439453125,-0.601806640625,1.0981999999999998
1.5419847328244274,0.5343511450381679,-1.4809160305343512,0.08056640625,-0.076904296875,-0.60595703125,1.0998999999999999
1.5114503816793894,0.7022900763358778,-1.1450381679389312,0.083984375,-0.078369140625,-0.603271484375,1.1016
1.5419847328244274,0.6717557251908397,-1.099236641221374,0.080810546875,-0.077880859375,-0.602783203125,1.1033
1.618320610687023,0.5954198473282443,-0.9770992366412213,0.083251953125,-0.07568359375,-0.603759765625,1.105
1.816793893129771,0.9618320610687023,-1.0534351145038168,0.07861328125,-0.078125,-0.60546875,1.1067
1.7404580152671756,0.7938931297709924,-1.1297709923664123,0.081787109375,-0.07666015625,-0.601318359375,1.1083999999999998
1.7557251908396947,0.7175572519083969,-1.1908396946564885,0.079833984375,-0.078125,-0.59814453125,1.1100999999999999
1.5725190839694656,0.9465648854961832,-0.9770992366412213,0.07666015625,-0.07275390625,-0.60205078125,1.1118
1.5267175572519085,0.8396946564885496,-0.9007633587786259,0.078369140625,-0.071533203125,-0.6005859375,1.1135
1.6793893129770991,0.8854961832061069,-0.9770992366412213,0.076904296875,-0.08056640625,-0.599365234375,1.1152
1.7557251908396947,0.9007633587786259,-1.1450381679389312,0.076904296875,-0.076904296875,-0.606201171875,1.1169
2.045801526717557,0.8396946564885496,-0.9923664122137404,0.078369140625,-0.07177734375,-0.61474609375,1.1186
1.8778625954198473,0.6717557251908397,-1.1297709923664123,0.079345703125,-0.07177734375,-0.6025390625,1.1202999999999999
1.83206106870229,0.732824427480916,-1.0534351145038168,0.07958984375,-0.073974609375,-0.609375,1.1219999999999999
1.984732824427481,0.9465648854961832,-1.2671755725190839,0.073974609375,-0.078369140625,-0.605224609375,1.1237
1.9389312977099236,0.6106870229007634,-1.1297709923664123,0.078125,-0.072021484375,-0.6044921875,1.1254
1.9389312977099236,0.6564885496183206,-1.1908396946564885,0.081298828125,-0.07373046875,-0.609130859375,1.1271
2.213740458015267,0.732824427480916,-1.083969465648855,0.070068359375,-0.076904296875,-0.6005859375,1.1288
2.122137404580153,0.7633587786259542,-1.1755725190839694,0.0751953125,-0.0791015625,-0.60791015625,1.1304999999999998
2.030534351145038,0.48854961832061067,-1.2213740458015268,0.078125,-0.074462890625,-0.600830078125,1.1321999999999999
2.1068702290076335,0.6717557251908397,-1.3435114503816794,0.0791015625,-0.078857421875,-0.60400390625,1.1339
2.122137404580153,0.6870229007633588,-1.3129770992366412,0.079345703125,-0.076416015625,-0.597412109375,1.1356
2.213740458015267,0.6564885496183206,-1.3587786259541985,0.0751953125,-0.076416015625,-0.599609375,1.1373
2.33587786259542,0.6412213740458015,-1.2366412213740459,0.07666015625,-0.078369140625,-0.60400390625,1.139
2.16793893129771,0.6564885496183206,-1.3740458015267176,0.075439453125,-0.08740234375,-0.606689453125,1.1407
2.1068702290076335,0.44274809160305345,-1.3282442748091603,0.072265625,-0.080810546875,-0.592529296875,1.1423999999999999
2.2595419847328246,0.3816793893129771,-1.5267175572519085,0.078369140625,-0.0830078125,-0.59375,1.1441
2.183206106870229,0.2748091603053435,-1.3893129770992367,0.07861328125,-0.07958984375,-0.603271484375,1.1458
1.984732824427481,0.22900763358778625,-1.5267175572519085,0.07666015625,-0.0771484375,-0.60595703125,1.1475
1.7404580152671756,0.2900763358778626,-1.4809160305343512,0.075439453125,-0.080322265625,-0.602783203125,1.1492
1.6641221374045803,0.32061068702290074,-1.6488549618320612,0.07666015625,-0.079833984375,-0.602783203125,1.1509
1.6030534351145038,0.15267175572519084,-1.6946564885496183,0.079833984375,-0.080078125,-0.602783203125,1.1525999999999998
1.5725190839694656,0.04580152671755725,-1.5419847328244274,0.081298828125,-0.081298828125,-0.5947265625,1.1542999999999999
1.618320610687023,0.22900763358778625,-1.465648854961832,0.083740234375,-0.07861328125,-0.5986328125,1.156
1.4045801526717556,0.21374045801526717,-1.7404580152671756,0.076171875,-0.08447265625,-0.59814453125,1.1577
1.6488549618320612,0.32061068702290074,-1.5572519083969465,0.076171875,-0.0810546875,-0.601318359375,1.1594
1.5419847328244274,-0.015267175572519083,-1.5725190839694656,0.07861328125,-0.077392578125,-0.59765625,1.1611
1.5572519083969465,0.183206106870229,-1.618320610687023,0.07958984375,-0.087158203125,-0.59912109375,1.1627999999999998
1.3282442748091603,0.15267175572519084,-1.465648854961832,0.076904296875,-0.08154296875,-0.597412109375,1.1644999999999999
1.5419847328244274,0.2748091603053435,-1.7557251908396947,0.07861328125,-0.083984375,-0.59521484375,1.1662
1.3587786259541985,0.2595419847328244,-1.816793893129771,0.076416015625,-0.08251953125,-0.60400390625,1.1679
1.2061068702290076,0.3053435114503817,-1.6641221374045803,0.07861328125,-0.086181640625,-0.606201171875,1.1696
1.0381679389312977,0.24427480916030533,-1.9083969465648856,0.076904296875,-0.083984375,-0.60986328125,1.1713
0.7633587786259542,0.3053435114503817,-1.8778625954198473,0.077392578125,-0.08056640625,-0.603759765625,1.173
0.7938931297709924,0.6106870229007634,-1.9236641221374047,0.07421875,-0.075927734375,-0.6044921875,1.1746999999999999
0.7175572519083969,0.42748091603053434,-2.0,0.081298828125,-0.076416015625,-0.602294921875,1.1764
0.42748091603053434,0.3816793893129771,-1.9541984732824427,0.0810546875,-0.08447265625,-0.60400390625,1.1781
0.5648854961832062,0.5343511450381679,-1.9083969465648856,0.071533203125,-0.0791015625,-0.60009765625,1.1798
0.44274809160305345,0.6259541984732825,-1.7251908396946565,0.082763671875,-0.078125,-0.605224609375,1.1815
0.7022900763358778,0.5190839694656488,-1.8015267175572518,0.08203125,-0.079833984375,-0.6015625,1.1832
0.7633587786259542,0.6564885496183206,-1.83206106870229,0.076416015625,-0.0810546875,-0.603271484375,1.1848999999999998
0.6259541984732825,0.48854961832061067,-1.8015267175572518,0.075927734375,-0.07958984375,-0.6005859375,1.1865999999999999
0.9007633587786259,0.5343511450381679,-2.015267175572519,0.074462890625,-0.083251953125,-0.597900390625,1.1883
0.8702290076335878,0.5648854961832062,-1.7709923664122138,0.078369140625,-0.080322265625,-0.602294921875,1.19
1.083969465648855,0.33587786259541985,-1.8778625954198473,0.079345703125,-0.078125,-0.60205078125,1.1917
1.1145038167938932,0.3511450381679389,-1.9694656488549618,0.080810546875,-0.076904296875,-0.598388671875,1.1934
1.251908396946565,0.549618320610687,-2.0,0.077392578125,-0.077880859375,-0.596435546875,1.1950999999999998
1.6030534351145038,0.48854961832061067,-1.83206106870229,0.07666015625,-0.081298828125,-0.598388671875,1.1967999999999999
1.786259541984733,0.3816793893129771,-2.015267175572519,0.0771484375,-0.076171875,-0.598876953125,1.1985
1.7709923664122138,0.4122137404580153,-1.9236641221374047,0.0830078125,-0.076904296875,-0.603759765625,1.2002
1.786259541984733,0.4732824427480916,-1.8778625954198473,0.078125,-0.0771484375,-0.60205078125,1.2019
2.045801526717557,0.5648854961832062,-1.9694656488549618,0.08056640625,-0.076416015625,-0.60546875,1.2036
2.122137404580153,0.48854961832061067,-1.9083969465648856,0.080810546875,-0.07763671875,-0.606689453125,1.2053
1.9694656488549618,0.3816793893129771,-1.83206106870229,0.0791015625,-0.074462890625,-0.59765625,1.2069999999999999
2.0916030534351147,0.5190839694656488,-1.8778625954198473,0.07666015625,-0.078857421875,-0.60302734375,1.2086999999999999
2.16793893129771,0.6564885496183206,-1.8625954198473282,0.0791015625,-0.072998046875,-0.603515625,1.2104
2.045801526717557,0.7938931297709924,-1.6946564885496183,0.08349609375,-0.07470703125,-0.60693359375,1.2121
2.045801526717557,0.7480916030534351,-1.450381679389313,0.07958984375,-0.07080078125,-0.60595703125,1.2138
2.2442748091603053,0.7938931297709924,-1.4809160305343512,0.078857421875,-0.079345703125,-0.597900390625,1.2155
2.045801526717557,0.916030534351145,-1.4961832061068703,0.08154296875,-0.0810546875,-0.60546875,1.2171999999999998
2.198473282442748,1.0687022900763359,-1.2213740458015268,0.080078125,-0.07958984375,-0.597412109375,1.2188999999999999
2.045801526717557,1.0076335877862594,-1.465648854961832,0.076904296875,-0.081787109375,-0.60205078125,1.2206
2.045801526717557,0.9618320610687023,-1.0534351145038168,0.078857421875,-0.076416015625,-0.598388671875,1.2223
2.122137404580153,1.1297709923664123,-1.297709923664122,0.075927734375,-0.076171875,-0.598876953125,1.224
2.1526717557251906,1.1450381679389312,-1.2061068702290076,0.07666015625,-0.07958984375,-0.59326171875,1.2257
1.8931297709923665,1.1603053435114503,-1.282442748091603,0.080078125,-0.078857421875,-0.6025390625,1.2273999999999998
2.1526717557251906,1.1145038167938932,-1.1908396946564885,0.078125,-0.080810546875,-0.600830078125,1.2290999999999999
1.9389312977099236,1.0229007633587786,-1.282442748091603,0.082275390625,-0.0830078125,-0.603271484375,1.2308
1.6488549618320612,1.1908396946564885,-1.1603053435114503,0.078369140625,-0.0791015625,-0.602783203125,1.2325
1.786259541984733,0.9618320610687023,-1.282442748091603,0.07470703125,-0.080810546875,-0.605712890625,1.2342
1.984732824427481,1.1145038167938932,-1.251908396946565,0.07958984375,-0.082763671875,-0.60546875,1.2359
1.5267175572519085,0.9770992366412213,-1.282442748091603,0.083740234375,-0.0810546875,-0.601806640625,1.2376
1.2366412213740459,1.1450381679389312,-1.4198473282442747,0.08056640625,-0.08154296875,-0.60888671875,1.2392999999999998
1.2671755725190839,1.083969465648855,-1.633587786259542,0.08203125,-0.077880859375,-0.60400390625,1.2409999999999999
1.1755725190839694,1.0229007633587786,-1.7099236641221374,0.087890625,-0.084716796875,-0.6083984375,1.2427
0.9923664122137404,0.9770992366412213,-1.7099236641221374,0.086669921875,-0.080322265625,-0.61181640625,1.2444
0.5343511450381679,0.9923664122137404,-1.6488549618320612,0.0771484375,-0.07958984375,-0.602783203125,1.2461
0.2595419847328244,0.8244274809160306,-1.9083969465648856,0.08447265625,-0.0810546875,-0.6015625,1.2478
0.3969465648854962,0.9770992366412213,-1.6793893129770991,0.075439453125,-0.08154296875,-0.608642578125,1.2494999999999998
0.2595419847328244,0.7938931297709924,-1.7557251908396947,0.075927734375,-0.083251953125,-0.6044921875,1.2511999999999999
0.32061068702290074,0.7633587786259542,-1.633587786259542,0.08642578125,-0.07861328125,-0.604248046875,1.2529
0.07633587786259542,0.732824427480916,-1.7709923664122138,0.0791015625,-0.078369140625,-0.601806640625,1.2546
0.061068702290076333,0.7480916030534351,-1.633587786259542,0.080810546875,-0.081298828125,-0.60205078125,1.2563
0.015267175572519083,0.5038167938931297,-1.7099236641221374,0.083740234375,-0.0771484375,-0.60302734375,1.258
0.2900763358778626,0.42748091603053434,-1.618320610687023,0.0869140625,-0.076904296875,-0.605224609375,1.2596999999999998
0.24427480916030533,0.3511450381679389,-1.5572519083969465,0.08447265625,-0.0791015625,-0.610595703125,1.2613999999999999
0.183206106870229,0.3511450381679389,-1.465648854961832,0.085205078125,-0.078857421875,-0.600830078125,1.2631
0.42748091603053434,0.22900763358778625,-1.7099236641221374,0.089599609375,-0.072998046875,-0.599853515625,1.2648
0.6106870229007634,0.24427480916030533,-1.4809160305343512,0.083740234375,-0.07666015625,-0.606201171875,1.2665
0.6870229007633588,0.07633587786259542,-1.282442748091603,0.08203125,-0.07080078125,-0.6015625,1.2682
0.9007633587786259,0.24427480916030533,-1.0534351145038168,0.079345703125,-0.073974609375,-0.60693359375,1.2699
0.9465648854961832,0.04580152671755725,-1.1450381679389312,0.087158203125,-0.072265625,-0.611083984375,1.2715999999999998
1.1755725190839694,0.0916030534351145,-0.9923664122137404,0.08642578125,-0.072509765625,-0.6025390625,1.2732999999999999
1.3129770992366412,0.13740458015267176,-1.0687022900763359,0.075927734375,-0.078369140625,-0.60498046875,1.275
1.5725190839694656,-0.061068702290076333,-1.0229007633587786,0.07861328125,-0.073974609375,-0.60791015625,1.2767
1.6488549618320612,0.10687022900763359,-1.1450381679389312,0.079345703125,-0.076171875,-0.604248046875,1.2784
1.984732824427481,0.015267175572519083,-1.099236641221374,0.07568359375,-0.071533203125,-0.59619140625,1.2801
2.030534351145038,0.07633587786259542,-1.099236641221374,0.080322265625,-0.075439453125,-0.600830078125,1.2817999999999998
2.2595419847328246,0.061068702290076333,-0.9923664122137404,0.082763671875,-0.076416015625,-0.603515625,1.2834999999999999
2.3053435114503817,-0.15267175572519084,-1.0076335877862594,0.0810546875,-0.081787109375,-0.599609375,1.2852
2.4122137404580153,-0.12213740458015267,-0.9923664122137404,0.080078125,-0.073486328125,-0.6064453125,1.2869
2.763358778625954,-0.10687022900763359,-1.1450381679389312,0.07470703125,-0.07666015625,-0.597412109375,1.2886
2.7938931297709924,-0.0916030534351145,-0.9770992366412213,0.07568359375,-0.072998046875,-0.60498046875,1.2903
3.0229007633587788,0.12213740458015267,-0.732824427480916,0.0751953125,-0.072509765625,-0.605712890625,1.292
2.9770992366412212,0.15267175572519084,-0.7480916030534351,0.077880859375,-0.078857421875,-0.611572265625,1.2936999999999999
2.8702290076335877,0.13740458015267176,-1.0229007633587786,0.073974609375,-0.075439453125,-0.60791015625,1.2953999999999999
2.885496183206107,0.3511450381679389,-0.9465648854961832,0.079345703125,-0.075927734375,-0.609375,1.2971
2.7938931297709924,0.5343511450381679,-1.0534351145038168,0.072998046875,-0.07861328125,-0.610595703125,1.2988
2.732824427480916,0.4122137404580153,-0.9923664122137404,0.072265625,-0.078369140625,-0.6015625,1.3005
2.4732824427480917,0.5801526717557252,-1.2671755725190839,0.069091796875,-0.078369140625,-0.599853515625,1.3022
2.2900763358778624,0.6106870229007634,-1.2366412213740459,0.068359375,-0.08251953125,-0.599365234375,1.3038999999999998
2.1374045801526718,0.7175572519083969,-1.251908396946565,0.069091796875,-0.08056640625,-0.59814453125,1.3055999999999999
1.8778625954198473,0.8854961832061069,-1.1450381679389312,0.071533203125,-0.079345703125,-0.600341796875,1.3073
1.8015267175572518,1.0076335877862594,-1.297709923664122,0.073974609375,-0.07958984375,-0.593994140625,1.309
1.7557251908396947,1.0076335877862594,-1.3740458015267176,0.072998046875,-0.082275390625,-0.60205078125,1.3107
1.4198473282442747,1.1297709923664123,-1.5114503816793894,0.072021484375,-0.08447265625,-0.599365234375,1.3124
1.3282442748091603,1.251908396946565,-1.618320610687023,0.0693359375,-0.084716796875,-0.593017578125,1.3140999999999998
1.251908396946565,1.3740458015267176,-1.6793893129770991,0.075439453125,-0.0830078125,-0.603759765625,1.3157999999999999
1.3893129770992367,1.5419847328244274,-1.4351145038167938,0.07373046875,-0.08544921875,-0.607177734375,1.3175
1.3129770992366412,1.618320610687023,-1.7709923664122138,0.074951171875,-0.080078125,-0.60693359375,1.3192
1.1450381679389312,1.4045801526717556,-1.6030534351145038,0.07763671875,-0.07763671875,-0.60107421875,1.3209
1.083969465648855,1.5877862595419847,-1.7557251908396947,0.079345703125,-0.07763671875,-0.603515625,1.3226
1.0076335877862594,1.633587786259542,-1.6488549618320612,0.07470703125,-0.080810546875,-0.60107421875,1.3243
1.1908396946564885,1.618320610687023,-1.5114503816793894,0.07568359375,-0.08544921875,-0.60205078125,1.3259999999999998
1.0534351145038168,1.7099236641221374,-1.4809160305343512,0.0810546875,-0.083740234375,-0.6171875,1.3276999999999999
0.8396946564885496,1.6641221374045803,-1.4809160305343512,0.07763671875,-0.08349609375,-0.609130859375,1.3294
1.0229007633587786,1.465648854961832,-1.3893129770992367,0.073486328125,-0.078369140625,-0.602783203125,1.3311
0.8091603053435115,1.5572519083969465,-1.5267175572519085,0.08056640625,-0.079833984375,-0.603515625,1.3328
0.732824427480916,1.5419847328244274,-1.5572519083969465,0.07763671875,-0.07861328125,-0.6064453125,1.3345
0.8244274809160306,1.6030534351145038,-1.5114503816793894,0.07958984375,-0.078369140625,-0.599853515625,1.3361999999999998
0.8702290076335878,1.3587786259541985,-1.5114503816793894,0.075927734375,-0.081298828125,-0.604736328125,1.3378999999999999
0.8091603053435115,1.4198473282442747,-1.6641221374045803,0.07958984375,-0.077880859375,-0.598388671875,1.3396
0.8244274809160306,1.4809160305343512,-1.5725190839694656,0.07763671875,-0.077880859375,-0.608642578125,1.3413
0.732824427480916,1.3282442748091603,-1.618320610687023,0.081787109375,-0.078125,-0.6025390625,1.343
0.9618320610687023,1.1450381679389312,-1.3282442748091603,0.0810546875,-0.07666015625,-0.602783203125,1.3447
1.0076335877862594,1.1908396946564885,-1.7251908396946565,0.078857421875,-0.078125,-0.602783203125,1.3463999999999998
1.2213740458015268,1.1450381679389312,-1.6030534351145038,0.077880859375,-0.079345703125,-0.596923828125,1.3480999999999999
0.8854961832061069,1.1450381679389312,-1.6488549618320612,0.07958984375,-0.0751953125,-0.609130859375,1.3497999999999999
1.1603053435114503,1.1603053435114503,-1.3282442748091603,0.079345703125,-0.076171875,-0.605712890625,1.3515
1.099236641221374,1.2671755725190839,-1.4961832061068703,0.07763671875,-0.07861328125,-0.602783203125,1.3532
0.9007633587786259,1.297709923664122,-1.3129770992366412,0.07568359375,-0.076416015625,-0.595703125,1.3549
1.0381679389312977,1.3893129770992367,-1.3282442748091603,0.0810546875,-0.0791015625,-0.60009765625,1.3566
1.3129770992366412,1.4045801526717556,-1.3129770992366412,0.07275390625,-0.07275390625,-0.610107421875,1.3582999999999998
1.465648854961832,1.3129770992366412,-1.3587786259541985,0.074951171875,-0.077880859375,-0.6015625,1.3599999999999999
1.1755725190839694,1.5725190839694656,-1.1755725190839694,0.076171875,-0.082275390625,-0.59912109375,1.3617
1.1755725190839694,1.6946564885496183,-1.2061068702290076,0.07861328125,-0.07958984375,-0.609619140625,1.3634
1.3587786259541985,1.6946564885496183,-1.1755725190839694,0.07861328125,-0.08203125,-0.60791015625,1.3651
1.2061068702290076,1.7099236641221374,-1.0229007633587786,0.080078125,-0.085693359375,-0.603271484375,1.3668
1.297709923664122,1.8778625954198473,-1.2213740458015268,0.077880859375,-0.083740234375,-0.606689453125,1.3684999999999998
1.3740458015267176,2.045801526717557,-1.2213740458015268,0.082763671875,-0.08544921875,-0.609130859375,1.3701999999999999
1.2671755725190839,1.6946564885496183,-1.099236641221374,0.078125,-0.0810546875,-0.602783203125,1.3719
1.2671755725190839,2.0,-1.1755725190839694,0.0771484375,-0.083251953125,-0.596923828125,1.3736
1.2366412213740459,2.045801526717557,-1.251908396946565,0.07958984375,-0.080078125,-0.60302734375,1.3753
1.4198473282442747,1.9083969465648856,-1.3282442748091603,0.081298828125,-0.078857421875,-0.607666015625,1.377
1.2061068702290076,2.0,-1.5419847328244274,0.075927734375,-0.078369140625,-0.603515625,1.3786999999999998
1.1145038167938932,1.633587786259542,-1.6793893129770991,0.0771484375,-0.08349609375,-0.600830078125,1.3803999999999998
0.8549618320610687,1.786259541984733,-1.7404580152671756,0.076904296875,-0.0869140625,-0.604248046875,1.3820999999999999
1.0229007633587786,1.5572519083969465,-1.786259541984733,0.07763671875,-0.085693359375,-0.602783203125,1.3838
0.9923664122137404,1.7404580152671756,-2.045801526717557,0.07666015625,-0.08203125,-0.61181640625,1.3855
0.6106870229007634,1.7404580152671756,-2.030534351145038,0.078369140625,-0.079833984375,-0.613037109375,1.3872
0.549618320610687,1.6488549618320612,-2.16793893129771,0.07568359375,-0.082275390625,-0.609375,1.3889
0.6412213740458015,1.4809160305343512,-2.1526717557251906,0.07373046875,-0.0810546875,-0.611083984375,1.3905999999999998
0.6412213740458015,1.6793893129770991,-2.2290076335877864,0.076171875,-0.078369140625,-0.602783203125,1.3922999999999999
0.5343511450381679,1.8015267175572518,-2.2748091603053435,0.077880859375,-0.076904296875,-0.609619140625,1.394
0.7786259541984732,1.4351145038167938,-2.366412213740458,0.079833984375,-0.0791015625,-0.611083984375,1.3957
0.5648854961832062,1.5267175572519085,-2.4122137404580153,0.079345703125,-0.0771484375,-0.610107421875,1.3974
0.4580152671755725,1.618320610687023,-2.4885496183206106,0.079833984375,-0.077392578125,-0.60400390625,1.3991
0.5038167938931297,1.6946564885496183,-2.3206106870229006,0.080322265625,-0.072998046875,-0.606689453125,1.4007999999999998
0.6106870229007634,1.6946564885496183,-2.33587786259542,0.076416015625,-0.07666015625,-0.60595703125,1.4024999999999999
0.4732824427480916,1.6030534351145038,-2.16793893129771,0.079345703125,-0.073486328125,-0.613525390625,1.4042
0.32061068702290074,1.5572519083969465,-1.9389312977099236,0.076171875,-0.076171875,-0.599609375,1.4059
0.5801526717557252,1.7404580152671756,-1.984732824427481,0.075927734375,-0.079345703125,-0.61328125,1.4076
0.6106870229007634,1.786259541984733,-2.0763358778625953,0.07666015625,-0.074462890625,-0.60888671875,1.4093
0.33587786259541985,1.6946564885496183,-1.8931297709923665,0.08349609375,-0.078369140625,-0.609619140625,1.411
0.5648854961832062,1.618320610687023,-1.8778625954198473,0.0830078125,-0.07568359375,-0.604736328125,1.4126999999999998
0.549618320610687,1.4809160305343512,-1.6946564885496183,0.081298828125,-0.0771484375,-0.6025390625,1.4143999999999999
0.6106870229007634,1.6946564885496183,-1.786259541984733,0.0771484375,-0.076171875,-0.60400390625,1.4161
0.7175572519083969,1.6641221374045803,-1.5572519083969465,0.078857421875,-0.08203125,-0.60302734375,1.4178
0.8549618320610687,1.5419847328244274,-1.8015267175572518,0.085205078125,-0.075439453125,-0.60205078125,1.4195
1.2366412213740459,1.4961832061068703,-1.7099236641221374,0.076904296875,-0.074462890625,-0.6044921875,1.4212
1.3282442748091603,1.4351145038167938,-1.5572519083969465,0.076416015625,-0.074951171875,-0.607421875,1.4228999999999998
1.3435114503816794,1.5572519083969465,-1.5419847328244274,0.07568359375,-0.072998046875,-0.60107421875,1.4245999999999999
1.6793893129770991,1.3893129770992367,-1.5267175572519085,0.079833984375,-0.0771484375,-0.60205078125,1.4263
1.9236641221374047,1.3740458015267176,-1.4809160305343512,0.077880859375,-0.0732421875,-0.6005859375,1.428
1.816793893129771,1.4351145038167938,-1.3587786259541985,0.081298828125,-0.075439453125,-0.60791015625,1.4297
2.030534351145038,1.3282442748091603,-1.5267175572519085,0.079345703125,-0.07666015625,-0.603515625,1.4314
2.1068702290076335,1.4961832061068703,-1.8473282442748091,0.080322265625,-0.0791015625,-0.6044921875,1.4330999999999998
2.198473282442748,1.2671755725190839,-1.3893129770992367,0.084228515625,-0.079833984375,-0.60546875,1.4347999999999999
2.0610687022900764,1.2366412213740459,-1.786259541984733,0.07421875,-0.07861328125,-0.599365234375,1.4364999999999999
1.6641221374045803,1.3587786259541985,-1.5267175572519085,0.081298828125,-0.080078125,-0.600830078125,1.4382
1.5572519083969465,1.450381679389313,-1.465648854961832,0.075927734375,-0.080810546875,-0.610595703125,1.4399
1.450381679389313,1.4809160305343512,-1.4045801526717556,0.075927734375,-0.079833984375,-0.60302734375,1.4416
1.282442748091603,1.4351145038167938,-1.6488549618320612,0.07861328125,-0.0771484375,-0.603271484375,1.4433
1.1145038167938932,1.3740458015267176,-1.3587786259541985,0.076904296875,-0.083251953125,-0.602294921875,1.4449999999999998
1.0076335877862594,1.465648854961832,-1.5725190839694656,0.076171875,-0.08056640625,-0.607421875,1.4466999999999999
0.9770992366412213,1.450381679389313,-1.3740458015267176,0.0810546875,-0.08154296875,-0.602783203125,1.4484
0.7175572519083969,1.465648854961832,-1.282442748091603,0.081298828125,-0.078125,-0.589599609375,1.4501
0.7175572519083969,1.3435114503816794,-1.282442748091603,0.081787109375,-0.08349609375,-0.593994140625,1.4518
0.5648854961832062,1.297709923664122,-1.465648854961832,0.078369140625,-0.083251953125,-0.6064453125,1.4535
0.44274809160305345,1.251908396946565,-1.297709923664122,0.082763671875,-0.077880859375,-0.6015625,1.4551999999999998
0.549618320610687,1.282442748091603,-1.6488549618320612,0.0771484375,-0.076904296875,-0.60107421875,1.4568999999999999
0.4580152671755725,1.2061068702290076,-1.5419847328244274,0.075927734375,-0.081298828125,-0.603515625,1.4586
0.44274809160305345,1.3435114503816794,-1.4351145038167938,0.081787109375,-0.081298828125,-0.603759765625,1.4603
0.22900763358778625,1.1297709923664123,-1.5725190839694656,0.082763671875,-0.0791015625,-0.602294921875,1.462
0.1984732824427481,1.099236641221374,-1.8778625954198473,0.074462890625,-0.07421875,-0.605712890625,1.4637
-0.04580152671755725,0.8396946564885496,-1.6030534351145038,0.07861328125,-0.078125,-0.607666015625,1.4653999999999998
0.04580152671755725,1.0229007633587786,-1.7099236641221374,0.081298828125,-0.07421875,-0.600341796875,1.4670999999999998
0.12213740458015267,0.8854961832061069,-1.7099236641221374,0.0791015625,-0.077392578125,-0.605224609375,1.4687999999999999
0.07633587786259542,1.0381679389312977,-1.816793893129771,0.085205078125,-0.077392578125,-0.5986328125,1.4705
0.2748091603053435,0.8244274809160306,-1.618320610687023,0.07763671875,-0.072998046875,-0.60791015625,1.4722
0.42748091603053434,0.8854961832061069,-1.8778625954198473,0.078125,-0.07666015625,-0.598388671875,1.4739
0.44274809160305345,0.9465648854961832,-1.7404580152671756,0.076171875,-0.072021484375,-0.60595703125,1.4756
0.5801526717557252,1.0687022900763359,-1.9083969465648856,0.078369140625,-0.0703125,-0.593994140625,1.4772999999999998
0.7480916030534351,0.9007633587786259,-1.633587786259542,0.0751953125,-0.070068359375,-0.6015625,1.4789999999999999
1.1603053435114503,1.1450381679389312,-1.7404580152671756,0.076416015625,-0.07177734375,-0.60205078125,1.4807
1.4809160305343512,1.2061068702290076,-1.6946564885496183,0.073486328125,-0.075439453125,-0.59814453125,1.4824
1.633587786259542,1.282442748091603,-1.5419847328244274,0.0751953125,-0.073486328125,-0.594970703125,1.4841
1.8015267175572518,1.1755725190839694,-1.4961832061068703,0.075439453125,-0.07666015625,-0.604248046875,1.4858
2.16793893129771,1.251908396946565,-1.4351145038167938,0.076416015625,-0.078369140625,-0.60302734375,1.4874999999999998
2.3206106870229006,1.3587786259541985,-1.450381679389313,0.081298828125,-0.075927734375,-0.60791015625,1.4891999999999999
2.4122137404580153,1.282442748091603,-1.3282442748091603,0.080810546875,-0.079833984375,-0.596923828125,1.4909
2.732824427480916,1.3893129770992367,-1.1908396946564885,0.07666015625,-0.076904296875,-0.605224609375,1.4926
2.6564885496183206,1.5114503816793894,-1.2366412213740459,0.07958984375,-0.07421875,-0.60205078125,1.4943
2.900763358778626,1.5419847328244274,-1.1603053435114503,0.075927734375,-0.076416015625,-0.59716796875,1.496
2.9923664122137406,1.5267175572519085,-1.1908396946564885,0.07275390625,-0.07958984375,-0.598388671875,1.4976999999999998
2.9160305343511452,1.6793893129770991,-1.0076335877862594,0.0751953125,-0.07421875,-0.5849609375,1.4993999999999998
2.6259541984732824,1.7557251908396947,-0.8702290076335878,0.07763671875,-0.07568359375,-0.596435546875,1.5010999999999999
2.7786259541984735,1.6488549618320612,-0.9465648854961832,0.06982421875,-0.081298828125,-0.591796875,1.5028
2.6412213740458017,1.7404580152671756,-0.9465648854961832,0.072509765625,-0.07568359375,-0.593017578125,1.5045
2.4427480916030535,1.9389312977099236,-0.6870229007633588,0.075927734375,-0.081298828125,-0.595703125,1.5062
2.427480916030534,1.984732824427481,-0.8244274809160306,0.0771484375,-0.080322265625,-0.599365234375,1.5079
2.213740458015267,2.1374045801526718,-0.3969465648854962,0.071044921875,-0.080078125,-0.6015625,1.5095999999999998
2.351145038167939,2.030534351145038,-0.44274809160305345,0.076904296875,-0.08447265625,-0.593505859375,1.5112999999999999
2.1526717557251906,2.0763358778625953,-0.6106870229007634,0.0751953125,-0.08642578125,-0.59228515625,1.513
2.045801526717557,2.213740458015267,-0.6870229007633588,0.072998046875,-0.08447265625,-0.60205078125,1.5147
1.7251908396946565,2.1068702290076335,-0.6717557251908397,0.072265625,-0.083984375,-0.599365234375,1.5164
1.5725190839694656,2.1526717557251906,-0.549618320610687,0.0771484375,-0.084228515625,-0.60009765625,1.5181
1.4961832061068703,2.030534351145038,-0.5343511450381679,0.07666015625,-0.091064453125,-0.59716796875,1.5197999999999998
1.4351145038167938,2.0916030534351147,-0.6412213740458015,0.077392578125,-0.08642578125,-0.59619140625,1.5214999999999999
1.099236641221374,2.183206106870229,-0.7175572519083969,0.076904296875,-0.08447265625,-0.602294921875,1.5231999999999999
0.8396946564885496,2.045801526717557,-0.5954198473282443,0.076171875,-0.08642578125,-0.6064453125,1.5249
0.5954198473282443,1.9083969465648856,-0.732824427480916,0.07763671875,-0.089111328125,-0.607666015625,1.5266
0.22900763358778625,1.8778625954198473,-0.8244274809160306,0.07861328125,-0.0830078125,-0.59619140625,1.5283
0.0916030534351145,1.8778625954198473,-0.7022900763358778,0.07958984375,-0.0888671875,-0.599365234375,1.5299999999999998
0.0916030534351145,1.7251908396946565,-0.9007633587786259,0.079345703125,-0.0869140625,-0.601806640625,1.5316999999999998
-0.15267175572519084,1.7099236641221374,-0.9923664122137404,0.0791015625,-0.088134765625,-0.604736328125,1.5333999999999999
-0.2748091603053435,1.6641221374045803,-1.1450381679389312,0.078125,-0.082275390625,-0.60107421875,1.5351
-0.4732824427480916,1.5114503816793894,-1.1297709923664123,0.07568359375,-0.08447265625,-0.60693359375,1.5368
-0.9923664122137404,1.6030534351145038,-1.1297709923664123,0.081787109375,-0.08544921875,-0.60986328125,1.5385
-1.0534351145038168,1.3129770992366412,-1.1908396946564885,0.0791015625,-0.079345703125,-0.59765625,1.5402
-1.1297709923664123,1.2061068702290076,-1.3435114503816794,0.084228515625,-0.075439453125,-0.6005859375,1.5418999999999998
-1.4045801526717556,1.3282442748091603,-1.297709923664122,0.08251953125,-0.0791015625,-0.605224609375,1.5435999999999999
-1.2671755725190839,0.9770992366412213,-1.3282442748091603,0.081787109375,-0.07373046875,-0.609619140625,1.5453
-1.4045801526717556,1.099236641221374,-1.282442748091603,0.083251953125,-0.07373046875,-0.611572265625,1.547
-1.4351145038167938,0.8854961832061069,-1.3435114503816794,0.07666015625,-0.073486328125,-0.602783203125,1.5487
-1.3129770992366412,0.9465648854961832,-1.4198473282442747,0.078857421875,-0.07080078125,-0.6064453125,1.5504
-1.2366412213740459,0.8702290076335878,-1.4045801526717556,0.079833984375,-0.074462890625,-0.6044921875,1.5520999999999998
-1.3893129770992367,0.7786259541984732,-1.3740458015267176,0.076416015625,-0.07275390625,-0.603515625,1.5537999999999998
-1.1755725190839694,0.7022900763358778,-1.2671755725190839,0.08154296875,-0.0703125,-0.6015625,1.5554999999999999
-1.1297709923664123,0.4732824427480916,-1.2213740458015268,0.079345703125,-0.070556640625,-0.602783203125,1.5572
-0.6412213740458015,0.4122137404580153,-1.1755725190839694,0.07763671875,-0.0751953125,-0.611083984375,1.5589
-0.3816793893129771,0.33587786259541985,-1.2213740458015268,0.078369140625,-0.072998046875,-0.609619140625,1.5606
0.0,0.2595419847328244,-1.251908396946565,0.08544921875,-0.0703125,-0.607666015625,1.5623
0.21374045801526717,0.366412213740458,-1.0381679389312977,0.073486328125,-0.07470703125,-0.615478515625,1.5639999999999998
0.7480916030534351,0.0916030534351145,-1.1603053435114503,0.080078125,-0.07080078125,-0.60400390625,1.5656999999999999
1.099236641221374,0.0,-1.0076335877862594,0.076904296875,-0.065673828125,-0.612060546875,1.5674
1.4961832061068703,0.015267175572519083,-0.7175572519083969,0.076171875,-0.070556640625,-0.606689453125,1.5691
1.9236641221374047,0.2748091603053435,-0.916030534351145,0.079345703125,-0.077880859375,-0.603759765625,1.5708
2.16793893129771,0.04580152671755725,-0.732824427480916,0.0810546875,-0.070068359375,-0.608154296875,1.5725
2.4427480916030535,-0.10687022900763359,-0.8091603053435115,0.07861328125,-0.074462890625,-0.608642578125,1.5741999999999998
2.549618320610687,0.030534351145038167,-0.8549618320610687,0.0751953125,-0.07177734375,-0.603271484375,1.5758999999999999
2.8091603053435112,0.04580152671755725,-0.8244274809160306,0.075439453125,-0.074462890625,-0.60791015625,1.5776
3.2519083969465647,-0.15267175572519084,-0.9618320610687023,0.078369140625,-0.075439453125,-0.599609375,1.5793
3.2061068702290076,0.0,-0.9312977099236641,0.0751953125,-0.07275390625,-0.600830078125,1.581
3.1603053435114505,-0.10687022900763359,-0.42748091603053434,0.07763671875,-0.072265625,-0.599609375,1.5827
3.3282442748091605,-0.04580152671755725,-0.7633587786259542,0.07568359375,-0.076171875,-0.60302734375,1.5843999999999998
3.3740458015267176,-0.030534351145038167,-0.7938931297709924,0.07470703125,-0.0751953125,-0.59716796875,1.5860999999999998
3.312977099236641,0.0,-0.916030534351145,0.076416015625,-0.069580078125,-0.5947265625,1.5877999999999999
3.282442748091603,0.15267175572519084,-0.7480916030534351,0.0751953125,-0.081298828125,-0.60107421875,1.5895
3.3587786259541983,0.24427480916030533,-0.732824427480916,0.0712890625,-0.08251953125,-0.599853515625,1.5912
3.0076335877862594,0.32061068702290074,-0.7022900763358778,0.078125,-0.077880859375,-0.59619140625,1.5929
2.9923664122137406,0.5954198473282443,-0.9465648854961832,0.07421875,-0.0810546875,-0.597412109375,1.5946
2.9618320610687023,0.6870229007633588,-0.8396946564885496,0.073974609375,-0.081298828125,-0.6005859375,1.5962999999999998
2.885496183206107,0.7022900763358778,-0.6870229007633588,0.074951171875,-0.082275390625,-0.60400390625,1.5979999999999999
2.6717557251908395,0.6259541984732825,-0.7938931297709924,0.075439453125,-0.07958984375,-0.608154296875,1.5997
2.1068702290076335,0.8549618320610687,-0.8549618320610687,0.074462890625,-0.084716796875,-0.60400390625,1.6014
2.045801526717557,1.0381679389312977,-0.6717557251908397,0.072998046875,-0.08544921875,-0.611083984375,1.6031
1.83206106870229,0.9312977099236641,-0.7633587786259542,0.070556640625,-0.08447265625,-0.59765625,1.6048
1.7557251908396947,1.282442748091603,-0.6259541984732825,0.072509765625,-0.079345703125,-0.609130859375,1.6064999999999998
1.3740458015267176,1.633587786259542,-0.7633587786259542,0.07373046875,-0.08203125,-0.61279296875,1.6081999999999999
1.2671755725190839,1.5572519083969465,-0.7633587786259542,0.07763671875,-0.078125,-0.599853515625,1.6098999999999999
0.7480916030534351,1.6030534351145038,-0.7786259541984732,0.07568359375,-0.083984375,-0.601318359375,1.6116
0.44274809160305345,1.6641221374045803,-0.7480916030534351,0.076416015625,-0.08447265625,-0.60498046875,1.6133
0.3511450381679389,1.7557251908396947,-0.9465648854961832,0.076416015625,-0.078857421875,-0.6005859375,1.615
0.0916030534351145,1.7709923664122138,-0.7480916030534351,0.07666015625,-0.083740234375,-0.600830078125,1.6166999999999998
-0.13740458015267176,1.7099236641221374,-0.8854961832061069,0.076904296875,-0.0888671875,-0.60302734375,1.6183999999999998
-0.15267175572519084,1.5572519083969465,-0.8244274809160306,0.077880859375,-0.0830078125,-0.601318359375,1.6200999999999999
-0.2748091603053435,1.3587786259541985,-1.1145038167938932,0.0869140625,-0.08154296875,-0.599609375,1.6218
-0.5190839694656488,1.282442748091603,-0.9007633587786259,0.078125,-0.081787109375,-0.6044921875,1.6235
-0.5648854961832062,1.3740458015267176,-1.1297709923664123,0.0771484375,-0.0849609375,-0.609130859375,1.6252
-0.4122137404580153,1.1450381679389312,-1.2213740458015268,0.081787109375,-0.083251953125,-0.599609375,1.6269
-0.4580152671755725,1.1145038167938932,-1.4351145038167938,0.084716796875,-0.08056640625,-0.605712890625,1.6285999999999998
-0.5038167938931297,1.0229007633587786,-1.1603053435114503,0.0830078125,-0.077880859375,-0.6025390625,1.6302999999999999
-0.4122137404580153,0.916030534351145,-1.282442748091603,0.07861328125,-0.080078125,-0.613037109375,1.632
-0.33587786259541985,0.8702290076335878,-1.1908396946564885,0.084716796875,-0.083251953125,-0.606689453125,1.6337
-0.2595419847328244,0.8396946564885496,-1.1450381679389312,0.084716796875,-0.080078125,-0.61083984375,1.6354
-0.3053435114503817,0.8702290076335878,-1.0381679389312977,0.08349609375,-0.077880859375,-0.61083984375,1.6371
-0.32061068702290074,0.7480916030534351,-0.9770992366412213,0.080810546875,-0.075439453125,-0.597900390625,1.6387999999999998
-0.22900763358778625,0.8549618320610687,-1.0687022900763359,0.08056640625,-0.072509765625,-0.6142578125,1.6404999999999998
0.0,0.9007633587786259,-0.8549618320610687,0.082763671875,-0.07177734375,-0.61474609375,1.6421999999999999
-0.04580152671755725,0.732824427480916,-0.732824427480916,0.087158203125,-0.072265625,-0.60791015625,1.6439
-0.030534351145038167,0.7480916030534351,-0.8549618320610687,0.084228515625,-0.0771484375,-0.602783203125,1.6456
0.10687022900763359,0.6106870229007634,-0.6564885496183206,0.08251953125,-0.0751953125,-0.610107421875,1.6473
-0.04580152671755725,0.7786259541984732,-0.6259541984732825,0.084228515625,-0.072021484375,-0.605712890625,1.6489999999999998
0.015267175572519083,0.7480916030534351,-0.4122137404580153,0.08056640625,-0.07373046875,-0.6240234375,1.6506999999999998
0.21374045801526717,0.6259541984732825,-0.5801526717557252,0.08251953125,-0.07470703125,-0.619140625,1.6523999999999999
0.3816793893129771,0.549618320610687,-0.48854961832061067,0.08203125,-0.0703125,-0.604736328125,1.6541
0.549618320610687,0.7480916030534351,-0.5038167938931297,0.078369140625,-0.07177734375,-0.60595703125,1.6558
0.33587786259541985,0.7786259541984732,-0.32061068702290074,0.07861328125,-0.073486328125,-0.60400390625,1.6575
0.6717557251908397,0.549618320610687,-0.4732824427480916,0.081298828125,-0.07275390625,-0.598876953125,1.6592
0.8549618320610687,0.5801526717557252,-0.1984732824427481,0.072998046875,-0.076171875,-0.606689453125,1.6608999999999998
1.282442748091603,0.7938931297709924,-0.42748091603053434,0.078857421875,-0.07470703125,-0.6064453125,1.6625999999999999
1.450381679389313,0.6870229007633588,-0.24427480916030533,0.07470703125,-0.07421875,-0.60546875,1.6643
1.450381679389313,0.7022900763358778,-0.4732824427480916,0.0771484375,-0.0771484375,-0.612548828125,1.666
1.8015267175572518,0.6412213740458015,-0.33587786259541985,0.078369140625,-0.078369140625,-0.607421875,1.6677
1.8778625954198473,0.6412213740458015,-0.5954198473282443,0.074951171875,-0.070068359375,-0.60986328125,1.6694
2.0916030534351147,0.6717557251908397,-0.5038167938931297,0.081298828125,-0.074462890625,-0.604248046875,1.6710999999999998
2.2442748091603053,0.6259541984732825,-0.5954198473282443,0.078125,-0.082763671875,-0.5966796875,1.6727999999999998
2.1374045801526718,0.6564885496183206,-0.6106870229007634,0.0751953125,-0.07861328125,-0.601806640625,1.6744999999999999
2.213740458015267,0.5190839694656488,-0.7175572519083969,0.0771484375,-0.078125,-0.597900390625,1.6762
2.2290076335877864,0.6106870229007634,-0.6870229007633588,0.080078125,-0.078125,-0.599853515625,1.6779
2.3969465648854964,0.7175572519083969,-0.7786259541984732,0.0712890625,-0.07958984375,-0.606201171875,1.6796
2.3053435114503817,0.9007633587786259,-0.7175572519083969,0.07666015625,-0.079833984375,-0.599609375,1.6813
2.1526717557251906,1.0076335877862594,-0.7786259541984732,0.07080078125,-0.07861328125,-0.602783203125,1.6829999999999998
2.4122137404580153,1.0381679389312977,-0.8702290076335878,0.076416015625,-0.08056640625,-0.60498046875,1.6846999999999999
2.198473282442748,1.0687022900763359,-0.8549618320610687,0.07861328125,-0.078125,-0.609375,1.6864
2.183206106870229,1.1908396946564885,-0.8244274809160306,0.07275390625,-0.083251953125,-0.60302734375,1.6881
2.1374045801526718,1.3129770992366412,-0.8549618320610687,0.075439453125,-0.076416015625,-0.604248046875,1.6898
2.015267175572519,1.4198473282442747,-0.6412213740458015,0.0751953125,-0.08056640625,-0.604248046875,1.6915
1.8015267175572518,1.5572519083969465,-0.6412213740458015,0.072021484375,-0.07763671875,-0.596435546875,1.6931999999999998
1.816793893129771,1.7099236641221374,-0.7022900763358778,0.075927734375,-0.08203125,-0.60302734375,1.6948999999999999
1.5725190839694656,1.7251908396946565,-0.7480916030534351,0.08251953125,-0.085205078125,-0.60595703125,1.6965999999999999
1.2061068702290076,1.786259541984733,-0.7633587786259542,0.078125,-0.091064453125,-0.59912109375,1.6983
1.1755725190839694,1.8473282442748091,-0.8854961832061069,0.078857421875,-0.07861328125,-0.603515625,1.7
0.9465648854961832,1.8931297709923665,-1.0687022900763359,0.085693359375,-0.08251953125,-0.602294921875,1.7017
0.9618320610687023,1.8778625954198473,-1.0687022900763359,0.082275390625,-0.08544921875,-0.605224609375,1.7033999999999998
0.6717557251908397,1.83206106870229,-1.1297709923664123,0.078125,-0.07958984375,-0.6005859375,1.7050999999999998
0.4732824427480916,1.7251908396946565,-1.1755725190839694,0.08056640625,-0.083251953125,-0.60009765625,1.7067999999999999
0.3511450381679389,1.8778625954198473,-1.0229007633587786,0.082763671875,-0.08056640625,-0.6005859375,1.7085
0.32061068702290074,1.7251908396946565,-1.465648854961832,0.08349609375,-0.086669921875,-0.613525390625,1.7102
0.13740458015267176,1.6488549618320612,-1.618320610687023,0.084228515625,-0.080078125,-0.5947265625,1.7119
0.04580152671755725,1.6488549618320612,-1.465648854961832,0.0859375,-0.079833984375,-0.597412109375,1.7136
0.12213740458015267,1.5114503816793894,-1.282442748091603,0.07958984375,-0.0810546875,-0.61328125,1.7152999999999998
0.061068702290076333,1.633587786259542,-1.3282442748091603,0.0830078125,-0.074462890625,-0.606201171875,1.7169999999999999
0.061068702290076333,1.786259541984733,-1.4045801526717556,0.082763671875,-0.078369140625,-0.60595703125,1.7187
-0.061068702290076333,1.7099236641221374,-1.2671755725190839,0.08056640625,-0.078857421875,-0.607421875,1.7204
-0.0916030534351145,1.786259541984733,-1.2671755725190839,0.084228515625,-0.07958984375,-0.600830078125,1.7221
0.3053435114503817,1.5267175572519085,-1.251908396946565,0.076171875,-0.082275390625,-0.61279296875,1.7238
0.22900763358778625,1.5725190839694656,-1.1145038167938932,0.083251953125,-0.07861328125,-0.611328125,1.7254999999999998
0.4122137404580153,1.633587786259542,-1.0229007633587786,0.07958984375,-0.078857421875,-0.601806640625,1.7271999999999998
0.6412213740458015,1.5572519083969465,-0.916030534351145,0.086181640625,-0.077392578125,-0.603271484375,1.7288999999999999
0.6564885496183206,1.5419847328244274,-0.9007633587786259,0.08544921875,-0.076904296875,-0.607177734375,1.7306
0.7633587786259542,1.8015267175572518,-0.916030534351145,0.080078125,-0.08056640625,-0.597900390625,1.7323
0.6717557251908397,1.816793893129771,-0.8702290076335878,0.08349609375,-0.076904296875,-0.595947265625,1.734
0.7633587786259542,1.7099236641221374,-0.8702290076335878,0.080322265625,-0.07861328125,-0.599365234375,1.7356999999999998
1.0229007633587786,1.7251908396946565,-0.7786259541984732,0.078369140625,-0.07958984375,-0.60498046875,1.7373999999999998
1.0229007633587786,1.6946564885496183,-0.7022900763358778,0.078125,-0.07763671875,-0.603271484375,1.7390999999999999
1.0229007633587786,1.9083969465648856,-0.5954198473282443,0.075927734375,-0.078369140625,-0.60546875,1.7408
1.0381679389312977,1.9694656488549618,-0.5648854961832062,0.07763671875,-0.080078125,-0.59423828125,1.7425
0.9312977099236641,1.8931297709923665,-0.6259541984732825,0.079833984375,-0.081787109375,-0.59521484375,1.7442
1.2671755725190839,2.015267175572519,-0.5801526717557252,0.0771484375,-0.07861328125,-0.598876953125,1.7459
1.2366412213740459,2.0763358778625953,-0.4732824427480916,0.076904296875,-0.077880859375,-0.5947265625,1.7475999999999998
0.9312977099236641,2.0916030534351147,-0.5954198473282443,0.0791015625,-0.082763671875,-0.596923828125,1.7492999999999999
1.251908396946565,2.1374045801526718,-0.5954198473282443,0.083251953125,-0.08056640625,-0.592041015625,1.751
1.2061068702290076,2.2595419847328246,-0.549618320610687,0.0810546875,-0.082275390625,-0.59619140625,1.7527
1.0076335877862594,2.183206106870229,-0.5954198473282443,0.078125,-0.082763671875,-0.597412109375,1.7544
1.2061068702290076,2.183206106870229,-0.7786259541984732,0.077880859375,-0.08544921875,-0.589111328125,1.7561
1.1908396946564885,2.2900763358778624,-0.4732824427480916,0.078125,-0.07958984375,-0.598876953125,1.7577999999999998
0.7633587786259542,2.4732824427480917,-0.8091603053435115,0.082763671875,-0.08349609375,-0.58935546875,1.7594999999999998
0.916030534351145,2.2900763358778624,-0.7175572519083969,0.076904296875,-0.083984375,-0.593017578125,1.7611999999999999
0.9923664122137404,2.2900763358778624,-0.5954198473282443,0.081298828125,-0.086181640625,-0.59716796875,1.7629
1.0229007633587786,2.366412213740458,-0.732824427480916,0.07958984375,-0.084228515625,-0.591552734375,1.7646
0.9923664122137404,2.381679389312977,-0.7633587786259542,0.078857421875,-0.083740234375,-0.592529296875,1.7663
0.9770992366412213,2.50381679389313,-0.7022900763358778,0.08056640625,-0.08203125,-0.58935546875,1.7679999999999998
0.8702290076335878,2.4885496183206106,-0.9007633587786259,0.08203125,-0.083740234375,-0.587646484375,1.7696999999999998
1.1450381679389312,2.5343511450381677,-0.916030534351145,0.087646484375,-0.076416015625,-0.60107421875,1.7713999999999999
1.4198473282442747,2.549618320610687,-0.9312977099236641,0.082763671875,-0.07763671875,-0.5947265625,1.7731
1.3893129770992367,2.4885496183206106,-1.099236641221374,0.084716796875,-0.081298828125,-0.595458984375,1.7748
1.4961832061068703,2.50381679389313,-1.0076335877862594,0.078369140625,-0.076171875,-0.5908203125,1.7765
1.4809160305343512,2.763358778625954,-1.099236641221374,0.08203125,-0.078369140625,-0.5986328125,1.7782
1.251908396946565,2.687022900763359,-1.1603053435114503,0.07568359375,-0.082275390625,-0.60302734375,1.7798999999999998
1.2366412213740459,2.687022900763359,-1.0381679389312977,0.078369140625,-0.080810546875,-0.6083984375,1.7815999999999999
1.1603053435114503,2.519083969465649,-0.9770992366412213,0.07666015625,-0.072998046875,-0.607421875,1.7832999999999999
1.2671755725190839,2.6259541984732824,-0.9007633587786259,0.08349609375,-0.0751953125,-0.598388671875,1.785
1.3587786259541985,2.6412213740458017,-0.9923664122137404,0.082763671875,-0.0693359375,-0.591064453125,1.7867
1.3740458015267176,2.7480916030534353,-0.9465648854961832,0.0810546875,-0.0751953125,-0.60205078125,1.7884
1.3740458015267176,3.053435114503817,-1.0076335877862594,0.08251953125,-0.07080078125,-0.58642578125,1.7900999999999998
1.4198473282442747,2.8702290076335877,-0.6412213740458015,0.087158203125,-0.074462890625,-0.59423828125,1.7917999999999998
1.4351145038167938,2.8702290076335877,-0.7480916030534351,0.08154296875,-0.079833984375,-0.591796875,1.7934999999999999
1.7251908396946565,2.8091603053435112,-0.5648854961832062,0.084228515625,-0.07666015625,-0.604248046875,1.7952
1.7557251908396947,2.717557251908397,-0.549618320610687,0.08154296875,-0.078125,-0.607421875,1.7969
1.83206106870229,2.9618320610687023,-0.5343511450381679,0.0830078125,-0.077880859375,-0.603515625,1.7986
2.045801526717557,2.885496183206107,-0.6870229007633588,0.083740234375,-0.080078125,-0.592529296875,1.8002999999999998
2.045801526717557,2.7938931297709924,-0.5190839694656488,0.085205078125,-0.08349609375,-0.598388671875,1.8019999999999998
2.2290076335877864,2.763358778625954,-0.7633587786259542,0.08642578125,-0.082763671875,-0.597412109375,1.8036999999999999
