gyrox1,gyroy1,gyroz1,accelx1,accely1,accelz1,Time
0.2748091603053435,1.1297709923664123,-1.083969465648855,-0.442138671875,-0.164794921875,-0.13037109375,0.0
0.24427480916030533,1.2061068702290076,-1.1755725190839694,-0.436279296875,-0.169189453125,-0.125244140625,0.0017
0.42748091603053434,1.1297709923664123,-1.3740458015267176,-0.43896484375,-0.16455078125,-0.12646484375,0.0034
0.9007633587786259,0.9923664122137404,-1.1297709923664123,-0.4384765625,-0.1630859375,-0.124267578125,0.0050999999999999995
0.7786259541984732,1.0229007633587786,-1.0534351145038168,-0.43896484375,-0.160888671875,-0.120849609375,0.0068
1.1145038167938932,0.916030534351145,-1.1908396946564885,-0.441162109375,-0.16162109375,-0.122802734375,0.008499999999999999
1.083969465648855,0.8854961832061069,-1.2366412213740459,-0.443603515625,-0.162353515625,-0.123291015625,0.010199999999999999
1.251908396946565,0.8549618320610687,-1.3435114503816794,-0.438232421875,-0.165283203125,-0.12744140625,0.011899999999999999
1.2061068702290076,1.1603053435114503,-1.4045801526717556,-0.44140625,-0.1640625,-0.118408203125,0.0136
1.465648854961832,1.1297709923664123,-1.3587786259541985,-0.4423828125,-0.164306640625,-0.12060546875,0.0153
1.3129770992366412,1.083969465648855,-1.1755725190839694,-0.439208984375,-0.1650390625,-0.126708984375,0.016999999999999998
1.5267175572519085,0.9618320610687023,-1.4045801526717556,-0.44091796875,-0.16162109375,-0.128662109375,0.018699999999999998
1.297709923664122,0.8702290076335878,-1.465648854961832,-0.441162109375,-0.165771484375,-0.12548828125,0.020399999999999998
1.2366412213740459,0.8854961832061069,-1.465648854961832,-0.439208984375,-0.15673828125,-0.12646484375,0.022099999999999998
1.2366412213740459,0.7633587786259542,-1.633587786259542,-0.43994140625,-0.15576171875,-0.126220703125,0.023799999999999998
1.1145038167938932,0.8244274809160306,-1.5572519083969465,-0.4404296875,-0.1669921875,-0.13037109375,0.0255
1.0229007633587786,0.916030534351145,-1.618320610687023,-0.437255859375,-0.15869140625,-0.124755859375,0.0272
1.0534351145038168,0.7786259541984732,-1.6641221374045803,-0.440185546875,-0.1630859375,-0.12646484375,0.0289
1.099236641221374,0.8091603053435115,-1.8473282442748091,-0.4384765625,-0.166259765625,-0.12353515625,0.0306
0.8244274809160306,0.9007633587786259,-1.7251908396946565,-0.438232421875,-0.16650390625,-0.129638671875,0.032299999999999995
1.0534351145038168,0.8091603053435115,-1.8931297709923665,-0.4384765625,-0.166259765625,-0.13330078125,0.033999999999999996
0.8854961832061069,0.7938931297709924,-1.6793893129770991,-0.44287109375,-0.169921875,-0.13330078125,0.035699999999999996
0.9618320610687023,0.9007633587786259,-1.816793893129771,-0.43994140625,-0.164794921875,-0.123046875,0.037399999999999996
0.7022900763358778,0.9923664122137404,-1.8625954198473282,-0.4462890625,-0.160888671875,-0.125244140625,0.039099999999999996
0.7022900763358778,1.0687022900763359,-2.015267175572519,-0.44384765625,-0.162109375,-0.130615234375,0.040799999999999996
0.8091603053435115,1.1450381679389312,-1.8625954198473282,-0.4443359375,-0.165771484375,-0.128662109375,0.042499999999999996
0.5954198473282443,1.2213740458015268,-2.1526717557251906,-0.44384765625,-0.166015625,-0.12841796875,0.044199999999999996
0.6564885496183206,1.251908396946565,-2.0610687022900764,-0.441162109375,-0.170654296875,-0.130126953125,0.045899999999999996
0.916030534351145,1.282442748091603,-2.122137404580153,-0.44140625,-0.17041015625,-0.138671875,0.047599999999999996
0.6870229007633588,1.251908396946565,-2.030534351145038,-0.443115234375,-0.17138671875,-0.13671875,0.0493
0.6717557251908397,1.2671755725190839,-2.015267175572519,-0.442626953125,-0.168212890625,-0.133544921875,0.051
0.6717557251908397,1.083969465648855,-1.7557251908396947,-0.445068359375,-0.163818359375,-0.13623046875,0.0527
0.44274809160305345,1.1297709923664123,-2.1068702290076335,-0.445068359375,-0.162353515625,-0.132568359375,0.0544
0.5954198473282443,1.1297709923664123,-1.8931297709923665,-0.443359375,-0.156982421875,-0.130126953125,0.0561
0.22900763358778625,1.1603053435114503,-1.8473282442748091,-0.446533203125,-0.15625,-0.134033203125,0.0578
0.5801526717557252,0.9465648854961832,-2.0,-0.444091796875,-0.1611328125,-0.1279296875,0.0595
0.5190839694656488,0.9923664122137404,-2.0610687022900764,-0.4443359375,-0.159912109375,-0.123291015625,0.0612
0.549618320610687,1.083969465648855,-1.6488549618320612,-0.443359375,-0.160888671875,-0.129150390625,0.0629
0.6106870229007634,1.0229007633587786,-1.7099236641221374,-0.444580078125,-0.160888671875,-0.13330078125,0.06459999999999999
0.6870229007633588,0.9770992366412213,-1.786259541984733,-0.443603515625,-0.157470703125,-0.129150390625,0.0663
0.8244274809160306,1.1908396946564885,-1.816793893129771,-0.441650390625,-0.15869140625,-0.129638671875,0.06799999999999999
0.8549618320610687,1.0381679389312977,-1.6946564885496183,-0.449951171875,-0.156982421875,-0.12548828125,0.0697
0.5648854961832062,0.9770992366412213,-1.7099236641221374,-0.443603515625,-0.1611328125,-0.128173828125,0.07139999999999999
0.8396946564885496,1.1603053435114503,-1.5572519083969465,-0.446044921875,-0.157958984375,-0.121826171875,0.0731
0.7480916030534351,1.0076335877862594,-1.7251908396946565,-0.444580078125,-0.161865234375,-0.123291015625,0.07479999999999999
0.5954198473282443,0.9007633587786259,-1.465648854961832,-0.4453125,-0.15673828125,-0.127197265625,0.0765
0.7480916030534351,0.9465648854961832,-1.6641221374045803,-0.447021484375,-0.154296875,-0.1318359375,0.07819999999999999
0.7175572519083969,0.9465648854961832,-1.3893129770992367,-0.4462890625,-0.161865234375,-0.128662109375,0.0799
0.7480916030534351,1.099236641221374,-1.4809160305343512,-0.443359375,-0.159423828125,-0.129150390625,0.08159999999999999
0.8854961832061069,1.297709923664122,-1.297709923664122,-0.44482421875,-0.157958984375,-0.129638671875,0.0833
1.2366412213740459,1.2213740458015268,-1.4351145038167938,-0.44677734375,-0.161376953125,-0.135009765625,0.08499999999999999
1.1297709923664123,1.2671755725190839,-1.297709923664122,-0.4462890625,-0.1611328125,-0.131591796875,0.0867
1.1145038167938932,1.3129770992366412,-1.282442748091603,-0.443603515625,-0.1630859375,-0.126220703125,0.08839999999999999
1.3282442748091603,1.251908396946565,-1.1908396946564885,-0.441650390625,-0.16552734375,-0.128662109375,0.0901
1.2213740458015268,1.2366412213740459,-1.3282442748091603,-0.44140625,-0.157470703125,-0.120361328125,0.09179999999999999
1.1450381679389312,1.1603053435114503,-1.297709923664122,-0.442626953125,-0.166259765625,-0.132080078125,0.0935
1.282442748091603,1.1755725190839694,-1.4961832061068703,-0.44091796875,-0.1650390625,-0.12744140625,0.09519999999999999
1.1908396946564885,1.0687022900763359,-1.297709923664122,-0.43798828125,-0.15966796875,-0.12744140625,0.0969
1.4351145038167938,1.0534351145038168,-1.2213740458015268,-0.444091796875,-0.15771484375,-0.127197265625,0.0986
1.3282442748091603,1.0381679389312977,-1.3282442748091603,-0.44140625,-0.1640625,-0.129150390625,0.1003
1.5419847328244274,1.1755725190839694,-1.2671755725190839,-0.44140625,-0.166748046875,-0.122802734375,0.102
1.5114503816793894,1.3129770992366412,-1.0076335877862594,-0.4462890625,-0.1611328125,-0.123291015625,0.1037
1.450381679389313,1.450381679389313,-1.297709923664122,-0.444580078125,-0.159423828125,-0.1318359375,0.1054
1.6030534351145038,1.3282442748091603,-1.3435114503816794,-0.444580078125,-0.162353515625,-0.129150390625,0.1071
1.83206106870229,1.3129770992366412,-1.4045801526717556,-0.4384765625,-0.16064453125,-0.123779296875,0.1088
2.0916030534351147,1.2366412213740459,-1.0687022900763359,-0.439697265625,-0.1630859375,-0.1328125,0.11049999999999999
1.8778625954198473,1.297709923664122,-1.3587786259541985,-0.44287109375,-0.1669921875,-0.135498046875,0.1122
1.7404580152671756,1.1908396946564885,-1.4809160305343512,-0.4375,-0.1630859375,-0.12890625,0.11389999999999999
1.8778625954198473,1.3740458015267176,-1.3282442748091603,-0.443603515625,-0.16064453125,-0.126220703125,0.1156
1.5725190839694656,1.3282442748091603,-1.3282442748091603,-0.4404296875,-0.162353515625,-0.13525390625,0.11729999999999999
1.5419847328244274,1.251908396946565,-1.4961832061068703,-0.4423828125,-0.16650390625,-0.1337890625,0.119
1.3893129770992367,1.1908396946564885,-1.4198473282442747,-0.44189453125,-0.164794921875,-0.12841796875,0.12069999999999999
1.282442748091603,1.4045801526717556,-1.2671755725190839,-0.44189453125,-0.166748046875,-0.1201171875,0.1224
1.251908396946565,1.3740458015267176,-1.5419847328244274,-0.440673828125,-0.166259765625,-0.12451171875,0.12409999999999999
1.282442748091603,1.4809160305343512,-1.6946564885496183,-0.44384765625,-0.16748046875,-0.134033203125,0.1258
1.465648854961832,1.450381679389313,-1.5877862595419847,-0.43994140625,-0.1748046875,-0.1357421875,0.1275
1.633587786259542,1.4809160305343512,-1.5725190839694656,-0.44482421875,-0.1708984375,-0.131103515625,0.12919999999999998
1.6793893129770991,1.4961832061068703,-1.7099236641221374,-0.43798828125,-0.16845703125,-0.138427734375,0.1309
1.83206106870229,1.6946564885496183,-1.7099236641221374,-0.439208984375,-0.173095703125,-0.1376953125,0.1326
1.9694656488549618,1.5877862595419847,-1.8015267175572518,-0.44091796875,-0.169677734375,-0.12939453125,0.1343
1.6641221374045803,1.6641221374045803,-1.8473282442748091,-0.437744140625,-0.174560546875,-0.13818359375,0.13599999999999998
1.8625954198473282,1.786259541984733,-1.984732824427481,-0.435546875,-0.1728515625,-0.1376953125,0.1377
2.0916030534351147,1.6793893129770991,-1.8625954198473282,-0.4384765625,-0.168701171875,-0.134765625,0.1394
1.8625954198473282,1.6030534351145038,-1.8931297709923665,-0.440185546875,-0.167724609375,-0.131591796875,0.1411
1.8778625954198473,1.8473282442748091,-1.9694656488549618,-0.442626953125,-0.169189453125,-0.1376953125,0.14279999999999998
1.8778625954198473,1.83206106870229,-2.030534351145038,-0.445556640625,-0.172607421875,-0.1201171875,0.1445
1.83206106870229,1.7557251908396947,-2.030534351145038,-0.43994140625,-0.169921875,-0.119873046875,0.1462
1.3435114503816794,1.7099236641221374,-2.213740458015267,-0.43896484375,-0.164306640625,-0.12646484375,0.1479
1.297709923664122,1.618320610687023,-2.3969465648854964,-0.436767578125,-0.165771484375,-0.11962890625,0.14959999999999998
1.3129770992366412,1.5419847328244274,-2.3053435114503817,-0.439453125,-0.163330078125,-0.123779296875,0.1513
1.0076335877862594,1.4809160305343512,-2.0610687022900764,-0.438232421875,-0.168212890625,-0.1298828125,0.153
0.9465648854961832,1.4351145038167938,-2.4732824427480917,-0.4375,-0.166748046875,-0.1279296875,0.1547
0.9618320610687023,1.3893129770992367,-2.3053435114503817,-0.439453125,-0.165771484375,-0.124267578125,0.15639999999999998
0.8549618320610687,1.251908396946565,-2.381679389312977,-0.441162109375,-0.16650390625,-0.129150390625,0.1581
0.8549618320610687,1.6946564885496183,-2.3969465648854964,-0.43994140625,-0.169189453125,-0.124755859375,0.1598
1.0381679389312977,1.4351145038167938,-2.50381679389313,-0.442626953125,-0.16357421875,-0.129638671875,0.1615
1.1297709923664123,1.3740458015267176,-2.2442748091603053,-0.443359375,-0.162841796875,-0.128173828125,0.16319999999999998
1.0229007633587786,1.5267175572519085,-2.2900763358778624,-0.442626953125,-0.16943359375,-0.12646484375,0.1649
1.1603053435114503,1.4809160305343512,-2.4580152671755724,-0.446044921875,-0.156494140625,-0.12548828125,0.1666
1.4198473282442747,1.618320610687023,-2.3206106870229006,-0.442626953125,-0.162841796875,-0.13037109375,0.16829999999999998
1.2061068702290076,1.8931297709923665,-2.122137404580153,-0.439453125,-0.1650390625,-0.120361328125,0.16999999999999998
1.083969465648855,1.8015267175572518,-2.3206106870229006,-0.4453125,-0.15869140625,-0.129150390625,0.1717
1.3129770992366412,1.6641221374045803,-2.1068702290076335,-0.440673828125,-0.158447265625,-0.133544921875,0.1734
1.1603053435114503,1.6030534351145038,-2.198473282442748,-0.43994140625,-0.157958984375,-0.123779296875,0.17509999999999998
1.099236641221374,1.4809160305343512,-1.9389312977099236,-0.44189453125,-0.161865234375,-0.125,0.17679999999999998
1.2366412213740459,1.7099236641221374,-1.7557251908396947,-0.442138671875,-0.1640625,-0.120849609375,0.1785
1.1145038167938932,1.5877862595419847,-1.618320610687023,-0.4384765625,-0.162353515625,-0.129638671875,0.1802
1.3893129770992367,1.5572519083969465,-1.633587786259542,-0.439208984375,-0.16552734375,-0.12548828125,0.18189999999999998
1.1755725190839694,1.7099236641221374,-1.5725190839694656,-0.442626953125,-0.163330078125,-0.12939453125,0.18359999999999999
1.1145038167938932,1.4045801526717556,-1.5114503816793894,-0.436767578125,-0.1630859375,-0.126708984375,0.1853
1.465648854961832,1.3129770992366412,-1.4045801526717556,-0.440185546875,-0.1591796875,-0.123779296875,0.187
1.2061068702290076,1.3587786259541985,-1.297709923664122,-0.43701171875,-0.159912109375,-0.128173828125,0.18869999999999998
1.2061068702290076,1.1908396946564885,-1.1145038167938932,-0.4404296875,-0.1611328125,-0.12744140625,0.19039999999999999
1.2671755725190839,1.3129770992366412,-1.2061068702290076,-0.439208984375,-0.16357421875,-0.12939453125,0.1921
1.1145038167938932,1.0076335877862594,-1.0381679389312977,-0.437744140625,-0.161865234375,-0.11669921875,0.1938
1.1450381679389312,1.282442748091603,-1.2213740458015268,-0.4423828125,-0.161376953125,-0.128173828125,0.19549999999999998
1.1908396946564885,0.9007633587786259,-1.0687022900763359,-0.43798828125,-0.16357421875,-0.12646484375,0.1972
1.0229007633587786,1.099236641221374,-0.9770992366412213,-0.44384765625,-0.153564453125,-0.1298828125,0.1989
1.251908396946565,1.1908396946564885,-0.9007633587786259,-0.440673828125,-0.15966796875,-0.130859375,0.2006
1.3282442748091603,0.9923664122137404,-0.9312977099236641,-0.443115234375,-0.160400390625,-0.13134765625,0.20229999999999998
1.1297709923664123,1.3282442748091603,-0.9618320610687023,-0.44189453125,-0.16455078125,-0.119873046875,0.204
1.2671755725190839,1.297709923664122,-1.1297709923664123,-0.43896484375,-0.170654296875,-0.128662109375,0.2057
1.297709923664122,1.282442748091603,-0.6564885496183206,-0.437255859375,-0.164794921875,-0.125732421875,0.2074
1.2213740458015268,1.4045801526717556,-1.3587786259541985,-0.442138671875,-0.168212890625,-0.124755859375,0.20909999999999998
0.8549618320610687,1.450381679389313,-1.0534351145038168,-0.443359375,-0.165771484375,-0.131591796875,0.2108
1.0229007633587786,1.7099236641221374,-1.0687022900763359,-0.44580078125,-0.1640625,-0.12744140625,0.2125
1.1297709923664123,1.618320610687023,-1.0076335877862594,-0.437744140625,-0.16455078125,-0.13232421875,0.2142
1.2366412213740459,1.5267175572519085,-0.9770992366412213,-0.44677734375,-0.15966796875,-0.128173828125,0.21589999999999998
1.3893129770992367,1.6641221374045803,-0.9770992366412213,-0.443359375,-0.161376953125,-0.123291015625,0.2176
1.5419847328244274,1.3893129770992367,-0.9770992366412213,-0.436767578125,-0.162353515625,-0.124755859375,0.2193
1.5114503816793894,1.4045801526717556,-1.0381679389312977,-0.4365234375,-0.16455078125,-0.132568359375,0.22099999999999997
1.3893129770992367,1.3282442748091603,-1.1908396946564885,-0.44189453125,-0.16162109375,-0.12451171875,0.22269999999999998
1.5419847328244274,1.2366412213740459,-1.2671755725190839,-0.443359375,-0.1640625,-0.123046875,0.2244
1.5572519083969465,1.4198473282442747,-1.2671755725190839,-0.440673828125,-0.1640625,-0.117919921875,0.2261
1.7099236641221374,1.3740458015267176,-1.2213740458015268,-0.44384765625,-0.1572265625,-0.1279296875,0.22779999999999997
1.5419847328244274,1.3129770992366412,-1.5114503816793894,-0.442626953125,-0.15576171875,-0.13623046875,0.22949999999999998
1.618320610687023,1.4809160305343512,-1.5267175572519085,-0.438232421875,-0.16455078125,-0.13623046875,0.2312
1.7099236641221374,1.5267175572519085,-1.465648854961832,-0.439453125,-0.157958984375,-0.131591796875,0.2329
1.5419847328244274,1.6641221374045803,-1.6488549618320612,-0.438720703125,-0.1572265625,-0.130859375,0.23459999999999998
1.2366412213740459,1.5877862595419847,-1.4198473282442747,-0.438720703125,-0.164794921875,-0.128173828125,0.23629999999999998
1.4809160305343512,1.7251908396946565,-1.4809160305343512,-0.44091796875,-0.166015625,-0.129638671875,0.238
1.3740458015267176,1.4351145038167938,-1.7404580152671756,-0.435791015625,-0.17236328125,-0.12744140625,0.2397
1.251908396946565,1.3587786259541985,-1.5419847328244274,-0.439208984375,-0.171142578125,-0.1279296875,0.24139999999999998
1.4351145038167938,1.4045801526717556,-1.7709923664122138,-0.44091796875,-0.164306640625,-0.124267578125,0.24309999999999998
1.3435114503816794,1.0687022900763359,-1.7404580152671756,-0.43701171875,-0.16943359375,-0.133056640625,0.2448
1.3893129770992367,1.282442748091603,-1.7557251908396947,-0.435791015625,-0.17041015625,-0.130615234375,0.2465
1.5725190839694656,1.3893129770992367,-1.7709923664122138,-0.441650390625,-0.166259765625,-0.121337890625,0.24819999999999998
1.5267175572519085,1.0534351145038168,-1.984732824427481,-0.4453125,-0.16259765625,-0.138427734375,0.24989999999999998
1.4198473282442747,1.1908396946564885,-1.9236641221374047,-0.443359375,-0.168701171875,-0.1337890625,0.2516
1.5267175572519085,1.1450381679389312,-1.9389312977099236,-0.440673828125,-0.17041015625,-0.1337890625,0.25329999999999997
1.7709923664122138,1.083969465648855,-2.030534351145038,-0.43798828125,-0.1650390625,-0.1201171875,0.255
1.7709923664122138,0.9465648854961832,-1.9389312977099236,-0.4453125,-0.166015625,-0.121826171875,0.2567
1.9236641221374047,1.0687022900763359,-1.9389312977099236,-0.443359375,-0.16845703125,-0.123046875,0.25839999999999996
1.8931297709923665,1.0687022900763359,-2.183206106870229,-0.43896484375,-0.1650390625,-0.1259765625,0.2601
1.984732824427481,1.2366412213740459,-2.0763358778625953,-0.43798828125,-0.16552734375,-0.12890625,0.2618
1.984732824427481,1.1908396946564885,-2.2442748091603053,-0.444580078125,-0.1640625,-0.13134765625,0.2635
1.7099236641221374,1.0381679389312977,-2.2595419847328246,-0.4443359375,-0.157470703125,-0.12646484375,0.2652
1.5267175572519085,1.1297709923664123,-2.2900763358778624,-0.44775390625,-0.159423828125,-0.129150390625,0.26689999999999997
1.2671755725190839,1.099236641221374,-2.16793893129771,-0.43896484375,-0.163330078125,-0.124267578125,0.2686
1.0534351145038168,0.8244274809160306,-2.122137404580153,-0.44091796875,-0.163818359375,-0.128173828125,0.2703
0.8702290076335878,0.7480916030534351,-2.1374045801526718,-0.43994140625,-0.1650390625,-0.135986328125,0.27199999999999996
0.732824427480916,0.916030534351145,-2.045801526717557,-0.4404296875,-0.1611328125,-0.13330078125,0.2737
0.549618320610687,0.9618320610687023,-2.030534351145038,-0.440185546875,-0.161376953125,-0.130615234375,0.2754
0.3816793893129771,0.9465648854961832,-2.015267175572519,-0.438720703125,-0.16259765625,-0.12841796875,0.27709999999999996
0.5343511450381679,0.9770992366412213,-1.8778625954198473,-0.43994140625,-0.157470703125,-0.126708984375,0.2788
0.5801526717557252,1.1297709923664123,-2.045801526717557,-0.440185546875,-0.159423828125,-0.1171875,0.28049999999999997
0.5343511450381679,1.1145038167938932,-1.8931297709923665,-0.43994140625,-0.159423828125,-0.123779296875,0.2822
0.16793893129770993,1.1603053435114503,-1.8778625954198473,-0.43701171875,-0.15966796875,-0.13427734375,0.2839
0.1984732824427481,1.0381679389312977,-1.6946564885496183,-0.440673828125,-0.164306640625,-0.124267578125,0.28559999999999997
0.2900763358778626,0.9465648854961832,-1.5572519083969465,-0.44140625,-0.161865234375,-0.120849609375,0.2873
0.3969465648854962,0.6870229007633588,-1.5114503816793894,-0.43603515625,-0.16162109375,-0.1337890625,0.289
0.42748091603053434,0.8244274809160306,-1.4045801526717556,-0.441650390625,-0.1572265625,-0.134033203125,0.29069999999999996
0.2900763358778626,1.0076335877862594,-1.3129770992366412,-0.4365234375,-0.1640625,-0.123046875,0.2924
0.4580152671755725,0.9312977099236641,-1.3435114503816794,-0.44091796875,-0.162109375,-0.13134765625,0.2941
0.6564885496183206,0.9312977099236641,-1.4351145038167938,-0.4384765625,-0.156005859375,-0.12890625,0.2958
0.7175572519083969,1.0229007633587786,-1.1450381679389312,-0.44091796875,-0.15673828125,-0.129638671875,0.2975
0.8091603053435115,0.9618320610687023,-1.1908396946564885,-0.438232421875,-0.16259765625,-0.131591796875,0.29919999999999997
1.2213740458015268,0.8854961832061069,-0.9770992366412213,-0.43994140625,-0.156982421875,-0.12646484375,0.3009
1.4198473282442747,1.0687022900763359,-1.0076335877862594,-0.442138671875,-0.159423828125,-0.12939453125,0.3026
1.4961832061068703,1.0076335877862594,-1.0687022900763359,-0.436279296875,-0.160888671875,-0.12255859375,0.30429999999999996
1.6030534351145038,0.8702290076335878,-1.0076335877862594,-0.43701171875,-0.162353515625,-0.127685546875,0.306
1.7251908396946565,0.7938931297709924,-0.9007633587786259,-0.440185546875,-0.1611328125,-0.1201171875,0.3077
1.786259541984733,0.7786259541984732,-0.9465648854961832,-0.436767578125,-0.162109375,-0.12451171875,0.3094
1.83206106870229,0.5954198473282443,-0.9007633587786259,-0.4404296875,-0.1572265625,-0.12646484375,0.3111
1.6946564885496183,0.549618320610687,-0.9312977099236641,-0.439697265625,-0.1591796875,-0.125732421875,0.31279999999999997
1.5267175572519085,0.44274809160305345,-0.7175572519083969,-0.437255859375,-0.156982421875,-0.114501953125,0.3145
1.618320610687023,0.7175572519083969,-1.0534351145038168,-0.443115234375,-0.162353515625,-0.1298828125,0.3162
1.5877862595419847,0.5190839694656488,-0.8854961832061069,-0.434326171875,-0.16064453125,-0.13427734375,0.31789999999999996
1.5725190839694656,0.8854961832061069,-0.8854961832061069,-0.43408203125,-0.16650390625,-0.129150390625,0.3196
1.282442748091603,0.7938931297709924,-0.7786259541984732,-0.443603515625,-0.160888671875,-0.13232421875,0.3213
1.1755725190839694,0.9618320610687023,-1.1145038167938932,-0.4375,-0.165283203125,-0.1396484375,0.323
1.5877862595419847,1.1908396946564885,-1.0229007633587786,-0.438720703125,-0.16650390625,-0.134521484375,0.3247
1.618320610687023,1.1145038167938932,-1.1755725190839694,-0.440185546875,-0.165283203125,-0.12646484375,0.32639999999999997
1.2366412213740459,1.1145038167938932,-0.9312977099236641,-0.439453125,-0.16748046875,-0.1337890625,0.3281
1.3129770992366412,0.9923664122137404,-1.1297709923664123,-0.440185546875,-0.165283203125,-0.130859375,0.3298
1.3740458015267176,0.8702290076335878,-0.9618320610687023,-0.439697265625,-0.16259765625,-0.122802734375,0.33149999999999996
1.3129770992366412,0.9312977099236641,-1.1603053435114503,-0.439208984375,-0.1591796875,-0.123291015625,0.3332
1.2671755725190839,0.7175572519083969,-1.2366412213740459,-0.44384765625,-0.165283203125,-0.132080078125,0.3349
1.1145038167938932,0.8396946564885496,-1.282442748091603,-0.44091796875,-0.163330078125,-0.12890625,0.33659999999999995
1.3893129770992367,0.5648854961832062,-1.2061068702290076,-0.43505859375,-0.16650390625,-0.13134765625,0.3383
1.1297709923664123,0.549618320610687,-1.3740458015267176,-0.437744140625,-0.170654296875,-0.1298828125,0.33999999999999997
1.450381679389313,0.5801526717557252,-1.4961832061068703,-0.441162109375,-0.168212890625,-0.130126953125,0.3417
1.6030534351145038,0.5954198473282443,-1.3129770992366412,-0.439697265625,-0.165771484375,-0.1298828125,0.3434
1.3282442748091603,0.6259541984732825,-1.3587786259541985,-0.43896484375,-0.165283203125,-0.130859375,0.34509999999999996
1.4351145038167938,0.4580152671755725,-1.5725190839694656,-0.441650390625,-0.168212890625,-0.126953125,0.3468
1.618320610687023,0.5801526717557252,-1.633587786259542,-0.443115234375,-0.165283203125,-0.13232421875,0.3485
1.3740458015267176,0.6412213740458015,-1.7251908396946565,-0.44580078125,-0.167724609375,-0.12109375,0.35019999999999996
1.2671755725190839,0.6870229007633588,-1.5419847328244274,-0.4462890625,-0.16845703125,-0.121337890625,0.3519
1.282442748091603,0.7175572519083969,-1.7099236641221374,-0.44287109375,-0.165771484375,-0.131103515625,0.35359999999999997
1.1755725190839694,0.9312977099236641,-1.6946564885496183,-0.44677734375,-0.166748046875,-0.13134765625,0.3553
0.9465648854961832,0.7938931297709924,-1.5877862595419847,-0.443359375,-0.16845703125,-0.120361328125,0.357
0.549618320610687,0.6717557251908397,-1.7099236641221374,-0.446533203125,-0.16748046875,-0.12109375,0.35869999999999996
0.7022900763358778,0.549618320610687,-1.9236641221374047,-0.444580078125,-0.165283203125,-0.12890625,0.3604
0.4580152671755725,0.6259541984732825,-1.7099236641221374,-0.443115234375,-0.16552734375,-0.123291015625,0.3621
0.3053435114503817,0.42748091603053434,-1.8015267175572518,-0.441162109375,-0.16943359375,-0.126708984375,0.36379999999999996
0.33587786259541985,0.4122137404580153,-1.8625954198473282,-0.44482421875,-0.16796875,-0.1279296875,0.3655
0.13740458015267176,0.44274809160305345,-2.0610687022900764,-0.448486328125,-0.165771484375,-0.1318359375,0.36719999999999997
0.1984732824427481,0.44274809160305345,-1.7404580152671756,-0.4501953125,-0.167236328125,-0.138427734375,0.3689
-0.04580152671755725,0.5190839694656488,-1.8931297709923665,-0.445556640625,-0.16748046875,-0.123046875,0.3706
-0.10687022900763359,0.3511450381679389,-1.6488549618320612,-0.44189453125,-0.1669921875,-0.128662109375,0.37229999999999996
0.15267175572519084,0.2900763358778626,-1.6030534351145038,-0.443359375,-0.164794921875,-0.1328125,0.374
-0.015267175572519083,0.6106870229007634,-1.7099236641221374,-0.44091796875,-0.16259765625,-0.131103515625,0.3757
-0.10687022900763359,0.5954198473282443,-1.3435114503816794,-0.44091796875,-0.1650390625,-0.12890625,0.37739999999999996
-0.061068702290076333,0.7022900763358778,-1.3435114503816794,-0.446533203125,-0.162841796875,-0.120361328125,0.3791
0.0916030534351145,0.549618320610687,-1.4045801526717556,-0.44384765625,-0.16064453125,-0.12451171875,0.38079999999999997
0.2748091603053435,0.7480916030534351,-1.2366412213740459,-0.44091796875,-0.159423828125,-0.128173828125,0.38249999999999995
0.22900763358778625,0.8091603053435115,-1.4961832061068703,-0.43994140625,-0.16357421875,-0.129638671875,0.3842
0.183206106870229,0.916030534351145,-1.297709923664122,-0.43994140625,-0.15966796875,-0.125732421875,0.38589999999999997
0.32061068702290074,0.7786259541984732,-1.1450381679389312,-0.44287109375,-0.1591796875,-0.123779296875,0.3876
0.5343511450381679,0.5190839694656488,-0.9770992366412213,-0.439697265625,-0.160400390625,-0.124755859375,0.3893
0.6106870229007634,0.6870229007633588,-1.0229007633587786,-0.4404296875,-0.15966796875,-0.130859375,0.39099999999999996
0.5954198473282443,0.7175572519083969,-0.9007633587786259,-0.44189453125,-0.162841796875,-0.124755859375,0.3927
0.7480916030534351,0.8549618320610687,-0.8244274809160306,-0.443603515625,-0.1630859375,-0.121337890625,0.3944
0.8244274809160306,0.7022900763358778,-0.7633587786259542,-0.43994140625,-0.158203125,-0.12451171875,0.39609999999999995
1.083969465648855,0.8396946564885496,-0.6717557251908397,-0.4423828125,-0.160888671875,-0.12744140625,0.3978
0.8549618320610687,0.7633587786259542,-0.8244274809160306,-0.4384765625,-0.161376953125,-0.12255859375,0.39949999999999997
0.8396946564885496,1.0076335877862594,-0.7786259541984732,-0.44287109375,-0.165771484375,-0.11962890625,0.4012
0.9465648854961832,0.916030534351145,-0.9770992366412213,-0.440673828125,-0.1640625,-0.11181640625,0.4029
0.8396946564885496,0.9465648854961832,-0.8702290076335878,-0.44287109375,-0.161865234375,-0.11474609375,0.40459999999999996
0.8702290076335878,0.9007633587786259,-0.9770992366412213,-0.44189453125,-0.16748046875,-0.128662109375,0.4063
0.8702290076335878,0.7480916030534351,-0.8854961832061069,-0.4404296875,-0.16552734375,-0.12646484375,0.408
0.7480916030534351,0.5954198473282443,-0.8702290076335878,-0.437744140625,-0.165283203125,-0.129638671875,0.40969999999999995
0.6259541984732825,0.6259541984732825,-0.8244274809160306,-0.43994140625,-0.1630859375,-0.12548828125,0.4114
0.8549618320610687,0.6106870229007634,-0.9312977099236641,-0.4423828125,-0.1611328125,-0.134033203125,0.41309999999999997
0.7175572519083969,0.6259541984732825,-0.6870229007633588,-0.443603515625,-0.158447265625,-0.128662109375,0.4148
0.7480916030534351,0.6412213740458015,-0.9465648854961832,-0.43994140625,-0.1630859375,-0.1328125,0.4165
0.9007633587786259,0.6870229007633588,-0.916030534351145,-0.444091796875,-0.158203125,-0.1328125,0.41819999999999996
1.1297709923664123,0.8396946564885496,-1.1450381679389312,-0.4404296875,-0.156982421875,-0.123779296875,0.4199
0.8854961832061069,0.8396946564885496,-0.8549618320610687,-0.4404296875,-0.161865234375,-0.125732421875,0.4216
1.083969465648855,0.6870229007633588,-1.083969465648855,-0.437744140625,-0.160400390625,-0.12939453125,0.42329999999999995
0.8854961832061069,0.8396946564885496,-0.916030534351145,-0.4384765625,-0.16357421875,-0.125732421875,0.425
0.8091603053435115,0.8702290076335878,-1.1450381679389312,-0.437255859375,-0.161376953125,-0.139404296875,0.42669999999999997
0.5343511450381679,0.8244274809160306,-1.1145038167938932,-0.439697265625,-0.163818359375,-0.13037109375,0.4284
0.8091603053435115,1.0076335877862594,-1.0076335877862594,-0.4384765625,-0.16796875,-0.130615234375,0.4301
0.8702290076335878,0.732824427480916,-1.3740458015267176,-0.443359375,-0.16162109375,-0.129638671875,0.43179999999999996
0.6870229007633588,0.9618320610687023,-1.4351145038167938,-0.443603515625,-0.1640625,-0.1259765625,0.4335
1.0229007633587786,0.8244274809160306,-1.2061068702290076,-0.44384765625,-0.1640625,-0.125244140625,0.4352
1.1450381679389312,1.083969465648855,-1.5267175572519085,-0.4423828125,-0.16650390625,-0.12646484375,0.43689999999999996
1.083969465648855,0.9312977099236641,-1.3587786259541985,-0.43994140625,-0.164794921875,-0.118896484375,0.4386
1.4045801526717556,0.7938931297709924,-1.282442748091603,-0.444091796875,-0.1640625,-0.124267578125,0.44029999999999997
1.4351145038167938,0.7786259541984732,-1.3587786259541985,-0.441162109375,-0.16796875,-0.120849609375,0.44199999999999995
1.251908396946565,0.6106870229007634,-1.618320610687023,-0.443359375,-0.16015625,-0.12255859375,0.4437
1.3129770992366412,0.9312977099236641,-1.3282442748091603,-0.444091796875,-0.160888671875,-0.121826171875,0.44539999999999996
1.1908396946564885,0.9312977099236641,-1.5419847328244274,-0.444580078125,-0.158935546875,-0.122802734375,0.4471
1.3282442748091603,1.0534351145038168,-1.3587786259541985,-0.443115234375,-0.156982421875,-0.12841796875,0.4488
1.0076335877862594,1.1450381679389312,-1.3740458015267176,-0.449951171875,-0.1630859375,-0.12451171875,0.45049999999999996
1.0687022900763359,1.297709923664122,-1.5267175572519085,-0.43994140625,-0.159423828125,-0.127197265625,0.4522
0.9770992366412213,1.4198473282442747,-1.3587786259541985,-0.441650390625,-0.160888671875,-0.1357421875,0.45389999999999997
0.8396946564885496,1.2366412213740459,-1.1908396946564885,-0.44287109375,-0.164794921875,-0.123779296875,0.45559999999999995
0.8549618320610687,1.297709923664122,-1.3435114503816794,-0.442138671875,-0.1630859375,-0.123291015625,0.4573
1.0229007633587786,1.2671755725190839,-1.2671755725190839,-0.441162109375,-0.16650390625,-0.11865234375,0.45899999999999996
1.0076335877862594,1.297709923664122,-1.4045801526717556,-0.440673828125,-0.16357421875,-0.129638671875,0.4607
1.0076335877862594,1.1603053435114503,-1.4045801526717556,-0.44189453125,-0.166259765625,-0.128662109375,0.4624
1.0076335877862594,1.1145038167938932,-1.4198473282442747,-0.44384765625,-0.171142578125,-0.132568359375,0.46409999999999996
0.9923664122137404,1.3435114503816794,-1.2671755725190839,-0.4365234375,-0.164794921875,-0.1279296875,0.4658
1.099236641221374,1.5267175572519085,-1.5419847328244274,-0.44091796875,-0.171630859375,-0.128173828125,0.46749999999999997
0.9465648854961832,1.4045801526717556,-1.5267175572519085,-0.43798828125,-0.172607421875,-0.127197265625,0.46919999999999995
0.9465648854961832,1.2366412213740459,-1.7251908396946565,-0.441162109375,-0.16357421875,-0.126220703125,0.4709
1.0076335877862594,1.3129770992366412,-1.4045801526717556,-0.443359375,-0.168701171875,-0.1240234375,0.47259999999999996
0.6106870229007634,1.1755725190839694,-1.6641221374045803,-0.440673828125,-0.171142578125,-0.126953125,0.4743
0.6564885496183206,0.7938931297709924,-1.5114503816793894,-0.439697265625,-0.1650390625,-0.125732421875,0.476
0.366412213740458,1.0229007633587786,-1.5419847328244274,-0.443359375,-0.170166015625,-0.121826171875,0.47769999999999996
0.4732824427480916,1.0534351145038168,-1.282442748091603,-0.445068359375,-0.16455078125,-0.12548828125,0.4794
0.1984732824427481,0.8854961832061069,-1.6030534351145038,-0.44091796875,-0.166015625,-0.129150390625,0.48109999999999997
0.2595419847328244,0.8396946564885496,-1.633587786259542,-0.439453125,-0.16259765625,-0.130615234375,0.48279999999999995
0.183206106870229,1.083969465648855,-1.4351145038167938,-0.441162109375,-0.167236328125,-0.131103515625,0.4845
0.0916030534351145,0.8854961832061069,-1.3740458015267176,-0.44580078125,-0.1669921875,-0.126220703125,0.48619999999999997
0.0916030534351145,0.9465648854961832,-1.6030534351145038,-0.43701171875,-0.1650390625,-0.12548828125,0.4879
0.12213740458015267,1.1297709923664123,-1.5572519083969465,-0.44287109375,-0.165283203125,-0.128662109375,0.4896
0.1984732824427481,1.083969465648855,-1.5725190839694656,-0.43798828125,-0.165283203125,-0.129150390625,0.49129999999999996
0.183206106870229,1.4961832061068703,-1.6793893129770991,-0.4375,-0.171630859375,-0.119873046875,0.493
0.04580152671755725,1.1755725190839694,-1.816793893129771,-0.445068359375,-0.170166015625,-0.13037109375,0.4947
0.10687022900763359,1.4045801526717556,-1.6793893129770991,-0.443603515625,-0.162109375,-0.128662109375,0.49639999999999995
0.04580152671755725,1.5572519083969465,-1.7709923664122138,-0.44482421875,-0.159912109375,-0.141357421875,0.4981
0.0,1.4809160305343512,-1.816793893129771,-0.4423828125,-0.164794921875,-0.123046875,0.49979999999999997
0.0,1.6030534351145038,-1.618320610687023,-0.441650390625,-0.161865234375,-0.124267578125,0.5015
0.04580152671755725,1.618320610687023,-1.5572519083969465,-0.44384765625,-0.16015625,-0.127685546875,0.5032
0.21374045801526717,1.5877862595419847,-1.8015267175572518,-0.444091796875,-0.161376953125,-0.125,0.5049
0.2595419847328244,1.5114503816793894,-1.6793893129770991,-0.44091796875,-0.1611328125,-0.11962890625,0.5065999999999999
0.2595419847328244,1.4045801526717556,-1.7709923664122138,-0.441650390625,-0.156982421875,-0.1220703125,0.5083
0.2748091603053435,1.2213740458015268,-1.633587786259542,-0.44384765625,-0.162353515625,-0.12255859375,0.51
0.015267175572519083,1.3282442748091603,-1.8015267175572518,-0.443115234375,-0.156982421875,-0.1240234375,0.5116999999999999
-0.030534351145038167,1.1145038167938932,-1.83206106870229,-0.444580078125,-0.16259765625,-0.134033203125,0.5134
-0.0916030534351145,0.9312977099236641,-1.6641221374045803,-0.445068359375,-0.15771484375,-0.131103515625,0.5151
-0.015267175572519083,1.083969465648855,-1.6488549618320612,-0.444580078125,-0.16259765625,-0.127685546875,0.5167999999999999
-0.061068702290076333,0.7938931297709924,-1.5267175572519085,-0.438720703125,-0.15478515625,-0.1220703125,0.5185
0.015267175572519083,0.9618320610687023,-1.1755725190839694,-0.444091796875,-0.15771484375,-0.13037109375,0.5202
0.15267175572519084,1.0229007633587786,-1.282442748091603,-0.437744140625,-0.158935546875,-0.128662109375,0.5218999999999999
0.2595419847328244,0.9465648854961832,-1.4045801526717556,-0.445068359375,-0.15966796875,-0.125732421875,0.5236
0.2900763358778626,0.9312977099236641,-1.2366412213740459,-0.447021484375,-0.161865234375,-0.134765625,0.5253
0.366412213740458,1.0381679389312977,-1.4045801526717556,-0.439697265625,-0.1611328125,-0.13671875,0.527
0.33587786259541985,1.0229007633587786,-1.2213740458015268,-0.442626953125,-0.161376953125,-0.138916015625,0.5287
0.549618320610687,1.3282442748091603,-1.251908396946565,-0.443359375,-0.1552734375,-0.12939453125,0.5304
0.3511450381679389,1.6641221374045803,-1.1450381679389312,-0.445068359375,-0.15966796875,-0.132568359375,0.5321
0.7786259541984732,1.4809160305343512,-1.1450381679389312,-0.440673828125,-0.15771484375,-0.13134765625,0.5337999999999999
0.9770992366412213,1.6946564885496183,-1.2213740458015268,-0.44287109375,-0.155029296875,-0.12255859375,0.5355
1.1908396946564885,1.8015267175572518,-1.2213740458015268,-0.440185546875,-0.16357421875,-0.122314453125,0.5372
1.3587786259541985,1.7557251908396947,-1.1450381679389312,-0.439697265625,-0.162353515625,-0.13330078125,0.5388999999999999
1.3129770992366412,1.816793893129771,-1.1145038167938932,-0.4443359375,-0.154296875,-0.130615234375,0.5406
1.5572519083969465,1.7251908396946565,-1.1297709923664123,-0.443115234375,-0.158203125,-0.12451171875,0.5423
1.3435114503816794,1.7709923664122138,-0.916030534351145,-0.446044921875,-0.160400390625,-0.12060546875,0.5439999999999999
1.0381679389312977,1.6488549618320612,-1.083969465648855,-0.44091796875,-0.157470703125,-0.128173828125,0.5457
1.0534351145038168,1.297709923664122,-1.1908396946564885,-0.443603515625,-0.164306640625,-0.13037109375,0.5474
0.8244274809160306,1.297709923664122,-0.9923664122137404,-0.4423828125,-0.15869140625,-0.12060546875,0.5490999999999999
0.916030534351145,1.1297709923664123,-1.2671755725190839,-0.4423828125,-0.16357421875,-0.125244140625,0.5508
0.8244274809160306,1.297709923664122,-1.3435114503816794,-0.443359375,-0.16015625,-0.12841796875,0.5525
0.8396946564885496,1.2061068702290076,-1.099236641221374,-0.44140625,-0.160888671875,-0.130859375,0.5541999999999999
0.732824427480916,1.2671755725190839,-1.083969465648855,-0.44384765625,-0.1669921875,-0.13037109375,0.5559
1.282442748091603,1.450381679389313,-1.2671755725190839,-0.440673828125,-0.16357421875,-0.130615234375,0.5576
1.2213740458015268,1.2061068702290076,-1.251908396946565,-0.441650390625,-0.162109375,-0.130615234375,0.5593
1.1908396946564885,1.5267175572519085,-1.2671755725190839,-0.444580078125,-0.16259765625,-0.129150390625,0.5609999999999999
1.297709923664122,1.633587786259542,-1.4351145038167938,-0.4404296875,-0.163330078125,-0.123046875,0.5627
1.3740458015267176,1.6793893129770991,-1.3435114503816794,-0.441162109375,-0.1650390625,-0.135009765625,0.5644
1.6946564885496183,1.7251908396946565,-1.3893129770992367,-0.43603515625,-0.163330078125,-0.132080078125,0.5660999999999999
1.9083969465648856,1.9236641221374047,-1.5114503816793894,-0.444091796875,-0.160400390625,-0.13232421875,0.5678
1.9236641221374047,1.83206106870229,-1.3435114503816794,-0.439453125,-0.16015625,-0.12109375,0.5695
1.984732824427481,1.8778625954198473,-1.282442748091603,-0.443115234375,-0.15673828125,-0.12451171875,0.5711999999999999
2.2442748091603053,1.8931297709923665,-1.3282442748091603,-0.446044921875,-0.16357421875,-0.122314453125,0.5729
2.2442748091603053,1.9541984732824427,-1.5419847328244274,-0.436767578125,-0.161865234375,-0.126708984375,0.5746
1.9694656488549618,1.984732824427481,-1.4961832061068703,-0.4384765625,-0.164794921875,-0.134521484375,0.5762999999999999
1.5419847328244274,2.0,-1.3129770992366412,-0.437744140625,-0.1611328125,-0.12841796875,0.578
1.7709923664122138,1.8015267175572518,-1.4198473282442747,-0.436279296875,-0.162353515625,-0.124755859375,0.5797
1.83206106870229,1.9541984732824427,-1.4045801526717556,-0.437255859375,-0.1650390625,-0.128173828125,0.5813999999999999
2.0610687022900764,1.9694656488549618,-1.2061068702290076,-0.439697265625,-0.162841796875,-0.127685546875,0.5831
2.1374045801526718,1.786259541984733,-1.4961832061068703,-0.442138671875,-0.1650390625,-0.126953125,0.5848
2.1526717557251906,1.8473282442748091,-1.5267175572519085,-0.4375,-0.167724609375,-0.12109375,0.5865
2.213740458015267,1.83206106870229,-1.450381679389313,-0.440185546875,-0.169677734375,-0.13330078125,0.5882
2.030534351145038,1.8473282442748091,-1.5114503816793894,-0.4423828125,-0.16748046875,-0.12060546875,0.5899
1.5877862595419847,1.5877862595419847,-1.7099236641221374,-0.442626953125,-0.173583984375,-0.125,0.5916
1.7251908396946565,1.4351145038167938,-1.5114503816793894,-0.445068359375,-0.16845703125,-0.122802734375,0.5932999999999999
1.5572519083969465,1.4809160305343512,-1.6793893129770991,-0.4453125,-0.1650390625,-0.120849609375,0.595
1.3740458015267176,1.2671755725190839,-1.786259541984733,-0.437744140625,-0.16748046875,-0.12451171875,0.5967
1.4045801526717556,1.297709923664122,-1.8015267175572518,-0.443359375,-0.166015625,-0.125244140625,0.5983999999999999
1.1297709923664123,1.3435114503816794,-1.6946564885496183,-0.445068359375,-0.175048828125,-0.125,0.6001
0.44274809160305345,1.1908396946564885,-1.7099236641221374,-0.445068359375,-0.166259765625,-0.128173828125,0.6018
0.183206106870229,1.0534351145038168,-1.4809160305343512,-0.442138671875,-0.1630859375,-0.1259765625,0.6034999999999999
0.24427480916030533,0.9465648854961832,-1.633587786259542,-0.443359375,-0.164794921875,-0.122314453125,0.6052
-0.22900763358778625,1.1603053435114503,-1.633587786259542,-0.439697265625,-0.163818359375,-0.1220703125,0.6069
-0.10687022900763359,0.9923664122137404,-1.450381679389313,-0.441162109375,-0.164306640625,-0.1259765625,0.6085999999999999
-0.5343511450381679,0.9465648854961832,-1.3740458015267176,-0.44189453125,-0.165771484375,-0.122314453125,0.6103
-0.4732824427480916,1.0229007633587786,-1.450381679389313,-0.443115234375,-0.1611328125,-0.131591796875,0.612
-0.44274809160305345,1.1450381679389312,-1.251908396946565,-0.44140625,-0.163818359375,-0.127685546875,0.6136999999999999
-0.5954198473282443,0.9618320610687023,-1.297709923664122,-0.443359375,-0.163818359375,-0.129638671875,0.6154
-0.6106870229007634,1.083969465648855,-1.1603053435114503,-0.446533203125,-0.1611328125,-0.1259765625,0.6171
-0.4732824427480916,1.083969465648855,-1.1297709923664123,-0.43603515625,-0.1640625,-0.12646484375,0.6188
-0.2900763358778626,1.0534351145038168,-0.9770992366412213,-0.44140625,-0.1611328125,-0.127197265625,0.6204999999999999
-0.33587786259541985,1.0381679389312977,-1.099236641221374,-0.44140625,-0.16015625,-0.130859375,0.6222
-0.1984732824427481,1.2213740458015268,-1.1145038167938932,-0.442626953125,-0.157470703125,-0.12451171875,0.6239
-0.24427480916030533,1.2061068702290076,-1.0381679389312977,-0.44091796875,-0.158935546875,-0.117919921875,0.6255999999999999
-0.4580152671755725,1.3893129770992367,-0.7480916030534351,-0.44384765625,-0.158935546875,-0.122802734375,0.6273
-0.2748091603053435,1.3893129770992367,-1.0687022900763359,-0.441650390625,-0.160888671875,-0.13232421875,0.629
0.015267175572519083,1.3740458015267176,-0.9465648854961832,-0.44189453125,-0.16259765625,-0.126708984375,0.6306999999999999
0.0916030534351145,1.4351145038167938,-1.0381679389312977,-0.43994140625,-0.158447265625,-0.129150390625,0.6324
0.3969465648854962,1.465648854961832,-0.6870229007633588,-0.44287109375,-0.162109375,-0.1240234375,0.6341
0.1984732824427481,1.4198473282442747,-0.732824427480916,-0.442138671875,-0.158447265625,-0.12158203125,0.6357999999999999
0.4580152671755725,1.4961832061068703,-0.6564885496183206,-0.44140625,-0.157958984375,-0.123779296875,0.6375
0.6259541984732825,1.6946564885496183,-0.5801526717557252,-0.439208984375,-0.1572265625,-0.126708984375,0.6392
0.6106870229007634,1.5725190839694656,-0.3816793893129771,-0.4443359375,-0.155029296875,-0.122802734375,0.6408999999999999
0.7938931297709924,1.5267175572519085,-0.549618320610687,-0.442626953125,-0.16015625,-0.129150390625,0.6426
0.7480916030534351,1.7557251908396947,-0.5954198473282443,-0.443603515625,-0.163330078125,-0.127685546875,0.6443
1.0076335877862594,1.8931297709923665,-0.5038167938931297,-0.44189453125,-0.16650390625,-0.12451171875,0.646
1.5725190839694656,1.8625954198473282,-0.5343511450381679,-0.44287109375,-0.16064453125,-0.13037109375,0.6476999999999999
1.5419847328244274,1.8625954198473282,-0.5954198473282443,-0.446044921875,-0.161865234375,-0.128662109375,0.6494
1.5877862595419847,1.816793893129771,-0.4122137404580153,-0.447021484375,-0.16162109375,-0.1259765625,0.6511
1.6641221374045803,2.122137404580153,-0.32061068702290074,-0.441162109375,-0.159912109375,-0.12744140625,0.6527999999999999
2.045801526717557,1.8625954198473282,-0.16793893129770993,-0.444580078125,-0.157470703125,-0.125,0.6545
2.122137404580153,2.015267175572519,-0.2900763358778626,-0.440673828125,-0.16162109375,-0.125244140625,0.6562
2.1526717557251906,1.7557251908396947,-0.33587786259541985,-0.441162109375,-0.161376953125,-0.133056640625,0.6578999999999999
1.9389312977099236,1.9236641221374047,-0.44274809160305345,-0.441162109375,-0.15966796875,-0.12548828125,0.6596
2.1068702290076335,1.9389312977099236,-0.2748091603053435,-0.442626953125,-0.16455078125,-0.127197265625,0.6613
1.816793893129771,1.633587786259542,-0.32061068702290074,-0.441162109375,-0.164794921875,-0.128173828125,0.6629999999999999
1.7709923664122138,1.3435114503816794,-0.2595419847328244,-0.43798828125,-0.1650390625,-0.1328125,0.6647
1.6946564885496183,1.5267175572519085,-0.2748091603053435,-0.437744140625,-0.164794921875,-0.13134765625,0.6664
1.6793893129770991,1.450381679389313,-0.33587786259541985,-0.43994140625,-0.16748046875,-0.12646484375,0.6680999999999999
1.7251908396946565,1.4351145038167938,-0.12213740458015267,-0.4404296875,-0.162353515625,-0.118408203125,0.6698
1.83206106870229,1.633587786259542,-0.366412213740458,-0.44140625,-0.163330078125,-0.117431640625,0.6715
1.8625954198473282,1.4198473282442747,-0.33587786259541985,-0.44580078125,-0.165771484375,-0.129150390625,0.6731999999999999
2.015267175572519,1.4351145038167938,-0.48854961832061067,-0.44189453125,-0.172119140625,-0.120849609375,0.6748999999999999
1.9541984732824427,1.5267175572519085,-0.2595419847328244,-0.44287109375,-0.173828125,-0.125244140625,0.6766
1.9694656488549618,1.465648854961832,-0.3511450381679389,-0.441162109375,-0.16552734375,-0.1181640625,0.6783
2.2595419847328246,1.5267175572519085,-0.4580152671755725,-0.441162109375,-0.168701171875,-0.125732421875,0.6799999999999999
1.8778625954198473,1.4809160305343512,-0.5343511450381679,-0.4404296875,-0.168212890625,-0.126220703125,0.6817
1.450381679389313,1.3282442748091603,-0.3511450381679389,-0.447509765625,-0.169921875,-0.11767578125,0.6834
0.9770992366412213,1.3282442748091603,-0.4580152671755725,-0.4404296875,-0.167236328125,-0.130615234375,0.6850999999999999
1.1450381679389312,1.465648854961832,-0.5648854961832062,-0.445068359375,-0.160888671875,-0.119140625,0.6868
0.7022900763358778,1.1755725190839694,-0.3511450381679389,-0.443603515625,-0.16259765625,-0.123291015625,0.6885
0.4732824427480916,1.2061068702290076,-0.6106870229007634,-0.442626953125,-0.16162109375,-0.115234375,0.6901999999999999
0.33587786259541985,1.465648854961832,-0.916030534351145,-0.44384765625,-0.17138671875,-0.129150390625,0.6919
0.24427480916030533,1.251908396946565,-0.5954198473282443,-0.44384765625,-0.16943359375,-0.127685546875,0.6936
0.21374045801526717,1.2671755725190839,-0.9770992366412213,-0.443603515625,-0.166015625,-0.128662109375,0.6952999999999999
-0.015267175572519083,1.3129770992366412,-0.6106870229007634,-0.44677734375,-0.16796875,-0.1337890625,0.697
0.12213740458015267,1.4961832061068703,-0.8396946564885496,-0.446044921875,-0.16748046875,-0.132568359375,0.6987
0.4122137404580153,1.3129770992366412,-0.8396946564885496,-0.441650390625,-0.1650390625,-0.12548828125,0.7003999999999999
0.33587786259541985,0.9312977099236641,-1.1297709923664123,-0.447509765625,-0.16748046875,-0.13671875,0.7021
0.13740458015267176,0.916030534351145,-1.0381679389312977,-0.44140625,-0.160888671875,-0.1328125,0.7038
0.33587786259541985,0.9618320610687023,-1.0534351145038168,-0.444580078125,-0.16357421875,-0.124755859375,0.7055
0.22900763358778625,0.7633587786259542,-0.8854961832061069,-0.4443359375,-0.162841796875,-0.12939453125,0.7071999999999999
0.12213740458015267,0.6412213740458015,-0.9312977099236641,-0.438720703125,-0.167236328125,-0.128173828125,0.7089
0.42748091603053434,0.7175572519083969,-0.7938931297709924,-0.4443359375,-0.16552734375,-0.1279296875,0.7106
0.6259541984732825,0.7938931297709924,-1.0229007633587786,-0.44970703125,-0.164794921875,-0.130859375,0.7122999999999999
0.6870229007633588,0.8549618320610687,-0.6259541984732825,-0.44775390625,-0.161376953125,-0.140380859375,0.714
0.5343511450381679,1.1450381679389312,-0.7633587786259542,-0.4482421875,-0.157958984375,-0.144775390625,0.7157
0.7175572519083969,1.099236641221374,-0.7786259541984732,-0.447021484375,-0.157958984375,-0.129150390625,0.7173999999999999
0.7175572519083969,1.450381679389313,-1.0687022900763359,-0.43994140625,-0.15625,-0.124755859375,0.7191
0.7633587786259542,1.5877862595419847,-0.8549618320610687,-0.4443359375,-0.15869140625,-0.126953125,0.7208
0.7480916030534351,1.83206106870229,-0.7938931297709924,-0.44921875,-0.15966796875,-0.126953125,0.7224999999999999
1.0076335877862594,1.9083969465648856,-0.6564885496183206,-0.44140625,-0.15576171875,-0.1328125,0.7242
0.916030534351145,1.8625954198473282,-0.9007633587786259,-0.4404296875,-0.157958984375,-0.128662109375,0.7259
0.9312977099236641,1.7557251908396947,-0.7938931297709924,-0.43798828125,-0.160888671875,-0.123291015625,0.7275999999999999
0.6412213740458015,1.6030534351145038,-0.9465648854961832,-0.441650390625,-0.1591796875,-0.135009765625,0.7293
0.6259541984732825,1.7251908396946565,-0.7938931297709924,-0.444580078125,-0.1533203125,-0.124755859375,0.731
0.8549618320610687,1.4198473282442747,-1.099236641221374,-0.43994140625,-0.159423828125,-0.12451171875,0.7326999999999999
0.6259541984732825,1.1450381679389312,-0.7022900763358778,-0.4375,-0.1630859375,-0.121337890625,0.7343999999999999
0.6106870229007634,1.1603053435114503,-0.7022900763358778,-0.437744140625,-0.158935546875,-0.128662109375,0.7361
0.8244274809160306,1.2366412213740459,-0.6564885496183206,-0.43798828125,-0.15966796875,-0.127685546875,0.7378
0.7786259541984732,1.099236641221374,-0.7633587786259542,-0.438720703125,-0.15771484375,-0.12646484375,0.7394999999999999
0.9312977099236641,0.9312977099236641,-0.6259541984732825,-0.433837890625,-0.157470703125,-0.13134765625,0.7412
1.0381679389312977,1.099236641221374,-0.7175572519083969,-0.440185546875,-0.159423828125,-0.12060546875,0.7429
1.083969465648855,1.0381679389312977,-0.6870229007633588,-0.442626953125,-0.16162109375,-0.126220703125,0.7445999999999999
0.9618320610687023,1.0687022900763359,-0.7480916030534351,-0.4375,-0.160400390625,-0.1337890625,0.7463
1.0687022900763359,1.3282442748091603,-0.6564885496183206,-0.44287109375,-0.16015625,-0.126953125,0.748
1.4045801526717556,1.6488549618320612,-0.8549618320610687,-0.444091796875,-0.159423828125,-0.128173828125,0.7496999999999999
1.282442748091603,1.83206106870229,-0.732824427480916,-0.439208984375,-0.1611328125,-0.132568359375,0.7514
1.099236641221374,2.015267175572519,-0.8244274809160306,-0.437255859375,-0.157470703125,-0.130615234375,0.7531
0.9770992366412213,1.8931297709923665,-0.7022900763358778,-0.44287109375,-0.157958984375,-0.13037109375,0.7547999999999999
1.083969465648855,1.984732824427481,-0.7022900763358778,-0.44091796875,-0.155029296875,-0.13037109375,0.7565
1.083969465648855,1.9694656488549618,-0.8702290076335878,-0.44091796875,-0.16455078125,-0.127197265625,0.7582
1.2366412213740459,2.015267175572519,-0.8549618320610687,-0.439208984375,-0.162841796875,-0.12353515625,0.7598999999999999
1.0534351145038168,1.6488549618320612,-0.6412213740458015,-0.44482421875,-0.159912109375,-0.13330078125,0.7615999999999999
1.1145038167938932,1.7099236641221374,-0.6259541984732825,-0.440185546875,-0.159912109375,-0.133056640625,0.7633
1.083969465648855,1.4045801526717556,-0.7633587786259542,-0.44482421875,-0.1650390625,-0.127685546875,0.7649999999999999
1.0534351145038168,1.4351145038167938,-0.916030534351145,-0.4404296875,-0.16845703125,-0.126953125,0.7666999999999999
1.0687022900763359,1.3893129770992367,-0.9618320610687023,-0.4384765625,-0.168212890625,-0.129150390625,0.7684
1.5572519083969465,1.1297709923664123,-0.9770992366412213,-0.441162109375,-0.163818359375,-0.1259765625,0.7701
1.4351145038167938,0.9465648854961832,-0.8549618320610687,-0.441650390625,-0.1611328125,-0.13671875,0.7717999999999999
1.4351145038167938,1.1145038167938932,-0.9923664122137404,-0.44287109375,-0.161865234375,-0.126953125,0.7735
1.5877862595419847,1.0229007633587786,-0.9770992366412213,-0.437744140625,-0.16064453125,-0.121337890625,0.7752
1.2671755725190839,0.8549618320610687,-1.0381679389312977,-0.439453125,-0.162353515625,-0.12548828125,0.7768999999999999
1.282442748091603,0.8396946564885496,-0.9923664122137404,-0.4375,-0.16259765625,-0.123046875,0.7786
1.282442748091603,1.099236641221374,-0.8702290076335878,-0.442138671875,-0.157958984375,-0.126708984375,0.7803
1.0687022900763359,0.9465648854961832,-0.8702290076335878,-0.4375,-0.161865234375,-0.1201171875,0.7819999999999999
1.0076335877862594,0.9770992366412213,-0.8091603053435115,-0.439697265625,-0.15966796875,-0.12646484375,0.7837
0.8396946564885496,1.099236641221374,-0.8702290076335878,-0.442138671875,-0.16015625,-0.125,0.7854
0.5648854961832062,1.0381679389312977,-0.6717557251908397,-0.4423828125,-0.166259765625,-0.12939453125,0.7870999999999999
0.6564885496183206,1.3740458015267176,-0.7786259541984732,-0.441650390625,-0.164306640625,-0.13330078125,0.7888
0.48854961832061067,1.4045801526717556,-0.6870229007633588,-0.44140625,-0.15869140625,-0.126953125,0.7905
0.6259541984732825,1.5419847328244274,-0.7175572519083969,-0.443603515625,-0.15869140625,-0.134765625,0.7921999999999999
0.22900763358778625,1.4961832061068703,-0.6564885496183206,-0.440673828125,-0.160888671875,-0.136474609375,0.7938999999999999
0.366412213740458,1.4809160305343512,-0.7786259541984732,-0.439697265625,-0.162353515625,-0.1337890625,0.7956
0.3053435114503817,1.6488549618320612,-1.0687022900763359,-0.444580078125,-0.163330078125,-0.130615234375,0.7973
0.549618320610687,1.4809160305343512,-0.9465648854961832,-0.439697265625,-0.163330078125,-0.132080078125,0.7989999999999999
0.6412213740458015,1.3129770992366412,-1.099236641221374,-0.4404296875,-0.163818359375,-0.125244140625,0.8007
0.6106870229007634,1.2213740458015268,-1.0534351145038168,-0.44091796875,-0.1611328125,-0.12158203125,0.8024
0.732824427480916,1.2061068702290076,-0.916030534351145,-0.43701171875,-0.16259765625,-0.121826171875,0.8040999999999999
0.9465648854961832,1.0534351145038168,-1.1297709923664123,-0.44482421875,-0.16455078125,-0.1201171875,0.8058
1.1908396946564885,1.0229007633587786,-1.2213740458015268,-0.442626953125,-0.1669921875,-0.13037109375,0.8075
1.3129770992366412,0.9770992366412213,-1.3740458015267176,-0.438232421875,-0.1611328125,-0.12646484375,0.8091999999999999
1.099236641221374,0.7633587786259542,-1.2061068702290076,-0.443115234375,-0.16455078125,-0.127197265625,0.8109
1.5419847328244274,0.6564885496183206,-1.3587786259541985,-0.4453125,-0.159423828125,-0.127197265625,0.8126
1.6488549618320612,1.1145038167938932,-1.3435114503816794,-0.440673828125,-0.157958984375,-0.12890625,0.8142999999999999
1.4198473282442747,1.297709923664122,-1.5267175572519085,-0.43701171875,-0.16162109375,-0.127197265625,0.816
1.465648854961832,0.9312977099236641,-1.5725190839694656,-0.44482421875,-0.158935546875,-0.127197265625,0.8177
1.8015267175572518,0.7175572519083969,-1.618320610687023,-0.445556640625,-0.162353515625,-0.119140625,0.8193999999999999
1.7709923664122138,0.9618320610687023,-1.6030534351145038,-0.44287109375,-0.16455078125,-0.135986328125,0.8210999999999999
1.7557251908396947,0.8854961832061069,-1.6030534351145038,-0.443115234375,-0.16552734375,-0.1337890625,0.8228
1.9389312977099236,1.282442748091603,-1.7099236641221374,-0.448974609375,-0.168701171875,-0.126708984375,0.8244999999999999
1.9389312977099236,1.4809160305343512,-1.633587786259542,-0.443603515625,-0.168212890625,-0.131103515625,0.8261999999999999
1.9694656488549618,1.3587786259541985,-1.6793893129770991,-0.445068359375,-0.162109375,-0.130615234375,0.8279
1.9236641221374047,1.1755725190839694,-1.7404580152671756,-0.44287109375,-0.16259765625,-0.12841796875,0.8296
2.0610687022900764,1.6030534351145038,-1.5572519083969465,-0.447021484375,-0.166259765625,-0.123046875,0.8312999999999999
2.030534351145038,1.5877862595419847,-1.6641221374045803,-0.44384765625,-0.16650390625,-0.129638671875,0.833
2.16793893129771,1.5877862595419847,-1.633587786259542,-0.4423828125,-0.16357421875,-0.12841796875,0.8347
2.122137404580153,1.6946564885496183,-1.7099236641221374,-0.443359375,-0.166748046875,-0.131103515625,0.8363999999999999
2.045801526717557,1.8015267175572518,-1.5267175572519085,-0.441162109375,-0.170166015625,-0.1318359375,0.8381
1.7404580152671756,1.5114503816793894,-1.7404580152671756,-0.440673828125,-0.15625,-0.123046875,0.8398
1.7099236641221374,1.6641221374045803,-1.83206106870229,-0.44189453125,-0.16552734375,-0.125244140625,0.8414999999999999
1.6641221374045803,1.5267175572519085,-1.9541984732824427,-0.440185546875,-0.169677734375,-0.125732421875,0.8432
1.5267175572519085,1.4809160305343512,-1.8015267175572518,-0.4423828125,-0.171142578125,-0.12841796875,0.8449
1.4809160305343512,1.3587786259541985,-2.030534351145038,-0.44482421875,-0.170654296875,-0.1259765625,0.8465999999999999
1.5877862595419847,1.2213740458015268,-1.7709923664122138,-0.4443359375,-0.168212890625,-0.125,0.8482999999999999
1.465648854961832,0.9465648854961832,-1.9236641221374047,-0.441650390625,-0.169189453125,-0.119873046875,0.85
1.4351145038167938,0.9770992366412213,-1.8625954198473282,-0.44189453125,-0.171142578125,-0.124755859375,0.8516999999999999
1.2671755725190839,1.1145038167938932,-1.8778625954198473,-0.443359375,-0.166748046875,-0.12353515625,0.8533999999999999
1.0229007633587786,1.1450381679389312,-1.8473282442748091,-0.443115234375,-0.168212890625,-0.12060546875,0.8551
0.5648854961832062,0.7938931297709924,-1.8625954198473282,-0.440673828125,-0.168212890625,-0.124267578125,0.8568
0.5343511450381679,0.7633587786259542,-1.4961832061068703,-0.44384765625,-0.17138671875,-0.128173828125,0.8584999999999999
0.2748091603053435,0.8244274809160306,-1.8015267175572518,-0.441162109375,-0.16650390625,-0.130859375,0.8602
0.24427480916030533,0.8244274809160306,-1.633587786259542,-0.443115234375,-0.169677734375,-0.12109375,0.8619
0.015267175572519083,0.9618320610687023,-1.3893129770992367,-0.44189453125,-0.161376953125,-0.129150390625,0.8635999999999999
0.22900763358778625,1.1450381679389312,-1.2366412213740459,-0.439453125,-0.16748046875,-0.131591796875,0.8653
0.3511450381679389,1.1297709923664123,-1.4961832061068703,-0.438720703125,-0.166748046875,-0.13134765625,0.867
0.3053435114503817,1.251908396946565,-1.3893129770992367,-0.44677734375,-0.168701171875,-0.1240234375,0.8686999999999999
0.42748091603053434,1.4198473282442747,-1.3435114503816794,-0.444580078125,-0.166259765625,-0.12744140625,0.8704
0.22900763358778625,1.3740458015267176,-1.4351145038167938,-0.442138671875,-0.163330078125,-0.129150390625,0.8721
0.3053435114503817,1.633587786259542,-1.4961832061068703,-0.442138671875,-0.159423828125,-0.12646484375,0.8737999999999999
0.030534351145038167,1.4961832061068703,-1.2671755725190839,-0.44189453125,-0.163818359375,-0.1298828125,0.8755
-0.1984732824427481,1.5114503816793894,-1.5114503816793894,-0.445556640625,-0.160888671875,-0.132568359375,0.8772
0.07633587786259542,1.3282442748091603,-1.3893129770992367,-0.44287109375,-0.164794921875,-0.13427734375,0.8788999999999999
-0.13740458015267176,1.4045801526717556,-1.3587786259541985,-0.445068359375,-0.16064453125,-0.126953125,0.8805999999999999
-0.3053435114503817,1.083969465648855,-1.2671755725190839,-0.44189453125,-0.161376953125,-0.1328125,0.8823
-0.12213740458015267,1.0534351145038168,-1.465648854961832,-0.4423828125,-0.16259765625,-0.12548828125,0.8839999999999999
0.0,1.0076335877862594,-1.3740458015267176,-0.438720703125,-0.16552734375,-0.1220703125,0.8856999999999999
0.07633587786259542,0.8854961832061069,-1.3893129770992367,-0.441162109375,-0.162109375,-0.12890625,0.8874
0.061068702290076333,0.8244274809160306,-1.4351145038167938,-0.442626953125,-0.166259765625,-0.118408203125,0.8891
0.0916030534351145,0.7022900763358778,-1.3893129770992367,-0.4423828125,-0.161865234375,-0.128662109375,0.8907999999999999
0.32061068702290074,0.7175572519083969,-1.5419847328244274,-0.438232421875,-0.16455078125,-0.125,0.8925
0.33587786259541985,0.6717557251908397,-1.786259541984733,-0.440185546875,-0.16259765625,-0.12939453125,0.8942
0.44274809160305345,0.9312977099236641,-1.618320610687023,-0.440673828125,-0.16455078125,-0.124755859375,0.8958999999999999
0.4732824427480916,0.7786259541984732,-1.3893129770992367,-0.44091796875,-0.1591796875,-0.1298828125,0.8976
0.4580152671755725,1.2366412213740459,-1.3435114503816794,-0.440185546875,-0.16357421875,-0.128173828125,0.8993
0.7480916030534351,1.3129770992366412,-1.5572519083969465,-0.438720703125,-0.15771484375,-0.125732421875,0.9009999999999999
0.6259541984732825,1.4351145038167938,-1.4809160305343512,-0.4375,-0.15478515625,-0.12744140625,0.9027
0.6564885496183206,1.6488549618320612,-1.4809160305343512,-0.4404296875,-0.164306640625,-0.13232421875,0.9044
0.5801526717557252,1.7251908396946565,-1.5572519083969465,-0.445068359375,-0.1591796875,-0.1396484375,0.9060999999999999
0.5801526717557252,1.7251908396946565,-1.6641221374045803,-0.4384765625,-0.15380859375,-0.125,0.9077999999999999
0.8854961832061069,1.8778625954198473,-1.633587786259542,-0.4404296875,-0.161865234375,-0.133544921875,0.9095
0.732824427480916,2.030534351145038,-1.5267175572519085,-0.43505859375,-0.164794921875,-0.1337890625,0.9111999999999999
0.8702290076335878,1.8625954198473282,-1.4809160305343512,-0.43603515625,-0.165771484375,-0.122802734375,0.9128999999999999
1.1755725190839694,1.786259541984733,-1.4809160305343512,-0.44091796875,-0.164306640625,-0.118408203125,0.9146
1.282442748091603,1.6946564885496183,-1.3587786259541985,-0.443359375,-0.157958984375,-0.124267578125,0.9163
1.251908396946565,1.5419847328244274,-1.6641221374045803,-0.435791015625,-0.162841796875,-0.12109375,0.9179999999999999
1.3893129770992367,1.2671755725190839,-1.450381679389313,-0.438720703125,-0.165283203125,-0.128173828125,0.9197
1.5267175572519085,1.0076335877862594,-1.5877862595419847,-0.437744140625,-0.16357421875,-0.125,0.9214
1.7557251908396947,0.7786259541984732,-1.618320610687023,-0.438720703125,-0.16455078125,-0.130126953125,0.9230999999999999
1.1145038167938932,0.7022900763358778,-1.786259541984733,-0.437744140625,-0.16748046875,-0.129150390625,0.9248
1.2671755725190839,0.6412213740458015,-1.6030534351145038,-0.435302734375,-0.165283203125,-0.123291015625,0.9265
1.1603053435114503,0.7175572519083969,-1.7251908396946565,-0.435791015625,-0.16259765625,-0.123046875,0.9281999999999999
0.7786259541984732,0.916030534351145,-1.6793893129770991,-0.4365234375,-0.168701171875,-0.125,0.9299
0.732824427480916,0.8702290076335878,-1.8015267175572518,-0.437744140625,-0.1689453125,-0.12353515625,0.9316
0.9007633587786259,1.0381679389312977,-1.7557251908396947,-0.441162109375,-0.162841796875,-0.12158203125,0.9332999999999999
0.732824427480916,1.1908396946564885,-1.83206106870229,-0.4423828125,-0.167236328125,-0.127197265625,0.9349999999999999
0.7022900763358778,1.2671755725190839,-1.7404580152671756,-0.436767578125,-0.169189453125,-0.12841796875,0.9367
0.5648854961832062,1.251908396946565,-1.618320610687023,-0.443603515625,-0.169677734375,-0.12744140625,0.9383999999999999
0.3053435114503817,1.5877862595419847,-1.7099236641221374,-0.444091796875,-0.16748046875,-0.127197265625,0.9400999999999999
-0.015267175572519083,1.4045801526717556,-1.5419847328244274,-0.4365234375,-0.167724609375,-0.129150390625,0.9418
-0.3053435114503817,1.450381679389313,-1.3435114503816794,-0.43798828125,-0.1689453125,-0.116943359375,0.9434999999999999
-0.4580152671755725,1.5725190839694656,-1.2061068702290076,-0.436767578125,-0.16162109375,-0.12255859375,0.9451999999999999
-0.48854961832061067,1.5267175572519085,-1.465648854961832,-0.438232421875,-0.169677734375,-0.132568359375,0.9469
-0.6412213740458015,1.4351145038167938,-1.251908396946565,-0.440185546875,-0.163330078125,-0.121826171875,0.9486
-0.8549618320610687,1.3129770992366412,-1.3129770992366412,-0.438232421875,-0.16357421875,-0.12548828125,0.9502999999999999
-0.7480916030534351,1.0381679389312977,-1.1145038167938932,-0.43798828125,-0.162109375,-0.130126953125,0.952
-0.7938931297709924,1.0534351145038168,-1.251908396946565,-0.442138671875,-0.1689453125,-0.131591796875,0.9537
-0.7175572519083969,1.3435114503816794,-1.0076335877862594,-0.442138671875,-0.16943359375,-0.12255859375,0.9553999999999999
-0.6870229007633588,1.1908396946564885,-1.1755725190839694,-0.44140625,-0.166748046875,-0.12890625,0.9571
-0.732824427480916,1.0687022900763359,-1.251908396946565,-0.438720703125,-0.15673828125,-0.121337890625,0.9588
-0.3053435114503817,1.1755725190839694,-1.1755725190839694,-0.44189453125,-0.1689453125,-0.125,0.9604999999999999
-0.366412213740458,0.7022900763358778,-1.1297709923664123,-0.43798828125,-0.166259765625,-0.12255859375,0.9621999999999999
-0.366412213740458,0.7633587786259542,-1.282442748091603,-0.443359375,-0.162841796875,-0.12548828125,0.9639
-0.183206106870229,0.8549618320610687,-1.0076335877862594,-0.446044921875,-0.1591796875,-0.128662109375,0.9655999999999999
-0.5801526717557252,0.4732824427480916,-1.282442748091603,-0.444091796875,-0.158203125,-0.128662109375,0.9672999999999999
-0.16793893129770993,0.7022900763358778,-1.282442748091603,-0.445068359375,-0.16357421875,-0.12890625,0.969
-0.4122137404580153,0.8396946564885496,-1.3740458015267176,-0.447021484375,-0.160888671875,-0.123779296875,0.9706999999999999
-0.5648854961832062,0.9312977099236641,-1.1908396946564885,-0.447265625,-0.16259765625,-0.127685546875,0.9723999999999999
-0.5954198473282443,0.7786259541984732,-1.5725190839694656,-0.447509765625,-0.160888671875,-0.130615234375,0.9741
-0.7480916030534351,1.0381679389312977,-1.297709923664122,-0.4443359375,-0.16357421875,-0.12841796875,0.9758
-0.44274809160305345,1.465648854961832,-1.3435114503816794,-0.448974609375,-0.16064453125,-0.1337890625,0.9774999999999999
-0.24427480916030533,1.465648854961832,-1.2061068702290076,-0.44677734375,-0.160888671875,-0.133056640625,0.9792
-0.6259541984732825,1.5419847328244274,-1.297709923664122,-0.444580078125,-0.1630859375,-0.13720703125,0.9809
-0.3511450381679389,1.4961832061068703,-1.0076335877862594,-0.44482421875,-0.156982421875,-0.134765625,0.9825999999999999
-0.1984732824427481,1.7709923664122138,-1.2671755725190839,-0.4462890625,-0.162109375,-0.129638671875,0.9843
-0.07633587786259542,1.8778625954198473,-1.3129770992366412,-0.453857421875,-0.15673828125,-0.133056640625,0.986
0.061068702290076333,1.7099236641221374,-1.099236641221374,-0.44482421875,-0.1572265625,-0.1318359375,0.9876999999999999
0.15267175572519084,1.7709923664122138,-0.8396946564885496,-0.447021484375,-0.16357421875,-0.12939453125,0.9894
0.3511450381679389,1.816793893129771,-1.083969465648855,-0.4482421875,-0.161376953125,-0.126953125,0.9911
0.8091603053435115,1.5267175572519085,-1.0076335877862594,-0.443359375,-0.16162109375,-0.12451171875,0.9927999999999999
0.9312977099236641,1.7557251908396947,-1.2061068702290076,-0.4384765625,-0.160888671875,-0.130126953125,0.9944999999999999
0.9618320610687023,1.8015267175572518,-0.9923664122137404,-0.4482421875,-0.159912109375,-0.11767578125,0.9962
1.465648854961832,1.83206106870229,-1.3740458015267176,-0.440673828125,-0.1630859375,-0.131103515625,0.9978999999999999
1.465648854961832,1.5419847328244274,-1.3587786259541985,-0.44384765625,-0.162841796875,-0.126220703125,0.9995999999999999
1.618320610687023,1.3282442748091603,-1.251908396946565,-0.442626953125,-0.15869140625,-0.1328125,1.0012999999999999
1.5267175572519085,1.2366412213740459,-1.3587786259541985,-0.443115234375,-0.1630859375,-0.124755859375,1.003
1.4351145038167938,1.251908396946565,-1.4961832061068703,-0.44189453125,-0.163330078125,-0.1318359375,1.0047
1.5419847328244274,1.1450381679389312,-1.5114503816793894,-0.439453125,-0.160888671875,-0.131591796875,1.0064
1.5114503816793894,1.1297709923664123,-1.465648854961832,-0.439208984375,-0.16455078125,-0.12841796875,1.0081
1.251908396946565,0.9312977099236641,-1.2671755725190839,-0.443359375,-0.16943359375,-0.13037109375,1.0098
0.9312977099236641,0.9465648854961832,-1.3740458015267176,-0.4404296875,-0.166259765625,-0.13427734375,1.0114999999999998
0.8091603053435115,1.0076335877862594,-1.3129770992366412,-0.4375,-0.161376953125,-0.12548828125,1.0131999999999999
0.6259541984732825,1.2213740458015268,-1.5572519083969465,-0.441162109375,-0.16796875,-0.128662109375,1.0149
0.5648854961832062,1.2213740458015268,-1.4961832061068703,-0.438720703125,-0.162841796875,-0.127197265625,1.0166
0.7633587786259542,1.0076335877862594,-1.5572519083969465,-0.435791015625,-0.16455078125,-0.129150390625,1.0183
0.6564885496183206,1.1297709923664123,-1.4961832061068703,-0.440185546875,-0.16357421875,-0.129150390625,1.02
0.5801526717557252,1.2671755725190839,-1.6946564885496183,-0.439208984375,-0.1669921875,-0.128173828125,1.0217
0.22900763358778625,1.1145038167938932,-1.5725190839694656,-0.438720703125,-0.16748046875,-0.1318359375,1.0233999999999999
0.366412213740458,1.083969465648855,-1.6793893129770991,-0.436279296875,-0.16357421875,-0.12548828125,1.0251
0.0,1.1297709923664123,-1.5572519083969465,-0.440185546875,-0.164794921875,-0.1279296875,1.0268
-0.366412213740458,0.9923664122137404,-1.5267175572519085,-0.44189453125,-0.1640625,-0.131591796875,1.0285
-0.22900763358778625,1.099236641221374,-1.618320610687023,-0.4375,-0.159912109375,-0.1240234375,1.0302
-0.366412213740458,1.0381679389312977,-1.4351145038167938,-0.443115234375,-0.16455078125,-0.126220703125,1.0319
-0.44274809160305345,1.099236641221374,-1.450381679389313,-0.44140625,-0.16357421875,-0.127197265625,1.0335999999999999
-0.6412213740458015,1.0687022900763359,-1.5572519083969465,-0.43701171875,-0.16552734375,-0.129150390625,1.0352999999999999
-0.6717557251908397,1.0229007633587786,-1.6030534351145038,-0.44140625,-0.1650390625,-0.125,1.037
-0.7480916030534351,1.0687022900763359,-1.282442748091603,-0.439453125,-0.16650390625,-0.118896484375,1.0387
-1.1297709923664123,1.2061068702290076,-1.3740458015267176,-0.43701171875,-0.166748046875,-0.1201171875,1.0404
-0.9923664122137404,1.1145038167938932,-1.4198473282442747,-0.439697265625,-0.1630859375,-0.12255859375,1.0421
-0.6870229007633588,0.916030534351145,-1.3129770992366412,-0.439453125,-0.161865234375,-0.128173828125,1.0437999999999998
-1.251908396946565,0.9007633587786259,-1.2061068702290076,-0.437744140625,-0.15673828125,-0.11962890625,1.0454999999999999
-1.3129770992366412,1.1145038167938932,-1.1145038167938932,-0.439208984375,-0.16162109375,-0.1298828125,1.0472
-1.1450381679389312,1.251908396946565,-1.1297709923664123,-0.4404296875,-0.161376953125,-0.12939453125,1.0489
-1.2061068702290076,1.1297709923664123,-1.083969465648855,-0.4404296875,-0.15771484375,-0.131591796875,1.0506
-0.9923664122137404,1.297709923664122,-1.0687022900763359,-0.439697265625,-0.156982421875,-0.130126953125,1.0523
-0.7480916030534351,1.1755725190839694,-0.9465648854961832,-0.44091796875,-0.1640625,-0.13525390625,1.054
-0.8702290076335878,1.0534351145038168,-0.9923664122137404,-0.444580078125,-0.159912109375,-0.12744140625,1.0556999999999999
-0.6564885496183206,1.099236641221374,-0.9923664122137404,-0.43798828125,-0.1640625,-0.121826171875,1.0574
-0.3969465648854962,1.0534351145038168,-0.7480916030534351,-0.44482421875,-0.159912109375,-0.12841796875,1.0591
-0.2748091603053435,1.2366412213740459,-0.9465648854961832,-0.4384765625,-0.159912109375,-0.1240234375,1.0608
-0.3053435114503817,1.099236641221374,-0.8396946564885496,-0.4365234375,-0.162109375,-0.12646484375,1.0625
-0.32061068702290074,1.1755725190839694,-0.8244274809160306,-0.447509765625,-0.1552734375,-0.128662109375,1.0642
-0.22900763358778625,1.282442748091603,-0.6106870229007634,-0.442626953125,-0.15771484375,-0.1201171875,1.0658999999999998
-0.0916030534351145,1.3129770992366412,-0.5954198473282443,-0.44091796875,-0.15966796875,-0.1240234375,1.0675999999999999
0.12213740458015267,1.6641221374045803,-0.5038167938931297,-0.4404296875,-0.160888671875,-0.13037109375,1.0693
0.44274809160305345,1.6030534351145038,-0.6259541984732825,-0.44287109375,-0.15869140625,-0.13330078125,1.071
0.366412213740458,1.633587786259542,-0.6259541984732825,-0.44140625,-0.157958984375,-0.13232421875,1.0727
0.5038167938931297,1.7557251908396947,-0.4580152671755725,-0.4404296875,-0.158935546875,-0.134521484375,1.0744
0.5954198473282443,1.633587786259542,-0.5801526717557252,-0.437744140625,-0.157470703125,-0.12646484375,1.0760999999999998
0.7480916030534351,1.6946564885496183,-0.32061068702290074,-0.43701171875,-0.154541015625,-0.126953125,1.0777999999999999
0.5343511450381679,1.5419847328244274,-0.2595419847328244,-0.438720703125,-0.1572265625,-0.130859375,1.0795
0.8549618320610687,1.6641221374045803,-0.549618320610687,-0.4404296875,-0.1552734375,-0.126708984375,1.0812
0.9923664122137404,1.6488549618320612,-0.5648854961832062,-0.439208984375,-0.15673828125,-0.127685546875,1.0829
1.0381679389312977,1.83206106870229,-0.5954198473282443,-0.43798828125,-0.15869140625,-0.126953125,1.0846
0.9465648854961832,1.4961832061068703,-0.5190839694656488,-0.44091796875,-0.158447265625,-0.123779296875,1.0863
0.9618320610687023,1.4961832061068703,-0.8396946564885496,-0.441162109375,-0.1650390625,-0.1240234375,1.0879999999999999
1.0381679389312977,1.4809160305343512,-0.6564885496183206,-0.439453125,-0.160888671875,-0.122802734375,1.0897
1.083969465648855,1.4351145038167938,-0.916030534351145,-0.443115234375,-0.16357421875,-0.126708984375,1.0914
1.251908396946565,1.2671755725190839,-0.9923664122137404,-0.441650390625,-0.162109375,-0.122802734375,1.0931
1.2213740458015268,0.9770992366412213,-1.099236641221374,-0.442138671875,-0.160400390625,-0.129150390625,1.0948
1.2366412213740459,0.8244274809160306,-1.0076335877862594,-0.443359375,-0.163818359375,-0.129150390625,1.0965
1.1755725190839694,0.8702290076335878,-1.1145038167938932,-0.441162109375,-0.1591796875,-0.12451171875,1.0981999999999998
1.0076335877862594,0.6259541984732825,-1.297709923664122,-0.4453125,-0.1611328125,-0.1171875,1.0998999999999999
1.0687022900763359,0.7633587786259542,-1.3587786259541985,-0.443115234375,-0.161865234375,-0.1220703125,1.1016
1.083969465648855,0.8702290076335878,-1.4198473282442747,-0.43701171875,-0.16015625,-0.126953125,1.1033
1.0381679389312977,1.0687022900763359,-1.4198473282442747,-0.44189453125,-0.1650390625,-0.128173828125,1.105
1.1145038167938932,0.9770992366412213,-1.099236641221374,-0.4423828125,-0.166015625,-0.130126953125,1.1067
1.0534351145038168,1.1908396946564885,-1.4961832061068703,-0.4404296875,-0.16259765625,-0.124267578125,1.1083999999999998
1.0076335877862594,1.3893129770992367,-1.450381679389313,-0.445556640625,-0.163330078125,-0.1240234375,1.1100999999999999
0.8702290076335878,1.4198473282442747,-1.2366412213740459,-0.445556640625,-0.16015625,-0.126220703125,1.1118
0.7938931297709924,1.1603053435114503,-1.3587786259541985,-0.44189453125,-0.15771484375,-0.131103515625,1.1135
0.9465648854961832,1.0229007633587786,-1.3893129770992367,-0.4462890625,-0.157958984375,-0.131591796875,1.1152
0.7633587786259542,1.1450381679389312,-1.282442748091603,-0.4443359375,-0.155517578125,-0.11962890625,1.1169
0.6259541984732825,0.9770992366412213,-1.3740458015267176,-0.4462890625,-0.156982421875,-0.131591796875,1.1186
0.7786259541984732,0.8396946564885496,-1.1450381679389312,-0.441650390625,-0.15966796875,-0.129150390625,1.1202999999999999
0.7175572519083969,0.7175572519083969,-1.297709923664122,-0.445556640625,-0.158935546875,-0.12744140625,1.1219999999999999
0.4122137404580153,0.8702290076335878,-1.3129770992366412,-0.438720703125,-0.156005859375,-0.12890625,1.1237
0.5038167938931297,0.8549618320610687,-1.099236641221374,-0.43798828125,-0.1640625,-0.132080078125,1.1254
0.3969465648854962,0.8549618320610687,-1.2213740458015268,-0.44482421875,-0.161376953125,-0.12890625,1.1271
0.12213740458015267,1.083969465648855,-1.1908396946564885,-0.443603515625,-0.1611328125,-0.126708984375,1.1288
0.030534351145038167,1.0229007633587786,-1.0076335877862594,-0.444091796875,-0.1572265625,-0.12939453125,1.1304999999999998
-0.12213740458015267,1.2366412213740459,-1.0229007633587786,-0.4453125,-0.1591796875,-0.127685546875,1.1321999999999999
-0.030534351145038167,1.099236641221374,-1.0381679389312977,-0.439208984375,-0.159423828125,-0.12548828125,1.1339
-0.015267175572519083,0.9312977099236641,-0.9618320610687023,-0.439453125,-0.155517578125,-0.13427734375,1.1356
-0.1984732824427481,0.8244274809160306,-0.8702290076335878,-0.441162109375,-0.15966796875,-0.134521484375,1.1373
-0.24427480916030533,0.916030534351145,-0.8549618320610687,-0.44384765625,-0.16259765625,-0.126220703125,1.139
-0.2595419847328244,1.0381679389312977,-0.6564885496183206,-0.4453125,-0.158447265625,-0.12744140625,1.1407
-0.366412213740458,0.7633587786259542,-0.6717557251908397,-0.447998046875,-0.15771484375,-0.12158203125,1.1423999999999999
-0.42748091603053434,0.7633587786259542,-0.5190839694656488,-0.443603515625,-0.161865234375,-0.126953125,1.1441
-0.44274809160305345,0.6870229007633588,-0.6412213740458015,-0.444580078125,-0.1591796875,-0.130615234375,1.1458
-0.6106870229007634,0.7633587786259542,-0.5038167938931297,-0.44287109375,-0.156982421875,-0.1259765625,1.1475
-0.33587786259541985,0.5801526717557252,-0.549618320610687,-0.442626953125,-0.157470703125,-0.122314453125,1.1492
-0.07633587786259542,0.8244274809160306,-0.3816793893129771,-0.443603515625,-0.158447265625,-0.1240234375,1.1509
-0.13740458015267176,0.9465648854961832,-0.366412213740458,-0.444091796875,-0.164794921875,-0.132568359375,1.1525999999999998
-0.12213740458015267,0.9618320610687023,-0.2900763358778626,-0.4462890625,-0.164306640625,-0.12841796875,1.1542999999999999
0.2900763358778626,1.2213740458015268,-0.33587786259541985,-0.439697265625,-0.162353515625,-0.130615234375,1.156
0.7480916030534351,1.3282442748091603,-0.24427480916030533,-0.442138671875,-0.16015625,-0.126953125,1.1577
0.9465648854961832,1.618320610687023,-0.32061068702290074,-0.44189453125,-0.160888671875,-0.124267578125,1.1594
1.3893129770992367,1.8015267175572518,-0.15267175572519084,-0.4453125,-0.1630859375,-0.130615234375,1.1611
1.3893129770992367,1.786259541984733,-0.183206106870229,-0.446044921875,-0.166259765625,-0.12646484375,1.1627999999999998
1.6793893129770991,2.015267175572519,-0.3511450381679389,-0.444580078125,-0.164794921875,-0.131591796875,1.1644999999999999
1.9389312977099236,2.030534351145038,-0.6106870229007634,-0.441650390625,-0.16064453125,-0.118896484375,1.1662
2.0916030534351147,2.2290076335877864,-0.44274809160305345,-0.441162109375,-0.16064453125,-0.118896484375,1.1679
2.3053435114503817,1.8625954198473282,-0.24427480916030533,-0.44140625,-0.16162109375,-0.12548828125,1.1696
2.045801526717557,1.984732824427481,-0.21374045801526717,-0.44140625,-0.16015625,-0.135498046875,1.1713
2.0763358778625953,1.9236641221374047,-0.42748091603053434,-0.44140625,-0.160888671875,-0.121826171875,1.173
1.8931297709923665,1.7557251908396947,-0.42748091603053434,-0.440185546875,-0.162109375,-0.120361328125,1.1746999999999999
1.6793893129770991,1.8015267175572518,-0.4732824427480916,-0.439208984375,-0.16259765625,-0.12451171875,1.1764
1.9236641221374047,1.6488549618320612,-0.6259541984732825,-0.437744140625,-0.160888671875,-0.1328125,1.1781
1.8778625954198473,1.4961832061068703,-0.5801526717557252,-0.43798828125,-0.160888671875,-0.132080078125,1.1798
1.7557251908396947,1.1908396946564885,-0.8091603053435115,-0.44091796875,-0.16845703125,-0.134033203125,1.1815
1.6793893129770991,1.2213740458015268,-0.8702290076335878,-0.4375,-0.163818359375,-0.133056640625,1.1832
1.8473282442748091,1.2671755725190839,-0.9618320610687023,-0.43701171875,-0.16650390625,-0.12109375,1.1848999999999998
1.8931297709923665,1.1603053435114503,-0.8244274809160306,-0.439697265625,-0.162841796875,-0.1279296875,1.1865999999999999
1.5572519083969465,0.9618320610687023,-1.3129770992366412,-0.440185546875,-0.17041015625,-0.13720703125,1.1883
1.618320610687023,1.0076335877862594,-1.297709923664122,-0.4404296875,-0.17041015625,-0.13525390625,1.19
1.6793893129770991,1.1603053435114503,-1.4198473282442747,-0.4384765625,-0.1630859375,-0.134765625,1.1917
1.7709923664122138,1.2213740458015268,-1.4961832061068703,-0.44140625,-0.164306640625,-0.13818359375,1.1934
1.618320610687023,1.1908396946564885,-1.5877862595419847,-0.44189453125,-0.16796875,-0.12890625,1.1950999999999998
1.5419847328244274,1.0534351145038168,-1.5572519083969465,-0.444091796875,-0.1689453125,-0.1279296875,1.1967999999999999
1.4351145038167938,1.1297709923664123,-1.7404580152671756,-0.43798828125,-0.1650390625,-0.13525390625,1.1985
1.1908396946564885,1.1145038167938932,-1.7251908396946565,-0.436279296875,-0.16796875,-0.1318359375,1.2002
1.0381679389312977,1.0534351145038168,-1.633587786259542,-0.441162109375,-0.161865234375,-0.128662109375,1.2019
0.9465648854961832,1.0076335877862594,-1.816793893129771,-0.443115234375,-0.161376953125,-0.13671875,1.2036
0.7786259541984732,0.9465648854961832,-1.9389312977099236,-0.43896484375,-0.16357421875,-0.131591796875,1.2053
0.44274809160305345,0.9770992366412213,-1.5114503816793894,-0.438232421875,-0.165283203125,-0.132080078125,1.2069999999999999
0.366412213740458,0.8702290076335878,-1.7099236641221374,-0.440185546875,-0.16455078125,-0.128662109375,1.2086999999999999
0.10687022900763359,1.0229007633587786,-1.5725190839694656,-0.4453125,-0.1630859375,-0.125244140625,1.2104
0.04580152671755725,1.0381679389312977,-1.4198473282442747,-0.442626953125,-0.158935546875,-0.1201171875,1.2121
-0.07633587786259542,0.8244274809160306,-1.3587786259541985,-0.43994140625,-0.158203125,-0.1259765625,1.2138
-0.3816793893129771,1.0534351145038168,-1.5877862595419847,-0.445556640625,-0.157958984375,-0.1240234375,1.2155
-0.32061068702290074,1.0381679389312977,-1.2671755725190839,-0.4453125,-0.16259765625,-0.12451171875,1.2171999999999998
-0.5038167938931297,0.8396946564885496,-1.2366412213740459,-0.43994140625,-0.158203125,-0.128173828125,1.2188999999999999
-0.48854961832061067,0.9312977099236641,-0.9770992366412213,-0.444580078125,-0.156982421875,-0.126953125,1.2206
-0.6412213740458015,1.2213740458015268,-1.1603053435114503,-0.4423828125,-0.15869140625,-0.12548828125,1.2223
-0.6564885496183206,0.9923664122137404,-0.9312977099236641,-0.448486328125,-0.160400390625,-0.12646484375,1.224
-0.4122137404580153,1.1908396946564885,-1.099236641221374,-0.4482421875,-0.158203125,-0.122802734375,1.2257
-0.549618320610687,1.1908396946564885,-0.7633587786259542,-0.44189453125,-0.158935546875,-0.125,1.2273999999999998
-0.44274809160305345,1.3740458015267176,-0.732824427480916,-0.4404296875,-0.160400390625,-0.122802734375,1.2290999999999999
-0.7022900763358778,1.2061068702290076,-0.5190839694656488,-0.442138671875,-0.152587890625,-0.12939453125,1.2308
-0.4122137404580153,1.1908396946564885,-0.5190839694656488,-0.443115234375,-0.154052734375,-0.123291015625,1.2325
-0.5343511450381679,1.2366412213740459,-0.4732824427480916,-0.444091796875,-0.15771484375,-0.13037109375,1.2342
-0.7480916030534351,1.2213740458015268,-0.7175572519083969,-0.44287109375,-0.159912109375,-0.131103515625,1.2359
-0.5648854961832062,1.083969465648855,-0.2900763358778626,-0.44091796875,-0.156005859375,-0.12158203125,1.2376
-0.549618320610687,1.282442748091603,-0.33587786259541985,-0.440673828125,-0.153564453125,-0.136474609375,1.2392999999999998
-0.3511450381679389,1.1755725190839694,-0.33587786259541985,-0.443603515625,-0.153076171875,-0.126708984375,1.2409999999999999
-0.3511450381679389,1.0381679389312977,-0.5190839694656488,-0.441162109375,-0.158447265625,-0.123779296875,1.2427
-0.4122137404580153,0.7938931297709924,-0.030534351145038167,-0.444091796875,-0.151123046875,-0.13037109375,1.2444
0.030534351145038167,0.9312977099236641,-0.3053435114503817,-0.4404296875,-0.15625,-0.126953125,1.2461
0.13740458015267176,0.916030534351145,-0.1984732824427481,-0.443115234375,-0.161865234375,-0.125732421875,1.2478
0.42748091603053434,0.8549618320610687,-0.1984732824427481,-0.441650390625,-0.155517578125,-0.13134765625,1.2494999999999998
0.5190839694656488,0.9923664122137404,-0.2748091603053435,-0.447021484375,-0.16064453125,-0.134033203125,1.2511999999999999
0.9923664122137404,1.0534351145038168,-0.2900763358778626,-0.44775390625,-0.160888671875,-0.132080078125,1.2529
0.9923664122137404,0.9312977099236641,-0.366412213740458,-0.44677734375,-0.159912109375,-0.1318359375,1.2546
1.083969465648855,1.282442748091603,-0.6259541984732825,-0.4482421875,-0.16015625,-0.1337890625,1.2563
1.0381679389312977,1.4809160305343512,-0.4580152671755725,-0.44091796875,-0.160888671875,-0.141357421875,1.258
0.9618320610687023,1.5725190839694656,-0.5190839694656488,-0.44482421875,-0.155517578125,-0.1259765625,1.2596999999999998
1.1450381679389312,1.816793893129771,-0.48854961832061067,-0.441650390625,-0.158447265625,-0.13232421875,1.2613999999999999
1.5267175572519085,1.7709923664122138,-0.5954198473282443,-0.44091796875,-0.1630859375,-0.127685546875,1.2631
1.5419847328244274,1.8015267175572518,-0.5038167938931297,-0.44189453125,-0.162109375,-0.126953125,1.2648
1.633587786259542,1.9083969465648856,-0.6870229007633588,-0.44580078125,-0.165283203125,-0.130126953125,1.2665
1.6488549618320612,2.030534351145038,-0.7175572519083969,-0.451904296875,-0.171630859375,-0.134521484375,1.2682
2.1068702290076335,1.8473282442748091,-0.8396946564885496,-0.441650390625,-0.164794921875,-0.13037109375,1.2699
2.2595419847328246,1.9541984732824427,-0.9312977099236641,-0.441162109375,-0.166748046875,-0.126953125,1.2715999999999998
2.2748091603053435,1.9083969465648856,-1.083969465648855,-0.440673828125,-0.162841796875,-0.13037109375,1.2732999999999999
2.213740458015267,2.0763358778625953,-0.8702290076335878,-0.4453125,-0.16259765625,-0.12744140625,1.275
2.213740458015267,1.8015267175572518,-1.1908396946564885,-0.44189453125,-0.164306640625,-0.124267578125,1.2767
2.213740458015267,1.7709923664122138,-1.251908396946565,-0.43701171875,-0.1650390625,-0.125,1.2784
2.122137404580153,1.5572519083969465,-1.450381679389313,-0.438232421875,-0.165771484375,-0.123291015625,1.2801
2.213740458015267,1.4198473282442747,-1.5419847328244274,-0.4375,-0.1611328125,-0.119384765625,1.2817999999999998
2.1374045801526718,1.3435114503816794,-1.4961832061068703,-0.44140625,-0.165283203125,-0.1279296875,1.2834999999999999
1.9694656488549618,1.1755725190839694,-1.7557251908396947,-0.443115234375,-0.167724609375,-0.132568359375,1.2852
2.2442748091603053,1.2671755725190839,-1.9083969465648856,-0.438720703125,-0.1630859375,-0.132568359375,1.2869
2.0610687022900764,1.3587786259541985,-2.183206106870229,-0.442626953125,-0.162841796875,-0.138427734375,1.2886
2.427480916030534,1.3740458015267176,-2.1374045801526718,-0.4365234375,-0.1650390625,-0.1298828125,1.2903
2.2442748091603053,1.3587786259541985,-1.9389312977099236,-0.44091796875,-0.1650390625,-0.127197265625,1.292
2.1526717557251906,1.2213740458015268,-1.9541984732824427,-0.441650390625,-0.164794921875,-0.130859375,1.2936999999999999
2.0763358778625953,1.2061068702290076,-2.183206106870229,-0.438232421875,-0.165771484375,-0.1240234375,1.2953999999999999
2.015267175572519,0.9465648854961832,-2.198473282442748,-0.436767578125,-0.160400390625,-0.128173828125,1.2971
2.045801526717557,0.9923664122137404,-2.045801526717557,-0.444580078125,-0.162353515625,-0.118408203125,1.2988
1.816793893129771,0.8702290076335878,-2.198473282442748,-0.438720703125,-0.16015625,-0.1279296875,1.3005
2.015267175572519,1.1755725190839694,-2.183206106870229,-0.438232421875,-0.1640625,-0.13427734375,1.3022
1.984732824427481,1.0534351145038168,-2.045801526717557,-0.441650390625,-0.171142578125,-0.130615234375,1.3038999999999998
1.9694656488549618,1.0534351145038168,-2.213740458015267,-0.4443359375,-0.160400390625,-0.13134765625,1.3055999999999999
1.633587786259542,1.0076335877862594,-2.4427480916030535,-0.4443359375,-0.162109375,-0.13330078125,1.3073
1.3435114503816794,1.1297709923664123,-2.2900763358778624,-0.447998046875,-0.1640625,-0.12841796875,1.309
1.4045801526717556,1.2061068702290076,-2.2442748091603053,-0.443115234375,-0.1630859375,-0.13037109375,1.3107
1.450381679389313,1.2061068702290076,-2.3969465648854964,-0.44677734375,-0.165771484375,-0.1279296875,1.3124
1.2671755725190839,1.2213740458015268,-2.198473282442748,-0.44482421875,-0.165283203125,-0.133544921875,1.3140999999999998
1.2213740458015268,1.1450381679389312,-2.2748091603053435,-0.444580078125,-0.164794921875,-0.132080078125,1.3157999999999999
1.1450381679389312,1.0381679389312977,-2.16793893129771,-0.443115234375,-0.166259765625,-0.12890625,1.3175
1.0534351145038168,1.0076335877862594,-2.2442748091603053,-0.441162109375,-0.161865234375,-0.134521484375,1.3192
0.916030534351145,1.0229007633587786,-2.1068702290076335,-0.449462890625,-0.167724609375,-0.134765625,1.3209
0.9618320610687023,0.7480916030534351,-2.015267175572519,-0.44677734375,-0.1669921875,-0.128173828125,1.3226
0.7938931297709924,0.7786259541984732,-2.1374045801526718,-0.44384765625,-0.1669921875,-0.133544921875,1.3243
0.42748091603053434,0.6717557251908397,-2.2900763358778624,-0.444091796875,-0.167236328125,-0.12744140625,1.3259999999999998
0.061068702290076333,0.6564885496183206,-2.045801526717557,-0.440673828125,-0.167236328125,-0.12353515625,1.3276999999999999
-0.07633587786259542,0.7786259541984732,-1.9236641221374047,-0.44970703125,-0.16259765625,-0.12060546875,1.3294
0.04580152671755725,0.7786259541984732,-1.8778625954198473,-0.449462890625,-0.159423828125,-0.1259765625,1.3311
0.13740458015267176,0.6717557251908397,-1.8931297709923665,-0.444580078125,-0.16552734375,-0.122802734375,1.3328
-0.183206106870229,0.9618320610687023,-1.633587786259542,-0.445556640625,-0.163818359375,-0.121826171875,1.3345
-0.44274809160305345,0.8244274809160306,-1.9389312977099236,-0.44677734375,-0.163818359375,-0.12451171875,1.3361999999999998
-0.183206106870229,0.8091603053435115,-1.6793893129770991,-0.4462890625,-0.16259765625,-0.13427734375,1.3378999999999999
-0.13740458015267176,0.916030534351145,-1.5114503816793894,-0.4521484375,-0.156494140625,-0.131103515625,1.3396
0.1984732824427481,1.083969465648855,-1.4045801526717556,-0.44775390625,-0.1552734375,-0.127685546875,1.3413
0.12213740458015267,1.1145038167938932,-1.465648854961832,-0.4453125,-0.153564453125,-0.12744140625,1.343
0.4580152671755725,1.0687022900763359,-1.251908396946565,-0.447021484375,-0.15771484375,-0.1259765625,1.3447
0.6259541984732825,1.297709923664122,-1.3587786259541985,-0.445068359375,-0.156982421875,-0.127197265625,1.3463999999999998
0.8091603053435115,1.4351145038167938,-1.2366412213740459,-0.4423828125,-0.158447265625,-0.13427734375,1.3480999999999999
0.916030534351145,1.8625954198473282,-1.3587786259541985,-0.44873046875,-0.155029296875,-0.1376953125,1.3497999999999999
1.4198473282442747,1.5877862595419847,-1.3587786259541985,-0.446533203125,-0.15576171875,-0.127197265625,1.3515
1.3587786259541985,1.7251908396946565,-1.1145038167938932,-0.44580078125,-0.1494140625,-0.127685546875,1.3532
1.2366412213740459,1.8778625954198473,-1.0534351145038168,-0.44189453125,-0.1650390625,-0.116943359375,1.3549
1.1603053435114503,1.9083969465648856,-1.3587786259541985,-0.443359375,-0.162109375,-0.12841796875,1.3566
1.6488549618320612,1.7709923664122138,-1.2671755725190839,-0.44482421875,-0.16015625,-0.125732421875,1.3582999999999998
1.6641221374045803,1.6793893129770991,-1.1297709923664123,-0.44287109375,-0.161865234375,-0.12451171875,1.3599999999999999
1.3587786259541985,1.7099236641221374,-0.9770992366412213,-0.438720703125,-0.160400390625,-0.123779296875,1.3617
1.6488549618320612,1.6641221374045803,-1.251908396946565,-0.440673828125,-0.162109375,-0.13134765625,1.3634
1.6488549618320612,1.450381679389313,-1.1603053435114503,-0.440673828125,-0.1630859375,-0.12646484375,1.3651
1.8625954198473282,1.3740458015267176,-1.1450381679389312,-0.435302734375,-0.1640625,-0.120849609375,1.3668
2.0610687022900764,1.251908396946565,-1.3129770992366412,-0.43701171875,-0.165771484375,-0.130126953125,1.3684999999999998
2.0916030534351147,1.4809160305343512,-1.4351145038167938,-0.4462890625,-0.168701171875,-0.127685546875,1.3701999999999999
2.427480916030534,1.3893129770992367,-1.4045801526717556,-0.440673828125,-0.1640625,-0.119140625,1.3719
2.4885496183206106,1.4045801526717556,-1.7099236641221374,-0.44287109375,-0.1689453125,-0.132080078125,1.3736
2.519083969465649,1.6946564885496183,-1.4809160305343512,-0.443603515625,-0.16650390625,-0.1328125,1.3753
2.2290076335877864,1.6030534351145038,-1.6641221374045803,-0.4384765625,-0.166748046875,-0.119140625,1.377
2.2900763358778624,1.5877862595419847,-1.4809160305343512,-0.44140625,-0.16650390625,-0.127197265625,1.3786999999999998
2.122137404580153,1.5725190839694656,-1.786259541984733,-0.439453125,-0.168701171875,-0.124267578125,1.3803999999999998
2.3053435114503817,1.5419847328244274,-1.6641221374045803,-0.436279296875,-0.166748046875,-0.116455078125,1.3820999999999999
1.9389312977099236,1.5419847328244274,-1.8931297709923665,-0.4375,-0.17041015625,-0.124755859375,1.3838
1.6641221374045803,1.4351145038167938,-1.6641221374045803,-0.439697265625,-0.162109375,-0.135986328125,1.3855
1.3435114503816794,1.5114503816793894,-1.4961832061068703,-0.4404296875,-0.168701171875,-0.1376953125,1.3872
1.1450381679389312,1.3129770992366412,-1.7251908396946565,-0.437255859375,-0.16748046875,-0.12939453125,1.3889
0.9312977099236641,1.282442748091603,-1.9083969465648856,-0.435302734375,-0.170166015625,-0.127197265625,1.3905999999999998
0.6870229007633588,1.465648854961832,-1.7099236641221374,-0.435546875,-0.16845703125,-0.1259765625,1.3922999999999999
0.7633587786259542,1.297709923664122,-1.8625954198473282,-0.43798828125,-0.16357421875,-0.127197265625,1.394
0.366412213740458,1.1450381679389312,-2.045801526717557,-0.436767578125,-0.16845703125,-0.131103515625,1.3957
0.44274809160305345,1.0687022900763359,-2.183206106870229,-0.43505859375,-0.172607421875,-0.131591796875,1.3974
0.33587786259541985,1.099236641221374,-1.9694656488549618,-0.4384765625,-0.164794921875,-0.1318359375,1.3991
0.5038167938931297,0.9312977099236641,-2.183206106870229,-0.440673828125,-0.171875,-0.1181640625,1.4007999999999998
0.7480916030534351,1.1755725190839694,-2.045801526717557,-0.43896484375,-0.172607421875,-0.119384765625,1.4024999999999999
0.4732824427480916,1.1145038167938932,-2.3053435114503817,-0.44140625,-0.164306640625,-0.125244140625,1.4042
0.7022900763358778,0.7938931297709924,-2.198473282442748,-0.43603515625,-0.1650390625,-0.123046875,1.4059
0.5954198473282443,1.0687022900763359,-2.2748091603053435,-0.43896484375,-0.164794921875,-0.119873046875,1.4076
0.5038167938931297,1.1145038167938932,-2.4122137404580153,-0.44189453125,-0.160888671875,-0.12060546875,1.4093
0.7786259541984732,1.0076335877862594,-2.366412213740458,-0.43994140625,-0.1591796875,-0.120361328125,1.411
0.7175572519083969,0.9618320610687023,-2.198473282442748,-0.4443359375,-0.16259765625,-0.115966796875,1.4126999999999998
0.6564885496183206,0.9618320610687023,-2.4122137404580153,-0.442138671875,-0.162109375,-0.1240234375,1.4143999999999999
0.6412213740458015,1.0076335877862594,-2.1068702290076335,-0.441650390625,-0.1591796875,-0.123291015625,1.4161
0.6870229007633588,1.0229007633587786,-2.122137404580153,-0.4384765625,-0.162353515625,-0.122314453125,1.4178
0.8702290076335878,1.0687022900763359,-2.183206106870229,-0.447265625,-0.1591796875,-0.128662109375,1.4195
1.0076335877862594,1.0229007633587786,-1.9236641221374047,-0.437744140625,-0.162353515625,-0.134521484375,1.4212
1.3129770992366412,0.9618320610687023,-1.9694656488549618,-0.437255859375,-0.162841796875,-0.129150390625,1.4228999999999998
1.1145038167938932,1.1603053435114503,-1.8625954198473282,-0.4404296875,-0.166259765625,-0.12060546875,1.4245999999999999
1.282442748091603,1.0534351145038168,-1.8625954198473282,-0.441162109375,-0.162109375,-0.126220703125,1.4263
1.3893129770992367,1.0381679389312977,-1.7709923664122138,-0.443603515625,-0.16015625,-0.13037109375,1.428
1.099236641221374,1.1755725190839694,-1.618320610687023,-0.44287109375,-0.162109375,-0.13427734375,1.4297
1.251908396946565,1.1908396946564885,-1.5267175572519085,-0.445068359375,-0.165771484375,-0.131591796875,1.4314
1.2671755725190839,1.3435114503816794,-1.4351145038167938,-0.44482421875,-0.160400390625,-0.12841796875,1.4330999999999998
1.4351145038167938,1.1755725190839694,-1.4809160305343512,-0.445068359375,-0.160400390625,-0.123046875,1.4347999999999999
1.3435114503816794,1.3893129770992367,-1.2213740458015268,-0.443115234375,-0.16015625,-0.12841796875,1.4364999999999999
1.0381679389312977,1.5114503816793894,-1.3282442748091603,-0.446533203125,-0.157470703125,-0.12548828125,1.4382
1.2061068702290076,1.5267175572519085,-1.3740458015267176,-0.440185546875,-0.166015625,-0.1220703125,1.4399
1.1603053435114503,1.6793893129770991,-1.099236641221374,-0.4384765625,-0.156494140625,-0.13330078125,1.4416
1.1755725190839694,1.4809160305343512,-1.2671755725190839,-0.44091796875,-0.161376953125,-0.124267578125,1.4433
1.3587786259541985,1.297709923664122,-1.0381679389312977,-0.447998046875,-0.164306640625,-0.121826171875,1.4449999999999998
1.1755725190839694,1.4809160305343512,-1.0687022900763359,-0.4453125,-0.162353515625,-0.129150390625,1.4466999999999999
1.0534351145038168,1.4961832061068703,-1.0381679389312977,-0.446533203125,-0.16650390625,-0.123046875,1.4484
1.2366412213740459,1.5877862595419847,-0.8854961832061069,-0.440673828125,-0.166259765625,-0.120361328125,1.4501
0.9923664122137404,1.5114503816793894,-0.8396946564885496,-0.44091796875,-0.160888671875,-0.12548828125,1.4518
0.7175572519083969,1.4198473282442747,-0.9312977099236641,-0.444580078125,-0.162109375,-0.119384765625,1.4535
0.3816793893129771,1.4809160305343512,-0.8091603053435115,-0.447998046875,-0.16259765625,-0.129150390625,1.4551999999999998
0.3053435114503817,1.5725190839694656,-0.916030534351145,-0.44677734375,-0.1650390625,-0.126953125,1.4568999999999999
0.21374045801526717,1.6946564885496183,-0.9465648854961832,-0.446533203125,-0.16357421875,-0.118896484375,1.4586
-0.030534351145038167,1.6946564885496183,-1.0687022900763359,-0.441650390625,-0.167724609375,-0.122802734375,1.4603
0.015267175572519083,1.8625954198473282,-0.9007633587786259,-0.4462890625,-0.1630859375,-0.12646484375,1.462
-0.13740458015267176,1.9389312977099236,-1.1145038167938932,-0.446533203125,-0.165771484375,-0.13720703125,1.4637
-0.1984732824427481,2.122137404580153,-1.3893129770992367,-0.443359375,-0.15869140625,-0.127197265625,1.4653999999999998
0.13740458015267176,2.1068702290076335,-1.251908396946565,-0.447265625,-0.1669921875,-0.131103515625,1.4670999999999998
0.3053435114503817,2.030534351145038,-1.251908396946565,-0.443603515625,-0.16259765625,-0.12451171875,1.4687999999999999
0.3511450381679389,2.015267175572519,-1.5267175572519085,-0.445556640625,-0.16015625,-0.130859375,1.4705
0.3511450381679389,1.8625954198473282,-1.2671755725190839,-0.44287109375,-0.166259765625,-0.125,1.4722
0.4732824427480916,1.8473282442748091,-1.4198473282442747,-0.441650390625,-0.15869140625,-0.1298828125,1.4739
0.8244274809160306,1.7404580152671756,-1.5572519083969465,-0.4423828125,-0.15869140625,-0.12548828125,1.4756
0.8854961832061069,1.633587786259542,-1.7709923664122138,-0.436767578125,-0.164794921875,-0.126953125,1.4772999999999998
0.9312977099236641,1.5419847328244274,-1.6488549618320612,-0.444580078125,-0.16064453125,-0.128173828125,1.4789999999999999
1.099236641221374,1.3129770992366412,-1.816793893129771,-0.444091796875,-0.155517578125,-0.1259765625,1.4807
0.9312977099236641,1.1755725190839694,-1.9389312977099236,-0.44091796875,-0.16357421875,-0.126708984375,1.4824
1.0381679389312977,1.3282442748091603,-1.8625954198473282,-0.44580078125,-0.16259765625,-0.12890625,1.4841
0.7633587786259542,1.3893129770992367,-1.9389312977099236,-0.441650390625,-0.162841796875,-0.125,1.4858
0.9923664122137404,1.3435114503816794,-2.2442748091603053,-0.444580078125,-0.165771484375,-0.130615234375,1.4874999999999998
1.0381679389312977,1.4809160305343512,-2.0610687022900764,-0.43798828125,-0.165283203125,-0.12646484375,1.4891999999999999
1.083969465648855,1.7404580152671756,-2.4580152671755724,-0.441650390625,-0.160400390625,-0.13525390625,1.4909
1.4045801526717556,1.5267175572519085,-2.427480916030534,-0.439697265625,-0.1630859375,-0.126220703125,1.4926
1.4809160305343512,1.5725190839694656,-2.4580152671755724,-0.44287109375,-0.160888671875,-0.137451171875,1.4943
1.5114503816793894,1.9083969465648856,-2.3969465648854964,-0.446533203125,-0.161865234375,-0.12890625,1.496
1.4045801526717556,1.7557251908396947,-2.427480916030534,-0.442138671875,-0.16162109375,-0.131591796875,1.4976999999999998
1.5114503816793894,1.5725190839694656,-2.5801526717557253,-0.43896484375,-0.158447265625,-0.12353515625,1.4993999999999998
1.7251908396946565,1.5419847328244274,-2.7022900763358777,-0.437255859375,-0.15673828125,-0.127685546875,1.5010999999999999
1.6946564885496183,1.2366412213740459,-2.7022900763358777,-0.435546875,-0.159423828125,-0.1240234375,1.5028
1.9694656488549618,1.3282442748091603,-2.6717557251908395,-0.4404296875,-0.16455078125,-0.1201171875,1.5045
2.4580152671755724,1.5877862595419847,-2.900763358778626,-0.44384765625,-0.1630859375,-0.125244140625,1.5062
2.2900763358778624,1.5419847328244274,-3.0381679389312977,-0.440673828125,-0.16943359375,-0.126708984375,1.5079
2.4122137404580153,1.5419847328244274,-3.0076335877862594,-0.445556640625,-0.165283203125,-0.128662109375,1.5095999999999998
2.351145038167939,1.618320610687023,-3.0381679389312977,-0.43701171875,-0.1591796875,-0.1259765625,1.5112999999999999
2.4885496183206106,1.4045801526717556,-2.7480916030534353,-0.439453125,-0.157958984375,-0.127197265625,1.513
2.0916030534351147,1.2366412213740459,-2.931297709923664,-0.443359375,-0.162353515625,-0.123291015625,1.5147
2.2290076335877864,1.3282442748091603,-2.8244274809160306,-0.439453125,-0.158447265625,-0.119873046875,1.5164
2.1068702290076335,1.3435114503816794,-2.8244274809160306,-0.4365234375,-0.161865234375,-0.12158203125,1.5181
1.8625954198473282,1.4198473282442747,-2.7480916030534353,-0.4404296875,-0.158447265625,-0.129638671875,1.5197999999999998
1.7251908396946565,1.3129770992366412,-2.687022900763359,-0.439453125,-0.15869140625,-0.13134765625,1.5214999999999999
1.6030534351145038,1.3129770992366412,-2.595419847328244,-0.441650390625,-0.1533203125,-0.12744140625,1.5231999999999999
1.1908396946564885,1.4351145038167938,-2.595419847328244,-0.4375,-0.165283203125,-0.134033203125,1.5249
1.0534351145038168,1.2213740458015268,-2.366412213740458,-0.445068359375,-0.1640625,-0.1357421875,1.5266
0.916030534351145,1.2671755725190839,-2.6564885496183206,-0.44140625,-0.15966796875,-0.130859375,1.5283
0.4122137404580153,1.1145038167938932,-2.366412213740458,-0.438720703125,-0.165283203125,-0.12451171875,1.5299999999999998
0.549618320610687,1.1450381679389312,-2.0763358778625953,-0.43505859375,-0.16259765625,-0.12109375,1.5316999999999998
0.6106870229007634,1.1145038167938932,-2.045801526717557,-0.4404296875,-0.1572265625,-0.128173828125,1.5333999999999999
0.44274809160305345,1.099236641221374,-1.9389312977099236,-0.4375,-0.155029296875,-0.119873046875,1.5351
0.366412213740458,1.1297709923664123,-2.015267175572519,-0.443603515625,-0.156005859375,-0.123291015625,1.5368
0.32061068702290074,0.8091603053435115,-1.8778625954198473,-0.4423828125,-0.15771484375,-0.128662109375,1.5385
0.48854961832061067,1.0076335877862594,-1.8931297709923665,-0.442138671875,-0.1630859375,-0.12841796875,1.5402
0.3511450381679389,1.0687022900763359,-1.9541984732824427,-0.4462890625,-0.15771484375,-0.1298828125,1.5418999999999998
0.5954198473282443,1.3587786259541985,-1.6946564885496183,-0.446533203125,-0.1640625,-0.12744140625,1.5435999999999999
0.6259541984732825,1.618320610687023,-1.5877862595419847,-0.446044921875,-0.16015625,-0.128662109375,1.5453
0.8854961832061069,1.465648854961832,-1.5419847328244274,-0.4443359375,-0.15576171875,-0.1240234375,1.547
0.7022900763358778,1.6030534351145038,-1.3893129770992367,-0.442626953125,-0.15625,-0.123291015625,1.5487
0.8244274809160306,1.4961832061068703,-1.4045801526717556,-0.44677734375,-0.15625,-0.130859375,1.5504
0.916030534351145,1.7404580152671756,-1.465648854961832,-0.444091796875,-0.16259765625,-0.123046875,1.5520999999999998
0.9618320610687023,1.6946564885496183,-1.1908396946564885,-0.44970703125,-0.16162109375,-0.130615234375,1.5537999999999998
0.7480916030534351,1.5419847328244274,-1.282442748091603,-0.438720703125,-0.155029296875,-0.1259765625,1.5554999999999999
0.7938931297709924,1.4351145038167938,-1.1755725190839694,-0.44287109375,-0.159912109375,-0.130126953125,1.5572
0.6870229007633588,1.2671755725190839,-1.2061068702290076,-0.43994140625,-0.15771484375,-0.13232421875,1.5589
0.7480916030534351,1.0229007633587786,-1.1145038167938932,-0.442138671875,-0.1630859375,-0.126220703125,1.5606
0.732824427480916,1.0687022900763359,-1.1450381679389312,-0.44189453125,-0.162841796875,-0.129150390625,1.5623
0.732824427480916,1.1603053435114503,-1.1603053435114503,-0.4384765625,-0.15673828125,-0.125244140625,1.5639999999999998
0.6870229007633588,1.282442748091603,-1.0687022900763359,-0.435302734375,-0.162841796875,-0.11865234375,1.5656999999999999
0.7938931297709924,1.4045801526717556,-1.251908396946565,-0.439208984375,-0.169677734375,-0.12841796875,1.5674
1.1450381679389312,1.4809160305343512,-1.3740458015267176,-0.436279296875,-0.169189453125,-0.1220703125,1.5691
1.1908396946564885,1.4045801526717556,-1.6641221374045803,-0.437255859375,-0.1650390625,-0.128662109375,1.5708
1.282442748091603,1.5114503816793894,-1.465648854961832,-0.4453125,-0.1630859375,-0.1259765625,1.5725
1.282442748091603,1.6946564885496183,-1.6641221374045803,-0.439208984375,-0.16748046875,-0.12841796875,1.5741999999999998
1.3435114503816794,1.7251908396946565,-1.618320610687023,-0.43994140625,-0.1640625,-0.1279296875,1.5758999999999999
1.3587786259541985,1.618320610687023,-1.816793893129771,-0.4404296875,-0.16748046875,-0.1240234375,1.5776
1.251908396946565,1.5725190839694656,-2.0,-0.441650390625,-0.1640625,-0.1279296875,1.5793
1.3587786259541985,1.633587786259542,-1.8778625954198473,-0.438720703125,-0.16015625,-0.1328125,1.581
1.1755725190839694,1.4045801526717556,-2.16793893129771,-0.437744140625,-0.16455078125,-0.13671875,1.5827
1.2213740458015268,1.3740458015267176,-1.984732824427481,-0.440185546875,-0.162109375,-0.132080078125,1.5843999999999998
1.3129770992366412,1.1908396946564885,-2.2442748091603053,-0.44091796875,-0.16748046875,-0.1318359375,1.5860999999999998
1.4198473282442747,1.0687022900763359,-2.3969465648854964,-0.444091796875,-0.1689453125,-0.134033203125,1.5877999999999999
1.4351145038167938,1.1603053435114503,-2.1526717557251906,-0.43701171875,-0.164306640625,-0.128662109375,1.5895
1.633587786259542,1.0687022900763359,-2.381679389312977,-0.43798828125,-0.1689453125,-0.128662109375,1.5912
1.6946564885496183,1.1297709923664123,-2.595419847328244,-0.439453125,-0.170654296875,-0.12841796875,1.5929
1.7709923664122138,1.1450381679389312,-2.8091603053435112,-0.43798828125,-0.16650390625,-0.13037109375,1.5946
1.6488549618320612,1.1908396946564885,-2.564885496183206,-0.44091796875,-0.1650390625,-0.130859375,1.5962999999999998
1.6946564885496183,0.9618320610687023,-2.763358778625954,-0.444580078125,-0.167236328125,-0.1328125,1.5979999999999999
2.1374045801526718,1.0381679389312977,-2.6717557251908395,-0.437744140625,-0.166015625,-0.124755859375,1.5997
2.1526717557251906,1.3129770992366412,-2.885496183206107,-0.441162109375,-0.164794921875,-0.125244140625,1.6014
1.9083969465648856,1.2061068702290076,-2.7938931297709924,-0.43505859375,-0.16162109375,-0.125732421875,1.6031
1.8931297709923665,1.1755725190839694,-2.900763358778626,-0.440185546875,-0.1640625,-0.12255859375,1.6048
1.4351145038167938,1.1603053435114503,-3.053435114503817,-0.437744140625,-0.161865234375,-0.13330078125,1.6064999999999998
1.450381679389313,1.2671755725190839,-3.145038167938931,-0.442626953125,-0.168212890625,-0.1279296875,1.6081999999999999
1.2366412213740459,1.3740458015267176,-2.8091603053435112,-0.4453125,-0.16650390625,-0.128662109375,1.6098999999999999
0.8854961832061069,1.0381679389312977,-2.946564885496183,-0.44287109375,-0.165283203125,-0.134521484375,1.6116
0.916030534351145,0.9923664122137404,-2.732824427480916,-0.437744140625,-0.16748046875,-0.125244140625,1.6133
0.7175572519083969,1.1297709923664123,-2.7480916030534353,-0.442626953125,-0.16259765625,-0.129638671875,1.615
0.549618320610687,0.9770992366412213,-2.6717557251908395,-0.436767578125,-0.161865234375,-0.125244140625,1.6166999999999998
0.15267175572519084,0.732824427480916,-2.6106870229007635,-0.447998046875,-0.167724609375,-0.121826171875,1.6183999999999998
0.5038167938931297,0.7480916030534351,-2.50381679389313,-0.44189453125,-0.160888671875,-0.12255859375,1.6200999999999999
0.5038167938931297,0.732824427480916,-2.351145038167939,-0.441650390625,-0.15966796875,-0.119140625,1.6218
0.44274809160305345,0.8244274809160306,-2.427480916030534,-0.441650390625,-0.161865234375,-0.134765625,1.6235
0.3053435114503817,0.549618320610687,-2.3206106870229006,-0.443603515625,-0.16162109375,-0.1240234375,1.6252
0.5343511450381679,0.8549618320610687,-2.030534351145038,-0.445556640625,-0.16064453125,-0.11865234375,1.6269
0.6259541984732825,1.099236641221374,-2.198473282442748,-0.448486328125,-0.16259765625,-0.127197265625,1.6285999999999998
0.6106870229007634,1.0687022900763359,-2.198473282442748,-0.447998046875,-0.1591796875,-0.115234375,1.6302999999999999
0.3511450381679389,1.083969465648855,-1.9389312977099236,-0.443359375,-0.157470703125,-0.119384765625,1.632
0.44274809160305345,1.0687022900763359,-1.6946564885496183,-0.4404296875,-0.155029296875,-0.13134765625,1.6337
0.6717557251908397,1.0076335877862594,-1.6793893129770991,-0.441650390625,-0.161865234375,-0.1279296875,1.6354
0.6259541984732825,1.2213740458015268,-1.4351145038167938,-0.4443359375,-0.154296875,-0.132568359375,1.6371
0.5343511450381679,1.0687022900763359,-1.3282442748091603,-0.446044921875,-0.152099609375,-0.12939453125,1.6387999999999998
0.5954198473282443,1.2213740458015268,-1.3129770992366412,-0.44287109375,-0.158203125,-0.122314453125,1.6404999999999998
0.7938931297709924,1.1145038167938932,-1.0381679389312977,-0.4443359375,-0.156982421875,-0.128662109375,1.6421999999999999
1.0229007633587786,0.8854961832061069,-0.8549618320610687,-0.443359375,-0.153076171875,-0.13134765625,1.6439
1.4351145038167938,0.8244274809160306,-1.0076335877862594,-0.444091796875,-0.15625,-0.121826171875,1.6456
1.3893129770992367,0.9312977099236641,-1.0076335877862594,-0.44384765625,-0.163330078125,-0.123291015625,1.6473
1.5419847328244274,0.916030534351145,-0.9007633587786259,-0.441650390625,-0.16357421875,-0.127197265625,1.6489999999999998
1.4961832061068703,1.0229007633587786,-0.5038167938931297,-0.44384765625,-0.157470703125,-0.133056640625,1.6506999999999998
1.251908396946565,0.9618320610687023,-0.8091603053435115,-0.44580078125,-0.15869140625,-0.128173828125,1.6523999999999999
1.297709923664122,0.8702290076335878,-0.8244274809160306,-0.441650390625,-0.163818359375,-0.12548828125,1.6541
1.251908396946565,0.8549618320610687,-0.8091603053435115,-0.4443359375,-0.15966796875,-0.124755859375,1.6558
1.0076335877862594,0.6412213740458015,-0.7633587786259542,-0.44091796875,-0.1591796875,-0.12890625,1.6575
0.6870229007633588,0.8702290076335878,-0.6106870229007634,-0.447998046875,-0.1630859375,-0.12255859375,1.6592
0.8396946564885496,0.9618320610687023,-0.8244274809160306,-0.44189453125,-0.162353515625,-0.130126953125,1.6608999999999998
0.7633587786259542,0.732824427480916,-1.1297709923664123,-0.44677734375,-0.16015625,-0.13916015625,1.6625999999999999
0.8854961832061069,1.099236641221374,-0.9312977099236641,-0.439208984375,-0.166259765625,-0.13134765625,1.6643
1.1603053435114503,1.297709923664122,-0.7480916030534351,-0.439453125,-0.16650390625,-0.1328125,1.666
1.1908396946564885,1.4809160305343512,-1.0229007633587786,-0.443359375,-0.166748046875,-0.124755859375,1.6677
1.282442748091603,1.3740458015267176,-1.251908396946565,-0.4423828125,-0.169189453125,-0.12939453125,1.6694
1.4809160305343512,1.4198473282442747,-1.3129770992366412,-0.441162109375,-0.166015625,-0.12548828125,1.6710999999999998
1.7557251908396947,1.5267175572519085,-1.3587786259541985,-0.444091796875,-0.173583984375,-0.120361328125,1.6727999999999998
1.6488549618320612,1.4198473282442747,-1.297709923664122,-0.4443359375,-0.16162109375,-0.124267578125,1.6744999999999999
1.618320610687023,1.297709923664122,-1.3435114503816794,-0.439453125,-0.1669921875,-0.128173828125,1.6762
1.6030534351145038,1.297709923664122,-1.3435114503816794,-0.439208984375,-0.16845703125,-0.12548828125,1.6779
1.1908396946564885,1.251908396946565,-1.4961832061068703,-0.443359375,-0.16650390625,-0.125244140625,1.6796
1.0229007633587786,1.2366412213740459,-1.5725190839694656,-0.43798828125,-0.16552734375,-0.11376953125,1.6813
0.9007633587786259,1.2671755725190839,-1.7404580152671756,-0.44091796875,-0.165283203125,-0.123046875,1.6829999999999998
0.732824427480916,1.2061068702290076,-1.9083969465648856,-0.441650390625,-0.164794921875,-0.1318359375,1.6846999999999999
0.5954198473282443,0.9770992366412213,-2.015267175572519,-0.439208984375,-0.1689453125,-0.130859375,1.6864
0.8549618320610687,0.8091603053435115,-1.786259541984733,-0.436767578125,-0.173828125,-0.129638671875,1.6881
0.4732824427480916,1.0076335877862594,-2.1374045801526718,-0.441162109375,-0.170654296875,-0.128662109375,1.6898
0.1984732824427481,0.7633587786259542,-2.213740458015267,-0.439697265625,-0.17041015625,-0.1240234375,1.6915
0.16793893129770993,0.5954198473282443,-2.183206106870229,-0.436279296875,-0.1650390625,-0.122802734375,1.6931999999999998
0.42748091603053434,0.4732824427480916,-2.1526717557251906,-0.438232421875,-0.165283203125,-0.11865234375,1.6948999999999999
0.549618320610687,0.33587786259541985,-2.2900763358778624,-0.438720703125,-0.164306640625,-0.122802734375,1.6965999999999999
0.5038167938931297,0.366412213740458,-2.1374045801526718,-0.443359375,-0.164794921875,-0.1220703125,1.6983
0.4580152671755725,0.32061068702290074,-1.984732824427481,-0.43994140625,-0.163818359375,-0.13330078125,1.7
0.6564885496183206,0.2595419847328244,-2.0916030534351147,-0.440185546875,-0.1650390625,-0.124267578125,1.7017
0.5190839694656488,0.3816793893129771,-2.0610687022900764,-0.4423828125,-0.162841796875,-0.127685546875,1.7033999999999998
0.6259541984732825,0.4122137404580153,-1.8625954198473282,-0.439697265625,-0.166015625,-0.12646484375,1.7050999999999998
0.6717557251908397,0.732824427480916,-1.786259541984733,-0.436279296875,-0.162353515625,-0.1259765625,1.7067999999999999
0.5954198473282443,0.9312977099236641,-1.7404580152671756,-0.43994140625,-0.16845703125,-0.1201171875,1.7085
0.5954198473282443,1.0229007633587786,-1.6793893129770991,-0.440673828125,-0.167236328125,-0.124267578125,1.7102
0.5343511450381679,1.1450381679389312,-1.7709923664122138,-0.441650390625,-0.164306640625,-0.126953125,1.7119
0.5648854961832062,1.1450381679389312,-1.4351145038167938,-0.4404296875,-0.160888671875,-0.133056640625,1.7136
0.6717557251908397,1.2061068702290076,-1.4045801526717556,-0.44140625,-0.16455078125,-0.130615234375,1.7152999999999998
0.5038167938931297,1.465648854961832,-1.297709923664122,-0.441650390625,-0.172119140625,-0.126953125,1.7169999999999999
0.549618320610687,1.4198473282442747,-1.2366412213740459,-0.441162109375,-0.168212890625,-0.13330078125,1.7187
0.5648854961832062,1.282442748091603,-1.0381679389312977,-0.44189453125,-0.165771484375,-0.12841796875,1.7204
0.4580152671755725,1.251908396946565,-1.0687022900763359,-0.437255859375,-0.1669921875,-0.12451171875,1.7221
0.3969465648854962,1.3740458015267176,-1.099236641221374,-0.442626953125,-0.164794921875,-0.12939453125,1.7238
0.48854961832061067,1.297709923664122,-0.9465648854961832,-0.445068359375,-0.16650390625,-0.130126953125,1.7254999999999998
0.5648854961832062,1.251908396946565,-0.8091603053435115,-0.442138671875,-0.160400390625,-0.123779296875,1.7271999999999998
0.6717557251908397,1.3435114503816794,-0.7938931297709924,-0.439208984375,-0.162353515625,-0.12646484375,1.7288999999999999
0.4580152671755725,1.099236641221374,-0.6870229007633588,-0.439697265625,-0.167724609375,-0.134033203125,1.7306
0.44274809160305345,1.0381679389312977,-0.7633587786259542,-0.4423828125,-0.1708984375,-0.131591796875,1.7323
0.5190839694656488,1.297709923664122,-0.8244274809160306,-0.44677734375,-0.1630859375,-0.131103515625,1.734
0.7022900763358778,1.297709923664122,-0.6717557251908397,-0.4404296875,-0.166259765625,-0.13232421875,1.7356999999999998
0.7938931297709924,1.297709923664122,-0.4122137404580153,-0.443115234375,-0.163818359375,-0.140380859375,1.7373999999999998
0.7786259541984732,1.6030534351145038,-0.6106870229007634,-0.440185546875,-0.164794921875,-0.13720703125,1.7390999999999999
0.8244274809160306,1.5267175572519085,-0.5038167938931297,-0.439453125,-0.164794921875,-0.12646484375,1.7408
0.9465648854961832,1.6793893129770991,-0.2748091603053435,-0.44384765625,-0.165771484375,-0.130859375,1.7425
1.1297709923664123,1.7099236641221374,-0.4122137404580153,-0.43896484375,-0.1669921875,-0.13134765625,1.7442
0.916030534351145,1.9694656488549618,-0.366412213740458,-0.447509765625,-0.168212890625,-0.118896484375,1.7459
0.9312977099236641,1.8473282442748091,-0.22900763358778625,-0.441650390625,-0.16455078125,-0.124755859375,1.7475999999999998
1.1145038167938932,1.8625954198473282,-0.4122137404580153,-0.439208984375,-0.162353515625,-0.1357421875,1.7492999999999999
0.7786259541984732,1.6641221374045803,-0.2595419847328244,-0.43896484375,-0.1611328125,-0.125732421875,1.751
0.7480916030534351,1.6946564885496183,-0.4732824427480916,-0.4384765625,-0.16015625,-0.119873046875,1.7527
0.7786259541984732,1.5572519083969465,-0.2900763358778626,-0.439453125,-0.16015625,-0.130615234375,1.7544
0.7022900763358778,1.6488549618320612,-0.5343511450381679,-0.43994140625,-0.161865234375,-0.1220703125,1.7561
0.8396946564885496,1.4351145038167938,-0.366412213740458,-0.436767578125,-0.16259765625,-0.11767578125,1.7577999999999998
0.916030534351145,1.5267175572519085,-0.4122137404580153,-0.439453125,-0.162353515625,-0.126953125,1.7594999999999998
0.9312977099236641,1.3282442748091603,-0.33587786259541985,-0.44287109375,-0.16357421875,-0.122802734375,1.7611999999999999
0.7786259541984732,1.1450381679389312,-0.44274809160305345,-0.44384765625,-0.160400390625,-0.1318359375,1.7629
0.5648854961832062,1.1297709923664123,-0.5190839694656488,-0.442626953125,-0.160400390625,-0.12451171875,1.7646
0.6717557251908397,1.0229007633587786,-0.44274809160305345,-0.441650390625,-0.159423828125,-0.126220703125,1.7663
0.5801526717557252,0.9770992366412213,-0.5648854961832062,-0.443359375,-0.165283203125,-0.124755859375,1.7679999999999998
0.16793893129770993,1.0229007633587786,-0.6106870229007634,-0.443603515625,-0.1650390625,-0.130126953125,1.7696999999999998
0.3053435114503817,0.9923664122137404,-0.6564885496183206,-0.441162109375,-0.162353515625,-0.119873046875,1.7713999999999999
0.4580152671755725,0.9923664122137404,-0.8396946564885496,-0.437744140625,-0.165283203125,-0.12939453125,1.7731
0.2900763358778626,1.1603053435114503,-0.7175572519083969,-0.443603515625,-0.165283203125,-0.12451171875,1.7748
0.4732824427480916,1.2213740458015268,-1.0229007633587786,-0.443115234375,-0.1669921875,-0.123779296875,1.7765
0.366412213740458,1.4961832061068703,-1.083969465648855,-0.446044921875,-0.165771484375,-0.124267578125,1.7782
0.42748091603053434,1.6030534351145038,-1.083969465648855,-0.439453125,-0.158447265625,-0.127685546875,1.7798999999999998
0.5190839694656488,1.3740458015267176,-0.7022900763358778,-0.443359375,-0.16064453125,-0.1240234375,1.7815999999999999
0.6412213740458015,1.4351145038167938,-0.8396946564885496,-0.4404296875,-0.159912109375,-0.119384765625,1.7832999999999999
