gyrox1,gyroy1,gyroz1,accelx1,accely1,accelz1,Time
1.6641221374045803,1.099236641221374,-1.297709923664122,-0.451171875,-0.038330078125,-0.200927734375,0.0
1.6793893129770991,1.0534351145038168,-1.2366412213740459,-0.458984375,-0.038818359375,-0.184326171875,0.0017
1.618320610687023,1.0534351145038168,-1.0381679389312977,-0.45703125,-0.040771484375,-0.20166015625,0.0034
1.816793893129771,1.1297709923664123,-1.3435114503816794,-0.458740234375,-0.038818359375,-0.193359375,0.0050999999999999995
1.633587786259542,1.2061068702290076,-1.297709923664122,-0.458740234375,-0.039794921875,-0.19140625,0.0068
1.618320610687023,1.0687022900763359,-1.282442748091603,-0.45849609375,-0.044189453125,-0.197509765625,0.008499999999999999
1.5114503816793894,1.0534351145038168,-1.0687022900763359,-0.451171875,-0.0439453125,-0.197265625,0.010199999999999999
1.8625954198473282,1.1908396946564885,-0.9923664122137404,-0.463134765625,-0.038330078125,-0.190673828125,0.011899999999999999
1.816793893129771,0.9618320610687023,-1.1755725190839694,-0.455078125,-0.039794921875,-0.18603515625,0.0136
1.6030534351145038,0.9312977099236641,-1.2366412213740459,-0.45654296875,-0.04248046875,-0.1904296875,0.0153
1.7404580152671756,1.0229007633587786,-1.0381679389312977,-0.4521484375,-0.04443359375,-0.19873046875,0.016999999999999998
1.7099236641221374,1.0687022900763359,-1.0534351145038168,-0.456787109375,-0.039794921875,-0.198486328125,0.018699999999999998
1.7709923664122138,1.1755725190839694,-1.0687022900763359,-0.457763671875,-0.042724609375,-0.19775390625,0.020399999999999998
1.8778625954198473,0.7938931297709924,-1.0229007633587786,-0.459716796875,-0.0419921875,-0.196044921875,0.022099999999999998
1.6641221374045803,1.0381679389312977,-0.8854961832061069,-0.45751953125,-0.037841796875,-0.192626953125,0.023799999999999998
1.984732824427481,1.0229007633587786,-0.9007633587786259,-0.45849609375,-0.04052734375,-0.197509765625,0.0255
1.816793893129771,1.0076335877862594,-1.1145038167938932,-0.45703125,-0.03759765625,-0.189453125,0.0272
1.5877862595419847,1.1145038167938932,-1.0381679389312977,-0.45654296875,-0.04150390625,-0.195068359375,0.0289
1.618320610687023,1.0381679389312977,-0.9465648854961832,-0.459228515625,-0.041748046875,-0.1962890625,0.0306
1.5419847328244274,1.0534351145038168,-0.9923664122137404,-0.45703125,-0.040283203125,-0.1953125,0.032299999999999995
1.7404580152671756,1.0687022900763359,-1.0381679389312977,-0.45556640625,-0.038818359375,-0.191650390625,0.033999999999999996
1.7404580152671756,0.8091603053435115,-0.8091603053435115,-0.455078125,-0.040771484375,-0.19677734375,0.035699999999999996
1.786259541984733,1.0534351145038168,-0.8702290076335878,-0.458251953125,-0.04052734375,-0.1943359375,0.037399999999999996
1.633587786259542,1.0687022900763359,-0.7938931297709924,-0.459716796875,-0.0439453125,-0.1943359375,0.039099999999999996
1.633587786259542,0.8396946564885496,-0.8091603053435115,-0.449951171875,-0.041015625,-0.193359375,0.040799999999999996
1.6793893129770991,0.9007633587786259,-0.9923664122137404,-0.4560546875,-0.04248046875,-0.193603515625,0.042499999999999996
1.83206106870229,1.0076335877862594,-0.9465648854961832,-0.458251953125,-0.04638671875,-0.19140625,0.044199999999999996
1.5725190839694656,0.6717557251908397,-0.8091603053435115,-0.455078125,-0.043212890625,-0.196533203125,0.045899999999999996
1.3893129770992367,0.9312977099236641,-0.9465648854961832,-0.45703125,-0.041748046875,-0.1982421875,0.047599999999999996
1.4809160305343512,0.916030534351145,-0.9312977099236641,-0.457763671875,-0.042236328125,-0.19677734375,0.0493
1.5877862595419847,0.8244274809160306,-0.916030534351145,-0.45361328125,-0.047607421875,-0.193115234375,0.051
1.3587786259541985,0.7786259541984732,-0.8091603053435115,-0.453369140625,-0.0419921875,-0.200439453125,0.0527
1.2671755725190839,0.7633587786259542,-0.7786259541984732,-0.457763671875,-0.034912109375,-0.18994140625,0.0544
1.465648854961832,0.8244274809160306,-0.8091603053435115,-0.456787109375,-0.03955078125,-0.197021484375,0.0561
1.7099236641221374,0.6564885496183206,-1.0381679389312977,-0.4580078125,-0.037353515625,-0.192626953125,0.0578
1.3893129770992367,0.916030534351145,-0.8091603053435115,-0.451416015625,-0.0390625,-0.1943359375,0.0595
1.450381679389313,0.9007633587786259,-0.8549618320610687,-0.45703125,-0.0390625,-0.19775390625,0.0612
1.5267175572519085,1.099236641221374,-0.8854961832061069,-0.458740234375,-0.03759765625,-0.19873046875,0.0629
1.3587786259541985,0.8854961832061069,-0.9770992366412213,-0.454345703125,-0.033447265625,-0.197998046875,0.06459999999999999
1.251908396946565,0.8549618320610687,-0.7480916030534351,-0.45458984375,-0.038818359375,-0.1923828125,0.0663
1.465648854961832,0.7938931297709924,-0.9007633587786259,-0.457275390625,-0.041015625,-0.195556640625,0.06799999999999999
1.1908396946564885,0.8854961832061069,-0.8091603053435115,-0.45263671875,-0.041748046875,-0.190673828125,0.0697
1.3740458015267176,0.9770992366412213,-0.8091603053435115,-0.45654296875,-0.043212890625,-0.1865234375,0.07139999999999999
1.3893129770992367,0.9007633587786259,-0.7938931297709924,-0.46240234375,-0.03564453125,-0.181396484375,0.0731
1.0229007633587786,0.8702290076335878,-0.8244274809160306,-0.453369140625,-0.041015625,-0.200439453125,0.07479999999999999
1.3282442748091603,0.9618320610687023,-0.6412213740458015,-0.460693359375,-0.03955078125,-0.184326171875,0.0765
0.9312977099236641,1.0229007633587786,-0.8854961832061069,-0.456298828125,-0.0400390625,-0.186279296875,0.07819999999999999
1.0381679389312977,0.9770992366412213,-0.9312977099236641,-0.45751953125,-0.03662109375,-0.196044921875,0.0799
1.4198473282442747,0.9312977099236641,-0.916030534351145,-0.45654296875,-0.04345703125,-0.19091796875,0.08159999999999999
1.099236641221374,0.9312977099236641,-0.5954198473282443,-0.45849609375,-0.04296875,-0.199462890625,0.0833
0.9465648854961832,0.8396946564885496,-0.8854961832061069,-0.46044921875,-0.04345703125,-0.193603515625,0.08499999999999999
0.916030534351145,0.7175572519083969,-0.7786259541984732,-0.46044921875,-0.041259765625,-0.188232421875,0.0867
1.1450381679389312,0.8396946564885496,-0.8702290076335878,-0.46044921875,-0.041259765625,-0.199951171875,0.08839999999999999
0.9770992366412213,0.8549618320610687,-0.7938931297709924,-0.458984375,-0.043212890625,-0.18408203125,0.0901
0.8854961832061069,0.6870229007633588,-0.8549618320610687,-0.459716796875,-0.041748046875,-0.195068359375,0.09179999999999999
1.0381679389312977,0.8396946564885496,-0.5038167938931297,-0.45361328125,-0.04296875,-0.19140625,0.0935
1.0229007633587786,0.9312977099236641,-0.8702290076335878,-0.4560546875,-0.042724609375,-0.19677734375,0.09519999999999999
0.6412213740458015,0.7480916030534351,-0.8244274809160306,-0.456298828125,-0.044189453125,-0.19189453125,0.0969
0.7938931297709924,0.6259541984732825,-0.9312977099236641,-0.460205078125,-0.037353515625,-0.189208984375,0.0986
0.8549618320610687,0.9923664122137404,-0.6412213740458015,-0.46142578125,-0.039794921875,-0.1962890625,0.1003
0.7480916030534351,0.7633587786259542,-0.7022900763358778,-0.455322265625,-0.043212890625,-0.189453125,0.102
0.6717557251908397,0.7175572519083969,-0.8396946564885496,-0.456298828125,-0.042236328125,-0.193115234375,0.1037
0.9312977099236641,0.6870229007633588,-0.7786259541984732,-0.4609375,-0.039306640625,-0.19140625,0.1054
0.9770992366412213,0.6106870229007634,-0.7633587786259542,-0.45166015625,-0.0400390625,-0.191650390625,0.1071
0.7022900763358778,0.6259541984732825,-0.8702290076335878,-0.45654296875,-0.041015625,-0.19189453125,0.1088
0.6717557251908397,0.7175572519083969,-0.7633587786259542,-0.4599609375,-0.0400390625,-0.19091796875,0.11049999999999999
0.8091603053435115,0.7633587786259542,-0.7480916030534351,-0.462890625,-0.041015625,-0.19677734375,0.1122
0.732824427480916,0.8091603053435115,-0.7175572519083969,-0.459716796875,-0.039794921875,-0.19189453125,0.11389999999999999
0.6106870229007634,0.7633587786259542,-0.9312977099236641,-0.456298828125,-0.037353515625,-0.19384765625,0.1156
0.6717557251908397,0.5954198473282443,-0.7786259541984732,-0.458984375,-0.038330078125,-0.19482421875,0.11729999999999999
0.6106870229007634,0.6106870229007634,-0.7786259541984732,-0.457275390625,-0.0439453125,-0.1943359375,0.119
0.7022900763358778,0.549618320610687,-0.8702290076335878,-0.44921875,-0.0400390625,-0.194580078125,0.12069999999999999
0.7786259541984732,0.6564885496183206,-1.0076335877862594,-0.451904296875,-0.038818359375,-0.192138671875,0.1224
0.7022900763358778,0.8244274809160306,-0.8702290076335878,-0.45654296875,-0.03857421875,-0.195068359375,0.12409999999999999
0.5954198473282443,0.6870229007633588,-0.916030534351145,-0.454833984375,-0.0390625,-0.195556640625,0.1258
0.5038167938931297,0.4580152671755725,-0.8244274809160306,-0.4560546875,-0.038330078125,-0.193115234375,0.1275
0.549618320610687,0.5648854961832062,-0.916030534351145,-0.45703125,-0.0390625,-0.19140625,0.12919999999999998
0.6870229007633588,0.5038167938931297,-0.7938931297709924,-0.461181640625,-0.033447265625,-0.19482421875,0.1309
0.549618320610687,0.5190839694656488,-0.7786259541984732,-0.462158203125,-0.03857421875,-0.188720703125,0.1326
0.6870229007633588,0.6564885496183206,-0.8702290076335878,-0.45263671875,-0.0400390625,-0.190185546875,0.1343
0.6106870229007634,0.6870229007633588,-0.8702290076335878,-0.45703125,-0.035888671875,-0.182373046875,0.13599999999999998
0.5954198473282443,0.5038167938931297,-0.8396946564885496,-0.463134765625,-0.034912109375,-0.193603515625,0.1377
0.8549618320610687,0.3969465648854962,-0.8549618320610687,-0.463623046875,-0.03564453125,-0.197265625,0.1394
0.5038167938931297,0.6106870229007634,-0.8854961832061069,-0.458740234375,-0.03076171875,-0.19091796875,0.1411
0.6412213740458015,0.4122137404580153,-0.9465648854961832,-0.45458984375,-0.038330078125,-0.1982421875,0.14279999999999998
0.6259541984732825,0.3816793893129771,-0.7633587786259542,-0.455810546875,-0.04150390625,-0.20068359375,0.1445
0.4732824427480916,0.5190839694656488,-0.9007633587786259,-0.45947265625,-0.043701171875,-0.19384765625,0.1462
0.6412213740458015,0.44274809160305345,-0.9007633587786259,-0.460205078125,-0.036865234375,-0.1982421875,0.1479
0.732824427480916,0.6106870229007634,-1.0534351145038168,-0.4609375,-0.0361328125,-0.1962890625,0.14959999999999998
0.44274809160305345,0.549618320610687,-0.9007633587786259,-0.4599609375,-0.0419921875,-0.196533203125,0.1513
0.6412213740458015,0.5954198473282443,-0.8854961832061069,-0.4599609375,-0.03662109375,-0.197998046875,0.153
0.7480916030534351,0.6106870229007634,-0.7480916030534351,-0.45263671875,-0.03466796875,-0.19677734375,0.1547
0.6717557251908397,0.4732824427480916,-0.8396946564885496,-0.459716796875,-0.033935546875,-0.1904296875,0.15639999999999998
0.732824427480916,0.48854961832061067,-0.9007633587786259,-0.458251953125,-0.0361328125,-0.198974609375,0.1581
0.7175572519083969,0.549618320610687,-0.8091603053435115,-0.4599609375,-0.03662109375,-0.197998046875,0.1598
0.7633587786259542,0.7938931297709924,-0.7480916030534351,-0.45654296875,-0.04345703125,-0.18994140625,0.1615
0.8244274809160306,0.6412213740458015,-0.8549618320610687,-0.461181640625,-0.037109375,-0.197021484375,0.16319999999999998
0.7633587786259542,0.7175572519083969,-0.9312977099236641,-0.4560546875,-0.03857421875,-0.188720703125,0.1649
0.48854961832061067,0.8396946564885496,-0.8244274809160306,-0.45458984375,-0.04150390625,-0.200927734375,0.1666
0.9007633587786259,0.9465648854961832,-0.7480916030534351,-0.458740234375,-0.034423828125,-0.187255859375,0.16829999999999998
0.8854961832061069,0.7480916030534351,-0.7786259541984732,-0.46044921875,-0.036376953125,-0.19140625,0.16999999999999998
0.9465648854961832,0.7480916030534351,-0.6564885496183206,-0.457275390625,-0.039306640625,-0.188232421875,0.1717
0.8396946564885496,0.7938931297709924,-0.8244274809160306,-0.459228515625,-0.037109375,-0.19140625,0.1734
0.916030534351145,0.9007633587786259,-0.7175572519083969,-0.457275390625,-0.0400390625,-0.19482421875,0.17509999999999998
1.2671755725190839,0.732824427480916,-0.8549618320610687,-0.45703125,-0.034423828125,-0.188232421875,0.17679999999999998
0.8549618320610687,0.8396946564885496,-0.8244274809160306,-0.451171875,-0.036376953125,-0.197021484375,0.1785
1.0229007633587786,0.8244274809160306,-0.8091603053435115,-0.45703125,-0.03662109375,-0.193359375,0.1802
1.099236641221374,0.6259541984732825,-0.8854961832061069,-0.46142578125,-0.037353515625,-0.1962890625,0.18189999999999998
1.0076335877862594,0.7633587786259542,-0.6412213740458015,-0.4638671875,-0.034912109375,-0.185791015625,0.18359999999999999
1.3740458015267176,0.8091603053435115,-0.8091603053435115,-0.455078125,-0.040283203125,-0.19091796875,0.1853
1.083969465648855,0.6870229007633588,-0.7633587786259542,-0.460693359375,-0.034423828125,-0.194091796875,0.187
1.0229007633587786,0.5954198473282443,-0.6870229007633588,-0.458251953125,-0.0390625,-0.19287109375,0.18869999999999998
1.1297709923664123,0.5038167938931297,-0.6870229007633588,-0.4599609375,-0.038330078125,-0.19189453125,0.19039999999999999
1.2366412213740459,0.7022900763358778,-0.8244274809160306,-0.4619140625,-0.038818359375,-0.19287109375,0.1921
1.3740458015267176,0.916030534351145,-0.7633587786259542,-0.457763671875,-0.03564453125,-0.197265625,0.1938
1.282442748091603,0.7022900763358778,-1.0381679389312977,-0.457763671875,-0.0400390625,-0.187744140625,0.19549999999999998
1.3129770992366412,0.7175572519083969,-0.8091603053435115,-0.453857421875,-0.035400390625,-0.1904296875,0.1972
1.2671755725190839,0.732824427480916,-1.0229007633587786,-0.458740234375,-0.037353515625,-0.195556640625,0.1989
1.2366412213740459,0.8702290076335878,-0.8702290076335878,-0.45849609375,-0.033447265625,-0.19189453125,0.2006
1.3282442748091603,0.9923664122137404,-0.8702290076335878,-0.460205078125,-0.0419921875,-0.200439453125,0.20229999999999998
1.4045801526717556,1.0229007633587786,-0.7480916030534351,-0.4580078125,-0.03564453125,-0.19384765625,0.204
1.1755725190839694,1.0229007633587786,-0.7786259541984732,-0.455078125,-0.037353515625,-0.195068359375,0.2057
1.3587786259541985,1.0381679389312977,-0.9923664122137404,-0.46044921875,-0.0390625,-0.19482421875,0.2074
1.3893129770992367,1.0229007633587786,-0.916030534351145,-0.45849609375,-0.036865234375,-0.1923828125,0.20909999999999998
1.3282442748091603,0.9465648854961832,-0.916030534351145,-0.455810546875,-0.037109375,-0.200927734375,0.2108
1.297709923664122,1.0229007633587786,-0.8549618320610687,-0.4580078125,-0.038818359375,-0.1943359375,0.2125
1.3129770992366412,0.8854961832061069,-0.7480916030534351,-0.45849609375,-0.033203125,-0.197265625,0.2142
1.6793893129770991,0.9007633587786259,-0.8396946564885496,-0.462890625,-0.036865234375,-0.186767578125,0.21589999999999998
1.4809160305343512,0.9465648854961832,-0.9923664122137404,-0.457763671875,-0.039306640625,-0.188232421875,0.2176
1.282442748091603,0.7175572519083969,-0.916030534351145,-0.451904296875,-0.038330078125,-0.193115234375,0.2193
1.633587786259542,0.8396946564885496,-0.7938931297709924,-0.458984375,-0.03857421875,-0.195068359375,0.22099999999999997
1.5267175572519085,0.9618320610687023,-1.0229007633587786,-0.45703125,-0.042236328125,-0.19775390625,0.22269999999999998
1.3587786259541985,0.9770992366412213,-0.8244274809160306,-0.453369140625,-0.035400390625,-0.194580078125,0.2244
1.3740458015267176,1.0229007633587786,-0.8702290076335878,-0.4521484375,-0.034423828125,-0.188720703125,0.2261
1.3435114503816794,0.9312977099236641,-1.0229007633587786,-0.456298828125,-0.034912109375,-0.200439453125,0.22779999999999997
1.282442748091603,0.8091603053435115,-1.0534351145038168,-0.454833984375,-0.04345703125,-0.196533203125,0.22949999999999998
1.450381679389313,0.9312977099236641,-0.9007633587786259,-0.460205078125,-0.035400390625,-0.19921875,0.2312
1.450381679389313,0.8091603053435115,-0.916030534351145,-0.4580078125,-0.037841796875,-0.201904296875,0.2329
1.3282442748091603,0.7786259541984732,-0.9007633587786259,-0.453857421875,-0.034912109375,-0.189697265625,0.23459999999999998
1.3740458015267176,0.8702290076335878,-0.9618320610687023,-0.455078125,-0.0361328125,-0.187744140625,0.23629999999999998
1.5572519083969465,0.8396946564885496,-0.8854961832061069,-0.45703125,-0.039306640625,-0.192626953125,0.238
1.4961832061068703,0.8244274809160306,-0.8549618320610687,-0.458251953125,-0.03369140625,-0.19140625,0.2397
1.465648854961832,0.7480916030534351,-0.9312977099236641,-0.457275390625,-0.04052734375,-0.18798828125,0.24139999999999998
1.450381679389313,0.6564885496183206,-1.0076335877862594,-0.45361328125,-0.03857421875,-0.1904296875,0.24309999999999998
1.4809160305343512,0.7938931297709924,-1.0381679389312977,-0.455810546875,-0.032958984375,-0.188720703125,0.2448
1.5114503816793894,0.7480916030534351,-1.0687022900763359,-0.4560546875,-0.03662109375,-0.1982421875,0.2465
1.4045801526717556,0.6870229007633588,-0.9923664122137404,-0.45849609375,-0.0439453125,-0.1962890625,0.24819999999999998
1.3740458015267176,0.732824427480916,-1.0076335877862594,-0.456298828125,-0.044921875,-0.200927734375,0.24989999999999998
1.618320610687023,0.5954198473282443,-0.8091603053435115,-0.457763671875,-0.0400390625,-0.194580078125,0.2516
1.297709923664122,0.5801526717557252,-1.1755725190839694,-0.459716796875,-0.04150390625,-0.19140625,0.25329999999999997
1.3740458015267176,0.6106870229007634,-0.9923664122137404,-0.45458984375,-0.036376953125,-0.195556640625,0.255
1.4961832061068703,0.7022900763358778,-0.9312977099236641,-0.459228515625,-0.035888671875,-0.189697265625,0.2567
1.4045801526717556,0.48854961832061067,-0.8854961832061069,-0.454345703125,-0.0341796875,-0.18505859375,0.25839999999999996
1.5114503816793894,0.4580152671755725,-1.083969465648855,-0.458740234375,-0.035400390625,-0.20166015625,0.2601
1.297709923664122,0.6106870229007634,-0.9007633587786259,-0.458984375,-0.0341796875,-0.189453125,0.2618
1.3587786259541985,0.6717557251908397,-0.916030534351145,-0.4638671875,-0.0390625,-0.188232421875,0.2635
1.3435114503816794,0.3969465648854962,-0.8091603053435115,-0.45751953125,-0.038330078125,-0.197265625,0.2652
1.2213740458015268,0.6259541984732825,-0.9465648854961832,-0.454345703125,-0.03759765625,-0.195068359375,0.26689999999999997
1.2366412213740459,0.6259541984732825,-0.8702290076335878,-0.4521484375,-0.042236328125,-0.19189453125,0.2686
1.4198473282442747,0.5648854961832062,-0.8854961832061069,-0.458984375,-0.038818359375,-0.19140625,0.2703
1.3129770992366412,0.44274809160305345,-0.9770992366412213,-0.45947265625,-0.039794921875,-0.191650390625,0.27199999999999996
1.2061068702290076,0.549618320610687,-1.0381679389312977,-0.46533203125,-0.044921875,-0.20068359375,0.2737
1.2366412213740459,0.42748091603053434,-0.8244274809160306,-0.45556640625,-0.039794921875,-0.186767578125,0.2754
1.3587786259541985,0.4580152671755725,-1.1145038167938932,-0.462158203125,-0.038330078125,-0.19677734375,0.27709999999999996
1.4198473282442747,0.366412213740458,-0.7938931297709924,-0.45947265625,-0.036865234375,-0.187744140625,0.2788
1.251908396946565,0.3511450381679389,-1.1145038167938932,-0.459228515625,-0.036865234375,-0.19140625,0.28049999999999997
1.1755725190839694,0.33587786259541985,-0.916030534351145,-0.45947265625,-0.038330078125,-0.18798828125,0.2822
1.2061068702290076,0.4580152671755725,-0.8091603053435115,-0.457275390625,-0.041015625,-0.19287109375,0.2839
1.1297709923664123,0.2748091603053435,-0.7786259541984732,-0.456298828125,-0.03369140625,-0.189697265625,0.28559999999999997
1.1603053435114503,0.3511450381679389,-1.0076335877862594,-0.4521484375,-0.040283203125,-0.189697265625,0.2873
0.9312977099236641,0.32061068702290074,-0.8854961832061069,-0.456787109375,-0.036865234375,-0.19482421875,0.289
1.0381679389312977,0.3511450381679389,-0.9465648854961832,-0.457763671875,-0.0419921875,-0.1875,0.29069999999999996
1.282442748091603,0.3816793893129771,-0.8244274809160306,-0.4560546875,-0.0400390625,-0.200439453125,0.2924
1.1755725190839694,0.3511450381679389,-0.9618320610687023,-0.456787109375,-0.034912109375,-0.189697265625,0.2941
1.083969465648855,0.33587786259541985,-0.8854961832061069,-0.458740234375,-0.032470703125,-0.187255859375,0.2958
1.0076335877862594,0.3816793893129771,-0.916030534351145,-0.45263671875,-0.044677734375,-0.187255859375,0.2975
1.1755725190839694,0.3511450381679389,-0.916030534351145,-0.45703125,-0.040771484375,-0.19140625,0.29919999999999997
0.9312977099236641,0.16793893129770993,-0.9312977099236641,-0.4580078125,-0.039306640625,-0.1943359375,0.3009
0.9770992366412213,0.3969465648854962,-0.8244274809160306,-0.458251953125,-0.038818359375,-0.193603515625,0.3026
0.9007633587786259,0.3969465648854962,-1.0534351145038168,-0.456787109375,-0.039794921875,-0.201416015625,0.30429999999999996
0.9465648854961832,0.3816793893129771,-0.8702290076335878,-0.458740234375,-0.040283203125,-0.200439453125,0.306
1.1145038167938932,0.2595419847328244,-0.7938931297709924,-0.462890625,-0.040283203125,-0.19580078125,0.3077
1.0076335877862594,0.4580152671755725,-0.7786259541984732,-0.458740234375,-0.040771484375,-0.189697265625,0.3094
0.9770992366412213,0.7022900763358778,-0.6564885496183206,-0.462646484375,-0.037109375,-0.18798828125,0.3111
0.9465648854961832,0.7022900763358778,-0.7786259541984732,-0.458740234375,-0.0400390625,-0.193359375,0.31279999999999997
0.9465648854961832,0.5343511450381679,-0.6717557251908397,-0.459228515625,-0.043212890625,-0.1904296875,0.3145
0.9465648854961832,0.6870229007633588,-0.5801526717557252,-0.461181640625,-0.03857421875,-0.1982421875,0.3162
0.916030534351145,0.8396946564885496,-0.6870229007633588,-0.464599609375,-0.03955078125,-0.1982421875,0.31789999999999996
0.9007633587786259,0.7786259541984732,-0.6259541984732825,-0.457275390625,-0.035888671875,-0.19775390625,0.3196
0.9007633587786259,0.9465648854961832,-0.8702290076335878,-0.45751953125,-0.045654296875,-0.1884765625,0.3213
0.6412213740458015,0.8396946564885496,-0.5801526717557252,-0.457763671875,-0.041259765625,-0.184326171875,0.323
0.732824427480916,1.083969465648855,-0.8091603053435115,-0.458740234375,-0.043701171875,-0.192626953125,0.3247
0.732824427480916,0.916030534351145,-0.4580152671755725,-0.45849609375,-0.032958984375,-0.185791015625,0.32639999999999997
0.6259541984732825,1.2061068702290076,-0.7786259541984732,-0.458251953125,-0.03759765625,-0.19287109375,0.3281
0.9770992366412213,1.1755725190839694,-0.6106870229007634,-0.457763671875,-0.038818359375,-0.19384765625,0.3298
0.9312977099236641,1.1297709923664123,-0.6259541984732825,-0.460205078125,-0.041015625,-0.19140625,0.33149999999999996
0.5038167938931297,1.3435114503816794,-0.6412213740458015,-0.4580078125,-0.03955078125,-0.189208984375,0.3332
0.6106870229007634,1.2671755725190839,-0.7633587786259542,-0.455810546875,-0.033447265625,-0.18798828125,0.3349
0.4732824427480916,1.2061068702290076,-0.6106870229007634,-0.458984375,-0.037109375,-0.188720703125,0.33659999999999995
0.6259541984732825,1.3587786259541985,-0.8854961832061069,-0.457763671875,-0.03759765625,-0.200927734375,0.3383
0.7633587786259542,1.3282442748091603,-0.6259541984732825,-0.457275390625,-0.03662109375,-0.204833984375,0.33999999999999997
0.6564885496183206,1.3893129770992367,-0.6870229007633588,-0.4638671875,-0.03759765625,-0.1884765625,0.3417
0.7633587786259542,1.297709923664122,-0.5648854961832062,-0.454345703125,-0.03662109375,-0.19091796875,0.3434
0.8091603053435115,1.3893129770992367,-0.7938931297709924,-0.460205078125,-0.040771484375,-0.190185546875,0.34509999999999996
0.549618320610687,1.2061068702290076,-0.5648854961832062,-0.45458984375,-0.036865234375,-0.191650390625,0.3468
0.5190839694656488,1.3129770992366412,-0.6564885496183206,-0.457763671875,-0.038818359375,-0.191162109375,0.3485
0.7633587786259542,1.1450381679389312,-0.6259541984732825,-0.45947265625,-0.038818359375,-0.197021484375,0.35019999999999996
0.732824427480916,1.4198473282442747,-0.6870229007633588,-0.4580078125,-0.03955078125,-0.195556640625,0.3519
0.6564885496183206,1.3129770992366412,-0.6412213740458015,-0.45751953125,-0.03515625,-0.202392578125,0.35359999999999997
0.6259541984732825,1.3282442748091603,-0.7786259541984732,-0.46484375,-0.03173828125,-0.196533203125,0.3553
0.8396946564885496,1.3740458015267176,-0.8244274809160306,-0.46044921875,-0.037353515625,-0.192138671875,0.357
0.8091603053435115,1.282442748091603,-0.916030534351145,-0.451904296875,-0.03662109375,-0.20361328125,0.35869999999999996
0.7633587786259542,1.1908396946564885,-0.8244274809160306,-0.45654296875,-0.0341796875,-0.191650390625,0.3604
0.7175572519083969,1.1297709923664123,-0.7786259541984732,-0.456787109375,-0.037841796875,-0.189453125,0.3621
0.7633587786259542,1.1755725190839694,-0.7938931297709924,-0.455078125,-0.035400390625,-0.177490234375,0.36379999999999996
0.732824427480916,1.1908396946564885,-0.732824427480916,-0.4580078125,-0.03515625,-0.188720703125,0.3655
0.7175572519083969,1.3435114503816794,-0.7938931297709924,-0.45703125,-0.0380859375,-0.193359375,0.36719999999999997
0.7175572519083969,1.297709923664122,-0.7938931297709924,-0.4541015625,-0.035888671875,-0.188232421875,0.3689
0.6412213740458015,1.251908396946565,-0.8854961832061069,-0.460693359375,-0.0341796875,-0.185791015625,0.3706
0.8244274809160306,1.1145038167938932,-0.8396946564885496,-0.45947265625,-0.042724609375,-0.1923828125,0.37229999999999996
0.916030534351145,1.0381679389312977,-0.916030534351145,-0.456787109375,-0.034423828125,-0.19580078125,0.374
0.549618320610687,1.1145038167938932,-0.6106870229007634,-0.456787109375,-0.034912109375,-0.1982421875,0.3757
0.732824427480916,1.1145038167938932,-0.6564885496183206,-0.460693359375,-0.03662109375,-0.1923828125,0.37739999999999996
0.7480916030534351,1.0076335877862594,-0.9312977099236641,-0.458740234375,-0.034912109375,-0.194580078125,0.3791
0.6412213740458015,1.0381679389312977,-0.7480916030534351,-0.458251953125,-0.03662109375,-0.1884765625,0.38079999999999997
0.8244274809160306,0.9312977099236641,-0.9312977099236641,-0.45556640625,-0.03125,-0.19189453125,0.38249999999999995
0.6870229007633588,0.8702290076335878,-0.732824427480916,-0.455322265625,-0.03271484375,-0.193603515625,0.3842
0.7633587786259542,0.916030534351145,-0.7480916030534351,-0.460205078125,-0.036865234375,-0.1962890625,0.38589999999999997
0.7938931297709924,0.8244274809160306,-0.9007633587786259,-0.455322265625,-0.039794921875,-0.19580078125,0.3876
0.7938931297709924,0.7938931297709924,-0.7938931297709924,-0.46240234375,-0.037841796875,-0.193603515625,0.3893
0.8549618320610687,0.8091603053435115,-0.8396946564885496,-0.45654296875,-0.03271484375,-0.190185546875,0.39099999999999996
0.7022900763358778,0.6717557251908397,-0.8244274809160306,-0.458984375,-0.034423828125,-0.195556640625,0.3927
0.8549618320610687,0.916030534351145,-0.7175572519083969,-0.45947265625,-0.042236328125,-0.1943359375,0.3944
0.6717557251908397,0.9312977099236641,-0.9618320610687023,-0.45556640625,-0.038330078125,-0.19677734375,0.39609999999999995
0.9007633587786259,1.0076335877862594,-0.9618320610687023,-0.45703125,-0.04150390625,-0.19091796875,0.3978
0.9007633587786259,0.9465648854961832,-0.8702290076335878,-0.4580078125,-0.0361328125,-0.19580078125,0.39949999999999997
0.7786259541984732,0.916030534351145,-0.9770992366412213,-0.454345703125,-0.034423828125,-0.1875,0.4012
0.8091603053435115,0.8702290076335878,-1.083969465648855,-0.453369140625,-0.03515625,-0.1884765625,0.4029
0.9465648854961832,0.6717557251908397,-1.1908396946564885,-0.4521484375,-0.037841796875,-0.1982421875,0.40459999999999996
1.0076335877862594,0.5648854961832062,-0.9923664122137404,-0.4541015625,-0.0400390625,-0.187744140625,0.4063
1.0076335877862594,0.6412213740458015,-1.1297709923664123,-0.454833984375,-0.033203125,-0.191650390625,0.408
0.9007633587786259,0.8702290076335878,-1.0381679389312977,-0.4580078125,-0.033935546875,-0.192138671875,0.40969999999999995
1.099236641221374,0.8091603053435115,-1.1755725190839694,-0.45849609375,-0.03466796875,-0.187255859375,0.4114
1.1755725190839694,0.6106870229007634,-1.2366412213740459,-0.461181640625,-0.030517578125,-0.193359375,0.41309999999999997
1.1755725190839694,0.7938931297709924,-1.282442748091603,-0.458251953125,-0.035400390625,-0.18994140625,0.4148
1.0076335877862594,0.8244274809160306,-1.297709923664122,-0.45751953125,-0.034912109375,-0.1953125,0.4165
1.083969465648855,0.6870229007633588,-1.2366412213740459,-0.456787109375,-0.0380859375,-0.19580078125,0.41819999999999996
1.1908396946564885,0.8854961832061069,-1.1297709923664123,-0.4580078125,-0.033203125,-0.195556640625,0.4199
1.1908396946564885,0.8549618320610687,-1.2213740458015268,-0.459716796875,-0.03515625,-0.193603515625,0.4216
1.1755725190839694,0.7633587786259542,-1.4045801526717556,-0.456298828125,-0.037109375,-0.19384765625,0.42329999999999995
1.251908396946565,0.6106870229007634,-1.3893129770992367,-0.453125,-0.03564453125,-0.196533203125,0.425
1.1145038167938932,0.7175572519083969,-1.1603053435114503,-0.45654296875,-0.03173828125,-0.189697265625,0.42669999999999997
1.1450381679389312,0.9465648854961832,-1.3129770992366412,-0.462158203125,-0.033935546875,-0.182861328125,0.4284
1.083969465648855,0.9465648854961832,-1.3435114503816794,-0.466796875,-0.03271484375,-0.1884765625,0.4301
1.083969465648855,0.8244274809160306,-1.450381679389313,-0.4599609375,-0.0341796875,-0.1884765625,0.43179999999999996
1.3435114503816794,0.9465648854961832,-1.2366412213740459,-0.46044921875,-0.0341796875,-0.195068359375,0.4335
1.2213740458015268,0.8091603053435115,-1.3435114503816794,-0.457763671875,-0.031005859375,-0.1943359375,0.4352
0.9465648854961832,0.7633587786259542,-1.3282442748091603,-0.45947265625,-0.033203125,-0.197265625,0.43689999999999996
1.1145038167938932,0.7786259541984732,-1.4045801526717556,-0.462646484375,-0.037841796875,-0.19140625,0.4386
1.1603053435114503,0.916030534351145,-1.4198473282442747,-0.4619140625,-0.03662109375,-0.193359375,0.44029999999999997
1.099236641221374,1.0381679389312977,-1.4198473282442747,-0.462158203125,-0.034423828125,-0.191162109375,0.44199999999999995
1.2061068702290076,1.0076335877862594,-1.282442748091603,-0.459716796875,-0.03076171875,-0.193115234375,0.4437
1.1603053435114503,1.0381679389312977,-1.282442748091603,-0.457763671875,-0.03271484375,-0.197509765625,0.44539999999999996
1.282442748091603,1.1908396946564885,-1.450381679389313,-0.4560546875,-0.031005859375,-0.19482421875,0.4471
1.083969465648855,1.0687022900763359,-1.6030534351145038,-0.458740234375,-0.038818359375,-0.1923828125,0.4488
1.3129770992366412,1.297709923664122,-1.5419847328244274,-0.459716796875,-0.03515625,-0.18505859375,0.45049999999999996
1.2061068702290076,1.3740458015267176,-1.5419847328244274,-0.459716796875,-0.039306640625,-0.193115234375,0.4522
1.297709923664122,1.5419847328244274,-1.5114503816793894,-0.458740234375,-0.0361328125,-0.19775390625,0.45389999999999997
1.5419847328244274,1.6793893129770991,-1.7099236641221374,-0.46142578125,-0.0380859375,-0.1953125,0.45559999999999995
1.0076335877862594,1.3893129770992367,-1.450381679389313,-0.45751953125,-0.031005859375,-0.1865234375,0.4573
1.3893129770992367,1.4961832061068703,-1.7251908396946565,-0.4599609375,-0.029052734375,-0.191650390625,0.45899999999999996
1.5114503816793894,1.618320610687023,-1.6946564885496183,-0.4599609375,-0.03564453125,-0.19482421875,0.4607
1.3740458015267176,1.618320610687023,-1.6793893129770991,-0.456298828125,-0.03466796875,-0.19482421875,0.4624
1.6488549618320612,1.7709923664122138,-1.6946564885496183,-0.45947265625,-0.03515625,-0.195556640625,0.46409999999999996
1.6488549618320612,1.786259541984733,-1.8015267175572518,-0.45751953125,-0.03271484375,-0.190185546875,0.4658
1.5267175572519085,1.6488549618320612,-1.7251908396946565,-0.454833984375,-0.037353515625,-0.19482421875,0.46749999999999997
1.7099236641221374,1.6030534351145038,-1.8473282442748091,-0.4560546875,-0.03271484375,-0.191650390625,0.46919999999999995
1.6488549618320612,1.5572519083969465,-1.7099236641221374,-0.4580078125,-0.029541015625,-0.18896484375,0.4709
1.7251908396946565,1.465648854961832,-1.9083969465648856,-0.45703125,-0.03466796875,-0.1904296875,0.47259999999999996
1.7709923664122138,1.7099236641221374,-2.0916030534351147,-0.45849609375,-0.03271484375,-0.193603515625,0.4743
1.7557251908396947,1.633587786259542,-2.0763358778625953,-0.45654296875,-0.032958984375,-0.189453125,0.476
1.9083969465648856,1.6793893129770991,-1.9083969465648856,-0.45458984375,-0.039306640625,-0.1923828125,0.47769999999999996
1.816793893129771,1.5419847328244274,-2.045801526717557,-0.460205078125,-0.03955078125,-0.191162109375,0.4794
1.9236641221374047,1.5725190839694656,-1.633587786259542,-0.456298828125,-0.037109375,-0.1923828125,0.48109999999999997
1.6946564885496183,1.5267175572519085,-1.8778625954198473,-0.459228515625,-0.039794921875,-0.1904296875,0.48279999999999995
1.8015267175572518,1.5419847328244274,-1.8473282442748091,-0.45849609375,-0.038330078125,-0.182373046875,0.4845
1.9541984732824427,1.5114503816793894,-1.9541984732824427,-0.457275390625,-0.037353515625,-0.189208984375,0.48619999999999997
1.8473282442748091,1.5114503816793894,-1.7251908396946565,-0.4560546875,-0.033935546875,-0.18603515625,0.4879
1.8473282442748091,1.5114503816793894,-1.786259541984733,-0.459716796875,-0.0380859375,-0.19384765625,0.4896
1.9389312977099236,1.5572519083969465,-1.7251908396946565,-0.46044921875,-0.037353515625,-0.193603515625,0.49129999999999996
1.83206106870229,1.297709923664122,-1.7099236641221374,-0.460205078125,-0.034423828125,-0.1875,0.493
1.7404580152671756,1.3129770992366412,-1.633587786259542,-0.461181640625,-0.0361328125,-0.18603515625,0.4947
1.8473282442748091,1.297709923664122,-1.6488549618320612,-0.457763671875,-0.036376953125,-0.19287109375,0.49639999999999995
1.8625954198473282,1.2671755725190839,-1.4809160305343512,-0.462158203125,-0.034912109375,-0.192138671875,0.4981
1.8015267175572518,1.251908396946565,-1.5114503816793894,-0.4521484375,-0.03759765625,-0.1875,0.49979999999999997
1.83206106870229,1.083969465648855,-1.4809160305343512,-0.459716796875,-0.03564453125,-0.187255859375,0.5015
1.8015267175572518,1.2213740458015268,-1.465648854961832,-0.454345703125,-0.03271484375,-0.19677734375,0.5032
1.8625954198473282,1.2366412213740459,-1.3435114503816794,-0.451416015625,-0.034423828125,-0.191162109375,0.5049
1.83206106870229,1.1603053435114503,-1.4961832061068703,-0.456787109375,-0.0322265625,-0.18408203125,0.5065999999999999
1.9236641221374047,1.1450381679389312,-1.2671755725190839,-0.451171875,-0.033447265625,-0.189453125,0.5083
1.786259541984733,1.1755725190839694,-1.4961832061068703,-0.45556640625,-0.03857421875,-0.198974609375,0.51
1.9694656488549618,1.1908396946564885,-1.4961832061068703,-0.459716796875,-0.039306640625,-0.200927734375,0.5116999999999999
1.7709923664122138,1.1908396946564885,-1.3893129770992367,-0.4560546875,-0.040771484375,-0.208740234375,0.5134
1.8015267175572518,1.1297709923664123,-1.3740458015267176,-0.45849609375,-0.0361328125,-0.18896484375,0.5151
1.9236641221374047,1.3129770992366412,-1.3282442748091603,-0.45947265625,-0.037353515625,-0.193603515625,0.5167999999999999
1.9083969465648856,1.2213740458015268,-1.3282442748091603,-0.45458984375,-0.0361328125,-0.195556640625,0.5185
1.8473282442748091,1.083969465648855,-1.282442748091603,-0.455810546875,-0.03466796875,-0.19873046875,0.5202
1.7404580152671756,1.1755725190839694,-1.282442748091603,-0.455810546875,-0.040771484375,-0.189453125,0.5218999999999999
1.8473282442748091,1.1145038167938932,-1.2061068702290076,-0.457275390625,-0.03857421875,-0.190185546875,0.5236
1.786259541984733,0.9618320610687023,-1.0687022900763359,-0.457763671875,-0.0341796875,-0.18603515625,0.5253
1.7709923664122138,0.9465648854961832,-1.2061068702290076,-0.453369140625,-0.03515625,-0.19287109375,0.527
1.8015267175572518,1.0076335877862594,-1.0076335877862594,-0.45654296875,-0.039794921875,-0.194580078125,0.5287
1.8473282442748091,0.8396946564885496,-1.1145038167938932,-0.45458984375,-0.038818359375,-0.196533203125,0.5304
1.83206106870229,0.8396946564885496,-1.1297709923664123,-0.455810546875,-0.03955078125,-0.18798828125,0.5321
1.7404580152671756,0.9312977099236641,-1.251908396946565,-0.45947265625,-0.03759765625,-0.191162109375,0.5337999999999999
1.9541984732824427,0.9312977099236641,-1.099236641221374,-0.4609375,-0.035888671875,-0.19091796875,0.5355
1.8015267175572518,0.9770992366412213,-1.1908396946564885,-0.455078125,-0.037353515625,-0.19140625,0.5372
1.8625954198473282,1.0229007633587786,-0.9312977099236641,-0.45361328125,-0.041748046875,-0.18408203125,0.5388999999999999
1.7557251908396947,0.8091603053435115,-0.916030534351145,-0.45458984375,-0.03662109375,-0.185546875,0.5406
1.618320610687023,0.8702290076335878,-0.9770992366412213,-0.4580078125,-0.037841796875,-0.18701171875,0.5423
1.8778625954198473,0.8244274809160306,-1.1450381679389312,-0.460693359375,-0.036865234375,-0.1845703125,0.5439999999999999
1.7709923664122138,0.7480916030534351,-0.9618320610687023,-0.456787109375,-0.0439453125,-0.19140625,0.5457
1.7251908396946565,0.732824427480916,-1.083969465648855,-0.4580078125,-0.046142578125,-0.194580078125,0.5474
1.7557251908396947,0.916030534351145,-1.251908396946565,-0.452880859375,-0.041748046875,-0.1962890625,0.5490999999999999
1.5877862595419847,0.9007633587786259,-0.9465648854961832,-0.456787109375,-0.04541015625,-0.189697265625,0.5508
1.5267175572519085,0.7633587786259542,-0.6564885496183206,-0.45703125,-0.045654296875,-0.19775390625,0.5525
1.3740458015267176,0.7786259541984732,-0.9007633587786259,-0.45703125,-0.04052734375,-0.2001953125,0.5541999999999999
1.3435114503816794,0.7633587786259542,-0.9923664122137404,-0.458251953125,-0.037353515625,-0.18408203125,0.5559
1.297709923664122,0.7480916030534351,-0.9618320610687023,-0.459716796875,-0.040283203125,-0.185791015625,0.5576
1.3129770992366412,0.7786259541984732,-0.8854961832061069,-0.458740234375,-0.0400390625,-0.19677734375,0.5593
1.1755725190839694,0.7175572519083969,-0.7175572519083969,-0.45947265625,-0.039306640625,-0.189697265625,0.5609999999999999
1.0381679389312977,0.8244274809160306,-0.6564885496183206,-0.453369140625,-0.04052734375,-0.197509765625,0.5627
1.2061068702290076,0.9923664122137404,-0.7786259541984732,-0.45654296875,-0.0400390625,-0.1923828125,0.5644
1.083969465648855,0.916030534351145,-0.8244274809160306,-0.4580078125,-0.0400390625,-0.186767578125,0.5660999999999999
1.0687022900763359,0.8702290076335878,-0.5801526717557252,-0.463134765625,-0.036865234375,-0.188232421875,0.5678
0.9465648854961832,0.9007633587786259,-0.7633587786259542,-0.45361328125,-0.04150390625,-0.188720703125,0.5695
0.8549618320610687,0.8854961832061069,-0.8244274809160306,-0.457763671875,-0.033935546875,-0.189208984375,0.5711999999999999
0.9465648854961832,0.9465648854961832,-0.8396946564885496,-0.459716796875,-0.041259765625,-0.1943359375,0.5729
0.7175572519083969,0.8091603053435115,-0.8091603053435115,-0.45703125,-0.04150390625,-0.1962890625,0.5746
0.7175572519083969,0.7633587786259542,-0.7480916030534351,-0.45361328125,-0.042724609375,-0.196044921875,0.5762999999999999
0.7938931297709924,0.8702290076335878,-0.8091603053435115,-0.4541015625,-0.036865234375,-0.1904296875,0.578
0.6259541984732825,0.8396946564885496,-0.7938931297709924,-0.455810546875,-0.039306640625,-0.193115234375,0.5797
0.7175572519083969,0.8549618320610687,-1.0381679389312977,-0.455810546875,-0.042236328125,-0.193359375,0.5813999999999999
0.549618320610687,0.7480916030534351,-1.0229007633587786,-0.456298828125,-0.03662109375,-0.191162109375,0.5831
0.4580152671755725,0.7480916030534351,-1.083969465648855,-0.45947265625,-0.04150390625,-0.183349609375,0.5848
0.5038167938931297,0.8396946564885496,-1.0229007633587786,-0.459716796875,-0.0390625,-0.189453125,0.5865
0.5190839694656488,0.7022900763358778,-1.1145038167938932,-0.456298828125,-0.03662109375,-0.18994140625,0.5882
0.6564885496183206,0.6106870229007634,-1.0687022900763359,-0.4580078125,-0.035400390625,-0.188232421875,0.5899
0.4122137404580153,0.6106870229007634,-1.2213740458015268,-0.4619140625,-0.0322265625,-0.193115234375,0.5916
0.2900763358778626,0.7175572519083969,-1.3129770992366412,-0.456787109375,-0.036376953125,-0.19189453125,0.5932999999999999
0.32061068702290074,0.8854961832061069,-1.251908396946565,-0.4580078125,-0.035400390625,-0.17919921875,0.595
0.5038167938931297,0.6412213740458015,-1.282442748091603,-0.455322265625,-0.037353515625,-0.1884765625,0.5967
0.33587786259541985,0.8854961832061069,-1.4351145038167938,-0.458740234375,-0.0361328125,-0.191162109375,0.5983999999999999
0.21374045801526717,0.732824427480916,-1.633587786259542,-0.4619140625,-0.03857421875,-0.18994140625,0.6001
0.3511450381679389,0.8702290076335878,-1.6030534351145038,-0.455322265625,-0.03857421875,-0.193115234375,0.6018
0.4122137404580153,0.916030534351145,-1.4809160305343512,-0.45751953125,-0.034912109375,-0.185546875,0.6034999999999999
0.3969465648854962,0.8244274809160306,-1.4809160305343512,-0.456787109375,-0.03271484375,-0.192626953125,0.6052
0.21374045801526717,0.5648854961832062,-1.633587786259542,-0.4560546875,-0.037109375,-0.19384765625,0.6069
0.3969465648854962,0.7480916030534351,-1.618320610687023,-0.461181640625,-0.04052734375,-0.19677734375,0.6085999999999999
0.48854961832061067,0.732824427480916,-1.7557251908396947,-0.4609375,-0.0361328125,-0.194580078125,0.6103
-0.04580152671755725,0.5954198473282443,-1.7557251908396947,-0.451904296875,-0.037841796875,-0.1923828125,0.612
0.2900763358778626,0.7786259541984732,-1.7099236641221374,-0.453369140625,-0.034423828125,-0.19580078125,0.6136999999999999
0.4580152671755725,0.8244274809160306,-1.7404580152671756,-0.459716796875,-0.031982421875,-0.18701171875,0.6154
0.33587786259541985,0.7633587786259542,-1.8778625954198473,-0.457763671875,-0.03564453125,-0.18994140625,0.6171
0.4580152671755725,0.7175572519083969,-1.83206106870229,-0.460205078125,-0.035888671875,-0.192626953125,0.6188
0.33587786259541985,0.7633587786259542,-1.8931297709923665,-0.465576171875,-0.035888671875,-0.19091796875,0.6204999999999999
0.2748091603053435,0.8396946564885496,-1.8778625954198473,-0.46044921875,-0.037353515625,-0.19677734375,0.6222
0.3969465648854962,0.8396946564885496,-1.8778625954198473,-0.459716796875,-0.0361328125,-0.1904296875,0.6239
0.33587786259541985,0.8091603053435115,-1.8931297709923665,-0.46142578125,-0.034423828125,-0.19287109375,0.6255999999999999
0.3816793893129771,1.0076335877862594,-1.8931297709923665,-0.45654296875,-0.037353515625,-0.189697265625,0.6273
0.48854961832061067,0.9618320610687023,-1.9083969465648856,-0.4599609375,-0.032470703125,-0.186279296875,0.629
0.2595419847328244,0.7938931297709924,-1.9236641221374047,-0.460205078125,-0.031494140625,-0.18994140625,0.6306999999999999
0.3053435114503817,0.7786259541984732,-1.7709923664122138,-0.4580078125,-0.038818359375,-0.19677734375,0.6324
0.44274809160305345,0.8396946564885496,-1.9236641221374047,-0.458740234375,-0.03173828125,-0.195556640625,0.6341
0.4122137404580153,0.9312977099236641,-1.984732824427481,-0.45751953125,-0.03759765625,-0.1962890625,0.6357999999999999
0.5343511450381679,0.9618320610687023,-2.1526717557251906,-0.45947265625,-0.032958984375,-0.180908203125,0.6375
0.6412213740458015,0.8702290076335878,-1.9541984732824427,-0.46142578125,-0.038818359375,-0.193603515625,0.6392
0.8091603053435115,0.9923664122137404,-1.816793893129771,-0.459716796875,-0.04052734375,-0.19287109375,0.6408999999999999
0.7938931297709924,1.083969465648855,-1.8473282442748091,-0.457763671875,-0.033935546875,-0.193603515625,0.6426
0.6412213740458015,1.1908396946564885,-1.9694656488549618,-0.462890625,-0.033935546875,-0.190673828125,0.6443
0.8396946564885496,1.099236641221374,-1.8931297709923665,-0.458251953125,-0.0380859375,-0.1982421875,0.646
0.8854961832061069,1.2061068702290076,-1.8931297709923665,-0.459228515625,-0.0341796875,-0.197998046875,0.6476999999999999
1.0534351145038168,1.297709923664122,-1.8931297709923665,-0.46240234375,-0.034912109375,-0.196044921875,0.6494
0.9312977099236641,1.251908396946565,-2.0610687022900764,-0.456298828125,-0.03662109375,-0.19189453125,0.6511
1.0534351145038168,1.4045801526717556,-1.816793893129771,-0.45458984375,-0.03662109375,-0.187744140625,0.6527999999999999
1.1908396946564885,1.3587786259541985,-1.786259541984733,-0.464111328125,-0.03564453125,-0.190673828125,0.6545
1.2061068702290076,1.251908396946565,-1.9389312977099236,-0.45849609375,-0.035400390625,-0.18212890625,0.6562
1.083969465648855,1.3129770992366412,-2.030534351145038,-0.4599609375,-0.035400390625,-0.188232421875,0.6578999999999999
1.3587786259541985,1.3435114503816794,-1.8015267175572518,-0.4609375,-0.03515625,-0.19287109375,0.6596
1.4961832061068703,1.2671755725190839,-1.7709923664122138,-0.460205078125,-0.0341796875,-0.18701171875,0.6613
1.4045801526717556,1.450381679389313,-1.6946564885496183,-0.45703125,-0.03955078125,-0.186767578125,0.6629999999999999
1.4961832061068703,1.3129770992366412,-1.465648854961832,-0.4560546875,-0.035888671875,-0.191650390625,0.6647
1.618320610687023,1.5877862595419847,-1.6488549618320612,-0.45947265625,-0.032958984375,-0.188232421875,0.6664
1.6946564885496183,1.5267175572519085,-1.816793893129771,-0.455322265625,-0.03515625,-0.185546875,0.6680999999999999
1.5877862595419847,1.282442748091603,-1.8473282442748091,-0.45654296875,-0.032958984375,-0.182861328125,0.6698
1.5877862595419847,1.2366412213740459,-1.7557251908396947,-0.45458984375,-0.03564453125,-0.1884765625,0.6715
1.5419847328244274,1.3740458015267176,-1.4198473282442747,-0.45556640625,-0.0400390625,-0.195556640625,0.6731999999999999
1.816793893129771,1.282442748091603,-1.5572519083969465,-0.45458984375,-0.041748046875,-0.196533203125,0.6748999999999999
1.6641221374045803,1.3587786259541985,-1.450381679389313,-0.453369140625,-0.03955078125,-0.189208984375,0.6766
1.7557251908396947,1.083969465648855,-1.297709923664122,-0.4609375,-0.038330078125,-0.188720703125,0.6783
1.8015267175572518,0.9923664122137404,-1.3282442748091603,-0.459228515625,-0.03369140625,-0.19287109375,0.6799999999999999
1.7251908396946565,1.083969465648855,-1.3435114503816794,-0.456298828125,-0.03515625,-0.1923828125,0.6817
1.6793893129770991,1.1450381679389312,-1.0381679389312977,-0.45751953125,-0.042236328125,-0.196533203125,0.6834
1.7557251908396947,1.1145038167938932,-1.3282442748091603,-0.45849609375,-0.0400390625,-0.1962890625,0.6850999999999999
1.9083969465648856,0.8396946564885496,-1.2366412213740459,-0.4609375,-0.037841796875,-0.186279296875,0.6868
1.9541984732824427,0.8702290076335878,-1.1297709923664123,-0.461181640625,-0.03515625,-0.19384765625,0.6885
1.7709923664122138,0.9770992366412213,-1.0687022900763359,-0.454345703125,-0.03759765625,-0.187744140625,0.6901999999999999
1.984732824427481,1.1145038167938932,-1.1755725190839694,-0.458740234375,-0.03564453125,-0.190673828125,0.6919
1.8778625954198473,1.099236641221374,-1.1145038167938932,-0.45263671875,-0.03662109375,-0.1826171875,0.6936
1.8778625954198473,1.0534351145038168,-0.9923664122137404,-0.4609375,-0.033935546875,-0.19287109375,0.6952999999999999
1.786259541984733,1.0076335877862594,-0.8244274809160306,-0.45751953125,-0.038330078125,-0.194091796875,0.697
1.9236641221374047,1.0381679389312977,-1.1755725190839694,-0.4580078125,-0.03515625,-0.19189453125,0.6987
1.8625954198473282,1.0229007633587786,-0.8396946564885496,-0.455078125,-0.034912109375,-0.187744140625,0.7003999999999999
1.8473282442748091,1.251908396946565,-0.9770992366412213,-0.45654296875,-0.039306640625,-0.19873046875,0.7021
2.0,1.083969465648855,-1.1755725190839694,-0.4560546875,-0.038818359375,-0.19775390625,0.7038
1.9083969465648856,1.1145038167938932,-1.2213740458015268,-0.458740234375,-0.035888671875,-0.1865234375,0.7055
1.6946564885496183,1.1297709923664123,-1.1297709923664123,-0.45458984375,-0.03515625,-0.188720703125,0.7071999999999999
2.030534351145038,1.0076335877862594,-1.1145038167938932,-0.45556640625,-0.03662109375,-0.190185546875,0.7089
2.2290076335877864,1.0076335877862594,-1.251908396946565,-0.460205078125,-0.039306640625,-0.19189453125,0.7106
2.0,0.8854961832061069,-1.3893129770992367,-0.458984375,-0.03564453125,-0.18798828125,0.7122999999999999
2.0,0.9007633587786259,-1.450381679389313,-0.456298828125,-0.035400390625,-0.197998046875,0.714
2.3053435114503817,0.9312977099236641,-1.5725190839694656,-0.457763671875,-0.03515625,-0.18603515625,0.7157
1.984732824427481,0.9007633587786259,-1.3893129770992367,-0.465087890625,-0.037109375,-0.183349609375,0.7173999999999999
2.2900763358778624,0.8549618320610687,-1.4809160305343512,-0.459716796875,-0.035400390625,-0.185791015625,0.7191
2.2290076335877864,0.9007633587786259,-1.4198473282442747,-0.458740234375,-0.03564453125,-0.18212890625,0.7208
2.0610687022900764,1.0076335877862594,-1.6641221374045803,-0.457763671875,-0.035400390625,-0.1923828125,0.7224999999999999
2.0916030534351147,0.8244274809160306,-1.5725190839694656,-0.454833984375,-0.042724609375,-0.195068359375,0.7242
2.0763358778625953,0.9007633587786259,-1.618320610687023,-0.45458984375,-0.036865234375,-0.19287109375,0.7259
1.8625954198473282,1.0534351145038168,-1.6030534351145038,-0.45703125,-0.040283203125,-0.19189453125,0.7275999999999999
2.0916030534351147,0.9770992366412213,-1.6641221374045803,-0.455810546875,-0.04052734375,-0.18994140625,0.7293
2.198473282442748,1.083969465648855,-1.7251908396946565,-0.46044921875,-0.040771484375,-0.18701171875,0.731
1.984732824427481,1.1450381679389312,-1.786259541984733,-0.458251953125,-0.0390625,-0.1884765625,0.7326999999999999
1.8015267175572518,1.1603053435114503,-1.5572519083969465,-0.462646484375,-0.043212890625,-0.19189453125,0.7343999999999999
1.9694656488549618,1.2061068702290076,-1.6641221374045803,-0.46337890625,-0.044677734375,-0.185302734375,0.7361
1.9236641221374047,1.2061068702290076,-1.7099236641221374,-0.458984375,-0.04443359375,-0.191162109375,0.7378
1.786259541984733,1.0687022900763359,-1.6946564885496183,-0.457763671875,-0.039306640625,-0.192626953125,0.7394999999999999
1.6641221374045803,1.1603053435114503,-1.633587786259542,-0.461181640625,-0.044189453125,-0.19580078125,0.7412
1.6641221374045803,1.1908396946564885,-1.4809160305343512,-0.4580078125,-0.03759765625,-0.191162109375,0.7429
1.5419847328244274,1.1145038167938932,-1.5725190839694656,-0.458740234375,-0.038330078125,-0.1923828125,0.7445999999999999
1.5419847328244274,1.1145038167938932,-1.83206106870229,-0.4580078125,-0.0390625,-0.194091796875,0.7463
1.6030534351145038,1.1297709923664123,-1.5877862595419847,-0.458984375,-0.042724609375,-0.18798828125,0.748
1.3435114503816794,1.0381679389312977,-1.4809160305343512,-0.4609375,-0.04150390625,-0.1962890625,0.7496999999999999
1.3435114503816794,1.083969465648855,-1.5725190839694656,-0.45703125,-0.041748046875,-0.197509765625,0.7514
1.4351145038167938,0.8702290076335878,-1.6030534351145038,-0.454833984375,-0.043212890625,-0.1875,0.7531
1.4961832061068703,1.282442748091603,-1.5267175572519085,-0.45849609375,-0.0400390625,-0.192138671875,0.7547999999999999
1.1145038167938932,1.2213740458015268,-1.6793893129770991,-0.46240234375,-0.041748046875,-0.183837890625,0.7565
1.1145038167938932,1.2213740458015268,-1.3740458015267176,-0.462646484375,-0.038818359375,-0.189697265625,0.7582
1.2061068702290076,1.1603053435114503,-1.4351145038167938,-0.45751953125,-0.037353515625,-0.19091796875,0.7598999999999999
1.0687022900763359,1.3435114503816794,-1.465648854961832,-0.458251953125,-0.038818359375,-0.187744140625,0.7615999999999999
0.9312977099236641,1.282442748091603,-1.450381679389313,-0.46142578125,-0.03955078125,-0.19775390625,0.7633
1.2213740458015268,1.2061068702290076,-1.465648854961832,-0.46240234375,-0.0400390625,-0.19873046875,0.7649999999999999
1.297709923664122,1.2213740458015268,-1.4198473282442747,-0.45556640625,-0.036865234375,-0.1943359375,0.7666999999999999
1.083969465648855,1.282442748091603,-1.5572519083969465,-0.45849609375,-0.0302734375,-0.1923828125,0.7684
1.0381679389312977,1.4045801526717556,-1.5419847328244274,-0.458984375,-0.036865234375,-0.185546875,0.7701
1.1145038167938932,1.2061068702290076,-1.450381679389313,-0.46044921875,-0.042236328125,-0.18115234375,0.7717999999999999
1.0229007633587786,1.251908396946565,-1.4351145038167938,-0.45849609375,-0.037841796875,-0.190185546875,0.7735
1.1450381679389312,1.297709923664122,-1.5114503816793894,-0.456298828125,-0.036376953125,-0.184814453125,0.7752
0.8702290076335878,1.4198473282442747,-1.7251908396946565,-0.4599609375,-0.03515625,-0.20361328125,0.7768999999999999
0.8396946564885496,1.1908396946564885,-1.6030534351145038,-0.459228515625,-0.0390625,-0.1884765625,0.7786
1.0076335877862594,1.3740458015267176,-1.5419847328244274,-0.46044921875,-0.039306640625,-0.193359375,0.7803
1.0534351145038168,1.4351145038167938,-1.7709923664122138,-0.460693359375,-0.0400390625,-0.187744140625,0.7819999999999999
0.9618320610687023,1.251908396946565,-1.6488549618320612,-0.453857421875,-0.035888671875,-0.200927734375,0.7837
0.9465648854961832,1.2061068702290076,-1.4351145038167938,-0.45556640625,-0.03857421875,-0.189697265625,0.7854
0.9007633587786259,1.3893129770992367,-1.5725190839694656,-0.4560546875,-0.040283203125,-0.189697265625,0.7870999999999999
0.8244274809160306,1.3587786259541985,-1.4961832061068703,-0.461181640625,-0.036376953125,-0.188720703125,0.7888
1.1755725190839694,1.2671755725190839,-1.4961832061068703,-0.456298828125,-0.041259765625,-0.187744140625,0.7905
1.251908396946565,1.3740458015267176,-1.251908396946565,-0.45703125,-0.0380859375,-0.190185546875,0.7921999999999999
0.7786259541984732,1.465648854961832,-1.450381679389313,-0.456787109375,-0.037353515625,-0.18896484375,0.7938999999999999
1.0076335877862594,1.5267175572519085,-1.633587786259542,-0.45703125,-0.041748046875,-0.186767578125,0.7956
0.8244274809160306,1.6488549618320612,-1.4045801526717556,-0.4560546875,-0.04052734375,-0.18896484375,0.7973
1.0229007633587786,1.5267175572519085,-1.5267175572519085,-0.4580078125,-0.035400390625,-0.19140625,0.7989999999999999
0.9770992366412213,1.450381679389313,-1.5877862595419847,-0.46337890625,-0.033935546875,-0.1923828125,0.8007
0.8702290076335878,1.4198473282442747,-1.4351145038167938,-0.460693359375,-0.03759765625,-0.190673828125,0.8024
0.8549618320610687,1.5725190839694656,-1.4351145038167938,-0.458984375,-0.03271484375,-0.186279296875,0.8040999999999999
1.083969465648855,1.6793893129770991,-1.7709923664122138,-0.458251953125,-0.033447265625,-0.189208984375,0.8058
0.916030534351145,1.786259541984733,-1.4198473282442747,-0.456787109375,-0.038330078125,-0.183349609375,0.8075
0.9007633587786259,1.8625954198473282,-1.3740458015267176,-0.4580078125,-0.040283203125,-0.191650390625,0.8091999999999999
0.9618320610687023,1.618320610687023,-1.4961832061068703,-0.458251953125,-0.036376953125,-0.18603515625,0.8109
0.7786259541984732,1.816793893129771,-1.5419847328244274,-0.46142578125,-0.042236328125,-0.1845703125,0.8126
0.6564885496183206,1.9541984732824427,-1.465648854961832,-0.455810546875,-0.0419921875,-0.187255859375,0.8142999999999999
0.7633587786259542,1.816793893129771,-1.4198473282442747,-0.458251953125,-0.034912109375,-0.19482421875,0.816
0.916030534351145,1.8778625954198473,-1.2366412213740459,-0.451171875,-0.0419921875,-0.1962890625,0.8177
0.9312977099236641,2.030534351145038,-1.4809160305343512,-0.46044921875,-0.044921875,-0.18701171875,0.8193999999999999
0.8702290076335878,1.8015267175572518,-1.4351145038167938,-0.455078125,-0.041748046875,-0.193603515625,0.8210999999999999
0.9007633587786259,1.7099236641221374,-1.4198473282442747,-0.457275390625,-0.03662109375,-0.191162109375,0.8228
0.7480916030534351,1.83206106870229,-1.3129770992366412,-0.458984375,-0.034423828125,-0.193603515625,0.8244999999999999
0.8549618320610687,1.83206106870229,-1.4961832061068703,-0.4599609375,-0.0341796875,-0.187744140625,0.8261999999999999
0.7480916030534351,1.7557251908396947,-1.465648854961832,-0.455322265625,-0.039306640625,-0.191162109375,0.8279
0.7022900763358778,1.816793893129771,-1.4198473282442747,-0.461669921875,-0.041259765625,-0.197265625,0.8296
0.6870229007633588,1.5419847328244274,-1.297709923664122,-0.45654296875,-0.04345703125,-0.1982421875,0.8312999999999999
0.9923664122137404,1.6488549618320612,-1.2366412213740459,-0.457275390625,-0.038330078125,-0.188720703125,0.833
0.7175572519083969,1.8625954198473282,-1.3893129770992367,-0.4580078125,-0.04345703125,-0.18896484375,0.8347
0.9312977099236641,1.6793893129770991,-1.1908396946564885,-0.455078125,-0.0380859375,-0.18505859375,0.8363999999999999
0.8396946564885496,1.633587786259542,-1.297709923664122,-0.45361328125,-0.034423828125,-0.185546875,0.8381
0.9007633587786259,1.83206106870229,-1.297709923664122,-0.460693359375,-0.0390625,-0.19482421875,0.8398
0.7938931297709924,1.5877862595419847,-1.2213740458015268,-0.45703125,-0.04443359375,-0.191650390625,0.8414999999999999
0.8091603053435115,1.5572519083969465,-1.3129770992366412,-0.4560546875,-0.040771484375,-0.19091796875,0.8432
0.7480916030534351,1.5725190839694656,-1.1450381679389312,-0.455322265625,-0.0341796875,-0.19091796875,0.8449
0.8549618320610687,1.5572519083969465,-1.465648854961832,-0.457763671875,-0.038330078125,-0.19287109375,0.8465999999999999
0.8244274809160306,1.7251908396946565,-1.251908396946565,-0.458984375,-0.036376953125,-0.1923828125,0.8482999999999999
0.7480916030534351,1.7709923664122138,-1.2366412213740459,-0.458740234375,-0.039794921875,-0.190673828125,0.85
0.7175572519083969,1.5572519083969465,-1.1297709923664123,-0.45654296875,-0.03515625,-0.197265625,0.8516999999999999
1.0229007633587786,1.5267175572519085,-1.2213740458015268,-0.45654296875,-0.03662109375,-0.195556640625,0.8533999999999999
0.9465648854961832,1.6488549618320612,-1.1297709923664123,-0.458984375,-0.04541015625,-0.1982421875,0.8551
0.8091603053435115,1.5572519083969465,-1.297709923664122,-0.45703125,-0.03564453125,-0.19091796875,0.8568
0.916030534351145,1.6946564885496183,-1.1297709923664123,-0.460693359375,-0.034423828125,-0.185791015625,0.8584999999999999
0.9923664122137404,1.633587786259542,-1.1145038167938932,-0.4609375,-0.0361328125,-0.195556640625,0.8602
0.9312977099236641,1.7099236641221374,-1.1450381679389312,-0.4609375,-0.04052734375,-0.191650390625,0.8619
0.8854961832061069,1.6641221374045803,-1.3893129770992367,-0.455810546875,-0.038818359375,-0.2021484375,0.8635999999999999
0.9618320610687023,1.6793893129770991,-1.1908396946564885,-0.45556640625,-0.034423828125,-0.197265625,0.8653
1.2366412213740459,1.633587786259542,-1.2061068702290076,-0.4541015625,-0.037109375,-0.19140625,0.867
1.083969465648855,1.6793893129770991,-1.1908396946564885,-0.462890625,-0.032958984375,-0.19091796875,0.8686999999999999
1.1297709923664123,1.7557251908396947,-1.3282442748091603,-0.462890625,-0.03662109375,-0.1904296875,0.8704
1.1297709923664123,1.7709923664122138,-1.2366412213740459,-0.4560546875,-0.0361328125,-0.197998046875,0.8721
1.1297709923664123,1.8015267175572518,-1.1908396946564885,-0.454345703125,-0.034912109375,-0.1943359375,0.8737999999999999
0.9465648854961832,1.6641221374045803,-1.2061068702290076,-0.451904296875,-0.031005859375,-0.181884765625,0.8755
1.3129770992366412,1.5114503816793894,-1.3129770992366412,-0.458740234375,-0.03564453125,-0.193115234375,0.8772
1.1908396946564885,1.5725190839694656,-1.2213740458015268,-0.46142578125,-0.038330078125,-0.19677734375,0.8788999999999999
1.099236641221374,1.633587786259542,-1.2061068702290076,-0.45849609375,-0.0322265625,-0.199462890625,0.8805999999999999
1.3129770992366412,1.633587786259542,-1.0534351145038168,-0.458740234375,-0.033447265625,-0.198974609375,0.8823
1.2213740458015268,1.6641221374045803,-1.297709923664122,-0.4521484375,-0.03564453125,-0.196044921875,0.8839999999999999
1.2671755725190839,1.7099236641221374,-1.1297709923664123,-0.454833984375,-0.038818359375,-0.193115234375,0.8856999999999999
1.3893129770992367,1.7099236641221374,-1.2671755725190839,-0.4560546875,-0.040283203125,-0.18701171875,0.8874
1.4351145038167938,1.6641221374045803,-1.1450381679389312,-0.451416015625,-0.033935546875,-0.1865234375,0.8891
1.2671755725190839,1.633587786259542,-1.251908396946565,-0.4580078125,-0.0341796875,-0.184326171875,0.8907999999999999
1.3587786259541985,1.5725190839694656,-1.0687022900763359,-0.45947265625,-0.033203125,-0.1884765625,0.8925
1.4351145038167938,1.5114503816793894,-1.251908396946565,-0.453857421875,-0.03564453125,-0.197509765625,0.8942
1.3587786259541985,1.7099236641221374,-1.1755725190839694,-0.458984375,-0.0361328125,-0.18896484375,0.8958999999999999
1.3129770992366412,1.6946564885496183,-1.1755725190839694,-0.457763671875,-0.032470703125,-0.193115234375,0.8976
1.3129770992366412,1.4961832061068703,-1.0534351145038168,-0.459228515625,-0.03466796875,-0.196044921875,0.8993
1.3435114503816794,1.4961832061068703,-1.0687022900763359,-0.458984375,-0.039306640625,-0.19580078125,0.9009999999999999
1.6946564885496183,1.6946564885496183,-1.1145038167938932,-0.455078125,-0.033935546875,-0.1923828125,0.9027
1.3740458015267176,1.618320610687023,-1.1297709923664123,-0.454833984375,-0.036865234375,-0.194580078125,0.9044
1.2061068702290076,1.5877862595419847,-0.8549618320610687,-0.451904296875,-0.03662109375,-0.185302734375,0.9060999999999999
1.3740458015267176,1.7099236641221374,-1.2061068702290076,-0.4599609375,-0.037841796875,-0.18603515625,0.9077999999999999
1.297709923664122,1.6946564885496183,-1.0381679389312977,-0.457763671875,-0.039794921875,-0.193115234375,0.9095
1.4351145038167938,1.5725190839694656,-1.083969465648855,-0.452880859375,-0.033203125,-0.1865234375,0.9111999999999999
1.3893129770992367,1.6641221374045803,-0.9465648854961832,-0.457275390625,-0.03369140625,-0.1826171875,0.9128999999999999
1.4045801526717556,1.83206106870229,-1.099236641221374,-0.45751953125,-0.03369140625,-0.189697265625,0.9146
1.618320610687023,1.6946564885496183,-0.8854961832061069,-0.4609375,-0.038818359375,-0.18505859375,0.9163
1.4809160305343512,1.6030534351145038,-1.0381679389312977,-0.45654296875,-0.0361328125,-0.1923828125,0.9179999999999999
1.5572519083969465,1.786259541984733,-1.2061068702290076,-0.45703125,-0.037841796875,-0.1953125,0.9197
1.5419847328244274,1.6030534351145038,-1.2213740458015268,-0.45458984375,-0.03369140625,-0.1982421875,0.9214
1.3740458015267176,1.633587786259542,-1.1450381679389312,-0.46240234375,-0.02880859375,-0.19775390625,0.9230999999999999
1.6488549618320612,1.6641221374045803,-1.2061068702290076,-0.456787109375,-0.035888671875,-0.190185546875,0.9248
1.3282442748091603,1.618320610687023,-1.0687022900763359,-0.45068359375,-0.03662109375,-0.186279296875,0.9265
1.618320610687023,1.7099236641221374,-1.3129770992366412,-0.454833984375,-0.037353515625,-0.19091796875,0.9281999999999999
1.4961832061068703,1.7404580152671756,-1.1297709923664123,-0.457275390625,-0.0380859375,-0.187744140625,0.9299
1.5572519083969465,1.9083969465648856,-1.2213740458015268,-0.460693359375,-0.03955078125,-0.1865234375,0.9316
1.3740458015267176,1.6488549618320612,-1.1450381679389312,-0.457275390625,-0.0390625,-0.19775390625,0.9332999999999999
1.450381679389313,1.6641221374045803,-1.0381679389312977,-0.455810546875,-0.03564453125,-0.190673828125,0.9349999999999999
1.618320610687023,1.6030534351145038,-1.083969465648855,-0.45458984375,-0.040283203125,-0.201904296875,0.9367
1.633587786259542,1.7709923664122138,-1.2061068702290076,-0.45556640625,-0.03857421875,-0.1953125,0.9383999999999999
1.6030534351145038,1.633587786259542,-1.1145038167938932,-0.45361328125,-0.037353515625,-0.195556640625,0.9400999999999999
1.5114503816793894,1.4961832061068703,-1.2061068702290076,-0.456787109375,-0.03759765625,-0.198486328125,0.9418
1.7251908396946565,1.6488549618320612,-0.9923664122137404,-0.4521484375,-0.037109375,-0.189208984375,0.9434999999999999
1.450381679389313,1.4351145038167938,-1.1908396946564885,-0.458740234375,-0.036376953125,-0.2021484375,0.9451999999999999
1.4809160305343512,1.4198473282442747,-1.251908396946565,-0.458984375,-0.038330078125,-0.19287109375,0.9469
1.3893129770992367,1.450381679389313,-1.083969465648855,-0.45654296875,-0.037109375,-0.18603515625,0.9486
1.5114503816793894,1.3282442748091603,-1.1145038167938932,-0.45556640625,-0.037841796875,-0.1904296875,0.9502999999999999
1.7404580152671756,1.4809160305343512,-1.099236641221374,-0.457275390625,-0.03271484375,-0.1923828125,0.952
1.7404580152671756,1.5267175572519085,-0.9923664122137404,-0.458251953125,-0.039306640625,-0.1943359375,0.9537
1.4198473282442747,1.2671755725190839,-1.1450381679389312,-0.45703125,-0.037353515625,-0.1953125,0.9553999999999999
1.5725190839694656,1.2671755725190839,-1.0534351145038168,-0.45703125,-0.0419921875,-0.199462890625,0.9571
1.5114503816793894,1.3282442748091603,-1.0076335877862594,-0.4599609375,-0.03466796875,-0.188720703125,0.9588
1.4198473282442747,1.3740458015267176,-0.8854961832061069,-0.45703125,-0.033447265625,-0.1982421875,0.9604999999999999
1.3435114503816794,1.4809160305343512,-0.9312977099236641,-0.45703125,-0.041015625,-0.19921875,0.9621999999999999
1.5877862595419847,1.251908396946565,-1.1755725190839694,-0.459716796875,-0.039794921875,-0.193115234375,0.9639
1.4351145038167938,1.3129770992366412,-1.2061068702290076,-0.456298828125,-0.03515625,-0.198486328125,0.9655999999999999
1.3282442748091603,1.3740458015267176,-1.083969465648855,-0.461181640625,-0.0380859375,-0.1923828125,0.9672999999999999
1.5267175572519085,1.4961832061068703,-0.9770992366412213,-0.458984375,-0.043701171875,-0.1943359375,0.969
1.5267175572519085,1.6030534351145038,-0.9618320610687023,-0.458984375,-0.03857421875,-0.197265625,0.9706999999999999
1.4045801526717556,1.465648854961832,-0.8854961832061069,-0.458251953125,-0.0400390625,-0.1962890625,0.9723999999999999
1.297709923664122,1.4961832061068703,-0.8396946564885496,-0.451171875,-0.04443359375,-0.190185546875,0.9741
1.2366412213740459,1.3740458015267176,-0.9465648854961832,-0.4501953125,-0.04052734375,-0.1904296875,0.9758
1.282442748091603,1.3893129770992367,-0.8549618320610687,-0.456787109375,-0.040283203125,-0.19677734375,0.9774999999999999
1.1755725190839694,1.3893129770992367,-0.7633587786259542,-0.458251953125,-0.038818359375,-0.194091796875,0.9792
1.2213740458015268,1.4351145038167938,-0.8396946564885496,-0.454833984375,-0.0419921875,-0.197998046875,0.9809
1.2366412213740459,1.297709923664122,-0.7786259541984732,-0.456787109375,-0.03955078125,-0.1962890625,0.9825999999999999
1.0076335877862594,1.3129770992366412,-0.8244274809160306,-0.45849609375,-0.036865234375,-0.18798828125,0.9843
1.2213740458015268,1.3740458015267176,-0.7633587786259542,-0.4580078125,-0.0380859375,-0.1923828125,0.986
0.9465648854961832,1.1908396946564885,-0.7022900763358778,-0.453369140625,-0.042724609375,-0.195556640625,0.9876999999999999
1.1603053435114503,1.1755725190839694,-0.6870229007633588,-0.45947265625,-0.040771484375,-0.1953125,0.9894
0.916030534351145,1.1755725190839694,-0.6717557251908397,-0.4580078125,-0.037109375,-0.19580078125,0.9911
0.7633587786259542,1.0687022900763359,-0.7480916030534351,-0.4560546875,-0.038330078125,-0.18994140625,0.9927999999999999
0.9923664122137404,1.0229007633587786,-0.7480916030534351,-0.45703125,-0.041259765625,-0.18701171875,0.9944999999999999
0.8091603053435115,1.1908396946564885,-0.6564885496183206,-0.45751953125,-0.032958984375,-0.1904296875,0.9962
0.8091603053435115,1.083969465648855,-0.7633587786259542,-0.45458984375,-0.041259765625,-0.1884765625,0.9978999999999999
0.8396946564885496,1.1603053435114503,-0.6259541984732825,-0.45703125,-0.040771484375,-0.192626953125,0.9995999999999999
0.6106870229007634,1.1297709923664123,-0.916030534351145,-0.462158203125,-0.037841796875,-0.190673828125,1.0012999999999999
0.6412213740458015,1.0076335877862594,-0.8091603053435115,-0.457275390625,-0.03857421875,-0.194091796875,1.003
0.7175572519083969,1.0534351145038168,-0.7786259541984732,-0.45751953125,-0.0380859375,-0.18896484375,1.0047
0.6564885496183206,1.0076335877862594,-0.9770992366412213,-0.455810546875,-0.03857421875,-0.18359375,1.0064
0.5801526717557252,1.0381679389312977,-0.7480916030534351,-0.461669921875,-0.036865234375,-0.19580078125,1.0081
0.5038167938931297,1.1297709923664123,-0.7938931297709924,-0.458984375,-0.037841796875,-0.197509765625,1.0098
0.6717557251908397,1.1450381679389312,-0.916030534351145,-0.461181640625,-0.0390625,-0.189208984375,1.0114999999999998
0.48854961832061067,1.2213740458015268,-0.9312977099236641,-0.454833984375,-0.040283203125,-0.189697265625,1.0131999999999999
0.5343511450381679,0.9770992366412213,-0.916030534351145,-0.45947265625,-0.040771484375,-0.199462890625,1.0149
0.3816793893129771,1.099236641221374,-0.7480916030534351,-0.460205078125,-0.040283203125,-0.193603515625,1.0166
0.42748091603053434,1.282442748091603,-0.916030534351145,-0.4619140625,-0.037841796875,-0.201171875,1.0183
0.33587786259541985,1.1603053435114503,-0.8854961832061069,-0.460693359375,-0.039306640625,-0.19189453125,1.02
0.0,1.1297709923664123,-0.916030534351145,-0.45751953125,-0.037109375,-0.19580078125,1.0217
0.366412213740458,1.1450381679389312,-0.7175572519083969,-0.459228515625,-0.03662109375,-0.1884765625,1.0233999999999999
0.6259541984732825,1.1755725190839694,-0.916030534351145,-0.458984375,-0.036376953125,-0.18994140625,1.0251
0.5190839694656488,1.2366412213740459,-1.0534351145038168,-0.451171875,-0.036376953125,-0.19189453125,1.0268
0.32061068702290074,1.2213740458015268,-1.0076335877862594,-0.4638671875,-0.03466796875,-0.19189453125,1.0285
0.24427480916030533,1.1145038167938932,-0.8091603053435115,-0.4580078125,-0.0390625,-0.189697265625,1.0302
0.3053435114503817,1.1145038167938932,-1.0229007633587786,-0.455322265625,-0.0361328125,-0.19384765625,1.0319
0.2595419847328244,1.1908396946564885,-1.0534351145038168,-0.4599609375,-0.032958984375,-0.185302734375,1.0335999999999999
0.3053435114503817,1.2213740458015268,-0.9770992366412213,-0.455810546875,-0.037353515625,-0.1904296875,1.0352999999999999
0.2900763358778626,1.3282442748091603,-1.083969465648855,-0.458251953125,-0.034912109375,-0.18798828125,1.037
0.366412213740458,1.1450381679389312,-1.2366412213740459,-0.453857421875,-0.035400390625,-0.1982421875,1.0387
0.0916030534351145,1.2061068702290076,-0.9007633587786259,-0.459228515625,-0.03759765625,-0.1953125,1.0404
0.32061068702290074,1.0076335877862594,-1.0076335877862594,-0.45458984375,-0.03369140625,-0.193359375,1.0421
0.2595419847328244,1.083969465648855,-1.2061068702290076,-0.456298828125,-0.037841796875,-0.19287109375,1.0437999999999998
0.10687022900763359,1.1755725190839694,-1.2366412213740459,-0.453369140625,-0.037109375,-0.189208984375,1.0454999999999999
0.0,0.9770992366412213,-1.1145038167938932,-0.4560546875,-0.03564453125,-0.197998046875,1.0472
0.183206106870229,1.2061068702290076,-1.2671755725190839,-0.453857421875,-0.03564453125,-0.195068359375,1.0489
0.22900763358778625,1.083969465648855,-1.3587786259541985,-0.458984375,-0.037109375,-0.188232421875,1.0506
0.3969465648854962,0.8854961832061069,-1.297709923664122,-0.45654296875,-0.03369140625,-0.191162109375,1.0523
0.3511450381679389,1.083969465648855,-1.2671755725190839,-0.457275390625,-0.03662109375,-0.194091796875,1.054
0.32061068702290074,1.099236641221374,-1.3893129770992367,-0.45556640625,-0.035400390625,-0.191650390625,1.0556999999999999
0.2595419847328244,1.0076335877862594,-1.282442748091603,-0.45703125,-0.03662109375,-0.18603515625,1.0574
0.3511450381679389,1.0687022900763359,-1.3129770992366412,-0.452880859375,-0.038818359375,-0.18310546875,1.0591
0.549618320610687,1.083969465648855,-1.4045801526717556,-0.454833984375,-0.0400390625,-0.193115234375,1.0608
0.33587786259541985,0.8549618320610687,-1.297709923664122,-0.456787109375,-0.038330078125,-0.192138671875,1.0625
0.2748091603053435,0.9618320610687023,-1.1297709923664123,-0.455078125,-0.03564453125,-0.188232421875,1.0642
0.6564885496183206,0.9465648854961832,-1.3282442748091603,-0.458984375,-0.0341796875,-0.189208984375,1.0658999999999998
0.3816793893129771,1.0076335877862594,-1.0687022900763359,-0.4521484375,-0.03125,-0.1845703125,1.0675999999999999
0.4122137404580153,1.083969465648855,-1.3129770992366412,-0.45263671875,-0.033935546875,-0.181640625,1.0693
0.7480916030534351,0.9923664122137404,-1.1297709923664123,-0.44970703125,-0.029052734375,-0.187744140625,1.071
0.5648854961832062,0.9312977099236641,-1.3587786259541985,-0.46044921875,-0.0322265625,-0.193359375,1.0727
0.6564885496183206,1.1297709923664123,-1.297709923664122,-0.4580078125,-0.0341796875,-0.18798828125,1.0744
0.6870229007633588,0.9465648854961832,-1.3282442748091603,-0.458984375,-0.029541015625,-0.198486328125,1.0760999999999998
0.8244274809160306,0.9465648854961832,-1.3129770992366412,-0.462890625,-0.03125,-0.185791015625,1.0777999999999999
0.732824427480916,1.0076335877862594,-1.3435114503816794,-0.458740234375,-0.028076171875,-0.197998046875,1.0795
0.7480916030534351,1.0076335877862594,-1.282442748091603,-0.45751953125,-0.03076171875,-0.19140625,1.0812
0.7633587786259542,0.916030534351145,-1.3435114503816794,-0.459228515625,-0.0361328125,-0.186767578125,1.0829
0.8549618320610687,0.9465648854961832,-1.2366412213740459,-0.454833984375,-0.034912109375,-0.19189453125,1.0846
0.9312977099236641,1.1297709923664123,-1.3740458015267176,-0.455322265625,-0.033935546875,-0.1953125,1.0863
0.9312977099236641,0.9465648854961832,-1.4045801526717556,-0.45361328125,-0.02978515625,-0.19140625,1.0879999999999999
1.1297709923664123,0.9770992366412213,-1.4809160305343512,-0.45458984375,-0.031005859375,-0.190673828125,1.0897
1.0534351145038168,1.0076335877862594,-1.4198473282442747,-0.452392578125,-0.03564453125,-0.188232421875,1.0914
1.0687022900763359,0.9007633587786259,-1.4351145038167938,-0.455810546875,-0.03515625,-0.184814453125,1.0931
1.4351145038167938,0.9618320610687023,-1.297709923664122,-0.45703125,-0.033447265625,-0.18212890625,1.0948
1.2213740458015268,0.8854961832061069,-1.6488549618320612,-0.461181640625,-0.03271484375,-0.182373046875,1.0965
1.0381679389312977,0.8854961832061069,-1.3740458015267176,-0.458740234375,-0.032470703125,-0.1953125,1.0981999999999998
1.3893129770992367,0.9465648854961832,-1.5114503816793894,-0.461181640625,-0.037109375,-0.199951171875,1.0998999999999999
1.3435114503816794,0.8854961832061069,-1.282442748091603,-0.456787109375,-0.038818359375,-0.19091796875,1.1016
1.3587786259541985,0.7938931297709924,-1.4809160305343512,-0.44970703125,-0.03369140625,-0.188720703125,1.1033
1.465648854961832,0.9007633587786259,-1.4961832061068703,-0.456298828125,-0.032958984375,-0.190673828125,1.105
1.5877862595419847,1.2366412213740459,-1.4961832061068703,-0.458740234375,-0.038818359375,-0.193115234375,1.1067
1.4198473282442747,1.1145038167938932,-1.4351145038167938,-0.462158203125,-0.032470703125,-0.191162109375,1.1083999999999998
1.450381679389313,1.1297709923664123,-1.5419847328244274,-0.458740234375,-0.032958984375,-0.188720703125,1.1100999999999999
1.618320610687023,1.4809160305343512,-1.2366412213740459,-0.4599609375,-0.037841796875,-0.189208984375,1.1118
1.8625954198473282,1.3129770992366412,-1.5572519083969465,-0.457763671875,-0.0341796875,-0.199462890625,1.1135
1.7099236641221374,1.2366412213740459,-1.4198473282442747,-0.46142578125,-0.03857421875,-0.1865234375,1.1152
1.5572519083969465,1.3740458015267176,-1.4961832061068703,-0.45703125,-0.04248046875,-0.198974609375,1.1169
1.8473282442748091,1.1755725190839694,-1.5419847328244274,-0.4580078125,-0.0361328125,-0.19189453125,1.1186
1.6793893129770991,1.297709923664122,-1.5572519083969465,-0.456298828125,-0.035888671875,-0.194091796875,1.1202999999999999
1.633587786259542,1.1755725190839694,-1.3893129770992367,-0.461181640625,-0.0380859375,-0.19580078125,1.1219999999999999
1.8015267175572518,1.3129770992366412,-1.5419847328244274,-0.45703125,-0.038818359375,-0.188232421875,1.1237
1.816793893129771,1.1908396946564885,-1.450381679389313,-0.454833984375,-0.033935546875,-0.1943359375,1.1254
1.7557251908396947,1.2671755725190839,-1.4961832061068703,-0.45703125,-0.034423828125,-0.19140625,1.1271
1.83206106870229,1.297709923664122,-1.4198473282442747,-0.460205078125,-0.03515625,-0.1865234375,1.1288
1.8473282442748091,1.1450381679389312,-1.6641221374045803,-0.458251953125,-0.0390625,-0.19189453125,1.1304999999999998
1.8015267175572518,1.2671755725190839,-1.4198473282442747,-0.458740234375,-0.0361328125,-0.19091796875,1.1321999999999999
1.9389312977099236,1.282442748091603,-1.5419847328244274,-0.4560546875,-0.0361328125,-0.192626953125,1.1339
1.8625954198473282,1.1603053435114503,-1.4961832061068703,-0.45947265625,-0.034423828125,-0.189697265625,1.1356
2.0,1.3893129770992367,-1.618320610687023,-0.467529296875,-0.0361328125,-0.183349609375,1.1373
1.8015267175572518,1.4045801526717556,-1.4045801526717556,-0.462646484375,-0.036376953125,-0.18798828125,1.139
2.015267175572519,1.2061068702290076,-1.6946564885496183,-0.458984375,-0.03955078125,-0.18603515625,1.1407
2.0763358778625953,1.251908396946565,-1.4809160305343512,-0.457275390625,-0.038330078125,-0.20166015625,1.1423999999999999
2.030534351145038,1.3435114503816794,-1.4351145038167938,-0.45458984375,-0.03662109375,-0.1962890625,1.1441
2.030534351145038,1.297709923664122,-1.465648854961832,-0.455322265625,-0.0361328125,-0.193359375,1.1458
1.9389312977099236,1.3587786259541985,-1.633587786259542,-0.460205078125,-0.0390625,-0.189208984375,1.1475
1.8473282442748091,1.5419847328244274,-1.5572519083969465,-0.4599609375,-0.03857421875,-0.19384765625,1.1492
1.9236641221374047,1.4045801526717556,-1.5572519083969465,-0.46142578125,-0.032470703125,-0.1953125,1.1509
2.1374045801526718,1.4045801526717556,-1.6030534351145038,-0.45849609375,-0.03515625,-0.1875,1.1525999999999998
2.015267175572519,1.465648854961832,-1.6793893129770991,-0.45849609375,-0.036865234375,-0.190185546875,1.1542999999999999
1.8778625954198473,1.4961832061068703,-1.5114503816793894,-0.456298828125,-0.042236328125,-0.18603515625,1.156
1.6793893129770991,1.4961832061068703,-1.6030534351145038,-0.4619140625,-0.03369140625,-0.196533203125,1.1577
1.8625954198473282,1.3587786259541985,-1.5572519083969465,-0.45947265625,-0.0361328125,-0.19384765625,1.1594
1.9541984732824427,1.4809160305343512,-1.7709923664122138,-0.45849609375,-0.037109375,-0.1904296875,1.1611
2.198473282442748,1.5114503816793894,-1.633587786259542,-0.455810546875,-0.040283203125,-0.1884765625,1.1627999999999998
1.8473282442748091,1.4351145038167938,-1.5419847328244274,-0.45849609375,-0.04248046875,-0.1904296875,1.1644999999999999
2.015267175572519,1.5267175572519085,-1.5114503816793894,-0.45458984375,-0.03857421875,-0.194091796875,1.1662
1.9694656488549618,1.3435114503816794,-1.5114503816793894,-0.453369140625,-0.03662109375,-0.189208984375,1.1679
1.786259541984733,1.3435114503816794,-1.6030534351145038,-0.462158203125,-0.040283203125,-0.191162109375,1.1696
1.816793893129771,1.5572519083969465,-1.465648854961832,-0.45556640625,-0.038330078125,-0.19140625,1.1713
1.9083969465648856,1.251908396946565,-1.5572519083969465,-0.45849609375,-0.041015625,-0.1904296875,1.173
1.7404580152671756,1.2213740458015268,-1.5419847328244274,-0.45751953125,-0.038818359375,-0.193603515625,1.1746999999999999
1.6488549618320612,1.5267175572519085,-1.6641221374045803,-0.458984375,-0.03466796875,-0.188720703125,1.1764
1.8625954198473282,1.6488549618320612,-1.6946564885496183,-0.457763671875,-0.0361328125,-0.18994140625,1.1781
1.7099236641221374,1.4961832061068703,-1.6488549618320612,-0.461669921875,-0.038330078125,-0.191162109375,1.1798
1.4961832061068703,1.5419847328244274,-1.3740458015267176,-0.458984375,-0.0380859375,-0.192138671875,1.1815
1.5725190839694656,1.618320610687023,-1.5114503816793894,-0.455322265625,-0.03662109375,-0.187744140625,1.1832
1.6488549618320612,1.6946564885496183,-1.2671755725190839,-0.460205078125,-0.037841796875,-0.192626953125,1.1848999999999998
1.5725190839694656,1.6946564885496183,-1.5572519083969465,-0.459716796875,-0.03955078125,-0.197998046875,1.1865999999999999
1.5419847328244274,1.6946564885496183,-1.5877862595419847,-0.45849609375,-0.03857421875,-0.18798828125,1.1883
1.5877862595419847,1.9694656488549618,-1.3435114503816794,-0.45556640625,-0.034912109375,-0.19677734375,1.19
1.618320610687023,1.5725190839694656,-1.5725190839694656,-0.453857421875,-0.045166015625,-0.17919921875,1.1917
1.7404580152671756,1.7251908396946565,-1.5419847328244274,-0.4560546875,-0.035400390625,-0.195556640625,1.1934
1.6030534351145038,1.786259541984733,-1.4809160305343512,-0.456787109375,-0.036376953125,-0.19140625,1.1950999999999998
1.5267175572519085,1.786259541984733,-1.5267175572519085,-0.460693359375,-0.0380859375,-0.191162109375,1.1967999999999999
1.6030534351145038,1.7557251908396947,-1.5572519083969465,-0.4580078125,-0.03125,-0.1884765625,1.1985
1.5114503816793894,1.83206106870229,-1.4809160305343512,-0.455322265625,-0.033935546875,-0.194580078125,1.2002
1.5572519083969465,1.7404580152671756,-1.5725190839694656,-0.45458984375,-0.03466796875,-0.1982421875,1.2019
1.4961832061068703,1.786259541984733,-1.4809160305343512,-0.45703125,-0.03515625,-0.194580078125,1.2036
1.4198473282442747,1.8931297709923665,-1.450381679389313,-0.4599609375,-0.03271484375,-0.189697265625,1.2053
1.2366412213740459,1.9389312977099236,-1.450381679389313,-0.453369140625,-0.03662109375,-0.190673828125,1.2069999999999999
1.3740458015267176,1.83206106870229,-1.450381679389313,-0.460205078125,-0.0361328125,-0.195068359375,1.2086999999999999
1.4961832061068703,1.786259541984733,-1.4351145038167938,-0.45849609375,-0.035888671875,-0.1923828125,1.2104
1.465648854961832,1.9541984732824427,-1.3129770992366412,-0.457763671875,-0.037353515625,-0.19384765625,1.2121
1.5267175572519085,1.7404580152671756,-1.4198473282442747,-0.45703125,-0.038330078125,-0.199951171875,1.2138
1.1908396946564885,1.9694656488549618,-1.282442748091603,-0.4619140625,-0.035400390625,-0.199951171875,1.2155
1.5572519083969465,1.786259541984733,-1.4961832061068703,-0.460205078125,-0.036865234375,-0.20263671875,1.2171999999999998
1.4198473282442747,1.83206106870229,-1.3129770992366412,-0.4560546875,-0.0380859375,-0.194091796875,1.2188999999999999
1.1755725190839694,1.8015267175572518,-1.3129770992366412,-0.45849609375,-0.03271484375,-0.19384765625,1.2206
1.465648854961832,1.83206106870229,-1.3435114503816794,-0.456298828125,-0.037109375,-0.191162109375,1.2223
1.5114503816793894,1.816793893129771,-1.450381679389313,-0.458984375,-0.035400390625,-0.19677734375,1.224
1.4198473282442747,1.7404580152671756,-1.1297709923664123,-0.4580078125,-0.0341796875,-0.19140625,1.2257
1.3587786259541985,1.7251908396946565,-1.465648854961832,-0.456298828125,-0.0361328125,-0.196533203125,1.2273999999999998
1.297709923664122,1.83206106870229,-1.3587786259541985,-0.455810546875,-0.037841796875,-0.188232421875,1.2290999999999999
1.5114503816793894,1.6946564885496183,-1.3740458015267176,-0.45556640625,-0.0380859375,-0.200439453125,1.2308
1.6946564885496183,1.7709923664122138,-1.3282442748091603,-0.449462890625,-0.03466796875,-0.193115234375,1.2325
1.465648854961832,1.6488549618320612,-1.3893129770992367,-0.455322265625,-0.031982421875,-0.20458984375,1.2342
1.4045801526717556,1.6488549618320612,-1.3893129770992367,-0.458740234375,-0.030029296875,-0.1982421875,1.2359
1.3129770992366412,1.6488549618320612,-1.297709923664122,-0.45703125,-0.037353515625,-0.197509765625,1.2376
1.4809160305343512,1.6793893129770991,-1.282442748091603,-0.45947265625,-0.034912109375,-0.2021484375,1.2392999999999998
1.5572519083969465,1.7251908396946565,-1.3893129770992367,-0.45654296875,-0.031982421875,-0.206787109375,1.2409999999999999
1.6793893129770991,1.5114503816793894,-1.2671755725190839,-0.4560546875,-0.038818359375,-0.197998046875,1.2427
1.7709923664122138,1.6488549618320612,-1.4961832061068703,-0.45654296875,-0.0361328125,-0.1923828125,1.2444
1.4809160305343512,1.5877862595419847,-1.4809160305343512,-0.45556640625,-0.037109375,-0.189453125,1.2461
1.450381679389313,1.4198473282442747,-1.3893129770992367,-0.454833984375,-0.035400390625,-0.19140625,1.2478
1.6793893129770991,1.4961832061068703,-1.2061068702290076,-0.4619140625,-0.036865234375,-0.18798828125,1.2494999999999998
1.7099236641221374,1.465648854961832,-1.4045801526717556,-0.45556640625,-0.039794921875,-0.19775390625,1.2511999999999999
1.6641221374045803,1.5877862595419847,-1.2366412213740459,-0.4501953125,-0.036865234375,-0.19677734375,1.2529
1.8015267175572518,1.4961832061068703,-1.1450381679389312,-0.455810546875,-0.036865234375,-0.19091796875,1.2546
1.6030534351145038,1.282442748091603,-1.2671755725190839,-0.45458984375,-0.032958984375,-0.19091796875,1.2563
1.8015267175572518,1.2366412213740459,-1.099236641221374,-0.455810546875,-0.033447265625,-0.19140625,1.258
1.8931297709923665,1.3129770992366412,-1.0381679389312977,-0.452880859375,-0.036376953125,-0.19384765625,1.2596999999999998
1.6946564885496183,1.1755725190839694,-1.1450381679389312,-0.45556640625,-0.037109375,-0.193359375,1.2613999999999999
1.816793893129771,1.1755725190839694,-1.0381679389312977,-0.45703125,-0.03466796875,-0.1884765625,1.2631
1.6030534351145038,1.1297709923664123,-1.0381679389312977,-0.458984375,-0.03564453125,-0.18798828125,1.2648
1.83206106870229,1.1145038167938932,-0.8549618320610687,-0.454345703125,-0.03662109375,-0.193603515625,1.2665
1.5419847328244274,1.2213740458015268,-0.9312977099236641,-0.452880859375,-0.03759765625,-0.192138671875,1.2682
1.6793893129770991,1.1908396946564885,-0.5954198473282443,-0.45458984375,-0.042724609375,-0.206787109375,1.2699
1.618320610687023,1.2366412213740459,-0.8244274809160306,-0.45263671875,-0.0400390625,-0.193359375,1.2715999999999998
1.7709923664122138,1.297709923664122,-0.7175572519083969,-0.45458984375,-0.0361328125,-0.199462890625,1.2732999999999999
1.8015267175572518,1.2061068702290076,-0.7786259541984732,-0.454833984375,-0.037353515625,-0.190185546875,1.275
1.6030534351145038,1.2061068702290076,-0.5343511450381679,-0.457275390625,-0.0390625,-0.1943359375,1.2767
1.5725190839694656,1.1908396946564885,-0.7022900763358778,-0.458251953125,-0.041748046875,-0.193603515625,1.2784
1.5877862595419847,1.1145038167938932,-0.7022900763358778,-0.458740234375,-0.04345703125,-0.199462890625,1.2801
1.465648854961832,1.282442748091603,-0.6564885496183206,-0.45751953125,-0.032958984375,-0.196044921875,1.2817999999999998
1.7557251908396947,1.1450381679389312,-0.5648854961832062,-0.461181640625,-0.0322265625,-0.194580078125,1.2834999999999999
1.618320610687023,1.0687022900763359,-0.5190839694656488,-0.4599609375,-0.037841796875,-0.195068359375,1.2852
1.4809160305343512,1.0534351145038168,-0.5038167938931297,-0.4560546875,-0.040283203125,-0.19140625,1.2869
1.4961832061068703,1.0534351145038168,-0.6412213740458015,-0.45068359375,-0.041015625,-0.19091796875,1.2886
1.5877862595419847,0.9312977099236641,-0.6412213740458015,-0.450927734375,-0.037841796875,-0.18994140625,1.2903
1.7251908396946565,1.0534351145038168,-0.7480916030534351,-0.4580078125,-0.037109375,-0.1982421875,1.292
1.816793893129771,1.0687022900763359,-0.6412213740458015,-0.45458984375,-0.033935546875,-0.195068359375,1.2936999999999999
1.5572519083969465,0.9007633587786259,-0.732824427480916,-0.45703125,-0.03369140625,-0.2001953125,1.2953999999999999
1.5725190839694656,1.1908396946564885,-0.6259541984732825,-0.459716796875,-0.03515625,-0.194580078125,1.2971
1.7709923664122138,1.1603053435114503,-0.732824427480916,-0.454345703125,-0.034423828125,-0.1865234375,1.2988
1.6641221374045803,1.083969465648855,-0.7175572519083969,-0.45703125,-0.03759765625,-0.188232421875,1.3005
1.6488549618320612,1.083969465648855,-0.7633587786259542,-0.46044921875,-0.0341796875,-0.193115234375,1.3022
1.6488549618320612,1.0229007633587786,-0.6259541984732825,-0.45849609375,-0.034912109375,-0.1923828125,1.3038999999999998
1.7099236641221374,1.0534351145038168,-0.9007633587786259,-0.45947265625,-0.033935546875,-0.1982421875,1.3055999999999999
1.5419847328244274,1.1908396946564885,-1.0534351145038168,-0.4599609375,-0.03662109375,-0.197265625,1.3073
1.3893129770992367,1.083969465648855,-0.8091603053435115,-0.455810546875,-0.034912109375,-0.19091796875,1.309
1.465648854961832,1.1297709923664123,-0.732824427480916,-0.459228515625,-0.03564453125,-0.19189453125,1.3107
1.4198473282442747,1.1755725190839694,-0.916030534351145,-0.45703125,-0.0419921875,-0.19287109375,1.3124
1.4198473282442747,1.1908396946564885,-1.083969465648855,-0.461181640625,-0.03857421875,-0.1982421875,1.3140999999999998
1.4961832061068703,1.2213740458015268,-1.083969465648855,-0.465087890625,-0.03369140625,-0.192626953125,1.3157999999999999
1.2671755725190839,1.1145038167938932,-0.8854961832061069,-0.45654296875,-0.0361328125,-0.196533203125,1.3175
1.450381679389313,1.4351145038167938,-1.1908396946564885,-0.458251953125,-0.0380859375,-0.18408203125,1.3192
1.5267175572519085,1.4045801526717556,-1.2366412213740459,-0.46142578125,-0.031494140625,-0.190673828125,1.3209
1.2671755725190839,1.3282442748091603,-1.1603053435114503,-0.45947265625,-0.03759765625,-0.1904296875,1.3226
1.4351145038167938,1.5114503816793894,-1.0229007633587786,-0.46337890625,-0.036376953125,-0.189208984375,1.3243
1.2061068702290076,1.6641221374045803,-1.0534351145038168,-0.459228515625,-0.039794921875,-0.19140625,1.3259999999999998
1.3893129770992367,1.786259541984733,-1.1145038167938932,-0.4638671875,-0.04150390625,-0.1943359375,1.3276999999999999
1.2366412213740459,1.6488549618320612,-1.297709923664122,-0.4609375,-0.038818359375,-0.193603515625,1.3294
0.9923664122137404,1.618320610687023,-1.1603053435114503,-0.463134765625,-0.033935546875,-0.199951171875,1.3311
1.3282442748091603,1.8778625954198473,-1.2671755725190839,-0.462158203125,-0.035400390625,-0.189453125,1.3328
1.282442748091603,1.9236641221374047,-1.3282442748091603,-0.45703125,-0.03515625,-0.182861328125,1.3345
1.297709923664122,1.83206106870229,-1.450381679389313,-0.460693359375,-0.03662109375,-0.191162109375,1.3361999999999998
1.3893129770992367,1.8625954198473282,-1.282442748091603,-0.455322265625,-0.03955078125,-0.197021484375,1.3378999999999999
1.282442748091603,1.8778625954198473,-1.465648854961832,-0.455322265625,-0.04052734375,-0.191162109375,1.3396
1.2213740458015268,2.0,-1.4809160305343512,-0.458740234375,-0.034912109375,-0.186279296875,1.3413
1.2366412213740459,1.9541984732824427,-1.5114503816793894,-0.45458984375,-0.030029296875,-0.19189453125,1.343
1.5114503816793894,1.984732824427481,-1.633587786259542,-0.45703125,-0.034912109375,-0.19189453125,1.3447
1.4961832061068703,1.9389312977099236,-1.7404580152671756,-0.4580078125,-0.033447265625,-0.19091796875,1.3463999999999998
1.3282442748091603,2.0,-1.5877862595419847,-0.46240234375,-0.035400390625,-0.189208984375,1.3480999999999999
1.3282442748091603,1.9083969465648856,-1.7251908396946565,-0.458251953125,-0.03271484375,-0.19287109375,1.3497999999999999
1.2366412213740459,1.8778625954198473,-1.5267175572519085,-0.455322265625,-0.03662109375,-0.197021484375,1.3515
1.5267175572519085,1.9541984732824427,-1.8778625954198473,-0.458740234375,-0.0361328125,-0.184326171875,1.3532
1.450381679389313,1.9389312977099236,-1.6946564885496183,-0.457763671875,-0.034423828125,-0.195556640625,1.3549
1.1908396946564885,1.816793893129771,-1.7099236641221374,-0.45703125,-0.036865234375,-0.196044921875,1.3566
1.4045801526717556,1.7709923664122138,-1.6946564885496183,-0.459716796875,-0.033935546875,-0.199462890625,1.3582999999999998
1.3740458015267176,1.7404580152671756,-1.8625954198473282,-0.457275390625,-0.03662109375,-0.189208984375,1.3599999999999999
1.3282442748091603,1.7251908396946565,-1.7709923664122138,-0.45703125,-0.03564453125,-0.19140625,1.3617
1.7099236641221374,1.9236641221374047,-1.83206106870229,-0.45361328125,-0.034423828125,-0.189697265625,1.3634
1.5114503816793894,1.786259541984733,-1.7709923664122138,-0.463134765625,-0.03662109375,-0.1982421875,1.3651
1.450381679389313,1.7709923664122138,-1.6030534351145038,-0.454345703125,-0.03564453125,-0.1943359375,1.3668
1.5877862595419847,1.8778625954198473,-1.816793893129771,-0.452880859375,-0.02783203125,-0.193115234375,1.3684999999999998
1.6488549618320612,1.8931297709923665,-1.9694656488549618,-0.454345703125,-0.037109375,-0.19921875,1.3701999999999999
1.2213740458015268,1.786259541984733,-1.83206106870229,-0.456787109375,-0.034423828125,-0.194091796875,1.3719
1.3740458015267176,1.8778625954198473,-1.9083969465648856,-0.45458984375,-0.04052734375,-0.19287109375,1.3736
1.6793893129770991,1.7557251908396947,-1.816793893129771,-0.454345703125,-0.041015625,-0.191650390625,1.3753
1.6030534351145038,1.6946564885496183,-1.7709923664122138,-0.4521484375,-0.045654296875,-0.1953125,1.377
1.5877862595419847,1.6946564885496183,-1.83206106870229,-0.455078125,-0.037841796875,-0.197021484375,1.3786999999999998
1.618320610687023,1.816793893129771,-1.83206106870229,-0.45458984375,-0.03759765625,-0.191650390625,1.3803999999999998
1.6030534351145038,1.633587786259542,-1.618320610687023,-0.45751953125,-0.033935546875,-0.191162109375,1.3820999999999999
1.4961832061068703,1.3893129770992367,-1.7099236641221374,-0.4501953125,-0.035888671875,-0.189453125,1.3838
1.6030534351145038,1.6030534351145038,-1.5419847328244274,-0.452392578125,-0.03564453125,-0.201171875,1.3855
1.6641221374045803,1.2366412213740459,-1.5572519083969465,-0.4541015625,-0.033447265625,-0.193359375,1.3872
1.6793893129770991,1.282442748091603,-1.4351145038167938,-0.45556640625,-0.03662109375,-0.19580078125,1.3889
1.6488549618320612,1.3740458015267176,-1.3893129770992367,-0.45654296875,-0.04150390625,-0.1943359375,1.3905999999999998
1.6488549618320612,1.3129770992366412,-1.282442748091603,-0.455078125,-0.038330078125,-0.195556640625,1.3922999999999999
1.8625954198473282,1.1908396946564885,-1.3282442748091603,-0.459228515625,-0.033935546875,-0.19384765625,1.394
1.633587786259542,1.1450381679389312,-1.251908396946565,-0.45458984375,-0.037841796875,-0.19189453125,1.3957
1.7557251908396947,1.0534351145038168,-1.1755725190839694,-0.45361328125,-0.0322265625,-0.196533203125,1.3974
1.7251908396946565,1.1908396946564885,-1.282442748091603,-0.457275390625,-0.037109375,-0.18505859375,1.3991
1.83206106870229,0.9923664122137404,-1.083969465648855,-0.454345703125,-0.032958984375,-0.1865234375,1.4007999999999998
1.9541984732824427,0.8549618320610687,-1.0229007633587786,-0.46533203125,-0.035888671875,-0.199462890625,1.4024999999999999
1.7404580152671756,1.0534351145038168,-1.0381679389312977,-0.457275390625,-0.03173828125,-0.193603515625,1.4042
1.6641221374045803,1.099236641221374,-1.1145038167938932,-0.455322265625,-0.038330078125,-0.189208984375,1.4059
1.9236641221374047,1.1145038167938932,-1.1297709923664123,-0.454833984375,-0.0380859375,-0.19091796875,1.4076
2.0610687022900764,1.0076335877862594,-1.1145038167938932,-0.457763671875,-0.031982421875,-0.19970703125,1.4093
2.0763358778625953,1.0229007633587786,-0.9770992366412213,-0.457763671875,-0.041259765625,-0.19287109375,1.411
2.0,1.1755725190839694,-0.9770992366412213,-0.457275390625,-0.04248046875,-0.193603515625,1.4126999999999998
2.045801526717557,1.099236641221374,-1.1450381679389312,-0.45703125,-0.037353515625,-0.186767578125,1.4143999999999999
2.0,1.0687022900763359,-0.9770992366412213,-0.45556640625,-0.03662109375,-0.186767578125,1.4161
2.1374045801526718,1.0687022900763359,-0.8244274809160306,-0.45947265625,-0.033203125,-0.19189453125,1.4178
2.0,1.1145038167938932,-0.9770992366412213,-0.459228515625,-0.03564453125,-0.194580078125,1.4195
2.183206106870229,1.2671755725190839,-0.8702290076335878,-0.45849609375,-0.035888671875,-0.189208984375,1.4212
2.0916030534351147,1.3893129770992367,-0.9007633587786259,-0.453857421875,-0.036865234375,-0.1826171875,1.4228999999999998
1.984732824427481,1.1145038167938932,-0.916030534351145,-0.45947265625,-0.035400390625,-0.186767578125,1.4245999999999999
2.0916030534351147,1.0687022900763359,-0.9618320610687023,-0.462646484375,-0.038330078125,-0.19873046875,1.4263
2.0763358778625953,1.3129770992366412,-0.8396946564885496,-0.462158203125,-0.037841796875,-0.18505859375,1.428
1.8931297709923665,1.3587786259541985,-0.9465648854961832,-0.45751953125,-0.03564453125,-0.18359375,1.4297
2.0,1.3740458015267176,-0.8549618320610687,-0.4560546875,-0.0380859375,-0.19580078125,1.4314
2.1526717557251906,1.3435114503816794,-0.7938931297709924,-0.46142578125,-0.031982421875,-0.187744140625,1.4330999999999998
2.0763358778625953,1.3587786259541985,-0.7022900763358778,-0.45556640625,-0.03515625,-0.189208984375,1.4347999999999999
2.0,1.465648854961832,-0.7175572519083969,-0.456787109375,-0.042724609375,-0.19140625,1.4364999999999999
1.9083969465648856,1.4809160305343512,-0.6412213740458015,-0.458251953125,-0.035888671875,-0.197265625,1.4382
1.7557251908396947,1.4198473282442747,-1.0534351145038168,-0.457763671875,-0.035400390625,-0.195068359375,1.4399
1.8015267175572518,1.4351145038167938,-0.6717557251908397,-0.46044921875,-0.037353515625,-0.19384765625,1.4416
1.9541984732824427,1.4351145038167938,-0.8854961832061069,-0.4560546875,-0.03662109375,-0.19482421875,1.4433
1.7251908396946565,1.4351145038167938,-0.9465648854961832,-0.459716796875,-0.0341796875,-0.197265625,1.4449999999999998
1.8473282442748091,1.282442748091603,-0.9923664122137404,-0.458984375,-0.0390625,-0.189208984375,1.4466999999999999
1.8015267175572518,1.5114503816793894,-0.7938931297709924,-0.45849609375,-0.038330078125,-0.1923828125,1.4484
1.7557251908396947,1.4351145038167938,-0.916030534351145,-0.4541015625,-0.03564453125,-0.196533203125,1.4501
1.7709923664122138,1.2671755725190839,-0.8854961832061069,-0.455078125,-0.035888671875,-0.192626953125,1.4518
1.7557251908396947,1.282442748091603,-0.8396946564885496,-0.454833984375,-0.037841796875,-0.189453125,1.4535
1.5877862595419847,1.5877862595419847,-0.7786259541984732,-0.46337890625,-0.041748046875,-0.19189453125,1.4551999999999998
1.5572519083969465,1.3587786259541985,-1.0229007633587786,-0.465576171875,-0.04150390625,-0.19140625,1.4568999999999999
1.465648854961832,1.3893129770992367,-0.9923664122137404,-0.460693359375,-0.037841796875,-0.19677734375,1.4586
1.4045801526717556,1.450381679389313,-1.1145038167938932,-0.460693359375,-0.03759765625,-0.197265625,1.4603
1.3282442748091603,1.5114503816793894,-1.1603053435114503,-0.461181640625,-0.03955078125,-0.19677734375,1.462
1.2671755725190839,1.5725190839694656,-1.083969465648855,-0.456787109375,-0.04052734375,-0.19189453125,1.4637
1.3129770992366412,1.5114503816793894,-1.0381679389312977,-0.458984375,-0.038330078125,-0.19775390625,1.4653999999999998
1.4351145038167938,1.450381679389313,-1.2671755725190839,-0.458740234375,-0.03466796875,-0.1826171875,1.4670999999999998
1.1908396946564885,1.5725190839694656,-1.083969465648855,-0.456787109375,-0.03857421875,-0.18896484375,1.4687999999999999
1.297709923664122,1.5419847328244274,-1.1603053435114503,-0.453857421875,-0.035888671875,-0.19580078125,1.4705
1.0076335877862594,1.4351145038167938,-1.1297709923664123,-0.4619140625,-0.0390625,-0.19873046875,1.4722
0.8549618320610687,1.465648854961832,-1.3282442748091603,-0.461181640625,-0.04150390625,-0.187744140625,1.4739
1.2061068702290076,1.4198473282442747,-1.1908396946564885,-0.45703125,-0.0400390625,-0.18896484375,1.4756
1.099236641221374,1.633587786259542,-1.3435114503816794,-0.45458984375,-0.036376953125,-0.191162109375,1.4772999999999998
1.0229007633587786,1.5267175572519085,-1.4351145038167938,-0.459228515625,-0.028076171875,-0.193359375,1.4789999999999999
1.1145038167938932,1.4045801526717556,-1.5572519083969465,-0.455810546875,-0.034912109375,-0.189453125,1.4807
1.0229007633587786,1.5267175572519085,-1.4351145038167938,-0.458740234375,-0.03759765625,-0.183349609375,1.4824
0.8091603053435115,1.4961832061068703,-1.5572519083969465,-0.462646484375,-0.034912109375,-0.19580078125,1.4841
1.0687022900763359,1.4809160305343512,-1.5572519083969465,-0.458740234375,-0.04052734375,-0.18798828125,1.4858
0.9465648854961832,1.83206106870229,-1.5572519083969465,-0.459228515625,-0.038818359375,-0.195068359375,1.4874999999999998
0.8702290076335878,1.7557251908396947,-1.4198473282442747,-0.4580078125,-0.038330078125,-0.18798828125,1.4891999999999999
0.9312977099236641,1.7251908396946565,-1.7099236641221374,-0.462890625,-0.035400390625,-0.192626953125,1.4909
0.9618320610687023,1.7404580152671756,-1.6030534351145038,-0.4560546875,-0.036376953125,-0.197998046875,1.4926
0.7480916030534351,1.6946564885496183,-1.5725190839694656,-0.457275390625,-0.032958984375,-0.20361328125,1.4943
0.8091603053435115,1.5572519083969465,-1.5725190839694656,-0.455078125,-0.037109375,-0.1943359375,1.496
0.9465648854961832,1.7099236641221374,-1.984732824427481,-0.462158203125,-0.0400390625,-0.190185546875,1.4976999999999998
0.8091603053435115,1.8015267175572518,-2.015267175572519,-0.460205078125,-0.0390625,-0.185791015625,1.4993999999999998
0.7022900763358778,1.7709923664122138,-1.984732824427481,-0.45703125,-0.0361328125,-0.197998046875,1.5010999999999999
0.9923664122137404,1.8015267175572518,-1.8473282442748091,-0.460205078125,-0.035888671875,-0.19287109375,1.5028
1.0534351145038168,1.7251908396946565,-2.030534351145038,-0.46240234375,-0.038818359375,-0.187255859375,1.5045
0.8854961832061069,1.8473282442748091,-2.015267175572519,-0.45703125,-0.0361328125,-0.197509765625,1.5062
0.8702290076335878,1.8931297709923665,-2.045801526717557,-0.459228515625,-0.037353515625,-0.194580078125,1.5079
0.7480916030534351,1.8931297709923665,-2.030534351145038,-0.459716796875,-0.03564453125,-0.187744140625,1.5095999999999998
1.0687022900763359,1.984732824427481,-2.0,-0.456298828125,-0.03564453125,-0.1923828125,1.5112999999999999
1.0229007633587786,1.9083969465648856,-2.0610687022900764,-0.456787109375,-0.03515625,-0.197509765625,1.513
0.9770992366412213,1.633587786259542,-2.213740458015267,-0.45947265625,-0.033935546875,-0.1943359375,1.5147
0.8854961832061069,1.83206106870229,-2.1068702290076335,-0.4580078125,-0.037353515625,-0.19384765625,1.5164
0.916030534351145,1.9083969465648856,-2.183206106870229,-0.45751953125,-0.03564453125,-0.19091796875,1.5181
1.083969465648855,1.8778625954198473,-2.015267175572519,-0.45703125,-0.037109375,-0.19384765625,1.5197999999999998
1.083969465648855,1.8625954198473282,-2.2290076335877864,-0.45947265625,-0.036376953125,-0.190185546875,1.5214999999999999
1.282442748091603,2.0,-2.183206106870229,-0.45849609375,-0.036376953125,-0.196044921875,1.5231999999999999
0.9770992366412213,2.015267175572519,-2.1068702290076335,-0.4580078125,-0.03662109375,-0.1923828125,1.5249
1.0687022900763359,1.786259541984733,-1.9541984732824427,-0.459228515625,-0.03369140625,-0.195556640625,1.5266
1.4045801526717556,1.83206106870229,-1.984732824427481,-0.457763671875,-0.031982421875,-0.20068359375,1.5283
1.3587786259541985,2.015267175572519,-2.1068702290076335,-0.45849609375,-0.034423828125,-0.194580078125,1.5299999999999998
1.3282442748091603,1.8625954198473282,-2.030534351145038,-0.4599609375,-0.037109375,-0.189453125,1.5316999999999998
1.3587786259541985,1.9389312977099236,-2.0610687022900764,-0.4560546875,-0.03564453125,-0.1943359375,1.5333999999999999
1.3740458015267176,1.984732824427481,-2.045801526717557,-0.462646484375,-0.0390625,-0.18310546875,1.5351
1.4198473282442747,1.9083969465648856,-1.984732824427481,-0.457275390625,-0.0390625,-0.197021484375,1.5368
1.5877862595419847,2.0916030534351147,-2.122137404580153,-0.45947265625,-0.03564453125,-0.1904296875,1.5385
1.6641221374045803,2.030534351145038,-1.9694656488549618,-0.458251953125,-0.030517578125,-0.199462890625,1.5402
1.6946564885496183,2.015267175572519,-2.122137404580153,-0.457275390625,-0.033935546875,-0.1962890625,1.5418999999999998
1.6641221374045803,2.198473282442748,-1.9083969465648856,-0.459716796875,-0.033935546875,-0.188232421875,1.5435999999999999
1.786259541984733,2.1374045801526718,-1.9541984732824427,-0.453857421875,-0.0380859375,-0.19580078125,1.5453
1.5267175572519085,2.122137404580153,-1.83206106870229,-0.4541015625,-0.037109375,-0.19189453125,1.547
1.7709923664122138,2.3206106870229006,-1.8778625954198473,-0.456298828125,-0.036865234375,-0.18896484375,1.5487
1.9389312977099236,2.183206106870229,-1.8625954198473282,-0.45654296875,-0.03466796875,-0.19580078125,1.5504
1.7099236641221374,2.2290076335877864,-1.8473282442748091,-0.452880859375,-0.032958984375,-0.196533203125,1.5520999999999998
1.9389312977099236,2.1068702290076335,-1.6793893129770991,-0.45703125,-0.041748046875,-0.19384765625,1.5537999999999998
1.7709923664122138,2.122137404580153,-1.7099236641221374,-0.453125,-0.033935546875,-0.1962890625,1.5554999999999999
2.0763358778625953,2.183206106870229,-1.618320610687023,-0.45751953125,-0.03662109375,-0.19873046875,1.5572
1.9236641221374047,2.1068702290076335,-1.6641221374045803,-0.453125,-0.039306640625,-0.198974609375,1.5589
1.9083969465648856,1.9694656488549618,-1.6946564885496183,-0.46484375,-0.039794921875,-0.19873046875,1.5606
1.8931297709923665,1.9389312977099236,-1.5267175572519085,-0.4560546875,-0.038330078125,-0.19287109375,1.5623
1.8778625954198473,2.0610687022900764,-1.450381679389313,-0.450927734375,-0.04052734375,-0.187255859375,1.5639999999999998
2.045801526717557,2.0,-1.4961832061068703,-0.456298828125,-0.0390625,-0.1953125,1.5656999999999999
1.9541984732824427,1.8931297709923665,-1.4351145038167938,-0.455078125,-0.034423828125,-0.197021484375,1.5674
1.816793893129771,1.7099236641221374,-1.465648854961832,-0.457763671875,-0.03564453125,-0.197265625,1.5691
2.0763358778625953,1.8015267175572518,-1.5114503816793894,-0.455322265625,-0.038330078125,-0.195556640625,1.5708
2.015267175572519,1.9389312977099236,-1.3740458015267176,-0.45703125,-0.033447265625,-0.19580078125,1.5725
1.984732824427481,1.8931297709923665,-1.1450381679389312,-0.45166015625,-0.03515625,-0.197021484375,1.5741999999999998
2.2748091603053435,1.7099236641221374,-1.4198473282442747,-0.457763671875,-0.038330078125,-0.191650390625,1.5758999999999999
1.9083969465648856,1.8625954198473282,-1.4198473282442747,-0.45263671875,-0.0361328125,-0.191650390625,1.5776
1.9389312977099236,1.6793893129770991,-1.1755725190839694,-0.45361328125,-0.035400390625,-0.200927734375,1.5793
2.030534351145038,1.7251908396946565,-1.2213740458015268,-0.459716796875,-0.03759765625,-0.1884765625,1.581
1.8473282442748091,1.7709923664122138,-1.282442748091603,-0.45458984375,-0.037841796875,-0.192138671875,1.5827
1.9694656488549618,1.6793893129770991,-1.2366412213740459,-0.45703125,-0.039306640625,-0.193115234375,1.5843999999999998
2.0916030534351147,1.8931297709923665,-1.282442748091603,-0.454833984375,-0.0390625,-0.1943359375,1.5860999999999998
1.9083969465648856,1.5725190839694656,-1.5419847328244274,-0.455810546875,-0.04345703125,-0.2021484375,1.5877999999999999
2.0763358778625953,1.6488549618320612,-1.3587786259541985,-0.45556640625,-0.038818359375,-0.195068359375,1.5895
1.8778625954198473,1.5877862595419847,-1.6946564885496183,-0.454345703125,-0.037109375,-0.192626953125,1.5912
1.984732824427481,1.4045801526717556,-1.4198473282442747,-0.4521484375,-0.03759765625,-0.193603515625,1.5929
2.2748091603053435,1.450381679389313,-1.5725190839694656,-0.45703125,-0.036865234375,-0.197998046875,1.5946
2.2595419847328246,1.4809160305343512,-1.6946564885496183,-0.457275390625,-0.0361328125,-0.190185546875,1.5962999999999998
2.1068702290076335,1.3435114503816794,-1.6641221374045803,-0.457275390625,-0.028564453125,-0.19970703125,1.5979999999999999
2.213740458015267,1.5572519083969465,-1.816793893129771,-0.45556640625,-0.032470703125,-0.19384765625,1.5997
2.183206106870229,1.4961832061068703,-1.9236641221374047,-0.453857421875,-0.038818359375,-0.194580078125,1.6014
2.3053435114503817,1.3282442748091603,-1.8473282442748091,-0.455810546875,-0.037109375,-0.194091796875,1.6031
2.1068702290076335,1.3740458015267176,-1.9236641221374047,-0.45751953125,-0.04150390625,-0.192138671875,1.6048
2.1374045801526718,1.5114503816793894,-1.9236641221374047,-0.450927734375,-0.034423828125,-0.1923828125,1.6064999999999998
2.1374045801526718,1.3740458015267176,-2.0,-0.455078125,-0.039306640625,-0.2001953125,1.6081999999999999
2.2442748091603053,1.450381679389313,-1.8473282442748091,-0.455322265625,-0.039306640625,-0.1884765625,1.6098999999999999
2.122137404580153,1.4198473282442747,-1.8015267175572518,-0.4619140625,-0.0380859375,-0.187744140625,1.6116
2.122137404580153,1.5419847328244274,-2.183206106870229,-0.466796875,-0.040283203125,-0.18212890625,1.6133
1.9236641221374047,1.2671755725190839,-2.0916030534351147,-0.45703125,-0.040283203125,-0.188720703125,1.615
2.015267175572519,1.5114503816793894,-1.8015267175572518,-0.45263671875,-0.040771484375,-0.193603515625,1.6166999999999998
2.045801526717557,1.3740458015267176,-1.8931297709923665,-0.450439453125,-0.0380859375,-0.193115234375,1.6183999999999998
1.816793893129771,1.3282442748091603,-1.8931297709923665,-0.45458984375,-0.0380859375,-0.195068359375,1.6200999999999999
1.9083969465648856,1.3587786259541985,-2.045801526717557,-0.451171875,-0.03955078125,-0.19482421875,1.6218
1.8931297709923665,1.5267175572519085,-2.045801526717557,-0.455078125,-0.0419921875,-0.1884765625,1.6235
1.7251908396946565,1.3740458015267176,-1.9083969465648856,-0.456298828125,-0.0380859375,-0.18603515625,1.6252
1.6793893129770991,1.3435114503816794,-2.0,-0.453369140625,-0.04052734375,-0.18310546875,1.6269
1.450381679389313,1.3435114503816794,-1.984732824427481,-0.454345703125,-0.038818359375,-0.196533203125,1.6285999999999998
1.816793893129771,1.3282442748091603,-1.8625954198473282,-0.4619140625,-0.0380859375,-0.19580078125,1.6302999999999999
1.7251908396946565,1.297709923664122,-1.9541984732824427,-0.4580078125,-0.042724609375,-0.197998046875,1.632
1.465648854961832,1.3587786259541985,-1.9083969465648856,-0.45263671875,-0.043701171875,-0.19140625,1.6337
1.7709923664122138,1.083969465648855,-1.8625954198473282,-0.454345703125,-0.04150390625,-0.1923828125,1.6354
1.450381679389313,1.1603053435114503,-1.8931297709923665,-0.455322265625,-0.041259765625,-0.19677734375,1.6371
1.3129770992366412,1.3282442748091603,-2.015267175572519,-0.45361328125,-0.033447265625,-0.194091796875,1.6387999999999998
1.297709923664122,1.2671755725190839,-1.7404580152671756,-0.458740234375,-0.0380859375,-0.18603515625,1.6404999999999998
1.4351145038167938,1.2061068702290076,-2.1068702290076335,-0.45751953125,-0.03955078125,-0.193115234375,1.6421999999999999
1.3587786259541985,1.3129770992366412,-1.7404580152671756,-0.4638671875,-0.040771484375,-0.187255859375,1.6439
1.5267175572519085,1.1450381679389312,-1.9083969465648856,-0.46142578125,-0.041748046875,-0.1923828125,1.6456
1.4351145038167938,1.282442748091603,-1.8931297709923665,-0.462646484375,-0.032958984375,-0.193603515625,1.6473
1.282442748091603,1.282442748091603,-2.015267175572519,-0.45751953125,-0.03759765625,-0.19091796875,1.6489999999999998
1.251908396946565,1.282442748091603,-1.7099236641221374,-0.455810546875,-0.03466796875,-0.1953125,1.6506999999999998
1.4198473282442747,1.297709923664122,-1.8625954198473282,-0.45166015625,-0.037353515625,-0.193359375,1.6523999999999999
1.3587786259541985,1.4198473282442747,-1.8778625954198473,-0.457763671875,-0.035400390625,-0.199462890625,1.6541
1.3740458015267176,1.3587786259541985,-1.8778625954198473,-0.45947265625,-0.03564453125,-0.20068359375,1.6558
1.5114503816793894,1.3282442748091603,-1.984732824427481,-0.457763671875,-0.037841796875,-0.199462890625,1.6575
1.465648854961832,1.4198473282442747,-1.9541984732824427,-0.46240234375,-0.0361328125,-0.19091796875,1.6592
1.3893129770992367,1.5725190839694656,-2.0610687022900764,-0.45849609375,-0.0341796875,-0.192138671875,1.6608999999999998
1.3587786259541985,1.4045801526717556,-2.1068702290076335,-0.458984375,-0.03857421875,-0.1962890625,1.6625999999999999
1.1908396946564885,1.3893129770992367,-1.8778625954198473,-0.458251953125,-0.03955078125,-0.195556640625,1.6643
1.4351145038167938,1.450381679389313,-1.9236641221374047,-0.458740234375,-0.037353515625,-0.19775390625,1.666
1.4351145038167938,1.7099236641221374,-1.9694656488549618,-0.457275390625,-0.03955078125,-0.188720703125,1.6677
1.3282442748091603,1.5572519083969465,-2.1374045801526718,-0.458740234375,-0.038330078125,-0.191162109375,1.6694
1.4045801526717556,1.7099236641221374,-1.786259541984733,-0.457275390625,-0.03662109375,-0.189453125,1.6710999999999998
1.5114503816793894,1.7557251908396947,-1.816793893129771,-0.45947265625,-0.041748046875,-0.2001953125,1.6727999999999998
1.2061068702290076,1.816793893129771,-1.8778625954198473,-0.4609375,-0.037109375,-0.19873046875,1.6744999999999999
1.2366412213740459,1.618320610687023,-1.7251908396946565,-0.453369140625,-0.039306640625,-0.201416015625,1.6762
1.450381679389313,1.6641221374045803,-1.8931297709923665,-0.460205078125,-0.042236328125,-0.189208984375,1.6779
1.4045801526717556,1.8625954198473282,-1.816793893129771,-0.460693359375,-0.034912109375,-0.19384765625,1.6796
1.4809160305343512,1.7404580152671756,-1.6641221374045803,-0.4599609375,-0.036376953125,-0.19091796875,1.6813
1.1297709923664123,1.8015267175572518,-1.6946564885496183,-0.464599609375,-0.03955078125,-0.200927734375,1.6829999999999998
1.3435114503816794,1.8473282442748091,-1.6030534351145038,-0.459716796875,-0.039306640625,-0.191650390625,1.6846999999999999
1.450381679389313,1.8625954198473282,-1.6793893129770991,-0.4619140625,-0.0419921875,-0.189697265625,1.6864
1.282442748091603,2.015267175572519,-1.6030534351145038,-0.460205078125,-0.038818359375,-0.19921875,1.6881
1.3587786259541985,1.8015267175572518,-1.4351145038167938,-0.455078125,-0.041015625,-0.188232421875,1.6898
1.4351145038167938,1.9694656488549618,-1.2213740458015268,-0.458984375,-0.03662109375,-0.188720703125,1.6915
1.5114503816793894,2.0,-1.1908396946564885,-0.458740234375,-0.035400390625,-0.20068359375,1.6931999999999998
1.3282442748091603,2.015267175572519,-1.083969465648855,-0.457763671875,-0.0400390625,-0.19140625,1.6948999999999999
1.5114503816793894,1.8931297709923665,-1.1755725190839694,-0.454833984375,-0.037109375,-0.2001953125,1.6965999999999999
1.5572519083969465,1.8625954198473282,-0.8549618320610687,-0.458984375,-0.042236328125,-0.189697265625,1.6983
1.4961832061068703,1.7709923664122138,-0.8702290076335878,-0.46240234375,-0.040771484375,-0.190673828125,1.7
1.3129770992366412,1.7404580152671756,-0.7022900763358778,-0.45849609375,-0.0390625,-0.197998046875,1.7017
1.4198473282442747,1.8931297709923665,-0.6870229007633588,-0.457275390625,-0.040771484375,-0.196044921875,1.7033999999999998
1.6030534351145038,1.9083969465648856,-0.5190839694656488,-0.4541015625,-0.041015625,-0.197265625,1.7050999999999998
1.6946564885496183,1.6488549618320612,-0.4122137404580153,-0.450439453125,-0.036865234375,-0.2001953125,1.7067999999999999
1.5419847328244274,1.7099236641221374,-0.3816793893129771,-0.45458984375,-0.03955078125,-0.190673828125,1.7085
1.6030534351145038,1.83206106870229,-0.24427480916030533,-0.45703125,-0.04345703125,-0.19775390625,1.7102
1.8625954198473282,1.7251908396946565,-0.1984732824427481,-0.46044921875,-0.039306640625,-0.197998046875,1.7119
1.618320610687023,1.9083969465648856,-0.16793893129770993,-0.458740234375,-0.04150390625,-0.198486328125,1.7136
1.83206106870229,1.7251908396946565,0.10687022900763359,-0.459716796875,-0.038330078125,-0.1962890625,1.7152999999999998
1.8473282442748091,1.7709923664122138,-0.10687022900763359,-0.45654296875,-0.041015625,-0.19677734375,1.7169999999999999
1.7251908396946565,1.7251908396946565,0.4122137404580153,-0.452392578125,-0.03759765625,-0.19873046875,1.7187
1.618320610687023,1.6793893129770991,0.1984732824427481,-0.45263671875,-0.04296875,-0.19921875,1.7204
1.6946564885496183,1.5114503816793894,0.48854961832061067,-0.453857421875,-0.045654296875,-0.200927734375,1.7221
1.83206106870229,1.4809160305343512,0.44274809160305345,-0.454833984375,-0.040283203125,-0.196533203125,1.7238
1.8473282442748091,1.4198473282442747,0.5801526717557252,-0.4501953125,-0.047119140625,-0.1943359375,1.7254999999999998
1.7099236641221374,1.4961832061068703,0.48854961832061067,-0.458740234375,-0.04833984375,-0.191650390625,1.7271999999999998
1.8015267175572518,1.5267175572519085,0.7633587786259542,-0.456787109375,-0.04296875,-0.196044921875,1.7288999999999999
1.7557251908396947,1.4198473282442747,0.8396946564885496,-0.451416015625,-0.04150390625,-0.19140625,1.7306
1.8015267175572518,1.297709923664122,0.9312977099236641,-0.453369140625,-0.03662109375,-0.19677734375,1.7323
1.8625954198473282,1.282442748091603,1.1297709923664123,-0.457275390625,-0.04541015625,-0.198974609375,1.734
1.618320610687023,1.3435114503816794,1.4351145038167938,-0.45263671875,-0.04150390625,-0.195556640625,1.7356999999999998
1.4198473282442747,1.1145038167938932,1.3129770992366412,-0.457275390625,-0.040283203125,-0.195068359375,1.7373999999999998
1.5267175572519085,1.1603053435114503,1.5572519083969465,-0.453125,-0.042724609375,-0.192626953125,1.7390999999999999
1.6793893129770991,1.0381679389312977,1.5267175572519085,-0.455078125,-0.048583984375,-0.189453125,1.7408
1.5419847328244274,0.7175572519083969,1.8015267175572518,-0.454833984375,-0.049072265625,-0.19482421875,1.7425
1.6030534351145038,0.9007633587786259,1.9236641221374047,-0.457763671875,-0.040771484375,-0.197998046875,1.7442
1.5419847328244274,0.9770992366412213,1.8931297709923665,-0.456298828125,-0.039794921875,-0.199951171875,1.7459
1.618320610687023,0.6717557251908397,2.2900763358778624,-0.4580078125,-0.04345703125,-0.19921875,1.7475999999999998
1.5419847328244274,0.8244274809160306,2.2290076335877864,-0.457275390625,-0.042236328125,-0.188720703125,1.7492999999999999
1.4045801526717556,0.9465648854961832,2.183206106870229,-0.460205078125,-0.035400390625,-0.19189453125,1.751
1.5419847328244274,0.916030534351145,2.4427480916030535,-0.456298828125,-0.040283203125,-0.1884765625,1.7527
1.5114503816793894,0.8091603053435115,2.381679389312977,-0.458984375,-0.03515625,-0.197509765625,1.7544
1.4198473282442747,0.9007633587786259,2.5343511450381677,-0.4619140625,-0.04052734375,-0.19677734375,1.7561
1.4961832061068703,0.9923664122137404,2.50381679389313,-0.45849609375,-0.03955078125,-0.197265625,1.7577999999999998
1.4198473282442747,0.7633587786259542,2.7480916030534353,-0.454833984375,-0.0400390625,-0.197998046875,1.7594999999999998
1.5267175572519085,0.7480916030534351,2.8396946564885495,-0.45947265625,-0.043212890625,-0.197265625,1.7611999999999999
1.3282442748091603,0.8244274809160306,2.9770992366412212,-0.4560546875,-0.043701171875,-0.201904296875,1.7629
1.4198473282442747,0.9465648854961832,2.9923664122137406,-0.458251953125,-0.041748046875,-0.19677734375,1.7646
1.282442748091603,0.9312977099236641,3.1603053435114505,-0.461181640625,-0.040771484375,-0.200927734375,1.7663
1.4045801526717556,1.099236641221374,3.3435114503816794,-0.45849609375,-0.04638671875,-0.198974609375,1.7679999999999998
1.3282442748091603,1.0534351145038168,3.5572519083969465,-0.46240234375,-0.040283203125,-0.203125,1.7696999999999998
1.1755725190839694,1.0076335877862594,3.618320610687023,-0.458984375,-0.04248046875,-0.2041015625,1.7713999999999999
1.3435114503816794,1.1297709923664123,3.7404580152671754,-0.45654296875,-0.039306640625,-0.191162109375,1.7731
1.3893129770992367,1.083969465648855,4.015267175572519,-0.454345703125,-0.04052734375,-0.190185546875,1.7748
1.618320610687023,1.1145038167938932,4.0,-0.45703125,-0.038330078125,-0.1923828125,1.7765
1.6030534351145038,1.2671755725190839,4.2748091603053435,-0.457275390625,-0.040771484375,-0.195068359375,1.7782
1.6488549618320612,1.1297709923664123,4.473282442748092,-0.455322265625,-0.03759765625,-0.19384765625,1.7798999999999998
1.5725190839694656,0.9770992366412213,4.702290076335878,-0.454345703125,-0.0390625,-0.19287109375,1.7815999999999999
1.633587786259542,0.9465648854961832,4.824427480916031,-0.46240234375,-0.031005859375,-0.19091796875,1.7832999999999999
1.633587786259542,1.0687022900763359,4.870229007633588,-0.447509765625,-0.038818359375,-0.1962890625,1.785
1.5267175572519085,1.083969465648855,5.0534351145038165,-0.454345703125,-0.038330078125,-0.19970703125,1.7867
1.6641221374045803,1.1297709923664123,5.022900763358779,-0.456298828125,-0.039306640625,-0.193359375,1.7884
1.7099236641221374,1.0381679389312977,5.282442748091603,-0.45556640625,-0.035400390625,-0.188720703125,1.7900999999999998
1.633587786259542,0.9007633587786259,5.450381679389313,-0.45703125,-0.037109375,-0.185546875,1.7917999999999998
