gyrox1,gyroy1,gyroz1,accelx1,accely1,accelz1,Time
2.4580152671755724,0.5190839694656488,-0.5648854961832062,-0.401123046875,0.014404296875,-0.3544921875,0.0
2.2595419847328246,0.5038167938931297,-0.5038167938931297,-0.398681640625,0.01220703125,-0.353759765625,0.0017
2.381679389312977,0.5190839694656488,-0.6106870229007634,-0.39990234375,0.014404296875,-0.363525390625,0.0034
2.2748091603053435,0.4580152671755725,-0.6106870229007634,-0.396728515625,0.017578125,-0.356201171875,0.0050999999999999995
2.16793893129771,0.44274809160305345,-0.4732824427480916,-0.40087890625,0.014892578125,-0.34912109375,0.0068
2.381679389312977,0.33587786259541985,-0.5343511450381679,-0.403564453125,0.01708984375,-0.34765625,0.008499999999999999
2.0763358778625953,0.3053435114503817,-0.5648854961832062,-0.40087890625,0.01806640625,-0.354736328125,0.010199999999999999
2.1526717557251906,0.5190839694656488,-0.48854961832061067,-0.396484375,0.01806640625,-0.352783203125,0.011899999999999999
2.198473282442748,0.3053435114503817,-0.32061068702290074,-0.40234375,0.0166015625,-0.350341796875,0.0136
2.198473282442748,0.4580152671755725,-0.42748091603053434,-0.3974609375,0.01416015625,-0.362548828125,0.0153
2.045801526717557,0.3816793893129771,-0.3969465648854962,-0.3984375,0.018310546875,-0.354248046875,0.016999999999999998
1.9694656488549618,0.2900763358778626,-0.3969465648854962,-0.399658203125,0.017578125,-0.354248046875,0.018699999999999998
2.030534351145038,0.366412213740458,-0.4732824427480916,-0.3984375,0.017333984375,-0.346923828125,0.020399999999999998
1.9083969465648856,0.549618320610687,-0.48854961832061067,-0.40087890625,0.014404296875,-0.350341796875,0.022099999999999998
2.122137404580153,0.5343511450381679,-0.7022900763358778,-0.39794921875,0.01611328125,-0.353515625,0.023799999999999998
2.030534351145038,0.48854961832061067,-0.7022900763358778,-0.40673828125,0.01904296875,-0.352294921875,0.0255
1.8473282442748091,0.44274809160305345,-0.6412213740458015,-0.403564453125,0.013671875,-0.3515625,0.0272
1.9694656488549618,0.44274809160305345,-0.6717557251908397,-0.40185546875,0.01513671875,-0.35205078125,0.0289
1.6030534351145038,0.7786259541984732,-0.6259541984732825,-0.404052734375,0.0185546875,-0.34765625,0.0306
1.7099236641221374,0.6412213740458015,-0.6717557251908397,-0.39453125,0.0185546875,-0.354736328125,0.032299999999999995
1.8015267175572518,0.7175572519083969,-0.7480916030534351,-0.403076171875,0.01708984375,-0.35888671875,0.033999999999999996
2.0,0.6564885496183206,-0.8702290076335878,-0.40087890625,0.0166015625,-0.354248046875,0.035699999999999996
1.7251908396946565,0.6106870229007634,-0.7938931297709924,-0.402099609375,0.011962890625,-0.3486328125,0.037399999999999996
1.633587786259542,0.9007633587786259,-0.732824427480916,-0.4091796875,0.018310546875,-0.349853515625,0.039099999999999996
1.5877862595419847,0.8244274809160306,-1.0229007633587786,-0.40673828125,0.020263671875,-0.347412109375,0.040799999999999996
1.5877862595419847,0.916030534351145,-1.099236641221374,-0.407470703125,0.015625,-0.35302734375,0.042499999999999996
1.5419847328244274,0.9007633587786259,-0.8091603053435115,-0.40576171875,0.0166015625,-0.3583984375,0.044199999999999996
1.5725190839694656,1.1755725190839694,-0.8091603053435115,-0.40625,0.015869140625,-0.35595703125,0.045899999999999996
1.5114503816793894,1.3587786259541985,-1.1145038167938932,-0.404296875,0.01708984375,-0.351318359375,0.047599999999999996
1.5114503816793894,1.3587786259541985,-1.0076335877862594,-0.400634765625,0.0205078125,-0.35302734375,0.0493
1.4961832061068703,1.4045801526717556,-1.1755725190839694,-0.40478515625,0.021240234375,-0.354248046875,0.051
1.3587786259541985,1.2671755725190839,-1.0381679389312977,-0.406982421875,0.017822265625,-0.3486328125,0.0527
1.5572519083969465,1.5114503816793894,-1.1450381679389312,-0.404541015625,0.02001953125,-0.34814453125,0.0544
1.4961832061068703,1.6946564885496183,-1.1603053435114503,-0.408203125,0.019775390625,-0.35693359375,0.0561
1.3740458015267176,1.8015267175572518,-1.2671755725190839,-0.408203125,0.017578125,-0.34765625,0.0578
1.4809160305343512,1.6641221374045803,-1.0687022900763359,-0.40869140625,0.020263671875,-0.353515625,0.0595
1.3740458015267176,1.83206106870229,-1.3587786259541985,-0.405029296875,0.020263671875,-0.356689453125,0.0612
1.3740458015267176,1.83206106870229,-1.3435114503816794,-0.407958984375,0.0185546875,-0.35302734375,0.0629
1.2213740458015268,1.8473282442748091,-1.3587786259541985,-0.40478515625,0.019287109375,-0.349365234375,0.06459999999999999
1.2366412213740459,2.1068702290076335,-1.1755725190839694,-0.404296875,0.016357421875,-0.35400390625,0.0663
1.3282442748091603,2.16793893129771,-1.3740458015267176,-0.4052734375,0.018798828125,-0.362548828125,0.06799999999999999
1.4198473282442747,2.030534351145038,-1.3740458015267176,-0.40869140625,0.01708984375,-0.353759765625,0.0697
1.1297709923664123,2.183206106870229,-1.3587786259541985,-0.40185546875,0.017822265625,-0.34814453125,0.07139999999999999
1.083969465648855,2.213740458015267,-1.4351145038167938,-0.403564453125,0.01416015625,-0.349853515625,0.0731
0.916030534351145,2.2442748091603053,-1.5725190839694656,-0.4033203125,0.019775390625,-0.3486328125,0.07479999999999999
0.8854961832061069,2.3206106870229006,-1.3435114503816794,-0.404541015625,0.0166015625,-0.350830078125,0.0765
0.8854961832061069,2.4427480916030535,-1.3435114503816794,-0.406494140625,0.013916015625,-0.3515625,0.07819999999999999
1.0381679389312977,2.0916030534351147,-1.4809160305343512,-0.405517578125,0.01318359375,-0.348876953125,0.0799
1.0381679389312977,2.2748091603053435,-1.5877862595419847,-0.41015625,0.014404296875,-0.35009765625,0.08159999999999999
0.6870229007633588,2.4427480916030535,-1.450381679389313,-0.4052734375,0.015380859375,-0.348876953125,0.0833
0.9007633587786259,2.366412213740458,-1.6641221374045803,-0.409423828125,0.01904296875,-0.356201171875,0.08499999999999999
0.8091603053435115,2.4580152671755724,-1.3282442748091603,-0.409912109375,0.0205078125,-0.3505859375,0.0867
0.7633587786259542,2.2748091603053435,-1.633587786259542,-0.40087890625,0.01611328125,-0.3525390625,0.08839999999999999
0.7938931297709924,2.3206106870229006,-1.5572519083969465,-0.40380859375,0.0205078125,-0.359619140625,0.0901
0.6259541984732825,2.3053435114503817,-1.7404580152671756,-0.407958984375,0.012451171875,-0.35888671875,0.09179999999999999
0.7022900763358778,2.381679389312977,-1.816793893129771,-0.40283203125,0.014404296875,-0.353271484375,0.0935
0.5801526717557252,2.3969465648854964,-1.8015267175572518,-0.404052734375,0.01904296875,-0.35302734375,0.09519999999999999
0.6106870229007634,2.4885496183206106,-1.6946564885496183,-0.404052734375,0.01806640625,-0.346923828125,0.0969
0.5648854961832062,2.427480916030534,-1.83206106870229,-0.39990234375,0.01806640625,-0.357666015625,0.0986
0.6259541984732825,2.5343511450381677,-1.7404580152671756,-0.400146484375,0.017822265625,-0.357421875,0.1003
0.7175572519083969,2.6412213740458017,-1.9083969465648856,-0.405029296875,0.0166015625,-0.355224609375,0.102
0.6259541984732825,2.4427480916030535,-1.8778625954198473,-0.40283203125,0.019775390625,-0.357666015625,0.1037
0.7022900763358778,2.549618320610687,-2.0916030534351147,-0.40283203125,0.019287109375,-0.360107421875,0.1054
0.8396946564885496,2.549618320610687,-1.8931297709923665,-0.402587890625,0.018798828125,-0.352783203125,0.1071
0.6870229007633588,2.732824427480916,-1.83206106870229,-0.405517578125,0.017578125,-0.34912109375,0.1088
0.5801526717557252,2.8396946564885495,-1.8015267175572518,-0.40234375,0.020263671875,-0.34619140625,0.11049999999999999
0.6259541984732825,2.6717557251908395,-2.045801526717557,-0.40576171875,0.019287109375,-0.35546875,0.1122
0.3969465648854962,2.7786259541984735,-1.8931297709923665,-0.404052734375,0.02001953125,-0.34716796875,0.11389999999999999
0.7480916030534351,2.8244274809160306,-2.0916030534351147,-0.4013671875,0.017822265625,-0.3583984375,0.1156
0.48854961832061067,2.763358778625954,-1.9389312977099236,-0.39892578125,0.01806640625,-0.352783203125,0.11729999999999999
0.6412213740458015,2.6106870229007635,-1.9236641221374047,-0.39794921875,0.017822265625,-0.349365234375,0.119
0.6564885496183206,2.549618320610687,-1.8015267175572518,-0.3955078125,0.018798828125,-0.35205078125,0.12069999999999999
0.4122137404580153,2.3206106870229006,-2.183206106870229,-0.4033203125,0.015380859375,-0.35400390625,0.1224
0.42748091603053434,2.3969465648854964,-2.198473282442748,-0.402587890625,0.02099609375,-0.356689453125,0.12409999999999999
0.3969465648854962,2.2290076335877864,-2.0763358778625953,-0.398681640625,0.016845703125,-0.358642578125,0.1258
0.4122137404580153,1.9236641221374047,-2.0763358778625953,-0.394775390625,0.01611328125,-0.354248046875,0.1275
0.15267175572519084,1.9083969465648856,-2.1068702290076335,-0.398193359375,0.017578125,-0.35693359375,0.12919999999999998
0.1984732824427481,1.9236641221374047,-2.015267175572519,-0.405029296875,0.01611328125,-0.353271484375,0.1309
0.3053435114503817,1.816793893129771,-2.0763358778625953,-0.405517578125,0.01318359375,-0.361572265625,0.1326
0.0,1.9236641221374047,-1.984732824427481,-0.405517578125,0.0185546875,-0.353271484375,0.1343
0.15267175572519084,2.0916030534351147,-2.122137404580153,-0.40234375,0.015380859375,-0.351806640625,0.13599999999999998
0.15267175572519084,2.045801526717557,-1.83206106870229,-0.40771484375,0.0205078125,-0.355712890625,0.1377
0.15267175572519084,2.015267175572519,-1.7709923664122138,-0.400634765625,0.01708984375,-0.353515625,0.1394
0.1984732824427481,2.183206106870229,-1.9541984732824427,-0.4013671875,0.01611328125,-0.352294921875,0.1411
-0.015267175572519083,1.9389312977099236,-1.8931297709923665,-0.400634765625,0.019287109375,-0.35205078125,0.14279999999999998
0.061068702290076333,2.1068702290076335,-1.6488549618320612,-0.40771484375,0.01171875,-0.360595703125,0.1445
-0.0916030534351145,2.2442748091603053,-1.816793893129771,-0.411376953125,0.015380859375,-0.350830078125,0.1462
0.0916030534351145,2.3969465648854964,-1.618320610687023,-0.404052734375,0.01806640625,-0.360595703125,0.1479
0.10687022900763359,2.427480916030534,-1.8473282442748091,-0.405029296875,0.019775390625,-0.358154296875,0.14959999999999998
0.13740458015267176,2.4580152671755724,-1.6488549618320612,-0.403076171875,0.0234375,-0.359375,0.1513
0.183206106870229,2.50381679389313,-1.8015267175572518,-0.40185546875,0.021728515625,-0.358154296875,0.153
0.21374045801526717,2.4732824427480917,-1.6030534351145038,-0.402587890625,0.018798828125,-0.361328125,0.1547
0.21374045801526717,2.732824427480916,-1.6488549618320612,-0.408935546875,0.0146484375,-0.349609375,0.15639999999999998
0.33587786259541985,2.564885496183206,-1.7557251908396947,-0.4033203125,0.021484375,-0.351806640625,0.1581
0.4732824427480916,2.6412213740458017,-1.9083969465648856,-0.403076171875,0.0166015625,-0.360107421875,0.1598
0.5648854961832062,2.5343511450381677,-1.6641221374045803,-0.40185546875,0.017333984375,-0.34716796875,0.1615
0.32061068702290074,2.4732824427480917,-1.786259541984733,-0.402099609375,0.01904296875,-0.3544921875,0.16319999999999998
0.4580152671755725,2.33587786259542,-1.8473282442748091,-0.401611328125,0.021728515625,-0.34912109375,0.1649
0.366412213740458,2.2290076335877864,-1.9236641221374047,-0.396484375,0.02197265625,-0.36474609375,0.1666
0.5954198473282443,2.2595419847328246,-1.984732824427481,-0.4013671875,0.0224609375,-0.3623046875,0.16829999999999998
0.732824427480916,2.2442748091603053,-2.045801526717557,-0.405517578125,0.019287109375,-0.35009765625,0.16999999999999998
0.5343511450381679,2.213740458015267,-2.030534351145038,-0.40185546875,0.02197265625,-0.34912109375,0.1717
0.5343511450381679,2.122137404580153,-2.198473282442748,-0.400634765625,0.014404296875,-0.34716796875,0.1734
0.8091603053435115,2.1374045801526718,-2.2595419847328246,-0.40283203125,0.02001953125,-0.342529296875,0.17509999999999998
0.9007633587786259,2.2748091603053435,-2.2595419847328246,-0.40234375,0.022216796875,-0.35888671875,0.17679999999999998
0.9465648854961832,2.33587786259542,-2.045801526717557,-0.404052734375,0.0185546875,-0.3564453125,0.1785
0.7633587786259542,2.183206106870229,-2.1068702290076335,-0.401123046875,0.02001953125,-0.35791015625,0.1802
1.0229007633587786,2.183206106870229,-2.198473282442748,-0.40478515625,0.023193359375,-0.35693359375,0.18189999999999998
1.3893129770992367,2.351145038167939,-2.122137404580153,-0.402099609375,0.0166015625,-0.35986328125,0.18359999999999999
0.8854961832061069,2.2595419847328246,-2.030534351145038,-0.409423828125,0.01318359375,-0.3603515625,0.1853
1.0229007633587786,2.3053435114503817,-2.1526717557251906,-0.404296875,0.02099609375,-0.347900390625,0.187
1.297709923664122,2.2900763358778624,-2.015267175572519,-0.404296875,0.019287109375,-0.346435546875,0.18869999999999998
1.2213740458015268,2.50381679389313,-2.0610687022900764,-0.40576171875,0.02587890625,-0.352294921875,0.19039999999999999
1.1297709923664123,2.50381679389313,-1.8931297709923665,-0.402587890625,0.0205078125,-0.35107421875,0.1921
1.3435114503816794,2.6259541984732824,-1.9389312977099236,-0.40576171875,0.025146484375,-0.35791015625,0.1938
1.083969465648855,2.717557251908397,-1.816793893129771,-0.406005859375,0.0166015625,-0.35205078125,0.19549999999999998
1.3740458015267176,2.7786259541984735,-1.8931297709923665,-0.4072265625,0.021728515625,-0.35400390625,0.1972
1.3435114503816794,2.717557251908397,-1.7099236641221374,-0.397705078125,0.017822265625,-0.351806640625,0.1989
1.297709923664122,2.8244274809160306,-1.7557251908396947,-0.4072265625,0.014404296875,-0.350341796875,0.2006
1.465648854961832,2.732824427480916,-1.6793893129770991,-0.40283203125,0.018310546875,-0.350341796875,0.20229999999999998
1.4809160305343512,2.732824427480916,-1.4961832061068703,-0.4033203125,0.0205078125,-0.354736328125,0.204
1.3740458015267176,2.8091603053435112,-1.5114503816793894,-0.403076171875,0.015625,-0.35986328125,0.2057
1.5114503816793894,2.8244274809160306,-1.4809160305343512,-0.402587890625,0.019287109375,-0.350341796875,0.2074
1.4961832061068703,2.8244274809160306,-1.5572519083969465,-0.404296875,0.01953125,-0.349609375,0.20909999999999998
1.4198473282442747,2.9160305343511452,-1.4198473282442747,-0.398681640625,0.017822265625,-0.35546875,0.2108
1.4198473282442747,2.6259541984732824,-1.6030534351145038,-0.399169921875,0.01708984375,-0.35595703125,0.2125
1.5877862595419847,2.8702290076335877,-1.4351145038167938,-0.395751953125,0.01904296875,-0.359130859375,0.2142
1.4809160305343512,2.732824427480916,-1.282442748091603,-0.4013671875,0.01708984375,-0.34814453125,0.21589999999999998
1.5877862595419847,2.717557251908397,-1.3129770992366412,-0.39990234375,0.018798828125,-0.3466796875,0.2176
1.4198473282442747,2.6106870229007635,-1.251908396946565,-0.40185546875,0.0234375,-0.35400390625,0.2193
1.5572519083969465,2.7480916030534353,-1.4045801526717556,-0.402587890625,0.01611328125,-0.353759765625,0.22099999999999997
1.4961832061068703,2.50381679389313,-1.2671755725190839,-0.401123046875,0.016357421875,-0.350341796875,0.22269999999999998
1.3282442748091603,2.519083969465649,-1.3587786259541985,-0.404296875,0.014892578125,-0.352294921875,0.2244
1.8473282442748091,2.6259541984732824,-1.3282442748091603,-0.3984375,0.017822265625,-0.359375,0.2261
1.6946564885496183,2.6106870229007635,-1.3893129770992367,-0.4033203125,0.0146484375,-0.357177734375,0.22779999999999997
1.450381679389313,2.4732824427480917,-1.1297709923664123,-0.4013671875,0.0224609375,-0.352783203125,0.22949999999999998
1.618320610687023,2.427480916030534,-1.1908396946564885,-0.400146484375,0.01318359375,-0.349853515625,0.2312
1.618320610687023,2.2595419847328246,-1.3893129770992367,-0.403076171875,0.015380859375,-0.349365234375,0.2329
1.4961832061068703,2.427480916030534,-1.633587786259542,-0.40283203125,0.017822265625,-0.35546875,0.23459999999999998
1.282442748091603,2.4427480916030535,-1.3893129770992367,-0.40185546875,0.0146484375,-0.352294921875,0.23629999999999998
1.5419847328244274,2.2290076335877864,-1.282442748091603,-0.40185546875,0.022216796875,-0.35009765625,0.238
1.7251908396946565,2.3206106870229006,-1.3282442748091603,-0.4013671875,0.019775390625,-0.35205078125,0.2397
1.6946564885496183,2.50381679389313,-1.3435114503816794,-0.40283203125,0.0166015625,-0.350830078125,0.24139999999999998
1.5114503816793894,2.2748091603053435,-1.4351145038167938,-0.40380859375,0.014892578125,-0.352783203125,0.24309999999999998
1.297709923664122,2.122137404580153,-1.282442748091603,-0.4013671875,0.018310546875,-0.35986328125,0.2448
1.4809160305343512,2.2290076335877864,-1.3740458015267176,-0.401611328125,0.017333984375,-0.35498046875,0.2465
1.4809160305343512,2.1526717557251906,-1.251908396946565,-0.396240234375,0.0166015625,-0.357177734375,0.24819999999999998
1.4961832061068703,2.015267175572519,-1.3587786259541985,-0.39794921875,0.01513671875,-0.359130859375,0.24989999999999998
1.5877862595419847,1.9694656488549618,-1.2061068702290076,-0.400146484375,0.0185546875,-0.3515625,0.2516
1.4961832061068703,2.015267175572519,-1.465648854961832,-0.400390625,0.020751953125,-0.34521484375,0.25329999999999997
1.5877862595419847,2.0763358778625953,-1.4045801526717556,-0.401123046875,0.018310546875,-0.350830078125,0.255
1.6488549618320612,2.015267175572519,-1.3587786259541985,-0.39990234375,0.01904296875,-0.359130859375,0.2567
1.5419847328244274,2.015267175572519,-1.4198473282442747,-0.3994140625,0.015625,-0.359130859375,0.25839999999999996
1.5114503816793894,1.9083969465648856,-1.4198473282442747,-0.400146484375,0.019287109375,-0.357666015625,0.2601
1.3893129770992367,1.83206106870229,-1.4045801526717556,-0.3974609375,0.021240234375,-0.354248046875,0.2618
1.3282442748091603,2.045801526717557,-1.3740458015267176,-0.396240234375,0.020263671875,-0.363525390625,0.2635
1.4045801526717556,1.9541984732824427,-1.2366412213740459,-0.404296875,0.01708984375,-0.362548828125,0.2652
1.465648854961832,1.816793893129771,-1.4045801526717556,-0.39892578125,0.013671875,-0.35498046875,0.26689999999999997
1.5725190839694656,1.9236641221374047,-1.4961832061068703,-0.39892578125,0.015380859375,-0.358154296875,0.2686
1.2213740458015268,1.9083969465648856,-1.450381679389313,-0.401611328125,0.018310546875,-0.353759765625,0.2703
1.1603053435114503,1.7709923664122138,-1.3893129770992367,-0.404052734375,0.0205078125,-0.359130859375,0.27199999999999996
1.0534351145038168,1.83206106870229,-1.297709923664122,-0.397705078125,0.022216796875,-0.35546875,0.2737
1.1908396946564885,1.8015267175572518,-1.4961832061068703,-0.399658203125,0.018798828125,-0.3515625,0.2754
1.297709923664122,1.7557251908396947,-1.465648854961832,-0.40576171875,0.019287109375,-0.361572265625,0.27709999999999996
1.1450381679389312,1.8778625954198473,-1.297709923664122,-0.403564453125,0.010498046875,-0.352783203125,0.2788
1.2671755725190839,1.7251908396946565,-1.6641221374045803,-0.4013671875,0.012451171875,-0.353515625,0.28049999999999997
1.1755725190839694,1.8015267175572518,-1.4198473282442747,-0.400634765625,0.01611328125,-0.355224609375,0.2822
1.0381679389312977,1.8625954198473282,-1.5267175572519085,-0.404296875,0.0126953125,-0.353515625,0.2839
0.9923664122137404,1.8931297709923665,-1.3587786259541985,-0.3994140625,0.01708984375,-0.365478515625,0.28559999999999997
0.916030534351145,1.7557251908396947,-1.5572519083969465,-0.400634765625,0.017578125,-0.35302734375,0.2873
1.083969465648855,1.7099236641221374,-1.4809160305343512,-0.406982421875,0.021728515625,-0.351318359375,0.289
1.1145038167938932,1.6488549618320612,-1.5725190839694656,-0.403076171875,0.022216796875,-0.36083984375,0.29069999999999996
0.8702290076335878,1.618320610687023,-1.4045801526717556,-0.399169921875,0.019287109375,-0.354248046875,0.2924
0.7938931297709924,1.8778625954198473,-1.5725190839694656,-0.3994140625,0.015380859375,-0.352783203125,0.2941
0.7938931297709924,1.8015267175572518,-1.3435114503816794,-0.3974609375,0.016357421875,-0.353271484375,0.2958
0.5954198473282443,1.7099236641221374,-1.5114503816793894,-0.400390625,0.013916015625,-0.3564453125,0.2975
0.6106870229007634,1.8015267175572518,-1.5114503816793894,-0.3994140625,0.02099609375,-0.35693359375,0.29919999999999997
0.8244274809160306,1.8625954198473282,-1.5572519083969465,-0.3994140625,0.019287109375,-0.3525390625,0.3009
0.7022900763358778,1.6488549618320612,-1.450381679389313,-0.403076171875,0.021484375,-0.356201171875,0.3026
0.6412213740458015,1.7099236641221374,-1.5877862595419847,-0.3955078125,0.015625,-0.359375,0.30429999999999996
0.8091603053435115,1.7404580152671756,-1.6488549618320612,-0.40087890625,0.015869140625,-0.358642578125,0.306
0.7786259541984732,1.5419847328244274,-1.618320610687023,-0.398681640625,0.02099609375,-0.357177734375,0.3077
0.48854961832061067,1.5267175572519085,-1.5419847328244274,-0.40087890625,0.01953125,-0.36376953125,0.3094
0.5954198473282443,1.7404580152671756,-1.7099236641221374,-0.39892578125,0.020751953125,-0.35595703125,0.3111
0.6106870229007634,1.5419847328244274,-1.465648854961832,-0.401123046875,0.0166015625,-0.35693359375,0.31279999999999997
0.5648854961832062,1.7251908396946565,-1.6946564885496183,-0.403564453125,0.01953125,-0.357666015625,0.3145
0.5648854961832062,1.6946564885496183,-1.6946564885496183,-0.404296875,0.02392578125,-0.351806640625,0.3162
0.5343511450381679,1.5114503816793894,-1.6793893129770991,-0.403076171875,0.016845703125,-0.350830078125,0.31789999999999996
0.6870229007633588,1.5114503816793894,-1.7099236641221374,-0.403076171875,0.015380859375,-0.363037109375,0.3196
0.5801526717557252,1.6030534351145038,-1.7404580152671756,-0.401123046875,0.018798828125,-0.3623046875,0.3213
0.6717557251908397,1.633587786259542,-1.633587786259542,-0.39990234375,0.02099609375,-0.3525390625,0.323
0.5343511450381679,1.6030534351145038,-2.0,-0.398193359375,0.017822265625,-0.35888671875,0.3247
0.6564885496183206,1.6030534351145038,-1.7404580152671756,-0.40478515625,0.013916015625,-0.347900390625,0.32639999999999997
0.6106870229007634,1.7709923664122138,-1.83206106870229,-0.40185546875,0.018798828125,-0.3544921875,0.3281
0.5343511450381679,1.7099236641221374,-1.633587786259542,-0.401611328125,0.016357421875,-0.357421875,0.3298
0.6717557251908397,1.786259541984733,-1.9541984732824427,-0.39501953125,0.019775390625,-0.359130859375,0.33149999999999996
0.8091603053435115,1.9236641221374047,-1.8778625954198473,-0.401611328125,0.021484375,-0.363525390625,0.3332
0.8396946564885496,1.7557251908396947,-1.816793893129771,-0.40673828125,0.020263671875,-0.35498046875,0.3349
0.7786259541984732,1.786259541984733,-1.7251908396946565,-0.40087890625,0.0166015625,-0.350830078125,0.33659999999999995
0.8396946564885496,1.8473282442748091,-1.9389312977099236,-0.400634765625,0.022705078125,-0.358154296875,0.3383
0.7175572519083969,1.83206106870229,-1.8473282442748091,-0.400390625,0.018798828125,-0.357421875,0.33999999999999997
0.7175572519083969,1.7251908396946565,-1.8778625954198473,-0.398681640625,0.015380859375,-0.35888671875,0.3417
0.7938931297709924,1.816793893129771,-1.8778625954198473,-0.406494140625,0.0166015625,-0.35107421875,0.3434
0.9923664122137404,1.816793893129771,-2.015267175572519,-0.400634765625,0.01611328125,-0.360107421875,0.34509999999999996
0.8244274809160306,1.7557251908396947,-1.7251908396946565,-0.397216796875,0.020263671875,-0.356201171875,0.3468
0.7022900763358778,1.7099236641221374,-1.9389312977099236,-0.3994140625,0.023681640625,-0.364013671875,0.3485
0.9923664122137404,1.7404580152671756,-1.9236641221374047,-0.39990234375,0.021240234375,-0.3603515625,0.35019999999999996
1.2213740458015268,1.786259541984733,-2.0,-0.400390625,0.018798828125,-0.365234375,0.3519
0.9007633587786259,1.5725190839694656,-1.6946564885496183,-0.39892578125,0.015869140625,-0.362060546875,0.35359999999999997
1.0076335877862594,1.7251908396946565,-1.8931297709923665,-0.404052734375,0.020751953125,-0.3505859375,0.3553
0.9923664122137404,1.6488549618320612,-1.83206106870229,-0.400146484375,0.018310546875,-0.357421875,0.357
0.8091603053435115,1.465648854961832,-1.8778625954198473,-0.399169921875,0.0234375,-0.35888671875,0.35869999999999996
1.2061068702290076,1.6030534351145038,-1.9083969465648856,-0.405029296875,0.02099609375,-0.351318359375,0.3604
1.2366412213740459,1.6793893129770991,-1.8931297709923665,-0.40283203125,0.020263671875,-0.35009765625,0.3621
1.1603053435114503,1.7709923664122138,-1.8625954198473282,-0.40478515625,0.01953125,-0.346435546875,0.36379999999999996
1.1603053435114503,1.7251908396946565,-1.9236641221374047,-0.401611328125,0.024169921875,-0.357177734375,0.3655
0.916030534351145,1.8015267175572518,-1.6793893129770991,-0.4052734375,0.017333984375,-0.3564453125,0.36719999999999997
1.1603053435114503,1.7557251908396947,-2.045801526717557,-0.400634765625,0.01611328125,-0.35693359375,0.3689
1.1908396946564885,1.6030534351145038,-1.8625954198473282,-0.40283203125,0.02001953125,-0.357666015625,0.3706
1.3435114503816794,1.9083969465648856,-1.8015267175572518,-0.402587890625,0.02001953125,-0.3544921875,0.37229999999999996
1.3893129770992367,1.8015267175572518,-1.8015267175572518,-0.400634765625,0.01953125,-0.361572265625,0.374
1.2213740458015268,1.8625954198473282,-1.816793893129771,-0.399169921875,0.019775390625,-0.357177734375,0.3757
1.5114503816793894,1.786259541984733,-1.7404580152671756,-0.4013671875,0.01953125,-0.355712890625,0.37739999999999996
1.3129770992366412,1.8778625954198473,-1.8625954198473282,-0.40478515625,0.023193359375,-0.36083984375,0.3791
1.4351145038167938,1.9083969465648856,-1.7557251908396947,-0.404296875,0.023681640625,-0.357421875,0.38079999999999997
1.3893129770992367,1.9236641221374047,-1.8778625954198473,-0.403076171875,0.023193359375,-0.361328125,0.38249999999999995
1.5572519083969465,1.8778625954198473,-1.786259541984733,-0.402099609375,0.02490234375,-0.36669921875,0.3842
1.5725190839694656,2.045801526717557,-1.7557251908396947,-0.40380859375,0.024658203125,-0.364013671875,0.38589999999999997
1.3129770992366412,1.9541984732824427,-1.816793893129771,-0.404296875,0.020751953125,-0.3603515625,0.3876
1.5114503816793894,1.8931297709923665,-1.7099236641221374,-0.39794921875,0.017578125,-0.359130859375,0.3893
1.4351145038167938,1.8931297709923665,-1.5877862595419847,-0.39892578125,0.01904296875,-0.35400390625,0.39099999999999996
1.4045801526717556,1.7404580152671756,-1.8625954198473282,-0.404541015625,0.016357421875,-0.351318359375,0.3927
1.5419847328244274,1.7099236641221374,-1.984732824427481,-0.40185546875,0.02197265625,-0.35498046875,0.3944
1.465648854961832,1.8625954198473282,-1.816793893129771,-0.402587890625,0.01904296875,-0.35986328125,0.39609999999999995
1.450381679389313,2.0763358778625953,-1.6793893129770991,-0.402099609375,0.01904296875,-0.364990234375,0.3978
1.4809160305343512,1.83206106870229,-1.8625954198473282,-0.395263671875,0.01904296875,-0.36083984375,0.39949999999999997
1.7099236641221374,1.7251908396946565,-1.6946564885496183,-0.400634765625,0.021240234375,-0.351806640625,0.4012
1.5877862595419847,1.7404580152671756,-1.7099236641221374,-0.401123046875,0.021240234375,-0.36083984375,0.4029
1.465648854961832,1.9083969465648856,-1.816793893129771,-0.403076171875,0.01611328125,-0.35791015625,0.40459999999999996
1.5419847328244274,1.7099236641221374,-1.8473282442748091,-0.399169921875,0.01611328125,-0.3681640625,0.4063
1.6030534351145038,1.786259541984733,-1.7557251908396947,-0.402099609375,0.023681640625,-0.357421875,0.408
1.5572519083969465,1.816793893129771,-1.8931297709923665,-0.40087890625,0.019287109375,-0.356201171875,0.40969999999999995
1.5572519083969465,1.786259541984733,-1.9389312977099236,-0.401611328125,0.019775390625,-0.354248046875,0.4114
1.633587786259542,1.6946564885496183,-1.9694656488549618,-0.40283203125,0.017822265625,-0.35498046875,0.41309999999999997
1.5419847328244274,1.618320610687023,-1.9694656488549618,-0.40576171875,0.010986328125,-0.35400390625,0.4148
1.7251908396946565,1.6488549618320612,-1.9389312977099236,-0.40087890625,0.009765625,-0.3564453125,0.4165
1.6793893129770991,1.83206106870229,-1.9236641221374047,-0.404296875,0.019775390625,-0.35986328125,0.41819999999999996
1.6946564885496183,1.8931297709923665,-1.9083969465648856,-0.40234375,0.011962890625,-0.353515625,0.4199
1.6488549618320612,1.7709923664122138,-1.8473282442748091,-0.4013671875,0.013916015625,-0.3544921875,0.4216
1.6793893129770991,1.786259541984733,-1.7404580152671756,-0.4033203125,0.019775390625,-0.36083984375,0.42329999999999995
1.7557251908396947,1.816793893129771,-1.7099236641221374,-0.394775390625,0.01611328125,-0.35595703125,0.425
1.5877862595419847,1.8015267175572518,-1.8015267175572518,-0.40087890625,0.015380859375,-0.3544921875,0.42669999999999997
1.633587786259542,1.8931297709923665,-1.6488549618320612,-0.399658203125,0.01708984375,-0.356689453125,0.4284
1.6793893129770991,1.8625954198473282,-1.7251908396946565,-0.40185546875,0.0146484375,-0.3642578125,0.4301
1.7251908396946565,1.8015267175572518,-1.633587786259542,-0.400634765625,0.017822265625,-0.35400390625,0.43179999999999996
1.6488549618320612,2.0,-1.7099236641221374,-0.39501953125,0.01806640625,-0.3603515625,0.4335
1.786259541984733,1.8931297709923665,-1.633587786259542,-0.402099609375,0.017578125,-0.3583984375,0.4352
1.6793893129770991,1.984732824427481,-1.6030534351145038,-0.3994140625,0.01904296875,-0.3623046875,0.43689999999999996
1.4809160305343512,2.0763358778625953,-1.4961832061068703,-0.399658203125,0.014404296875,-0.35498046875,0.4386
1.6641221374045803,1.8931297709923665,-1.5877862595419847,-0.398193359375,0.016357421875,-0.353515625,0.44029999999999997
1.5114503816793894,1.9083969465648856,-1.618320610687023,-0.402099609375,0.014404296875,-0.361083984375,0.44199999999999995
1.7709923664122138,1.9389312977099236,-1.618320610687023,-0.403076171875,0.01220703125,-0.36181640625,0.4437
1.3893129770992367,1.9389312977099236,-1.618320610687023,-0.40087890625,0.015869140625,-0.364990234375,0.44539999999999996
1.5267175572519085,1.9083969465648856,-1.5725190839694656,-0.399658203125,0.02001953125,-0.362548828125,0.4471
1.3740458015267176,1.7557251908396947,-1.7099236641221374,-0.402099609375,0.0205078125,-0.355712890625,0.4488
1.4045801526717556,1.6946564885496183,-1.3740458015267176,-0.399169921875,0.015869140625,-0.357177734375,0.45049999999999996
1.465648854961832,1.9083969465648856,-1.4351145038167938,-0.39990234375,0.0146484375,-0.355712890625,0.4522
1.450381679389313,1.9541984732824427,-1.251908396946565,-0.4013671875,0.01611328125,-0.35009765625,0.45389999999999997
1.2671755725190839,1.786259541984733,-1.3587786259541985,-0.397705078125,0.017333984375,-0.357421875,0.45559999999999995
1.4045801526717556,1.786259541984733,-1.2671755725190839,-0.404296875,0.02197265625,-0.35498046875,0.4573
1.4045801526717556,1.633587786259542,-1.3740458015267176,-0.403564453125,0.015380859375,-0.361572265625,0.45899999999999996
1.099236641221374,1.7099236641221374,-1.2366412213740459,-0.395751953125,0.01513671875,-0.363525390625,0.4607
1.1603053435114503,1.8931297709923665,-1.1297709923664123,-0.402587890625,0.01806640625,-0.35400390625,0.4624
1.2671755725190839,1.8473282442748091,-1.3435114503816794,-0.401611328125,0.01416015625,-0.3544921875,0.46409999999999996
0.9923664122137404,1.83206106870229,-1.2671755725190839,-0.40576171875,0.01806640625,-0.360107421875,0.4658
0.9923664122137404,1.8931297709923665,-1.297709923664122,-0.405517578125,0.017822265625,-0.359375,0.46749999999999997
1.2061068702290076,1.8778625954198473,-1.465648854961832,-0.40283203125,0.01904296875,-0.361083984375,0.46919999999999995
0.7786259541984732,1.8625954198473282,-1.5877862595419847,-0.404052734375,0.0185546875,-0.3603515625,0.4709
0.916030534351145,1.9541984732824427,-1.5114503816793894,-0.404296875,0.022705078125,-0.356689453125,0.47259999999999996
1.0534351145038168,2.015267175572519,-1.2061068702290076,-0.403564453125,0.015625,-0.35400390625,0.4743
1.1755725190839694,1.984732824427481,-1.2366412213740459,-0.39990234375,0.018798828125,-0.356689453125,0.476
0.9770992366412213,2.1068702290076335,-1.2061068702290076,-0.4052734375,0.019287109375,-0.35107421875,0.47769999999999996
0.9312977099236641,2.030534351145038,-1.3129770992366412,-0.4072265625,0.01953125,-0.35791015625,0.4794
0.9923664122137404,2.015267175572519,-1.4809160305343512,-0.3974609375,0.020751953125,-0.365966796875,0.48109999999999997
0.9618320610687023,2.0,-1.3587786259541985,-0.40966796875,0.01611328125,-0.361328125,0.48279999999999995
1.0534351145038168,2.3053435114503817,-1.1297709923664123,-0.3984375,0.01708984375,-0.35791015625,0.4845
0.9465648854961832,2.16793893129771,-1.4198473282442747,-0.40380859375,0.0205078125,-0.363525390625,0.48619999999999997
0.8702290076335878,2.0916030534351147,-1.3129770992366412,-0.39892578125,0.015380859375,-0.35888671875,0.4879
1.0229007633587786,2.122137404580153,-1.251908396946565,-0.402587890625,0.014892578125,-0.35888671875,0.4896
0.7938931297709924,2.1374045801526718,-1.4045801526717556,-0.401123046875,0.01611328125,-0.366455078125,0.49129999999999996
0.7022900763358778,1.8778625954198473,-1.3435114503816794,-0.400146484375,0.01611328125,-0.361083984375,0.493
0.6412213740458015,2.0763358778625953,-1.1450381679389312,-0.400390625,0.02197265625,-0.349365234375,0.4947
0.7938931297709924,2.1374045801526718,-1.4961832061068703,-0.395751953125,0.016845703125,-0.357666015625,0.49639999999999995
1.0076335877862594,1.9236641221374047,-1.450381679389313,-0.3955078125,0.0166015625,-0.358154296875,0.4981
0.6106870229007634,1.816793893129771,-1.4045801526717556,-0.3974609375,0.019287109375,-0.363525390625,0.49979999999999997
0.6870229007633588,1.9694656488549618,-1.5419847328244274,-0.395263671875,0.014404296875,-0.362060546875,0.5015
0.549618320610687,1.8625954198473282,-1.465648854961832,-0.39306640625,0.01904296875,-0.351318359375,0.5032
0.5801526717557252,1.7404580152671756,-1.4045801526717556,-0.39404296875,0.016357421875,-0.345703125,0.5049
0.5190839694656488,1.7404580152671756,-1.3435114503816794,-0.39794921875,0.021484375,-0.351318359375,0.5065999999999999
0.4122137404580153,1.4809160305343512,-1.4961832061068703,-0.39208984375,0.014892578125,-0.345458984375,0.5083
0.2595419847328244,1.450381679389313,-1.5877862595419847,-0.393798828125,0.01611328125,-0.35205078125,0.51
0.5801526717557252,1.4961832061068703,-1.6030534351145038,-0.391845703125,0.02490234375,-0.354736328125,0.5116999999999999
0.21374045801526717,1.297709923664122,-1.5267175572519085,-0.394287109375,0.022216796875,-0.35693359375,0.5134
0.2595419847328244,1.1603053435114503,-1.465648854961832,-0.39990234375,0.018310546875,-0.353515625,0.5151
0.0916030534351145,1.099236641221374,-1.83206106870229,-0.399169921875,0.017822265625,-0.360107421875,0.5167999999999999
0.030534351145038167,1.0381679389312977,-1.7709923664122138,-0.39697265625,0.015380859375,-0.357177734375,0.5185
0.24427480916030533,0.9923664122137404,-1.816793893129771,-0.400390625,0.01318359375,-0.35498046875,0.5202
0.13740458015267176,0.8549618320610687,-1.6488549618320612,-0.39990234375,0.022216796875,-0.359130859375,0.5218999999999999
0.10687022900763359,0.7938931297709924,-1.9694656488549618,-0.399658203125,0.016357421875,-0.358642578125,0.5236
0.183206106870229,0.8549618320610687,-1.83206106870229,-0.402099609375,0.015625,-0.359619140625,0.5253
-0.07633587786259542,0.8702290076335878,-1.9083969465648856,-0.400390625,0.01513671875,-0.354248046875,0.527
-0.0916030534351145,0.9007633587786259,-1.9541984732824427,-0.404541015625,0.0166015625,-0.3583984375,0.5287
0.24427480916030533,1.0534351145038168,-2.030534351145038,-0.406982421875,0.015625,-0.35693359375,0.5304
0.1984732824427481,1.0687022900763359,-1.7709923664122138,-0.407470703125,0.017822265625,-0.360595703125,0.5321
0.061068702290076333,1.0076335877862594,-1.9083969465648856,-0.402099609375,0.0205078125,-0.35791015625,0.5337999999999999
0.24427480916030533,1.251908396946565,-1.6946564885496183,-0.406494140625,0.01416015625,-0.35888671875,0.5355
0.1984732824427481,1.4045801526717556,-1.83206106870229,-0.40380859375,0.019775390625,-0.3603515625,0.5372
0.24427480916030533,1.4809160305343512,-1.83206106870229,-0.406982421875,0.01708984375,-0.359130859375,0.5388999999999999
0.22900763358778625,1.5572519083969465,-1.8015267175572518,-0.40234375,0.02001953125,-0.363037109375,0.5406
0.32061068702290074,1.6030534351145038,-1.7709923664122138,-0.403564453125,0.0244140625,-0.355224609375,0.5423
0.916030534351145,1.8625954198473282,-1.8778625954198473,-0.406494140625,0.01904296875,-0.35400390625,0.5439999999999999
0.549618320610687,1.786259541984733,-1.7099236641221374,-0.39892578125,0.01708984375,-0.350830078125,0.5457
0.5648854961832062,1.9389312977099236,-1.9694656488549618,-0.40478515625,0.019775390625,-0.357421875,0.5474
0.6259541984732825,2.0,-1.6946564885496183,-0.39892578125,0.023681640625,-0.356201171875,0.5490999999999999
0.8244274809160306,1.816793893129771,-2.0763358778625953,-0.401123046875,0.0234375,-0.35546875,0.5508
0.8396946564885496,1.6793893129770991,-1.8625954198473282,-0.398681640625,0.017578125,-0.355712890625,0.5525
1.099236641221374,1.6488549618320612,-2.1526717557251906,-0.399169921875,0.022705078125,-0.357421875,0.5541999999999999
0.8549618320610687,1.6030534351145038,-2.0916030534351147,-0.396240234375,0.02734375,-0.35009765625,0.5559
0.8702290076335878,1.4198473282442747,-2.2290076335877864,-0.396240234375,0.021728515625,-0.35791015625,0.5576
1.1297709923664123,1.3740458015267176,-2.351145038167939,-0.396728515625,0.024169921875,-0.356201171875,0.5593
1.2061068702290076,1.1755725190839694,-2.2900763358778624,-0.39794921875,0.025634765625,-0.358154296875,0.5609999999999999
1.0534351145038168,1.1755725190839694,-2.2748091603053435,-0.395751953125,0.02294921875,-0.35693359375,0.5627
1.2061068702290076,1.0534351145038168,-2.2900763358778624,-0.401611328125,0.02197265625,-0.353515625,0.5644
1.099236641221374,0.9007633587786259,-2.33587786259542,-0.393798828125,0.0263671875,-0.357421875,0.5660999999999999
1.1603053435114503,0.7480916030534351,-2.351145038167939,-0.399169921875,0.017822265625,-0.357421875,0.5678
1.297709923664122,0.6870229007633588,-2.0916030534351147,-0.3994140625,0.016357421875,-0.35888671875,0.5695
1.4045801526717556,0.6717557251908397,-2.33587786259542,-0.3974609375,0.015625,-0.35107421875,0.5711999999999999
1.0534351145038168,0.6106870229007634,-2.1374045801526718,-0.39794921875,0.01806640625,-0.3603515625,0.5729
1.1145038167938932,0.6259541984732825,-2.1068702290076335,-0.401611328125,0.01513671875,-0.351806640625,0.5746
1.465648854961832,0.7480916030534351,-2.030534351145038,-0.399658203125,0.018310546875,-0.350830078125,0.5762999999999999
1.3129770992366412,0.5190839694656488,-2.0763358778625953,-0.39794921875,0.0205078125,-0.355712890625,0.578
1.282442748091603,0.5648854961832062,-1.9541984732824427,-0.40380859375,0.01708984375,-0.3603515625,0.5797
1.4198473282442747,0.5190839694656488,-2.0916030534351147,-0.404296875,0.023681640625,-0.351318359375,0.5813999999999999
1.5114503816793894,0.5190839694656488,-1.8778625954198473,-0.400390625,0.019775390625,-0.357666015625,0.5831
1.6641221374045803,0.549618320610687,-1.9541984732824427,-0.403564453125,0.022705078125,-0.3564453125,0.5848
1.6793893129770991,0.5954198473282443,-1.8931297709923665,-0.401611328125,0.019775390625,-0.355224609375,0.5865
1.5267175572519085,0.5343511450381679,-1.9236641221374047,-0.404541015625,0.019287109375,-0.3603515625,0.5882
1.618320610687023,0.6259541984732825,-1.5114503816793894,-0.400634765625,0.024169921875,-0.359619140625,0.5899
1.5725190839694656,0.5190839694656488,-1.6641221374045803,-0.402099609375,0.023681640625,-0.3544921875,0.5916
1.6030534351145038,0.5648854961832062,-1.6946564885496183,-0.39892578125,0.023193359375,-0.352294921875,0.5932999999999999
1.6793893129770991,0.5038167938931297,-1.5419847328244274,-0.402099609375,0.01953125,-0.35009765625,0.595
1.8015267175572518,0.5648854961832062,-1.4809160305343512,-0.40283203125,0.016845703125,-0.366455078125,0.5967
1.83206106870229,0.7175572519083969,-1.618320610687023,-0.405517578125,0.018798828125,-0.3623046875,0.5983999999999999
1.7404580152671756,0.549618320610687,-1.5572519083969465,-0.40625,0.0185546875,-0.361328125,0.6001
1.984732824427481,0.6106870229007634,-1.4809160305343512,-0.400146484375,0.02197265625,-0.3544921875,0.6018
1.8778625954198473,0.549618320610687,-1.3282442748091603,-0.402099609375,0.019287109375,-0.352294921875,0.6034999999999999
1.9236641221374047,0.549618320610687,-1.282442748091603,-0.400146484375,0.022705078125,-0.347900390625,0.6052
2.0916030534351147,0.4122137404580153,-1.251908396946565,-0.39599609375,0.01904296875,-0.359619140625,0.6069
1.9541984732824427,0.32061068702290074,-1.282442748091603,-0.402099609375,0.01708984375,-0.358154296875,0.6085999999999999
1.9389312977099236,0.5954198473282443,-1.1755725190839694,-0.40234375,0.013671875,-0.3564453125,0.6103
2.1526717557251906,0.5648854961832062,-1.1603053435114503,-0.399658203125,0.018310546875,-0.349609375,0.612
2.1526717557251906,0.4732824427480916,-1.3282442748091603,-0.399169921875,0.021484375,-0.357421875,0.6136999999999999
2.0610687022900764,0.33587786259541985,-1.3435114503816794,-0.40625,0.019775390625,-0.362060546875,0.6154
2.2748091603053435,0.24427480916030533,-1.251908396946565,-0.404296875,0.02099609375,-0.355712890625,0.6171
2.4427480916030535,0.33587786259541985,-1.297709923664122,-0.401611328125,0.016845703125,-0.347900390625,0.6188
2.16793893129771,0.33587786259541985,-1.3740458015267176,-0.4013671875,0.016845703125,-0.356689453125,0.6204999999999999
2.2290076335877864,0.3053435114503817,-1.3893129770992367,-0.400390625,0.017822265625,-0.353271484375,0.6222
2.1374045801526718,0.3511450381679389,-1.3435114503816794,-0.4033203125,0.02197265625,-0.357421875,0.6239
2.351145038167939,0.10687022900763359,-1.4198473282442747,-0.4013671875,0.017333984375,-0.35693359375,0.6255999999999999
2.2442748091603053,0.10687022900763359,-1.0381679389312977,-0.401123046875,0.018798828125,-0.363525390625,0.6273
2.33587786259542,0.10687022900763359,-1.1908396946564885,-0.39990234375,0.01611328125,-0.3525390625,0.629
2.198473282442748,0.1984732824427481,-1.3282442748091603,-0.3974609375,0.0166015625,-0.355224609375,0.6306999999999999
2.183206106870229,-0.015267175572519083,-1.251908396946565,-0.398681640625,0.01611328125,-0.369384765625,0.6324
2.183206106870229,-0.15267175572519084,-1.282442748091603,-0.39404296875,0.018798828125,-0.3544921875,0.6341
2.122137404580153,0.0916030534351145,-1.3129770992366412,-0.399169921875,0.014892578125,-0.353271484375,0.6357999999999999
2.3053435114503817,0.04580152671755725,-1.251908396946565,-0.395751953125,0.009765625,-0.3525390625,0.6375
2.1068702290076335,-0.015267175572519083,-1.4351145038167938,-0.3974609375,0.01171875,-0.358642578125,0.6392
2.2748091603053435,-0.12213740458015267,-1.3893129770992367,-0.397705078125,0.015380859375,-0.36376953125,0.6408999999999999
2.198473282442748,-0.04580152671755725,-1.282442748091603,-0.397705078125,0.016845703125,-0.35302734375,0.6426
2.198473282442748,0.07633587786259542,-1.4351145038167938,-0.3994140625,0.015869140625,-0.3525390625,0.6443
1.9236641221374047,0.16793893129770993,-1.4045801526717556,-0.404541015625,0.010498046875,-0.349853515625,0.646
1.9694656488549618,0.061068702290076333,-1.251908396946565,-0.398193359375,0.0146484375,-0.35302734375,0.6476999999999999
2.0916030534351147,0.1984732824427481,-1.1603053435114503,-0.40185546875,0.012451171875,-0.3525390625,0.6494
1.8931297709923665,0.16793893129770993,-1.2366412213740459,-0.3994140625,0.0107421875,-0.36181640625,0.6511
1.8015267175572518,0.12213740458015267,-1.297709923664122,-0.398681640625,0.01416015625,-0.35693359375,0.6527999999999999
1.816793893129771,0.13740458015267176,-1.3282442748091603,-0.39794921875,0.01220703125,-0.349853515625,0.6545
1.6946564885496183,0.13740458015267176,-1.2213740458015268,-0.404541015625,0.01708984375,-0.36083984375,0.6562
1.3435114503816794,0.16793893129770993,-1.2671755725190839,-0.398193359375,0.0185546875,-0.362060546875,0.6578999999999999
1.5572519083969465,0.16793893129770993,-1.3893129770992367,-0.399658203125,0.014892578125,-0.35888671875,0.6596
1.4961832061068703,0.12213740458015267,-1.251908396946565,-0.401611328125,0.01171875,-0.35009765625,0.6613
1.5877862595419847,0.24427480916030533,-1.3435114503816794,-0.399658203125,0.014404296875,-0.355224609375,0.6629999999999999
1.450381679389313,0.2900763358778626,-1.083969465648855,-0.40087890625,0.01123046875,-0.3583984375,0.6647
1.2061068702290076,0.2900763358778626,-1.1603053435114503,-0.400390625,0.01220703125,-0.36474609375,0.6664
1.3129770992366412,0.3511450381679389,-1.2061068702290076,-0.403564453125,0.015625,-0.344970703125,0.6680999999999999
1.3740458015267176,0.33587786259541985,-1.3129770992366412,-0.402099609375,0.01904296875,-0.350830078125,0.6698
1.0381679389312977,0.3053435114503817,-1.2671755725190839,-0.40234375,0.0126953125,-0.34912109375,0.6715
1.1755725190839694,0.48854961832061067,-1.3893129770992367,-0.4072265625,0.013427734375,-0.3583984375,0.6731999999999999
1.0534351145038168,0.4580152671755725,-1.3740458015267176,-0.404296875,0.0185546875,-0.35107421875,0.6748999999999999
1.1297709923664123,0.3816793893129771,-1.3740458015267176,-0.404541015625,0.017333984375,-0.354736328125,0.6766
0.9465648854961832,0.42748091603053434,-1.3129770992366412,-0.39990234375,0.017822265625,-0.35498046875,0.6783
0.916030534351145,0.33587786259541985,-1.2061068702290076,-0.4052734375,0.0126953125,-0.365234375,0.6799999999999999
0.8854961832061069,0.6106870229007634,-1.3282442748091603,-0.4033203125,0.010498046875,-0.351806640625,0.6817
0.7633587786259542,0.549618320610687,-1.3587786259541985,-0.404541015625,0.01220703125,-0.352294921875,0.6834
0.5648854961832062,0.5343511450381679,-1.3740458015267176,-0.403564453125,0.014404296875,-0.35693359375,0.6850999999999999
0.8091603053435115,0.732824427480916,-1.2213740458015268,-0.40234375,0.018310546875,-0.354736328125,0.6868
0.7938931297709924,0.5954198473282443,-1.4351145038167938,-0.404052734375,0.0185546875,-0.355224609375,0.6885
0.7175572519083969,0.6717557251908397,-1.3740458015267176,-0.4033203125,0.01220703125,-0.36181640625,0.6901999999999999
0.4580152671755725,0.7633587786259542,-1.4351145038167938,-0.398681640625,0.01123046875,-0.356201171875,0.6919
0.48854961832061067,0.7786259541984732,-1.3587786259541985,-0.40234375,0.01318359375,-0.3564453125,0.6936
0.4122137404580153,0.8396946564885496,-1.3740458015267176,-0.398193359375,0.012939453125,-0.3623046875,0.6952999999999999
0.3053435114503817,0.7786259541984732,-1.465648854961832,-0.405029296875,0.018798828125,-0.357421875,0.697
0.2748091603053435,0.9312977099236641,-1.7404580152671756,-0.40380859375,0.02197265625,-0.349365234375,0.6987
0.4122137404580153,1.0076335877862594,-1.3893129770992367,-0.3984375,0.018310546875,-0.3525390625,0.7003999999999999
0.5038167938931297,0.8244274809160306,-1.4198473282442747,-0.405029296875,0.012939453125,-0.358154296875,0.7021
0.366412213740458,0.7633587786259542,-1.4045801526717556,-0.403564453125,0.01611328125,-0.35791015625,0.7038
0.13740458015267176,0.9007633587786259,-1.7099236641221374,-0.404052734375,0.015380859375,-0.355712890625,0.7055
0.3053435114503817,1.099236641221374,-1.450381679389313,-0.40185546875,0.015625,-0.354248046875,0.7071999999999999
0.24427480916030533,1.1603053435114503,-1.4809160305343512,-0.4033203125,0.021728515625,-0.358154296875,0.7089
0.0916030534351145,0.9312977099236641,-1.4045801526717556,-0.4013671875,0.017822265625,-0.355224609375,0.7106
0.1984732824427481,1.0687022900763359,-1.465648854961832,-0.402587890625,0.018310546875,-0.350341796875,0.7122999999999999
0.2595419847328244,0.9923664122137404,-1.3435114503816794,-0.406005859375,0.013427734375,-0.3486328125,0.714
0.2595419847328244,0.9007633587786259,-1.6488549618320612,-0.40234375,0.013671875,-0.349853515625,0.7157
0.030534351145038167,0.9312977099236641,-1.5725190839694656,-0.400146484375,0.021240234375,-0.355712890625,0.7173999999999999
0.15267175572519084,1.0076335877862594,-1.4961832061068703,-0.4033203125,0.01708984375,-0.360107421875,0.7191
0.3053435114503817,1.1755725190839694,-1.618320610687023,-0.4052734375,0.021484375,-0.36669921875,0.7208
0.32061068702290074,1.0229007633587786,-1.7404580152671756,-0.405029296875,0.018310546875,-0.36376953125,0.7224999999999999
0.22900763358778625,1.0229007633587786,-1.7404580152671756,-0.4052734375,0.017822265625,-0.359619140625,0.7242
0.33587786259541985,1.1908396946564885,-1.8931297709923665,-0.404541015625,0.014892578125,-0.353515625,0.7259
0.33587786259541985,1.1908396946564885,-1.8625954198473282,-0.40625,0.01806640625,-0.348876953125,0.7275999999999999
0.32061068702290074,1.2213740458015268,-1.8931297709923665,-0.407958984375,0.01611328125,-0.35400390625,0.7293
0.4122137404580153,1.1908396946564885,-1.816793893129771,-0.402587890625,0.0205078125,-0.35595703125,0.731
0.366412213740458,1.3435114503816794,-1.9083969465648856,-0.4033203125,0.019287109375,-0.354736328125,0.7326999999999999
0.44274809160305345,1.1603053435114503,-1.8015267175572518,-0.402099609375,0.018798828125,-0.34765625,0.7343999999999999
0.366412213740458,1.2213740458015268,-1.9541984732824427,-0.4013671875,0.018310546875,-0.345703125,0.7361
0.4732824427480916,1.3282442748091603,-1.83206106870229,-0.40087890625,0.017822265625,-0.35302734375,0.7378
0.6106870229007634,1.3282442748091603,-2.0916030534351147,-0.399169921875,0.02099609375,-0.355224609375,0.7394999999999999
0.48854961832061067,1.4045801526717556,-1.7404580152671756,-0.39990234375,0.014404296875,-0.356201171875,0.7412
0.6259541984732825,1.4809160305343512,-1.816793893129771,-0.39892578125,0.0146484375,-0.3603515625,0.7429
0.5648854961832062,1.5725190839694656,-1.6488549618320612,-0.39794921875,0.017822265625,-0.35595703125,0.7445999999999999
0.5038167938931297,1.5572519083969465,-1.9236641221374047,-0.396484375,0.018798828125,-0.359619140625,0.7463
0.5648854961832062,1.4045801526717556,-1.8015267175572518,-0.39501953125,0.015380859375,-0.3515625,0.748
0.5954198473282443,1.4198473282442747,-1.7404580152671756,-0.3994140625,0.017578125,-0.35400390625,0.7496999999999999
0.6412213740458015,1.465648854961832,-1.8625954198473282,-0.402099609375,0.016845703125,-0.355224609375,0.7514
0.5954198473282443,1.297709923664122,-1.7404580152671756,-0.4033203125,0.0166015625,-0.362548828125,0.7531
0.6564885496183206,1.2366412213740459,-1.6488549618320612,-0.3955078125,0.017578125,-0.35546875,0.7547999999999999
0.4732824427480916,1.083969465648855,-1.8015267175572518,-0.4033203125,0.014892578125,-0.3564453125,0.7565
0.42748091603053434,0.9465648854961832,-1.6641221374045803,-0.403076171875,0.019287109375,-0.34912109375,0.7582
0.5954198473282443,0.8549618320610687,-1.633587786259542,-0.408447265625,0.02001953125,-0.35888671875,0.7598999999999999
0.5801526717557252,1.0381679389312977,-1.5114503816793894,-0.405517578125,0.02099609375,-0.352294921875,0.7615999999999999
0.5038167938931297,0.8091603053435115,-1.7709923664122138,-0.399658203125,0.012451171875,-0.353759765625,0.7633
0.5648854961832062,0.6870229007633588,-1.6488549618320612,-0.403076171875,0.017822265625,-0.357421875,0.7649999999999999
0.5648854961832062,0.8244274809160306,-1.7251908396946565,-0.400146484375,0.019775390625,-0.349365234375,0.7666999999999999
0.549618320610687,0.9770992366412213,-1.465648854961832,-0.40087890625,0.018310546875,-0.35400390625,0.7684
0.5190839694656488,1.0534351145038168,-1.5877862595419847,-0.40234375,0.013427734375,-0.352783203125,0.7701
0.42748091603053434,1.099236641221374,-1.2366412213740459,-0.402099609375,0.01171875,-0.35400390625,0.7717999999999999
0.5648854961832062,1.0687022900763359,-1.4809160305343512,-0.41015625,0.019287109375,-0.353271484375,0.7735
0.5954198473282443,1.1145038167938932,-1.4351145038167938,-0.404296875,0.0205078125,-0.356689453125,0.7752
0.6870229007633588,1.1603053435114503,-1.4198473282442747,-0.406494140625,0.0205078125,-0.361572265625,0.7768999999999999
0.48854961832061067,1.2213740458015268,-1.1908396946564885,-0.4033203125,0.02197265625,-0.366455078125,0.7786
0.3969465648854962,1.1755725190839694,-1.2061068702290076,-0.405029296875,0.018310546875,-0.35498046875,0.7803
0.8854961832061069,1.3740458015267176,-1.297709923664122,-0.404052734375,0.020751953125,-0.36474609375,0.7819999999999999
0.8702290076335878,1.3282442748091603,-1.1145038167938932,-0.401611328125,0.018310546875,-0.3515625,0.7837
0.916030534351145,1.3435114503816794,-1.2213740458015268,-0.40478515625,0.019287109375,-0.349609375,0.7854
0.7480916030534351,1.465648854961832,-1.3435114503816794,-0.395751953125,0.02490234375,-0.361083984375,0.7870999999999999
0.7480916030534351,1.3740458015267176,-1.3435114503816794,-0.40185546875,0.023193359375,-0.357666015625,0.7888
0.8244274809160306,1.2671755725190839,-1.4809160305343512,-0.400634765625,0.016357421875,-0.357177734375,0.7905
0.9007633587786259,1.1908396946564885,-1.5419847328244274,-0.39794921875,0.01708984375,-0.35400390625,0.7921999999999999
1.083969465648855,1.251908396946565,-1.6946564885496183,-0.3974609375,0.01806640625,-0.364013671875,0.7938999999999999
1.1908396946564885,1.0687022900763359,-1.5877862595419847,-0.400634765625,0.0244140625,-0.362060546875,0.7956
1.2213740458015268,0.9618320610687023,-1.7251908396946565,-0.39990234375,0.021728515625,-0.358154296875,0.7973
1.1755725190839694,1.0534351145038168,-1.5572519083969465,-0.399169921875,0.02001953125,-0.34814453125,0.7989999999999999
1.1603053435114503,0.9312977099236641,-1.786259541984733,-0.400634765625,0.021728515625,-0.3486328125,0.8007
1.3129770992366412,1.099236641221374,-1.7709923664122138,-0.3994140625,0.02099609375,-0.360595703125,0.8024
1.4351145038167938,0.916030534351145,-1.8625954198473282,-0.4013671875,0.017822265625,-0.358154296875,0.8040999999999999
1.1908396946564885,1.0381679389312977,-1.6946564885496183,-0.39990234375,0.020751953125,-0.359619140625,0.8058
1.1603053435114503,0.9312977099236641,-1.8015267175572518,-0.400390625,0.0185546875,-0.350341796875,0.8075
1.5572519083969465,0.9770992366412213,-1.9083969465648856,-0.400390625,0.016357421875,-0.356689453125,0.8091999999999999
1.4809160305343512,0.9312977099236641,-1.6793893129770991,-0.40234375,0.013671875,-0.35595703125,0.8109
1.2061068702290076,0.8091603053435115,-1.7709923664122138,-0.402587890625,0.01220703125,-0.36279296875,0.8126
1.4045801526717556,1.099236641221374,-1.816793893129771,-0.39892578125,0.017578125,-0.353271484375,0.8142999999999999
1.4809160305343512,0.9923664122137404,-1.5725190839694656,-0.3994140625,0.017333984375,-0.350341796875,0.816
1.4045801526717556,1.0687022900763359,-1.7251908396946565,-0.401611328125,0.02001953125,-0.362060546875,0.8177
1.5877862595419847,1.0229007633587786,-1.618320610687023,-0.397705078125,0.01708984375,-0.350341796875,0.8193999999999999
1.4809160305343512,0.8702290076335878,-1.5267175572519085,-0.40234375,0.0146484375,-0.3486328125,0.8210999999999999
1.3893129770992367,0.9923664122137404,-1.6030534351145038,-0.40380859375,0.01318359375,-0.35888671875,0.8228
1.4351145038167938,0.8244274809160306,-1.4961832061068703,-0.40478515625,0.01513671875,-0.36181640625,0.8244999999999999
1.5114503816793894,0.9312977099236641,-1.3740458015267176,-0.40087890625,0.0166015625,-0.3564453125,0.8261999999999999
1.3435114503816794,0.916030534351145,-1.3282442748091603,-0.408935546875,0.020751953125,-0.364013671875,0.8279
1.465648854961832,0.8854961832061069,-1.3435114503816794,-0.402099609375,0.024169921875,-0.3583984375,0.8296
1.2213740458015268,0.9007633587786259,-1.3129770992366412,-0.404541015625,0.015869140625,-0.350341796875,0.8312999999999999
1.083969465648855,0.9923664122137404,-1.1297709923664123,-0.40380859375,0.019287109375,-0.353759765625,0.833
1.1755725190839694,1.083969465648855,-1.251908396946565,-0.4013671875,0.019287109375,-0.36083984375,0.8347
1.1450381679389312,1.1297709923664123,-1.0534351145038168,-0.402587890625,0.018798828125,-0.361572265625,0.8363999999999999
1.297709923664122,0.9465648854961832,-1.0381679389312977,-0.40087890625,0.017822265625,-0.359130859375,0.8381
1.083969465648855,1.0229007633587786,-1.0076335877862594,-0.399658203125,0.013916015625,-0.356201171875,0.8398
1.1908396946564885,0.9770992366412213,-1.0381679389312977,-0.401611328125,0.016357421875,-0.35107421875,0.8414999999999999
1.3587786259541985,1.1145038167938932,-1.0534351145038168,-0.395263671875,0.014404296875,-0.36328125,0.8432
1.0076335877862594,1.1755725190839694,-1.0687022900763359,-0.4013671875,0.017822265625,-0.360595703125,0.8449
0.9312977099236641,1.1145038167938932,-0.9923664122137404,-0.40625,0.016357421875,-0.35498046875,0.8465999999999999
1.1297709923664123,1.0534351145038168,-1.1297709923664123,-0.399169921875,0.013671875,-0.357666015625,0.8482999999999999
1.0381679389312977,1.1603053435114503,-1.0076335877862594,-0.40283203125,0.017333984375,-0.35498046875,0.85
1.1603053435114503,0.9770992366412213,-0.7175572519083969,-0.400634765625,0.015625,-0.36376953125,0.8516999999999999
0.9770992366412213,1.0687022900763359,-0.7938931297709924,-0.396728515625,0.018310546875,-0.3515625,0.8533999999999999
0.9465648854961832,0.8702290076335878,-0.8702290076335878,-0.396240234375,0.016845703125,-0.353515625,0.8551
0.9770992366412213,0.916030534351145,-0.7022900763358778,-0.400390625,0.014892578125,-0.360595703125,0.8568
0.8549618320610687,0.9312977099236641,-0.9312977099236641,-0.40234375,0.0166015625,-0.353759765625,0.8584999999999999
0.9312977099236641,0.9465648854961832,-0.916030534351145,-0.39892578125,0.017822265625,-0.3603515625,0.8602
1.099236641221374,0.9007633587786259,-0.8244274809160306,-0.403564453125,0.015380859375,-0.366455078125,0.8619
1.0687022900763359,0.7938931297709924,-1.0229007633587786,-0.400634765625,0.02294921875,-0.355712890625,0.8635999999999999
1.0534351145038168,0.9007633587786259,-1.0534351145038168,-0.402587890625,0.018310546875,-0.36279296875,0.8653
1.0229007633587786,0.9770992366412213,-1.2213740458015268,-0.40234375,0.015625,-0.3525390625,0.867
0.916030534351145,0.8549618320610687,-1.0229007633587786,-0.400390625,0.02099609375,-0.357666015625,0.8686999999999999
0.8396946564885496,0.9007633587786259,-1.2213740458015268,-0.401611328125,0.01708984375,-0.36279296875,0.8704
1.0076335877862594,0.7022900763358778,-1.282442748091603,-0.398193359375,0.02197265625,-0.35693359375,0.8721
0.8549618320610687,0.7938931297709924,-1.2213740458015268,-0.399169921875,0.014404296875,-0.361328125,0.8737999999999999
0.7022900763358778,0.8396946564885496,-1.1297709923664123,-0.398681640625,0.021728515625,-0.363037109375,0.8755
0.8091603053435115,0.9007633587786259,-1.2671755725190839,-0.396484375,0.019775390625,-0.356201171875,0.8772
0.8702290076335878,0.7175572519083969,-1.3435114503816794,-0.40185546875,0.019775390625,-0.359130859375,0.8788999999999999
0.7786259541984732,0.7633587786259542,-1.3587786259541985,-0.398193359375,0.02294921875,-0.358642578125,0.8805999999999999
0.8091603053435115,0.6259541984732825,-1.2061068702290076,-0.401611328125,0.018310546875,-0.362060546875,0.8823
0.8396946564885496,0.8091603053435115,-1.3129770992366412,-0.399169921875,0.017578125,-0.3544921875,0.8839999999999999
0.8854961832061069,0.8549618320610687,-1.2366412213740459,-0.398193359375,0.02001953125,-0.35400390625,0.8856999999999999
0.6259541984732825,0.8854961832061069,-1.4809160305343512,-0.40478515625,0.02294921875,-0.35986328125,0.8874
0.7022900763358778,0.8549618320610687,-1.1908396946564885,-0.4033203125,0.016357421875,-0.35791015625,0.8891
0.9007633587786259,0.7633587786259542,-1.5572519083969465,-0.396240234375,0.01416015625,-0.357421875,0.8907999999999999
0.6870229007633588,0.7022900763358778,-1.3435114503816794,-0.39306640625,0.014404296875,-0.35009765625,0.8925
0.732824427480916,0.9312977099236641,-1.297709923664122,-0.400634765625,0.017333984375,-0.353271484375,0.8942
0.7786259541984732,0.6717557251908397,-1.5267175572519085,-0.395263671875,0.018798828125,-0.351806640625,0.8958999999999999
0.7175572519083969,0.7175572519083969,-1.3893129770992367,-0.398681640625,0.01611328125,-0.367919921875,0.8976
0.7786259541984732,0.7175572519083969,-1.2671755725190839,-0.400634765625,0.017578125,-0.356689453125,0.8993
0.6564885496183206,0.7786259541984732,-1.5114503816793894,-0.4033203125,0.015869140625,-0.35009765625,0.9009999999999999
0.5648854961832062,0.6564885496183206,-1.2061068702290076,-0.403076171875,0.015625,-0.35888671875,0.9027
0.7022900763358778,0.8396946564885496,-1.4961832061068703,-0.3994140625,0.017578125,-0.359619140625,0.9044
0.4122137404580153,0.7022900763358778,-1.5114503816793894,-0.4033203125,0.013916015625,-0.365966796875,0.9060999999999999
0.44274809160305345,0.549618320610687,-1.4045801526717556,-0.398681640625,0.014404296875,-0.3544921875,0.9077999999999999
0.549618320610687,0.8549618320610687,-1.450381679389313,-0.405029296875,0.015380859375,-0.3515625,0.9095
0.7786259541984732,0.7938931297709924,-1.4045801526717556,-0.40234375,0.01416015625,-0.355224609375,0.9111999999999999
0.3511450381679389,0.6412213740458015,-1.3435114503816794,-0.3984375,0.016845703125,-0.357666015625,0.9128999999999999
0.4580152671755725,0.6412213740458015,-1.3435114503816794,-0.39892578125,0.015869140625,-0.359375,0.9146
0.6259541984732825,0.6870229007633588,-1.4351145038167938,-0.40087890625,0.020263671875,-0.35498046875,0.9163
0.3969465648854962,0.7022900763358778,-1.5267175572519085,-0.39990234375,0.02001953125,-0.351318359375,0.9179999999999999
0.366412213740458,0.6106870229007634,-1.4961832061068703,-0.40087890625,0.01318359375,-0.347900390625,0.9197
0.3816793893129771,0.8091603053435115,-1.4045801526717556,-0.40234375,0.016845703125,-0.362548828125,0.9214
0.6564885496183206,0.8549618320610687,-1.3282442748091603,-0.402099609375,0.01611328125,-0.356689453125,0.9230999999999999
0.5343511450381679,0.8091603053435115,-1.4198473282442747,-0.40283203125,0.018798828125,-0.359375,0.9248
0.42748091603053434,1.0229007633587786,-1.4045801526717556,-0.40478515625,0.012939453125,-0.35546875,0.9265
0.2595419847328244,0.9465648854961832,-1.5419847328244274,-0.39892578125,0.0146484375,-0.350341796875,0.9281999999999999
0.48854961832061067,0.916030534351145,-1.4351145038167938,-0.402587890625,0.017333984375,-0.35595703125,0.9299
0.42748091603053434,0.9007633587786259,-1.5419847328244274,-0.403076171875,0.01904296875,-0.348876953125,0.9316
0.5038167938931297,0.9923664122137404,-1.5114503816793894,-0.39990234375,0.018310546875,-0.35498046875,0.9332999999999999
0.4122137404580153,1.0076335877862594,-1.5572519083969465,-0.404541015625,0.01904296875,-0.35302734375,0.9349999999999999
0.3053435114503817,0.9007633587786259,-1.4198473282442747,-0.404052734375,0.02099609375,-0.357177734375,0.9367
0.2900763358778626,0.8396946564885496,-1.450381679389313,-0.404052734375,0.0205078125,-0.356689453125,0.9383999999999999
0.44274809160305345,0.8854961832061069,-1.5725190839694656,-0.400634765625,0.019775390625,-0.3544921875,0.9400999999999999
0.6870229007633588,0.9007633587786259,-1.465648854961832,-0.404052734375,0.01806640625,-0.3544921875,0.9418
0.48854961832061067,1.083969465648855,-1.2671755725190839,-0.402587890625,0.016845703125,-0.35498046875,0.9434999999999999
0.5343511450381679,0.9312977099236641,-1.6488549618320612,-0.402099609375,0.017822265625,-0.351806640625,0.9451999999999999
0.5954198473282443,1.0229007633587786,-1.5419847328244274,-0.405029296875,0.019775390625,-0.35791015625,0.9469
0.5343511450381679,1.0534351145038168,-1.5725190839694656,-0.40087890625,0.0205078125,-0.3544921875,0.9486
0.5954198473282443,0.916030534351145,-1.465648854961832,-0.399169921875,0.016845703125,-0.354736328125,0.9502999999999999
0.5648854961832062,1.0687022900763359,-1.618320610687023,-0.402587890625,0.019287109375,-0.360595703125,0.952
0.4580152671755725,1.0534351145038168,-1.4961832061068703,-0.406982421875,0.016357421875,-0.357421875,0.9537
0.5343511450381679,0.916030534351145,-1.6641221374045803,-0.405517578125,0.021484375,-0.3525390625,0.9553999999999999
0.3969465648854962,1.0381679389312977,-1.465648854961832,-0.404052734375,0.020751953125,-0.352783203125,0.9571
0.6412213740458015,0.9618320610687023,-1.6030534351145038,-0.39892578125,0.019775390625,-0.360595703125,0.9588
0.7022900763358778,1.0076335877862594,-1.5572519083969465,-0.4033203125,0.014892578125,-0.3544921875,0.9604999999999999
0.7175572519083969,0.8854961832061069,-1.5572519083969465,-0.40380859375,0.016845703125,-0.35205078125,0.9621999999999999
0.7175572519083969,0.9923664122137404,-1.4961832061068703,-0.39501953125,0.019287109375,-0.35595703125,0.9639
0.8854961832061069,1.0534351145038168,-1.7099236641221374,-0.40380859375,0.015869140625,-0.359619140625,0.9655999999999999
0.6870229007633588,1.0076335877862594,-1.5572519083969465,-0.39453125,0.02099609375,-0.353759765625,0.9672999999999999
0.8091603053435115,1.0687022900763359,-1.6946564885496183,-0.404052734375,0.01806640625,-0.3544921875,0.969
0.8854961832061069,0.8244274809160306,-1.5419847328244274,-0.398681640625,0.024169921875,-0.361083984375,0.9706999999999999
0.9312977099236641,0.8549618320610687,-1.5267175572519085,-0.397216796875,0.017822265625,-0.36376953125,0.9723999999999999
1.0687022900763359,1.0687022900763359,-1.450381679389313,-0.402099609375,0.0224609375,-0.362548828125,0.9741
0.7786259541984732,1.0381679389312977,-1.5877862595419847,-0.40576171875,0.01708984375,-0.356201171875,0.9758
0.8396946564885496,0.916030534351145,-1.450381679389313,-0.401611328125,0.022705078125,-0.363037109375,0.9774999999999999
1.083969465648855,1.0381679389312977,-1.5725190839694656,-0.404541015625,0.01708984375,-0.3603515625,0.9792
0.9312977099236641,1.083969465648855,-1.5877862595419847,-0.4033203125,0.019775390625,-0.363037109375,0.9809
0.9465648854961832,0.9923664122137404,-1.6946564885496183,-0.40380859375,0.024658203125,-0.35595703125,0.9825999999999999
1.1145038167938932,1.0687022900763359,-1.5114503816793894,-0.394287109375,0.023681640625,-0.35498046875,0.9843
1.3129770992366412,0.7633587786259542,-1.465648854961832,-0.40185546875,0.023193359375,-0.35595703125,0.986
1.0687022900763359,0.9007633587786259,-1.3435114503816794,-0.397216796875,0.022216796875,-0.35498046875,0.9876999999999999
1.1755725190839694,0.9770992366412213,-1.5877862595419847,-0.40087890625,0.019775390625,-0.35595703125,0.9894
1.3435114503816794,0.8854961832061069,-1.5114503816793894,-0.39990234375,0.023681640625,-0.35205078125,0.9911
1.1450381679389312,0.8549618320610687,-1.6488549618320612,-0.40087890625,0.018310546875,-0.358154296875,0.9927999999999999
1.251908396946565,1.0229007633587786,-1.4198473282442747,-0.405517578125,0.022705078125,-0.3525390625,0.9944999999999999
1.3587786259541985,1.083969465648855,-1.5267175572519085,-0.409912109375,0.02001953125,-0.35546875,0.9962
1.4351145038167938,0.9618320610687023,-1.4961832061068703,-0.4013671875,0.022216796875,-0.36669921875,0.9978999999999999
1.4961832061068703,1.0229007633587786,-1.3129770992366412,-0.3994140625,0.0146484375,-0.357421875,0.9995999999999999
1.450381679389313,0.8396946564885496,-1.4198473282442747,-0.398193359375,0.020263671875,-0.361328125,1.0012999999999999
1.4198473282442747,1.083969465648855,-1.5877862595419847,-0.4013671875,0.020751953125,-0.350341796875,1.003
1.4198473282442747,0.9007633587786259,-1.5267175572519085,-0.402099609375,0.01708984375,-0.36083984375,1.0047
1.450381679389313,1.083969465648855,-1.6030534351145038,-0.402099609375,0.01708984375,-0.35302734375,1.0064
1.251908396946565,1.0229007633587786,-1.5114503816793894,-0.396728515625,0.01708984375,-0.357421875,1.0081
1.3740458015267176,1.0687022900763359,-1.3282442748091603,-0.401611328125,0.018798828125,-0.35205078125,1.0098
1.5114503816793894,1.1145038167938932,-1.3893129770992367,-0.401123046875,0.022216796875,-0.357666015625,1.0114999999999998
1.2213740458015268,1.2213740458015268,-1.4961832061068703,-0.401611328125,0.02099609375,-0.351806640625,1.0131999999999999
1.5267175572519085,0.9312977099236641,-1.251908396946565,-0.404541015625,0.01806640625,-0.358154296875,1.0149
1.5725190839694656,1.0534351145038168,-1.3587786259541985,-0.396484375,0.02001953125,-0.361328125,1.0166
1.4351145038167938,1.0229007633587786,-1.3893129770992367,-0.400146484375,0.016845703125,-0.358154296875,1.0183
1.450381679389313,1.1145038167938932,-1.5419847328244274,-0.39892578125,0.02099609375,-0.3544921875,1.02
1.450381679389313,1.297709923664122,-1.4045801526717556,-0.3974609375,0.020751953125,-0.360107421875,1.0217
1.4809160305343512,0.9465648854961832,-1.5725190839694656,-0.3974609375,0.014892578125,-0.359375,1.0233999999999999
1.3587786259541985,0.9923664122137404,-1.1908396946564885,-0.40478515625,0.018798828125,-0.357177734375,1.0251
1.465648854961832,1.1450381679389312,-1.3282442748091603,-0.403076171875,0.019775390625,-0.357177734375,1.0268
1.5267175572519085,1.0381679389312977,-1.3587786259541985,-0.40673828125,0.015380859375,-0.353515625,1.0285
1.6030534351145038,1.0687022900763359,-1.3893129770992367,-0.397216796875,0.019287109375,-0.349365234375,1.0302
1.3129770992366412,1.0381679389312977,-1.3740458015267176,-0.400634765625,0.0166015625,-0.355224609375,1.0319
1.5114503816793894,1.0076335877862594,-1.5114503816793894,-0.3984375,0.023681640625,-0.353515625,1.0335999999999999
1.3740458015267176,0.9923664122137404,-1.3740458015267176,-0.394775390625,0.0205078125,-0.352294921875,1.0352999999999999
1.3435114503816794,1.1297709923664123,-1.4351145038167938,-0.395751953125,0.015380859375,-0.355712890625,1.037
1.4351145038167938,0.9618320610687023,-1.4809160305343512,-0.405029296875,0.02001953125,-0.357177734375,1.0387
1.450381679389313,0.8702290076335878,-1.465648854961832,-0.400634765625,0.01708984375,-0.35595703125,1.0404
1.465648854961832,1.0076335877862594,-1.3282442748091603,-0.39794921875,0.019775390625,-0.351318359375,1.0421
1.4351145038167938,0.7786259541984732,-1.5572519083969465,-0.404296875,0.013427734375,-0.354248046875,1.0437999999999998
1.450381679389313,0.7786259541984732,-1.450381679389313,-0.400634765625,0.018310546875,-0.356201171875,1.0454999999999999
1.7251908396946565,0.9007633587786259,-1.5267175572519085,-0.4013671875,0.013671875,-0.353759765625,1.0472
1.3587786259541985,0.9923664122137404,-1.633587786259542,-0.39697265625,0.021484375,-0.356689453125,1.0489
1.4198473282442747,1.0381679389312977,-1.5419847328244274,-0.400634765625,0.019775390625,-0.350341796875,1.0506
1.3282442748091603,1.0381679389312977,-1.6488549618320612,-0.3994140625,0.013916015625,-0.353271484375,1.0523
1.465648854961832,1.0534351145038168,-1.5725190839694656,-0.399169921875,0.0166015625,-0.354736328125,1.054
1.4045801526717556,0.9007633587786259,-1.5877862595419847,-0.398193359375,0.015380859375,-0.35302734375,1.0556999999999999
1.4045801526717556,0.8702290076335878,-1.5267175572519085,-0.404296875,0.010986328125,-0.3583984375,1.0574
1.3587786259541985,1.0534351145038168,-1.4961832061068703,-0.405029296875,0.02001953125,-0.353271484375,1.0591
1.1908396946564885,1.099236641221374,-1.6488549618320612,-0.40185546875,0.016845703125,-0.355224609375,1.0608
1.3893129770992367,1.0381679389312977,-1.5725190839694656,-0.39892578125,0.020263671875,-0.360107421875,1.0625
1.4351145038167938,1.2366412213740459,-1.4351145038167938,-0.402587890625,0.02392578125,-0.353759765625,1.0642
0.9923664122137404,1.2366412213740459,-1.3893129770992367,-0.40283203125,0.017578125,-0.355224609375,1.0658999999999998
1.251908396946565,1.1297709923664123,-1.6793893129770991,-0.40380859375,0.0146484375,-0.358642578125,1.0675999999999999
1.1908396946564885,1.083969465648855,-1.5267175572519085,-0.400146484375,0.017578125,-0.3603515625,1.0693
1.083969465648855,1.0534351145038168,-1.3587786259541985,-0.400146484375,0.020751953125,-0.353515625,1.071
1.083969465648855,1.1755725190839694,-1.4198473282442747,-0.404541015625,0.013916015625,-0.35888671875,1.0727
1.1145038167938932,1.0229007633587786,-1.2366412213740459,-0.39892578125,0.01611328125,-0.354736328125,1.0744
1.0687022900763359,1.1297709923664123,-1.3587786259541985,-0.396240234375,0.017578125,-0.360595703125,1.0760999999999998
1.0381679389312977,1.2366412213740459,-1.4351145038167938,-0.39697265625,0.017578125,-0.356689453125,1.0777999999999999
0.8091603053435115,1.251908396946565,-1.5114503816793894,-0.402099609375,0.013671875,-0.355224609375,1.0795
0.916030534351145,1.1450381679389312,-1.3893129770992367,-0.402587890625,0.015869140625,-0.35546875,1.0812
0.9312977099236641,1.1603053435114503,-1.4351145038167938,-0.4052734375,0.010986328125,-0.359375,1.0829
0.7938931297709924,1.083969465648855,-1.5267175572519085,-0.403076171875,0.017333984375,-0.361328125,1.0846
0.8244274809160306,1.1603053435114503,-1.3893129770992367,-0.399169921875,0.015625,-0.35498046875,1.0863
0.6870229007633588,1.1603053435114503,-1.2061068702290076,-0.405029296875,0.0185546875,-0.36083984375,1.0879999999999999
0.6717557251908397,1.0076335877862594,-1.4809160305343512,-0.398193359375,0.01708984375,-0.353515625,1.0897
0.7175572519083969,1.1450381679389312,-1.3282442748091603,-0.403076171875,0.01708984375,-0.35107421875,1.0914
0.5801526717557252,1.2213740458015268,-1.1755725190839694,-0.39892578125,0.017822265625,-0.35693359375,1.0931
0.8396946564885496,1.0229007633587786,-1.3435114503816794,-0.40478515625,0.009033203125,-0.36376953125,1.0948
0.2748091603053435,1.2366412213740459,-1.3282442748091603,-0.40185546875,0.013427734375,-0.359130859375,1.0965
0.3511450381679389,0.9312977099236641,-1.2213740458015268,-0.404296875,0.018310546875,-0.3515625,1.0981999999999998
0.5038167938931297,0.7786259541984732,-0.9770992366412213,-0.40673828125,0.017822265625,-0.359375,1.0998999999999999
0.48854961832061067,0.7938931297709924,-1.282442748091603,-0.40576171875,0.01513671875,-0.353271484375,1.1016
0.6106870229007634,0.9312977099236641,-1.3282442748091603,-0.40625,0.01318359375,-0.3515625,1.1033
0.5190839694656488,0.9007633587786259,-1.1908396946564885,-0.4033203125,0.016357421875,-0.3583984375,1.105
0.6259541984732825,0.8549618320610687,-1.2213740458015268,-0.404541015625,0.014892578125,-0.3603515625,1.1067
0.5954198473282443,0.9007633587786259,-1.2671755725190839,-0.41015625,0.0126953125,-0.3564453125,1.1083999999999998
0.3511450381679389,1.0687022900763359,-1.297709923664122,-0.4052734375,0.012939453125,-0.3564453125,1.1100999999999999
0.15267175572519084,1.0687022900763359,-0.9312977099236641,-0.40185546875,0.020263671875,-0.35986328125,1.1118
0.3511450381679389,0.9618320610687023,-0.9465648854961832,-0.401611328125,0.01708984375,-0.357177734375,1.1135
0.4122137404580153,0.9007633587786259,-1.0229007633587786,-0.40673828125,0.017578125,-0.359375,1.1152
0.4122137404580153,0.9465648854961832,-1.083969465648855,-0.39697265625,0.017333984375,-0.3564453125,1.1169
0.3511450381679389,0.8854961832061069,-0.8549618320610687,-0.400634765625,0.013671875,-0.3583984375,1.1186
0.32061068702290074,1.0687022900763359,-0.8549618320610687,-0.40087890625,0.016357421875,-0.35107421875,1.1202999999999999
0.3816793893129771,0.8854961832061069,-0.8396946564885496,-0.396484375,0.01708984375,-0.345458984375,1.1219999999999999
0.33587786259541985,0.7175572519083969,-1.1603053435114503,-0.3984375,0.01708984375,-0.352294921875,1.1237
0.4122137404580153,0.7938931297709924,-1.083969465648855,-0.399658203125,0.02392578125,-0.355224609375,1.1254
0.44274809160305345,0.6717557251908397,-1.3129770992366412,-0.398193359375,0.020263671875,-0.348876953125,1.1271
0.4580152671755725,0.7938931297709924,-0.916030534351145,-0.399169921875,0.021484375,-0.353271484375,1.1288
0.366412213740458,0.9007633587786259,-1.083969465648855,-0.398193359375,0.01513671875,-0.35693359375,1.1304999999999998
0.3816793893129771,0.6870229007633588,-1.1145038167938932,-0.4013671875,0.015625,-0.352294921875,1.1321999999999999
0.42748091603053434,0.7022900763358778,-0.916030534351145,-0.397705078125,0.01904296875,-0.351318359375,1.1339
0.22900763358778625,0.732824427480916,-0.9465648854961832,-0.394775390625,0.0146484375,-0.3583984375,1.1356
0.13740458015267176,0.7175572519083969,-1.0076335877862594,-0.400146484375,0.0205078125,-0.352294921875,1.1373
0.42748091603053434,0.6259541984732825,-0.9312977099236641,-0.3955078125,0.01953125,-0.34912109375,1.139
0.1984732824427481,0.6564885496183206,-1.0229007633587786,-0.400146484375,0.01611328125,-0.35400390625,1.1407
0.0916030534351145,0.7175572519083969,-0.9618320610687023,-0.394287109375,0.015380859375,-0.36083984375,1.1423999999999999
0.21374045801526717,0.366412213740458,-1.1603053435114503,-0.396240234375,0.021240234375,-0.351806640625,1.1441
0.12213740458015267,0.21374045801526717,-1.099236641221374,-0.39501953125,0.02099609375,-0.35107421875,1.1458
0.3816793893129771,0.13740458015267176,-1.1908396946564885,-0.395751953125,0.019287109375,-0.362060546875,1.1475
0.2595419847328244,0.061068702290076333,-1.1603053435114503,-0.397705078125,0.01953125,-0.357666015625,1.1492
0.0916030534351145,-0.10687022900763359,-1.2213740458015268,-0.397705078125,0.0205078125,-0.353759765625,1.1509
0.07633587786259542,-0.22900763358778625,-1.1603053435114503,-0.397216796875,0.021484375,-0.36279296875,1.1525999999999998
-0.015267175572519083,-0.22900763358778625,-1.5114503816793894,-0.399169921875,0.018798828125,-0.36328125,1.1542999999999999
-0.10687022900763359,-0.33587786259541985,-1.3435114503816794,-0.3994140625,0.01806640625,-0.357421875,1.156
0.22900763358778625,-0.6259541984732825,-1.4045801526717556,-0.400634765625,0.017333984375,-0.361328125,1.1577
0.0916030534351145,-0.5190839694656488,-1.4045801526717556,-0.402099609375,0.018310546875,-0.353759765625,1.1594
0.015267175572519083,-0.44274809160305345,-1.7099236641221374,-0.400146484375,0.018798828125,-0.360595703125,1.1611
-0.10687022900763359,-0.5801526717557252,-1.5572519083969465,-0.40185546875,0.020751953125,-0.360107421875,1.1627999999999998
0.10687022900763359,-0.44274809160305345,-1.450381679389313,-0.408935546875,0.0224609375,-0.3564453125,1.1644999999999999
-0.04580152671755725,-0.21374045801526717,-1.465648854961832,-0.4052734375,0.01904296875,-0.35986328125,1.1662
0.12213740458015267,-0.15267175572519084,-1.633587786259542,-0.406005859375,0.021728515625,-0.357421875,1.1679
0.4580152671755725,-0.13740458015267176,-1.4045801526717556,-0.4072265625,0.022705078125,-0.362060546875,1.1696
0.3969465648854962,0.0,-1.618320610687023,-0.40771484375,0.026611328125,-0.35986328125,1.1713
0.5648854961832062,0.2595419847328244,-1.3435114503816794,-0.405517578125,0.019775390625,-0.3671875,1.173
0.5801526717557252,0.33587786259541985,-1.3893129770992367,-0.40625,0.0244140625,-0.357177734375,1.1746999999999999
0.5648854961832062,0.33587786259541985,-1.1908396946564885,-0.40576171875,0.019287109375,-0.3564453125,1.1764
0.7022900763358778,0.33587786259541985,-1.6030534351145038,-0.408203125,0.0234375,-0.349853515625,1.1781
0.6412213740458015,0.5801526717557252,-1.3740458015267176,-0.404052734375,0.02392578125,-0.350341796875,1.1798
0.6564885496183206,0.3969465648854962,-1.5725190839694656,-0.404296875,0.024658203125,-0.361083984375,1.1815
0.7633587786259542,0.5343511450381679,-1.465648854961832,-0.40185546875,0.025390625,-0.354248046875,1.1832
0.8854961832061069,0.4580152671755725,-1.7099236641221374,-0.39892578125,0.0224609375,-0.359130859375,1.1848999999999998
1.0381679389312977,0.3053435114503817,-1.6030534351145038,-0.40087890625,0.019775390625,-0.355712890625,1.1865999999999999
1.0381679389312977,0.16793893129770993,-1.7404580152671756,-0.404052734375,0.0205078125,-0.355712890625,1.1883
1.0534351145038168,0.183206106870229,-1.786259541984733,-0.396728515625,0.019775390625,-0.36181640625,1.19
0.9923664122137404,0.183206106870229,-1.8931297709923665,-0.396240234375,0.0205078125,-0.36865234375,1.1917
1.1297709923664123,0.15267175572519084,-1.7557251908396947,-0.399658203125,0.023193359375,-0.35595703125,1.1934
1.1755725190839694,0.10687022900763359,-2.0610687022900764,-0.395263671875,0.02294921875,-0.35595703125,1.1950999999999998
1.1603053435114503,-0.04580152671755725,-1.8473282442748091,-0.39501953125,0.0244140625,-0.354736328125,1.1967999999999999
1.1450381679389312,-0.1984732824427481,-1.9694656488549618,-0.39990234375,0.02294921875,-0.3564453125,1.1985
1.4351145038167938,-0.24427480916030533,-2.030534351145038,-0.395263671875,0.02294921875,-0.35498046875,1.2002
1.1297709923664123,-0.44274809160305345,-2.2290076335877864,-0.395751953125,0.025390625,-0.36083984375,1.2019
1.2213740458015268,-0.5190839694656488,-2.183206106870229,-0.3935546875,0.0283203125,-0.353271484375,1.2036
1.1908396946564885,-0.4122137404580153,-2.2290076335877864,-0.39794921875,0.022216796875,-0.35791015625,1.2053
1.1297709923664123,-0.4732824427480916,-2.015267175572519,-0.40087890625,0.022705078125,-0.33642578125,1.2069999999999999
1.465648854961832,-0.5954198473282443,-2.366412213740458,-0.40185546875,0.023193359375,-0.346923828125,1.2086999999999999
1.4961832061068703,-0.6412213740458015,-2.030534351145038,-0.40673828125,0.024169921875,-0.35546875,1.2104
1.4961832061068703,-0.7022900763358778,-1.9694656488549618,-0.401611328125,0.02587890625,-0.35107421875,1.2121
1.4351145038167938,-0.6717557251908397,-1.8931297709923665,-0.399658203125,0.02490234375,-0.3603515625,1.2138
1.1145038167938932,-0.44274809160305345,-1.9389312977099236,-0.40185546875,0.017822265625,-0.364013671875,1.2155
1.282442748091603,-0.6870229007633588,-1.6030534351145038,-0.403076171875,0.022216796875,-0.357421875,1.2171999999999998
1.618320610687023,-0.5954198473282443,-1.8931297709923665,-0.402587890625,0.017822265625,-0.365478515625,1.2188999999999999
1.4809160305343512,-0.6259541984732825,-1.7251908396946565,-0.403564453125,0.01708984375,-0.35888671875,1.2206
1.3129770992366412,-0.42748091603053434,-1.8473282442748091,-0.4072265625,0.01806640625,-0.35986328125,1.2223
1.5419847328244274,-0.5801526717557252,-1.8473282442748091,-0.40869140625,0.01953125,-0.357177734375,1.224
1.4961832061068703,-0.6564885496183206,-1.8473282442748091,-0.403076171875,0.0166015625,-0.3466796875,1.2257
1.5419847328244274,-0.5801526717557252,-1.83206106870229,-0.4013671875,0.019775390625,-0.3466796875,1.2273999999999998
1.618320610687023,-0.44274809160305345,-1.9694656488549618,-0.402587890625,0.01708984375,-0.35400390625,1.2290999999999999
1.4198473282442747,-0.6717557251908397,-1.5267175572519085,-0.403076171875,0.014404296875,-0.35009765625,1.2308
1.618320610687023,-0.3511450381679389,-1.9694656488549618,-0.40185546875,0.0166015625,-0.3583984375,1.2325
1.6030534351145038,-0.4732824427480916,-1.7404580152671756,-0.4072265625,0.017578125,-0.3544921875,1.2342
1.7099236641221374,-0.549618320610687,-1.6488549618320612,-0.405029296875,0.01416015625,-0.356201171875,1.2359
1.6488549618320612,-0.5801526717557252,-1.6793893129770991,-0.405029296875,0.018310546875,-0.355712890625,1.2376
1.6793893129770991,-0.3816793893129771,-1.6030534351145038,-0.407958984375,0.01171875,-0.35986328125,1.2392999999999998
1.7404580152671756,-0.3816793893129771,-1.6946564885496183,-0.408447265625,0.012939453125,-0.355224609375,1.2409999999999999
1.7709923664122138,-0.42748091603053434,-1.633587786259542,-0.403076171875,0.012939453125,-0.345947265625,1.2427
1.7099236641221374,-0.42748091603053434,-1.4198473282442747,-0.403564453125,0.02099609375,-0.3544921875,1.2444
1.6030534351145038,-0.4122137404580153,-1.6946564885496183,-0.39892578125,0.02294921875,-0.353271484375,1.2461
1.633587786259542,-0.6564885496183206,-1.5877862595419847,-0.400146484375,0.017578125,-0.35400390625,1.2478
1.9541984732824427,-0.3816793893129771,-1.6793893129770991,-0.400634765625,0.017578125,-0.3583984375,1.2494999999999998
1.8473282442748091,-0.3511450381679389,-1.5725190839694656,-0.40283203125,0.0185546875,-0.355712890625,1.2511999999999999
1.9236641221374047,-0.6106870229007634,-1.5572519083969465,-0.40576171875,0.018310546875,-0.354248046875,1.2529
1.7099236641221374,-0.42748091603053434,-1.5419847328244274,-0.404052734375,0.020263671875,-0.350830078125,1.2546
1.6488549618320612,-0.6106870229007634,-1.6030534351145038,-0.406982421875,0.016357421875,-0.35400390625,1.2563
1.816793893129771,-0.6259541984732825,-1.5267175572519085,-0.401611328125,0.01953125,-0.352294921875,1.258
1.786259541984733,-0.3816793893129771,-1.5877862595419847,-0.400634765625,0.015625,-0.355224609375,1.2596999999999998
1.5725190839694656,-0.48854961832061067,-1.450381679389313,-0.40625,0.01904296875,-0.35400390625,1.2613999999999999
1.633587786259542,-0.6412213740458015,-1.6793893129770991,-0.4033203125,0.01318359375,-0.358642578125,1.2631
1.7404580152671756,-0.48854961832061067,-1.4961832061068703,-0.400634765625,0.014404296875,-0.3525390625,1.2648
1.6488549618320612,-0.5648854961832062,-1.5114503816793894,-0.402099609375,0.009765625,-0.354248046875,1.2665
1.5572519083969465,-0.6717557251908397,-1.6030534351145038,-0.396484375,0.0146484375,-0.351806640625,1.2682
1.6946564885496183,-0.48854961832061067,-1.618320610687023,-0.40087890625,0.01416015625,-0.357666015625,1.2699
1.7099236641221374,-0.6412213740458015,-1.3282442748091603,-0.408935546875,0.013916015625,-0.345947265625,1.2715999999999998
1.4809160305343512,-0.48854961832061067,-1.6030534351145038,-0.40380859375,0.01611328125,-0.349853515625,1.2732999999999999
1.6030534351145038,-0.5954198473282443,-1.5419847328244274,-0.40185546875,0.015625,-0.352783203125,1.275
1.5725190839694656,-0.5038167938931297,-1.618320610687023,-0.40283203125,0.01513671875,-0.349853515625,1.2767
1.5725190839694656,-0.5954198473282443,-1.5114503816793894,-0.398193359375,0.013916015625,-0.353271484375,1.2784
1.5114503816793894,-0.4580152671755725,-1.5572519083969465,-0.401611328125,0.01513671875,-0.356201171875,1.2801
1.5725190839694656,-0.5648854961832062,-1.6641221374045803,-0.404296875,0.0146484375,-0.35302734375,1.2817999999999998
1.2671755725190839,-0.44274809160305345,-1.5419847328244274,-0.404541015625,0.0185546875,-0.35205078125,1.2834999999999999
1.4045801526717556,-0.5190839694656488,-1.7099236641221374,-0.404296875,0.010009765625,-0.354248046875,1.2852
1.3282442748091603,-0.5801526717557252,-1.5114503816793894,-0.396240234375,0.013916015625,-0.349853515625,1.2869
1.1145038167938932,-0.5648854961832062,-1.4045801526717556,-0.4013671875,0.015380859375,-0.3544921875,1.2886
1.1145038167938932,-0.5190839694656488,-1.3282442748091603,-0.408203125,0.0166015625,-0.3505859375,1.2903
1.2061068702290076,-0.42748091603053434,-1.465648854961832,-0.404541015625,0.016357421875,-0.3466796875,1.292
1.1603053435114503,-0.4732824427480916,-1.4809160305343512,-0.4013671875,0.0146484375,-0.34765625,1.2936999999999999
1.1145038167938932,-0.4580152671755725,-1.6488549618320612,-0.406494140625,0.0126953125,-0.349609375,1.2953999999999999
0.916030534351145,-0.2900763358778626,-1.4961832061068703,-0.404296875,0.011962890625,-0.352294921875,1.2971
1.099236641221374,-0.2748091603053435,-1.2671755725190839,-0.400146484375,0.0146484375,-0.35595703125,1.2988
0.9770992366412213,-0.2748091603053435,-1.4809160305343512,-0.40234375,0.00927734375,-0.359375,1.3005
1.0534351145038168,-0.21374045801526717,-1.450381679389313,-0.403076171875,0.0087890625,-0.349365234375,1.3022
0.8396946564885496,0.0916030534351145,-1.4809160305343512,-0.401123046875,0.016845703125,-0.347900390625,1.3038999999999998
0.6412213740458015,-0.10687022900763359,-1.4198473282442747,-0.404541015625,0.0146484375,-0.34912109375,1.3055999999999999
0.7938931297709924,-0.16793893129770993,-1.3893129770992367,-0.3984375,0.01708984375,-0.362548828125,1.3073
0.6106870229007634,-0.07633587786259542,-1.3740458015267176,-0.39794921875,0.014404296875,-0.355224609375,1.309
0.8091603053435115,0.0,-1.465648854961832,-0.4013671875,0.01708984375,-0.35302734375,1.3107
0.7633587786259542,-0.061068702290076333,-1.450381679389313,-0.4072265625,0.014404296875,-0.35302734375,1.3124
0.5801526717557252,0.07633587786259542,-1.5267175572519085,-0.404541015625,0.01220703125,-0.350341796875,1.3140999999999998
0.6412213740458015,0.10687022900763359,-1.3740458015267176,-0.402587890625,0.01708984375,-0.3525390625,1.3157999999999999
0.6106870229007634,0.22900763358778625,-1.4809160305343512,-0.39990234375,0.01708984375,-0.349853515625,1.3175
0.549618320610687,0.2900763358778626,-1.4809160305343512,-0.402587890625,0.01611328125,-0.357177734375,1.3192
0.5954198473282443,0.22900763358778625,-1.4961832061068703,-0.4013671875,0.018798828125,-0.349609375,1.3209
0.4580152671755725,0.2595419847328244,-1.5419847328244274,-0.402587890625,0.01708984375,-0.34912109375,1.3226
0.6259541984732825,0.24427480916030533,-1.450381679389313,-0.405029296875,0.016845703125,-0.3505859375,1.3243
0.5190839694656488,0.3053435114503817,-1.5877862595419847,-0.40673828125,0.02001953125,-0.35595703125,1.3259999999999998
0.5343511450381679,0.3969465648854962,-1.450381679389313,-0.4072265625,0.01708984375,-0.353759765625,1.3276999999999999
0.24427480916030533,0.2900763358778626,-1.7099236641221374,-0.405517578125,0.016845703125,-0.3544921875,1.3294
0.3053435114503817,0.4732824427480916,-1.633587786259542,-0.402587890625,0.018798828125,-0.355712890625,1.3311
0.2595419847328244,0.48854961832061067,-1.6030534351145038,-0.406005859375,0.015869140625,-0.34814453125,1.3328
0.33587786259541985,0.3816793893129771,-1.7404580152671756,-0.4052734375,0.02099609375,-0.35693359375,1.3345
0.48854961832061067,0.3816793893129771,-1.6946564885496183,-0.4033203125,0.015869140625,-0.35595703125,1.3361999999999998
0.33587786259541985,0.5038167938931297,-1.5877862595419847,-0.404052734375,0.018798828125,-0.349853515625,1.3378999999999999
0.21374045801526717,0.5801526717557252,-1.6793893129770991,-0.403076171875,0.01513671875,-0.357666015625,1.3396
0.15267175572519084,0.42748091603053434,-1.633587786259542,-0.402099609375,0.019775390625,-0.3603515625,1.3413
0.4732824427480916,0.3816793893129771,-1.7557251908396947,-0.401123046875,0.0205078125,-0.35009765625,1.343
0.2900763358778626,0.4732824427480916,-1.6488549618320612,-0.400146484375,0.018798828125,-0.34716796875,1.3447
0.0916030534351145,0.42748091603053434,-1.6946564885496183,-0.404296875,0.0205078125,-0.353271484375,1.3463999999999998
0.4122137404580153,0.5343511450381679,-1.8473282442748091,-0.402587890625,0.023193359375,-0.355712890625,1.3480999999999999
0.2900763358778626,0.6259541984732825,-1.8473282442748091,-0.403076171875,0.01318359375,-0.349853515625,1.3497999999999999
0.3816793893129771,0.7938931297709924,-1.8015267175572518,-0.40380859375,0.02587890625,-0.34716796875,1.3515
0.33587786259541985,0.6717557251908397,-1.816793893129771,-0.405517578125,0.019287109375,-0.349853515625,1.3532
0.183206106870229,0.5954198473282443,-1.6946564885496183,-0.40576171875,0.01708984375,-0.354736328125,1.3549
0.42748091603053434,0.6106870229007634,-1.8473282442748091,-0.400634765625,0.022216796875,-0.3515625,1.3566
0.2748091603053435,0.6106870229007634,-1.8931297709923665,-0.402587890625,0.021728515625,-0.361328125,1.3582999999999998
-0.061068702290076333,0.7786259541984732,-2.045801526717557,-0.40185546875,0.017578125,-0.358154296875,1.3599999999999999
0.22900763358778625,0.7175572519083969,-1.8473282442748091,-0.40380859375,0.02099609375,-0.356689453125,1.3617
0.3816793893129771,0.5648854961832062,-2.045801526717557,-0.404052734375,0.018310546875,-0.348388671875,1.3634
0.21374045801526717,0.6259541984732825,-2.0916030534351147,-0.401123046875,0.02294921875,-0.3564453125,1.3651
0.33587786259541985,0.366412213740458,-2.122137404580153,-0.401123046875,0.021728515625,-0.3525390625,1.3668
0.24427480916030533,0.6106870229007634,-2.045801526717557,-0.404541015625,0.017822265625,-0.34521484375,1.3684999999999998
0.5038167938931297,0.5190839694656488,-2.0763358778625953,-0.400390625,0.013671875,-0.35107421875,1.3701999999999999
0.2900763358778626,0.6259541984732825,-2.0610687022900764,-0.402587890625,0.011474609375,-0.353515625,1.3719
0.3511450381679389,0.5343511450381679,-2.183206106870229,-0.396728515625,0.012451171875,-0.347900390625,1.3736
0.3816793893129771,0.6106870229007634,-2.030534351145038,-0.40380859375,0.015625,-0.35205078125,1.3753
0.42748091603053434,0.6870229007633588,-2.015267175572519,-0.40283203125,0.021728515625,-0.35498046875,1.377
0.4122137404580153,0.5038167938931297,-1.9694656488549618,-0.396484375,0.017578125,-0.353759765625,1.3786999999999998
0.3816793893129771,0.5343511450381679,-2.1526717557251906,-0.39794921875,0.021484375,-0.355712890625,1.3803999999999998
0.5038167938931297,0.5648854961832062,-1.9389312977099236,-0.402099609375,0.018798828125,-0.35498046875,1.3820999999999999
0.4122137404580153,0.549618320610687,-2.0763358778625953,-0.40234375,0.01953125,-0.35595703125,1.3838
0.33587786259541985,0.22900763358778625,-1.9694656488549618,-0.402587890625,0.016357421875,-0.352294921875,1.3855
0.5190839694656488,0.04580152671755725,-2.1068702290076335,-0.3994140625,0.01708984375,-0.357421875,1.3872
0.42748091603053434,0.24427480916030533,-1.9694656488549618,-0.403564453125,0.01708984375,-0.34716796875,1.3889
0.33587786259541985,0.3969465648854962,-2.1374045801526718,-0.406494140625,0.02099609375,-0.348876953125,1.3905999999999998
0.549618320610687,0.12213740458015267,-2.1526717557251906,-0.406494140625,0.016845703125,-0.35205078125,1.3922999999999999
0.366412213740458,-0.015267175572519083,-2.2290076335877864,-0.4013671875,0.016357421875,-0.356201171875,1.394
0.42748091603053434,-0.04580152671755725,-2.1374045801526718,-0.40283203125,0.017822265625,-0.3544921875,1.3957
0.5648854961832062,-0.015267175572519083,-2.183206106870229,-0.4091796875,0.01171875,-0.349853515625,1.3974
0.5648854961832062,0.07633587786259542,-2.1526717557251906,-0.40087890625,0.021240234375,-0.34716796875,1.3991
0.48854961832061067,-0.030534351145038167,-2.2748091603053435,-0.40283203125,0.01416015625,-0.353271484375,1.4007999999999998
0.5801526717557252,0.0916030534351145,-2.015267175572519,-0.3984375,0.016845703125,-0.355712890625,1.4024999999999999
0.3511450381679389,0.2748091603053435,-1.9694656488549618,-0.404296875,0.01708984375,-0.354248046875,1.4042
0.5038167938931297,0.015267175572519083,-2.0610687022900764,-0.403076171875,0.016357421875,-0.353515625,1.4059
0.5343511450381679,0.21374045801526717,-1.984732824427481,-0.403564453125,0.016845703125,-0.3486328125,1.4076
0.549618320610687,0.3816793893129771,-1.9389312977099236,-0.405517578125,0.01708984375,-0.356201171875,1.4093
0.5801526717557252,0.2748091603053435,-2.0763358778625953,-0.4072265625,0.016845703125,-0.355224609375,1.411
0.6564885496183206,0.366412213740458,-1.8625954198473282,-0.4033203125,0.01123046875,-0.35009765625,1.4126999999999998
0.5954198473282443,0.33587786259541985,-2.183206106870229,-0.406494140625,0.0166015625,-0.34765625,1.4143999999999999
0.6564885496183206,0.366412213740458,-2.1526717557251906,-0.401123046875,0.0166015625,-0.354248046875,1.4161
0.7938931297709924,0.366412213740458,-2.0763358778625953,-0.4013671875,0.018310546875,-0.355224609375,1.4178
0.7022900763358778,0.4580152671755725,-2.1374045801526718,-0.40087890625,0.018310546875,-0.3544921875,1.4195
0.549618320610687,0.33587786259541985,-2.3053435114503817,-0.398193359375,0.019775390625,-0.35302734375,1.4212
0.6717557251908397,0.10687022900763359,-2.0763358778625953,-0.398681640625,0.01806640625,-0.355712890625,1.4228999999999998
0.5954198473282443,0.22900763358778625,-2.198473282442748,-0.402587890625,0.017822265625,-0.35009765625,1.4245999999999999
0.8244274809160306,0.3511450381679389,-2.366412213740458,-0.408447265625,0.01953125,-0.353759765625,1.4263
0.6106870229007634,0.07633587786259542,-2.3206106870229006,-0.404052734375,0.022216796875,-0.355712890625,1.428
0.7938931297709924,0.04580152671755725,-2.33587786259542,-0.402587890625,0.015625,-0.3515625,1.4297
0.7786259541984732,0.3053435114503817,-2.519083969465649,-0.4033203125,0.0185546875,-0.35205078125,1.4314
0.6412213740458015,0.183206106870229,-2.3206106870229006,-0.40185546875,0.02099609375,-0.355712890625,1.4330999999999998
0.8091603053435115,-0.061068702290076333,-2.3206106870229006,-0.405517578125,0.019287109375,-0.34716796875,1.4347999999999999
0.8702290076335878,0.015267175572519083,-2.519083969465649,-0.408447265625,0.02001953125,-0.34912109375,1.4364999999999999
0.8396946564885496,0.0916030534351145,-2.5801526717557253,-0.400634765625,0.015625,-0.349609375,1.4382
1.0229007633587786,0.32061068702290074,-2.50381679389313,-0.40234375,0.013671875,-0.34912109375,1.4399
0.916030534351145,0.21374045801526717,-2.4580152671755724,-0.39794921875,0.021484375,-0.350830078125,1.4416
1.0076335877862594,0.3511450381679389,-2.351145038167939,-0.400390625,0.02099609375,-0.35302734375,1.4433
0.9312977099236641,0.3816793893129771,-2.6106870229007635,-0.405029296875,0.016845703125,-0.35302734375,1.4449999999999998
1.0687022900763359,0.33587786259541985,-2.3053435114503817,-0.4072265625,0.01806640625,-0.350830078125,1.4466999999999999
1.083969465648855,0.3053435114503817,-2.351145038167939,-0.40625,0.018798828125,-0.351318359375,1.4484
0.9770992366412213,0.42748091603053434,-2.2900763358778624,-0.404296875,0.015625,-0.349365234375,1.4501
0.9770992366412213,0.3511450381679389,-2.381679389312977,-0.40576171875,0.017578125,-0.350830078125,1.4518
1.099236641221374,0.3511450381679389,-2.366412213740458,-0.403564453125,0.01806640625,-0.35009765625,1.4535
1.0076335877862594,0.44274809160305345,-2.3206106870229006,-0.405029296875,0.014892578125,-0.34765625,1.4551999999999998
1.0381679389312977,0.4580152671755725,-2.2900763358778624,-0.40283203125,0.015380859375,-0.3486328125,1.4568999999999999
0.8244274809160306,0.549618320610687,-2.3053435114503817,-0.400634765625,0.017578125,-0.352294921875,1.4586
0.8396946564885496,0.42748091603053434,-2.122137404580153,-0.398681640625,0.017578125,-0.350830078125,1.4603
0.8854961832061069,0.2900763358778626,-2.183206106870229,-0.40185546875,0.014404296875,-0.351318359375,1.462
0.6564885496183206,0.4732824427480916,-2.1526717557251906,-0.406005859375,0.014892578125,-0.35888671875,1.4637
0.5801526717557252,0.5648854961832062,-2.015267175572519,-0.40625,0.015625,-0.3564453125,1.4653999999999998
0.7022900763358778,0.3511450381679389,-1.9541984732824427,-0.3994140625,0.013427734375,-0.347412109375,1.4670999999999998
0.7938931297709924,0.2748091603053435,-1.9541984732824427,-0.403076171875,0.01220703125,-0.352294921875,1.4687999999999999
0.6259541984732825,0.2900763358778626,-2.0763358778625953,-0.404052734375,0.014404296875,-0.358154296875,1.4705
0.5190839694656488,0.22900763358778625,-2.1526717557251906,-0.408447265625,0.01318359375,-0.350341796875,1.4722
0.44274809160305345,0.1984732824427481,-1.8015267175572518,-0.40576171875,0.015380859375,-0.355712890625,1.4739
0.5343511450381679,0.4122137404580153,-1.9236641221374047,-0.40869140625,0.019775390625,-0.35009765625,1.4756
0.6259541984732825,0.2748091603053435,-1.9236641221374047,-0.402099609375,0.015380859375,-0.345458984375,1.4772999999999998
0.3511450381679389,0.24427480916030533,-1.9694656488549618,-0.400146484375,0.014404296875,-0.353759765625,1.4789999999999999
0.4732824427480916,0.22900763358778625,-1.8625954198473282,-0.405029296875,0.015625,-0.357177734375,1.4807
0.48854961832061067,0.2748091603053435,-1.7709923664122138,-0.405517578125,0.019775390625,-0.35400390625,1.4824
0.6106870229007634,0.32061068702290074,-1.786259541984733,-0.402099609375,0.019287109375,-0.349853515625,1.4841
0.4580152671755725,0.33587786259541985,-1.6030534351145038,-0.406494140625,0.014892578125,-0.35400390625,1.4858
0.366412213740458,0.33587786259541985,-1.8015267175572518,-0.40087890625,0.018310546875,-0.353271484375,1.4874999999999998
0.5038167938931297,0.2748091603053435,-1.5725190839694656,-0.39404296875,0.018310546875,-0.34912109375,1.4891999999999999
0.3511450381679389,0.32061068702290074,-1.8778625954198473,-0.406005859375,0.015380859375,-0.353271484375,1.4909
0.3053435114503817,0.4122137404580153,-1.7709923664122138,-0.40087890625,0.015380859375,-0.35400390625,1.4926
0.33587786259541985,0.22900763358778625,-1.6793893129770991,-0.40087890625,0.017333984375,-0.35107421875,1.4943
0.22900763358778625,0.3053435114503817,-1.786259541984733,-0.40234375,0.014892578125,-0.355712890625,1.496
0.48854961832061067,0.24427480916030533,-1.7251908396946565,-0.400634765625,0.015869140625,-0.352783203125,1.4976999999999998
0.366412213740458,0.24427480916030533,-1.8015267175572518,-0.398193359375,0.01416015625,-0.34619140625,1.4993999999999998
0.10687022900763359,0.16793893129770993,-1.984732824427481,-0.40625,0.014404296875,-0.353271484375,1.5010999999999999
0.33587786259541985,0.16793893129770993,-2.030534351145038,-0.402099609375,0.014892578125,-0.355224609375,1.5028
0.32061068702290074,0.32061068702290074,-1.9694656488549618,-0.400634765625,0.013671875,-0.356689453125,1.5045
0.3816793893129771,0.3511450381679389,-1.9236641221374047,-0.399169921875,0.015625,-0.3583984375,1.5062
0.2900763358778626,0.42748091603053434,-2.045801526717557,-0.400146484375,0.017333984375,-0.351806640625,1.5079
0.15267175572519084,0.3511450381679389,-1.83206106870229,-0.400390625,0.02001953125,-0.351806640625,1.5095999999999998
0.12213740458015267,0.366412213740458,-1.984732824427481,-0.399658203125,0.01806640625,-0.354248046875,1.5112999999999999
0.24427480916030533,0.3969465648854962,-1.9694656488549618,-0.402587890625,0.0166015625,-0.344482421875,1.513
0.183206106870229,0.4122137404580153,-2.122137404580153,-0.3974609375,0.02001953125,-0.344970703125,1.5147
0.030534351145038167,0.366412213740458,-1.9541984732824427,-0.400634765625,0.017578125,-0.361328125,1.5164
0.030534351145038167,0.3816793893129771,-1.9694656488549618,-0.400390625,0.01904296875,-0.35986328125,1.5181
0.0916030534351145,0.33587786259541985,-2.0916030534351147,-0.401611328125,0.01611328125,-0.35009765625,1.5197999999999998
0.22900763358778625,0.2748091603053435,-1.9389312977099236,-0.40576171875,0.016845703125,-0.3544921875,1.5214999999999999
-0.2595419847328244,0.16793893129770993,-2.030534351145038,-0.399169921875,0.02001953125,-0.3544921875,1.5231999999999999
-0.0916030534351145,0.030534351145038167,-2.0763358778625953,-0.402099609375,0.015380859375,-0.353271484375,1.5249
0.04580152671755725,0.015267175572519083,-1.9236641221374047,-0.40625,0.011474609375,-0.351318359375,1.5266
-0.16793893129770993,0.13740458015267176,-2.2748091603053435,-0.4013671875,0.021728515625,-0.355712890625,1.5283
0.015267175572519083,-0.0916030534351145,-2.2290076335877864,-0.40087890625,0.013671875,-0.359130859375,1.5299999999999998
0.0,-0.1984732824427481,-2.1374045801526718,-0.401611328125,0.013671875,-0.35400390625,1.5316999999999998
-0.15267175572519084,-0.13740458015267176,-2.045801526717557,-0.40234375,0.021484375,-0.354248046875,1.5333999999999999
-0.2595419847328244,-0.1984732824427481,-2.213740458015267,-0.40087890625,0.01318359375,-0.35009765625,1.5351
-0.15267175572519084,-0.2900763358778626,-2.2595419847328246,-0.4013671875,0.016845703125,-0.358642578125,1.5368
-0.1984732824427481,-0.21374045801526717,-2.366412213740458,-0.4013671875,0.01904296875,-0.356201171875,1.5385
-0.3969465648854962,-0.183206106870229,-2.2442748091603053,-0.39697265625,0.02001953125,-0.35302734375,1.5402
-0.32061068702290074,-0.32061068702290074,-2.2290076335877864,-0.40576171875,0.01953125,-0.348388671875,1.5418999999999998
-0.3053435114503817,-0.4732824427480916,-2.4427480916030535,-0.404296875,0.018310546875,-0.349609375,1.5435999999999999
-0.32061068702290074,-0.5038167938931297,-2.4732824427480917,-0.4072265625,0.021484375,-0.359375,1.5453
-0.33587786259541985,-0.5038167938931297,-2.366412213740458,-0.399169921875,0.016357421875,-0.353515625,1.547
-0.4122137404580153,-0.5038167938931297,-2.366412213740458,-0.405517578125,0.014404296875,-0.352294921875,1.5487
-0.44274809160305345,-0.2900763358778626,-2.366412213740458,-0.4013671875,0.014892578125,-0.34619140625,1.5504
-0.3816793893129771,-0.4580152671755725,-2.3969465648854964,-0.40576171875,0.01953125,-0.348388671875,1.5520999999999998
-0.4580152671755725,-0.48854961832061067,-2.4885496183206106,-0.4072265625,0.0205078125,-0.349853515625,1.5537999999999998
-0.5648854961832062,-0.48854961832061067,-2.7022900763358777,-0.40771484375,0.020751953125,-0.3544921875,1.5554999999999999
-0.42748091603053434,-0.44274809160305345,-2.687022900763359,-0.40380859375,0.01953125,-0.3544921875,1.5572
-0.3053435114503817,-0.5038167938931297,-2.7786259541984735,-0.40283203125,0.01416015625,-0.349853515625,1.5589
-0.5954198473282443,-0.4580152671755725,-2.6564885496183206,-0.40087890625,0.015625,-0.35595703125,1.5606
-0.6259541984732825,-0.5954198473282443,-2.6564885496183206,-0.403076171875,0.014892578125,-0.343994140625,1.5623
-0.3816793893129771,-0.6564885496183206,-2.595419847328244,-0.4033203125,0.0166015625,-0.35205078125,1.5639999999999998
-0.2900763358778626,-0.5801526717557252,-2.885496183206107,-0.400146484375,0.01708984375,-0.354248046875,1.5656999999999999
-0.4580152671755725,-0.7633587786259542,-2.7938931297709924,-0.403076171875,0.01611328125,-0.349609375,1.5674
-0.3969465648854962,-0.8396946564885496,-2.8244274809160306,-0.4052734375,0.020263671875,-0.353271484375,1.5691
-0.5648854961832062,-0.6564885496183206,-2.8396946564885495,-0.404296875,0.021484375,-0.352294921875,1.5708
-0.5190839694656488,-0.9007633587786259,-2.9923664122137406,-0.400390625,0.011962890625,-0.3564453125,1.5725
-0.5801526717557252,-0.9312977099236641,-3.1755725190839694,-0.406982421875,0.018310546875,-0.354248046875,1.5741999999999998
-0.3969465648854962,-1.083969465648855,-3.114503816793893,-0.402587890625,0.01513671875,-0.348388671875,1.5758999999999999
-0.3969465648854962,-0.9923664122137404,-3.0229007633587788,-0.40283203125,0.01708984375,-0.3466796875,1.5776
-0.33587786259541985,-1.0381679389312977,-3.236641221374046,-0.404052734375,0.015380859375,-0.352294921875,1.5793
-0.3816793893129771,-1.1145038167938932,-2.9923664122137406,-0.402099609375,0.019775390625,-0.3544921875,1.581
-0.5038167938931297,-1.282442748091603,-3.053435114503817,-0.404541015625,0.02197265625,-0.3642578125,1.5827
-0.3969465648854962,-1.2213740458015268,-3.068702290076336,-0.405517578125,0.016357421875,-0.3466796875,1.5843999999999998
-0.3053435114503817,-1.1908396946564885,-3.053435114503817,-0.399169921875,0.017333984375,-0.345703125,1.5860999999999998
-0.4122137404580153,-1.3129770992366412,-3.0381679389312977,-0.404052734375,0.014404296875,-0.352294921875,1.5877999999999999
-0.48854961832061067,-1.2366412213740459,-3.1755725190839694,-0.40185546875,0.017822265625,-0.34375,1.5895
-0.24427480916030533,-1.4045801526717556,-3.145038167938931,-0.40966796875,0.018798828125,-0.353271484375,1.5912
-0.3053435114503817,-1.251908396946565,-3.1755725190839694,-0.4091796875,0.021484375,-0.353759765625,1.5929
-0.3969465648854962,-1.3893129770992367,-3.2213740458015265,-0.404296875,0.02197265625,-0.359375,1.5946
-0.366412213740458,-1.1755725190839694,-3.3740458015267176,-0.40283203125,0.023193359375,-0.35302734375,1.5962999999999998
-0.07633587786259542,-1.3587786259541985,-3.1908396946564888,-0.3984375,0.017578125,-0.34228515625,1.5979999999999999
-0.21374045801526717,-1.4045801526717556,-3.450381679389313,-0.401123046875,0.015625,-0.350830078125,1.5997
-0.2595419847328244,-1.3893129770992367,-3.2977099236641223,-0.404296875,0.017578125,-0.345947265625,1.6014
-0.12213740458015267,-1.2671755725190839,-3.2519083969465647,-0.405029296875,0.020751953125,-0.352294921875,1.6031
-0.183206106870229,-1.4045801526717556,-3.2213740458015265,-0.406494140625,0.01416015625,-0.359375,1.6048
-0.0916030534351145,-1.450381679389313,-3.3740458015267176,-0.403564453125,0.023193359375,-0.346923828125,1.6064999999999998
0.0916030534351145,-1.4045801526717556,-3.1908396946564888,-0.39990234375,0.020751953125,-0.348388671875,1.6081999999999999
0.030534351145038167,-1.465648854961832,-3.3587786259541983,-0.402099609375,0.019775390625,-0.344482421875,1.6098999999999999
0.16793893129770993,-1.3282442748091603,-3.068702290076336,-0.400390625,0.014892578125,-0.35302734375,1.6116
0.16793893129770993,-1.4351145038167938,-3.2061068702290076,-0.405517578125,0.0166015625,-0.34716796875,1.6133
0.10687022900763359,-1.3587786259541985,-3.1908396946564888,-0.403564453125,0.014892578125,-0.34619140625,1.615
0.16793893129770993,-1.4351145038167938,-3.2977099236641223,-0.404296875,0.017578125,-0.351806640625,1.6166999999999998
0.3511450381679389,-1.5267175572519085,-3.3740458015267176,-0.404052734375,0.01904296875,-0.34765625,1.6183999999999998
0.21374045801526717,-1.5419847328244274,-3.3587786259541983,-0.400390625,0.016845703125,-0.343994140625,1.6200999999999999
0.3511450381679389,-1.465648854961832,-3.236641221374046,-0.398681640625,0.02197265625,-0.348876953125,1.6218
0.4122137404580153,-1.7709923664122138,-3.450381679389313,-0.403076171875,0.027099609375,-0.35205078125,1.6235
0.3816793893129771,-1.6946564885496183,-3.2213740458015265,-0.404296875,0.01806640625,-0.352783203125,1.6252
0.24427480916030533,-1.6488549618320612,-3.145038167938931,-0.40478515625,0.018798828125,-0.354736328125,1.6269
0.3511450381679389,-1.7099236641221374,-3.099236641221374,-0.4072265625,0.018310546875,-0.354248046875,1.6285999999999998
0.6106870229007634,-1.6793893129770991,-3.3740458015267176,-0.40966796875,0.021484375,-0.352294921875,1.6302999999999999
0.6564885496183206,-1.7557251908396947,-3.2061068702290076,-0.408447265625,0.020263671875,-0.353759765625,1.632
0.6259541984732825,-1.83206106870229,-3.4656488549618323,-0.40283203125,0.0205078125,-0.358642578125,1.6337
0.5190839694656488,-1.6946564885496183,-3.236641221374046,-0.40185546875,0.020263671875,-0.35400390625,1.6354
0.48854961832061067,-1.7251908396946565,-3.6793893129770994,-0.406494140625,0.017578125,-0.346435546875,1.6371
0.7175572519083969,-1.6641221374045803,-3.801526717557252,-0.4033203125,0.022216796875,-0.343994140625,1.6387999999999998
0.7633587786259542,-1.8778625954198473,-3.633587786259542,-0.396240234375,0.014892578125,-0.343505859375,1.6404999999999998
0.9465648854961832,-1.984732824427481,-3.7709923664122136,-0.407470703125,0.019287109375,-0.351806640625,1.6421999999999999
0.9465648854961832,-1.8625954198473282,-3.9389312977099236,-0.402099609375,0.02294921875,-0.348876953125,1.6439
0.7022900763358778,-1.8015267175572518,-4.0,-0.404296875,0.015869140625,-0.352294921875,1.6456
0.7786259541984732,-1.816793893129771,-3.8931297709923665,-0.397705078125,0.01708984375,-0.345947265625,1.6473
0.7175572519083969,-1.8778625954198473,-3.9236641221374047,-0.39990234375,0.018798828125,-0.343505859375,1.6489999999999998
1.0381679389312977,-1.9083969465648856,-3.8625954198473282,-0.402099609375,0.022705078125,-0.3525390625,1.6506999999999998
1.0687022900763359,-1.9389312977099236,-3.66412213740458,-0.40234375,0.024169921875,-0.357421875,1.6523999999999999
1.1297709923664123,-2.122137404580153,-3.7251908396946565,-0.402099609375,0.022216796875,-0.3544921875,1.6541
1.1603053435114503,-2.0610687022900764,-3.7099236641221376,-0.40380859375,0.021240234375,-0.349609375,1.6558
0.9618320610687023,-2.0916030534351147,-3.786259541984733,-0.401611328125,0.021484375,-0.345947265625,1.6575
1.2366412213740459,-2.366412213740458,-3.9083969465648853,-0.402099609375,0.020263671875,-0.34814453125,1.6592
1.1908396946564885,-2.4122137404580153,-3.9083969465648853,-0.39697265625,0.01708984375,-0.348388671875,1.6608999999999998
1.2671755725190839,-2.4427480916030535,-4.1679389312977095,-0.402099609375,0.01904296875,-0.34765625,1.6625999999999999
1.2366412213740459,-2.564885496183206,-4.305343511450381,-0.40380859375,0.01806640625,-0.35205078125,1.6643
1.099236641221374,-2.6564885496183206,-4.549618320610687,-0.405517578125,0.01904296875,-0.355712890625,1.666
1.1908396946564885,-2.5801526717557253,-4.854961832061068,-0.4013671875,0.017333984375,-0.35400390625,1.6677
1.3893129770992367,-2.732824427480916,-4.931297709923665,-0.397216796875,0.021240234375,-0.343994140625,1.6694
1.3129770992366412,-2.7938931297709924,-4.961832061068702,-0.39892578125,0.0185546875,-0.349853515625,1.6710999999999998
1.1145038167938932,-2.8396946564885495,-4.977099236641221,-0.40478515625,0.0205078125,-0.347412109375,1.6727999999999998
1.0687022900763359,-2.8091603053435112,-5.099236641221374,-0.398681640625,0.015869140625,-0.34765625,1.6744999999999999
1.3893129770992367,-2.717557251908397,-5.099236641221374,-0.40625,0.021484375,-0.3505859375,1.6762
1.1755725190839694,-2.9618320610687023,-4.977099236641221,-0.402099609375,0.022705078125,-0.35595703125,1.6779
1.3587786259541985,-2.7938931297709924,-5.1603053435114505,-0.403076171875,0.024169921875,-0.35986328125,1.6796
1.3129770992366412,-2.9160305343511452,-5.297709923664122,-0.39990234375,0.019775390625,-0.363525390625,1.6813
1.4809160305343512,-3.236641221374046,-5.358778625954199,-0.402099609375,0.02392578125,-0.35986328125,1.6829999999999998
1.4809160305343512,-3.2519083969465647,-5.587786259541985,-0.3984375,0.017578125,-0.350830078125,1.6846999999999999
1.3893129770992367,-3.3435114503816794,-6.076335877862595,-0.3984375,0.024658203125,-0.35107421875,1.6864
1.5114503816793894,-3.2519083969465647,-6.5038167938931295,-0.396728515625,0.023681640625,-0.355712890625,1.6881
1.5267175572519085,-3.480916030534351,-6.8396946564885495,-0.39697265625,0.0205078125,-0.35546875,1.6898
1.5725190839694656,-3.7404580152671754,-7.343511450381679,-0.400146484375,0.021240234375,-0.35693359375,1.6915
1.450381679389313,-3.786259541984733,-7.343511450381679,-0.406005859375,0.019775390625,-0.353759765625,1.6931999999999998
1.4351145038167938,-3.954198473282443,-7.450381679389313,-0.3984375,0.021240234375,-0.347412109375,1.6948999999999999
1.3435114503816794,-3.877862595419847,-7.877862595419847,-0.397705078125,0.024658203125,-0.3505859375,1.6965999999999999
1.3587786259541985,-4.091603053435114,-8.091603053435115,-0.403076171875,0.0185546875,-0.351318359375,1.6983
1.5877862595419847,-4.137404580152672,-8.16793893129771,-0.401611328125,0.016845703125,-0.351318359375,1.7
1.618320610687023,-4.366412213740458,-8.290076335877863,-0.40234375,0.022705078125,-0.34423828125,1.7017
1.3435114503816794,-4.305343511450381,-8.748091603053435,-0.399658203125,0.016845703125,-0.350341796875,1.7033999999999998
1.0687022900763359,-4.67175572519084,-8.916030534351146,-0.39794921875,0.01904296875,-0.348876953125,1.7050999999999998
1.4351145038167938,-4.67175572519084,-9.145038167938932,-0.405517578125,0.0166015625,-0.349365234375,1.7067999999999999
1.0229007633587786,-4.885496183206107,-9.358778625954198,-0.399658203125,0.02197265625,-0.353271484375,1.7085
1.083969465648855,-4.916030534351145,-9.679389312977099,-0.397216796875,0.01904296875,-0.3642578125,1.7102
1.0076335877862594,-4.9465648854961835,-9.83206106870229,-0.407470703125,0.016357421875,-0.349853515625,1.7119
0.7633587786259542,-4.977099236641221,-10.198473282442748,-0.397216796875,0.014892578125,-0.34521484375,1.7136
0.8244274809160306,-5.297709923664122,-10.259541984732824,-0.399169921875,0.017822265625,-0.352783203125,1.7152999999999998
0.6564885496183206,-5.282442748091603,-10.458015267175572,-0.399658203125,0.013671875,-0.350830078125,1.7169999999999999
0.7022900763358778,-5.32824427480916,-10.305343511450381,-0.40380859375,0.0205078125,-0.351318359375,1.7187
0.4122137404580153,-5.526717557251908,-10.473282442748092,-0.402099609375,0.017578125,-0.357421875,1.7204
0.1984732824427481,-5.465648854961832,-10.793893129770993,-0.40087890625,0.015625,-0.35791015625,1.7221
0.030534351145038167,-5.404580152671755,-10.900763358778626,-0.4033203125,0.010009765625,-0.351318359375,1.7238
-0.04580152671755725,-5.541984732824427,-11.053435114503817,-0.39990234375,0.018798828125,-0.3466796875,1.7254999999999998
-0.21374045801526717,-5.6183206106870225,-10.961832061068701,-0.40283203125,0.01220703125,-0.351318359375,1.7271999999999998
-0.2748091603053435,-5.603053435114504,-11.19083969465649,-0.4033203125,0.01806640625,-0.345947265625,1.7288999999999999
-0.32061068702290074,-5.694656488549619,-11.236641221374045,-0.405517578125,0.00732421875,-0.33837890625,1.7306
-0.7480916030534351,-5.633587786259542,-11.48091603053435,-0.4033203125,0.010498046875,-0.342529296875,1.7323
-0.6717557251908397,-5.8320610687022905,-11.541984732824428,-0.40576171875,0.01025390625,-0.35498046875,1.734
-0.7480916030534351,-5.786259541984733,-11.633587786259541,-0.405029296875,0.0146484375,-0.35302734375,1.7356999999999998
-0.9770992366412213,-5.908396946564886,-11.908396946564885,-0.405029296875,0.01416015625,-0.356689453125,1.7373999999999998
-1.1297709923664123,-5.9541984732824424,-11.923664122137405,-0.409423828125,0.01318359375,-0.34765625,1.7390999999999999
-1.2061068702290076,-5.847328244274809,-12.061068702290076,-0.4091796875,0.01171875,-0.346923828125,1.7408
-1.297709923664122,-6.030534351145038,-12.427480916030534,-0.4072265625,0.01220703125,-0.351806640625,1.7425
-1.1297709923664123,-6.0,-12.534351145038167,-0.40673828125,0.014404296875,-0.346435546875,1.7442
-1.4198473282442747,-6.0458015267175576,-12.763358778625955,-0.40380859375,0.01123046875,-0.34814453125,1.7459
-1.450381679389313,-6.015267175572519,-12.778625954198473,-0.405029296875,0.01220703125,-0.346923828125,1.7475999999999998
-1.450381679389313,-6.0,-12.900763358778626,-0.40625,0.0126953125,-0.35009765625,1.7492999999999999
-1.8015267175572518,-5.877862595419847,-13.32824427480916,-0.4072265625,0.01123046875,-0.35546875,1.751
-1.633587786259542,-5.786259541984733,-13.450381679389313,-0.41015625,0.013916015625,-0.34521484375,1.7527
-1.5725190839694656,-5.8320610687022905,-13.526717557251908,-0.4072265625,0.016357421875,-0.3505859375,1.7544
-1.786259541984733,-5.8320610687022905,-13.572519083969466,-0.408935546875,0.016845703125,-0.34521484375,1.7561
-1.8778625954198473,-5.801526717557252,-13.572519083969466,-0.412353515625,0.0126953125,-0.347412109375,1.7577999999999998
-1.8931297709923665,-5.786259541984733,-13.83206106870229,-0.4072265625,0.015625,-0.3525390625,1.7594999999999998
-1.9236641221374047,-5.9541984732824424,-14.076335877862595,-0.408203125,0.01416015625,-0.3525390625,1.7611999999999999
-2.0610687022900764,-5.679389312977099,-14.106870229007633,-0.40869140625,0.01220703125,-0.350341796875,1.7629
-1.9389312977099236,-5.862595419847328,-14.412213740458014,-0.402587890625,0.010498046875,-0.34765625,1.7646
-1.9389312977099236,-5.755725190839694,-14.259541984732824,-0.40576171875,0.01220703125,-0.343505859375,1.7663
-2.198473282442748,-5.679389312977099,-14.51908396946565,-0.40576171875,0.012939453125,-0.348876953125,1.7679999999999998
-2.198473282442748,-5.526717557251908,-14.641221374045802,-0.40380859375,0.0126953125,-0.34814453125,1.7696999999999998
-2.198473282442748,-5.557251908396947,-14.82442748091603,-0.40625,0.01318359375,-0.3486328125,1.7713999999999999
-2.2442748091603053,-5.419847328244275,-14.67175572519084,-0.409912109375,0.01123046875,-0.343017578125,1.7731
-2.2290076335877864,-5.236641221374046,-14.977099236641221,-0.403564453125,0.009521484375,-0.34375,1.7748
-2.2595419847328246,-5.022900763358779,-15.022900763358779,-0.405029296875,0.012451171875,-0.34765625,1.7765
-2.4122137404580153,-5.114503816793893,-15.053435114503817,-0.40966796875,0.010009765625,-0.3388671875,1.7782
-2.2595419847328246,-5.038167938931298,-15.19083969465649,-0.412841796875,0.008544921875,-0.35302734375,1.7798999999999998
-2.3969465648854964,-5.0534351145038165,-15.450381679389313,-0.4072265625,0.01220703125,-0.354248046875,1.7815999999999999
-2.4122137404580153,-4.916030534351145,-15.511450381679388,-0.408935546875,0.0087890625,-0.3505859375,1.7832999999999999
-2.50381679389313,-5.129770992366412,-15.450381679389313,-0.407470703125,0.010986328125,-0.347900390625,1.785
-2.4427480916030535,-5.083969465648855,-15.541984732824428,-0.409912109375,0.00927734375,-0.341064453125,1.7867
-2.351145038167939,-5.022900763358779,-15.83206106870229,-0.41064453125,0.0087890625,-0.343505859375,1.7884
-2.595419847328244,-4.9465648854961835,-15.587786259541986,-0.411376953125,0.009521484375,-0.35595703125,1.7900999999999998
-2.4732824427480917,-4.8396946564885495,-15.86259541984733,-0.4091796875,0.01171875,-0.351318359375,1.7917999999999998
-2.351145038167939,-4.961832061068702,-15.908396946564885,-0.4150390625,0.01220703125,-0.34033203125,1.7934999999999999
-2.4122137404580153,-4.748091603053435,-16.137404580152673,-0.4150390625,0.010986328125,-0.343017578125,1.7952
