gyrox1,gyroy1,gyroz1,accelx1,accely1,accelz1,Time
-0.6106870229007634,0.8396946564885496,-2.0610687022900764,-0.4599609375,0.0205078125,-0.138671875,0.0
-0.4732824427480916,0.8702290076335878,-1.6793893129770991,-0.461181640625,0.0263671875,-0.137939453125,0.0017
-0.42748091603053434,0.8549618320610687,-2.0,-0.45849609375,0.02294921875,-0.139404296875,0.0034
-0.24427480916030533,0.916030534351145,-2.213740458015267,-0.46142578125,0.024169921875,-0.133056640625,0.0050999999999999995
-0.22900763358778625,0.5801526717557252,-2.1526717557251906,-0.463134765625,0.022705078125,-0.139404296875,0.0068
-0.183206106870229,0.5954198473282443,-2.2442748091603053,-0.4619140625,0.024658203125,-0.13818359375,0.008499999999999999
-0.44274809160305345,0.6717557251908397,-2.1526717557251906,-0.462158203125,0.0244140625,-0.1337890625,0.010199999999999999
-0.2595419847328244,0.7175572519083969,-2.2442748091603053,-0.46337890625,0.023681640625,-0.135498046875,0.011899999999999999
0.061068702290076333,0.7480916030534351,-2.3206106870229006,-0.45849609375,0.022705078125,-0.13720703125,0.0136
-0.22900763358778625,0.549618320610687,-2.33587786259542,-0.464599609375,0.0244140625,-0.131103515625,0.0153
-0.015267175572519083,0.5343511450381679,-2.213740458015267,-0.460693359375,0.02197265625,-0.13037109375,0.016999999999999998
0.22900763358778625,0.5801526717557252,-2.50381679389313,-0.46142578125,0.0224609375,-0.13134765625,0.018699999999999998
0.16793893129770993,0.4732824427480916,-2.519083969465649,-0.460693359375,0.024169921875,-0.1298828125,0.020399999999999998
0.10687022900763359,0.6564885496183206,-2.5343511450381677,-0.463623046875,0.023193359375,-0.13134765625,0.022099999999999998
0.16793893129770993,0.6106870229007634,-2.6564885496183206,-0.46044921875,0.025390625,-0.1337890625,0.023799999999999998
0.10687022900763359,0.6106870229007634,-2.4427480916030535,-0.45947265625,0.022705078125,-0.136474609375,0.0255
0.44274809160305345,0.5343511450381679,-2.6564885496183206,-0.46044921875,0.025146484375,-0.13916015625,0.0272
0.549618320610687,0.4580152671755725,-2.717557251908397,-0.46142578125,0.0234375,-0.141357421875,0.0289
0.4122137404580153,0.7175572519083969,-2.9160305343511452,-0.4619140625,0.02294921875,-0.1416015625,0.0306
0.6106870229007634,0.5343511450381679,-2.885496183206107,-0.464599609375,0.02392578125,-0.13232421875,0.032299999999999995
0.7480916030534351,0.5190839694656488,-2.8244274809160306,-0.467041015625,0.02392578125,-0.134033203125,0.033999999999999996
0.7786259541984732,0.5648854961832062,-2.885496183206107,-0.457763671875,0.01904296875,-0.140869140625,0.035699999999999996
0.732824427480916,0.732824427480916,-2.8702290076335877,-0.4658203125,0.019775390625,-0.1328125,0.037399999999999996
0.9007633587786259,0.4732824427480916,-3.0381679389312977,-0.46337890625,0.01904296875,-0.134033203125,0.039099999999999996
0.8702290076335878,0.6870229007633588,-3.0076335877862594,-0.46630859375,0.015380859375,-0.13916015625,0.040799999999999996
1.0534351145038168,0.7022900763358778,-2.9160305343511452,-0.47021484375,0.023681640625,-0.138916015625,0.042499999999999996
0.9923664122137404,0.4732824427480916,-2.900763358778626,-0.463134765625,0.01611328125,-0.133544921875,0.044199999999999996
1.099236641221374,0.6717557251908397,-3.068702290076336,-0.458984375,0.0205078125,-0.135009765625,0.045899999999999996
1.0687022900763359,0.7022900763358778,-3.114503816793893,-0.464111328125,0.021728515625,-0.137939453125,0.047599999999999996
1.1145038167938932,0.6564885496183206,-3.2213740458015265,-0.462646484375,0.028564453125,-0.136474609375,0.0493
1.1603053435114503,0.5954198473282443,-3.3587786259541983,-0.46337890625,0.0224609375,-0.134033203125,0.051
1.3740458015267176,0.6870229007633588,-3.3435114503816794,-0.464599609375,0.023193359375,-0.139892578125,0.0527
1.5419847328244274,0.4732824427480916,-3.0381679389312977,-0.466552734375,0.02001953125,-0.135986328125,0.0544
1.3587786259541985,0.4732824427480916,-3.2977099236641223,-0.465576171875,0.019775390625,-0.13720703125,0.0561
1.4809160305343512,0.4732824427480916,-3.267175572519084,-0.466064453125,0.025146484375,-0.136962890625,0.0578
1.5267175572519085,0.32061068702290074,-3.480916030534351,-0.46533203125,0.023193359375,-0.1416015625,0.0595
1.7404580152671756,0.2595419847328244,-3.49618320610687,-0.46630859375,0.021484375,-0.1357421875,0.0612
2.045801526717557,0.4580152671755725,-3.4656488549618323,-0.46826171875,0.01611328125,-0.13623046875,0.0629
1.9236641221374047,0.6106870229007634,-3.3282442748091605,-0.471435546875,0.01904296875,-0.13623046875,0.06459999999999999
1.9389312977099236,0.7938931297709924,-3.3435114503816794,-0.4677734375,0.016357421875,-0.130126953125,0.0663
2.1526717557251906,0.8702290076335878,-3.435114503816794,-0.468994140625,0.01904296875,-0.14453125,0.06799999999999999
2.045801526717557,0.8396946564885496,-3.6030534351145036,-0.471435546875,0.019287109375,-0.139404296875,0.0697
2.213740458015267,1.099236641221374,-3.282442748091603,-0.467041015625,0.0205078125,-0.138427734375,0.07139999999999999
2.2290076335877864,1.099236641221374,-3.618320610687023,-0.46728515625,0.01904296875,-0.141845703125,0.0731
2.183206106870229,1.1603053435114503,-3.4656488549618323,-0.46533203125,0.01611328125,-0.13671875,0.07479999999999999
2.3969465648854964,1.3129770992366412,-3.66412213740458,-0.465087890625,0.0205078125,-0.138427734375,0.0765
2.595419847328244,1.2213740458015268,-3.49618320610687,-0.4677734375,0.02099609375,-0.128173828125,0.07819999999999999
2.33587786259542,1.3282442748091603,-3.3893129770992365,-0.4716796875,0.02490234375,-0.133544921875,0.0799
2.3206106870229006,1.465648854961832,-3.572519083969466,-0.46875,0.02197265625,-0.134033203125,0.08159999999999999
2.687022900763359,1.297709923664122,-3.6793893129770994,-0.471923828125,0.015869140625,-0.140625,0.0833
2.6106870229007635,1.1297709923664123,-3.3282442748091605,-0.471435546875,0.01806640625,-0.137939453125,0.08499999999999999
2.946564885496183,1.0687022900763359,-3.816793893129771,-0.470458984375,0.0224609375,-0.137451171875,0.0867
2.885496183206107,1.2671755725190839,-3.633587786259542,-0.469482421875,0.01708984375,-0.13525390625,0.08839999999999999
3.099236641221374,1.1603053435114503,-3.6946564885496183,-0.464599609375,0.020263671875,-0.1416015625,0.0901
3.068702290076336,1.1450381679389312,-3.7099236641221376,-0.46826171875,0.018798828125,-0.145751953125,0.09179999999999999
3.0839694656488548,1.3129770992366412,-3.6946564885496183,-0.46875,0.01708984375,-0.139404296875,0.0935
3.053435114503817,1.4198473282442747,-3.6793893129770994,-0.47021484375,0.01806640625,-0.13720703125,0.09519999999999999
3.1755725190839694,1.3893129770992367,-3.6946564885496183,-0.46630859375,0.018798828125,-0.1337890625,0.0969
3.3435114503816794,1.6030534351145038,-3.801526717557252,-0.47119140625,0.021240234375,-0.1337890625,0.0986
3.633587786259542,2.0,-3.5267175572519083,-0.46728515625,0.021240234375,-0.13671875,0.1003
3.633587786259542,1.7251908396946565,-3.49618320610687,-0.468505859375,0.017822265625,-0.1357421875,0.102
3.236641221374046,2.045801526717557,-3.7099236641221376,-0.470703125,0.022216796875,-0.144775390625,0.1037
3.572519083969466,2.1374045801526718,-3.267175572519084,-0.4736328125,0.021728515625,-0.140380859375,0.1054
3.7404580152671754,2.1068702290076335,-3.5572519083969465,-0.469970703125,0.014892578125,-0.128662109375,0.1071
3.877862595419847,1.9541984732824427,-3.3740458015267176,-0.465087890625,0.021240234375,-0.137939453125,0.1088
3.7251908396946565,2.2290076335877864,-3.435114503816794,-0.471923828125,0.012939453125,-0.1298828125,0.11049999999999999
3.8931297709923665,2.1374045801526718,-3.2519083969465647,-0.469970703125,0.014892578125,-0.13623046875,0.1122
4.091603053435114,2.1526717557251906,-3.2519083969465647,-0.469970703125,0.018310546875,-0.1376953125,0.11389999999999999
3.984732824427481,2.427480916030534,-3.1603053435114505,-0.46923828125,0.015869140625,-0.138671875,0.1156
3.9389312977099236,2.4122137404580153,-3.282442748091603,-0.468017578125,0.0185546875,-0.144287109375,0.11729999999999999
4.366412213740458,2.427480916030534,-3.1908396946564888,-0.47216796875,0.017822265625,-0.13916015625,0.119
4.305343511450381,2.427480916030534,-3.2213740458015265,-0.461669921875,0.018310546875,-0.135986328125,0.12069999999999999
4.442748091603053,2.4122137404580153,-3.1755725190839694,-0.470703125,0.016357421875,-0.131103515625,0.1224
4.351145038167939,2.3969465648854964,-3.1603053435114505,-0.4677734375,0.01611328125,-0.134521484375,0.12409999999999999
4.549618320610687,2.351145038167939,-3.0381679389312977,-0.46435546875,0.0185546875,-0.13818359375,0.1258
4.67175572519084,2.5801526717557253,-3.145038167938931,-0.4677734375,0.014892578125,-0.142333984375,0.1275
4.824427480916031,2.7786259541984735,-3.0076335877862594,-0.464599609375,0.0166015625,-0.143310546875,0.12919999999999998
4.702290076335878,2.7022900763358777,-3.236641221374046,-0.4638671875,0.0185546875,-0.13623046875,0.1309
4.809160305343512,2.717557251908397,-2.900763358778626,-0.467041015625,0.017822265625,-0.13720703125,0.1326
5.038167938931298,2.8396946564885495,-3.0839694656488548,-0.464599609375,0.01611328125,-0.134521484375,0.1343
4.885496183206107,2.732824427480916,-2.900763358778626,-0.46337890625,0.018798828125,-0.142578125,0.13599999999999998
4.824427480916031,2.8091603053435112,-2.854961832061069,-0.45947265625,0.011474609375,-0.129150390625,0.1377
5.190839694656488,2.854961832061069,-2.885496183206107,-0.46142578125,0.017333984375,-0.138427734375,0.1394
5.022900763358779,2.687022900763359,-3.0381679389312977,-0.45703125,0.02001953125,-0.1396484375,0.1411
5.312977099236641,2.595419847328244,-2.8091603053435112,-0.462158203125,0.01318359375,-0.142822265625,0.14279999999999998
5.312977099236641,2.8244274809160306,-2.900763358778626,-0.458740234375,0.01708984375,-0.129150390625,0.1445
5.465648854961832,2.7938931297709924,-2.885496183206107,-0.456298828125,0.016357421875,-0.13525390625,0.1462
5.557251908396947,2.6412213740458017,-2.7938931297709924,-0.46240234375,0.016357421875,-0.1337890625,0.1479
5.404580152671755,2.6259541984732824,-2.8396946564885495,-0.460205078125,0.017822265625,-0.137939453125,0.14959999999999998
5.419847328244275,2.7022900763358777,-3.0381679389312977,-0.462890625,0.01318359375,-0.143798828125,0.1513
5.4961832061068705,2.687022900763359,-2.885496183206107,-0.45556640625,0.01171875,-0.138916015625,0.153
5.587786259541985,2.549618320610687,-3.0229007633587788,-0.453125,0.01123046875,-0.139404296875,0.1547
5.6183206106870225,2.5801526717557253,-3.068702290076336,-0.455810546875,0.009765625,-0.1396484375,0.15639999999999998
5.572519083969466,2.33587786259542,-3.2061068702290076,-0.4599609375,0.010986328125,-0.13720703125,0.1581
5.66412213740458,2.381679389312977,-3.3587786259541983,-0.46044921875,0.013916015625,-0.133056640625,0.1598
5.557251908396947,2.366412213740458,-3.236641221374046,-0.457763671875,0.015869140625,-0.13134765625,0.1615
5.4961832061068705,2.122137404580153,-3.1603053435114505,-0.45556640625,0.01123046875,-0.13720703125,0.16319999999999998
5.7251908396946565,2.015267175572519,-3.145038167938931,-0.456298828125,0.00732421875,-0.14013671875,0.1649
5.4961832061068705,1.8778625954198473,-3.3282442748091605,-0.46142578125,0.01025390625,-0.13818359375,0.1666
5.511450381679389,1.83206106870229,-3.145038167938931,-0.460205078125,0.008544921875,-0.142333984375,0.16829999999999998
5.587786259541985,1.83206106870229,-3.145038167938931,-0.45947265625,0.00830078125,-0.126953125,0.16999999999999998
5.755725190839694,1.786259541984733,-3.068702290076336,-0.457275390625,0.010009765625,-0.139892578125,0.1717
5.435114503816794,1.7099236641221374,-2.8244274809160306,-0.4599609375,0.0068359375,-0.135498046875,0.1734
5.511450381679389,1.5419847328244274,-2.9160305343511452,-0.45458984375,0.012451171875,-0.138427734375,0.17509999999999998
5.679389312977099,1.297709923664122,-2.6717557251908395,-0.461669921875,0.00830078125,-0.13916015625,0.17679999999999998
5.312977099236641,1.297709923664122,-2.6259541984732824,-0.460693359375,0.008544921875,-0.152099609375,0.1785
5.404580152671755,1.465648854961832,-2.50381679389313,-0.465087890625,0.008056640625,-0.143310546875,0.1802
5.175572519083969,1.3740458015267176,-2.50381679389313,-0.463623046875,0.00830078125,-0.1376953125,0.18189999999999998
5.083969465648855,1.251908396946565,-2.4122137404580153,-0.4658203125,0.0078125,-0.14111328125,0.18359999999999999
5.358778625954199,1.3893129770992367,-2.3053435114503817,-0.468017578125,0.00537109375,-0.147216796875,0.1853
5.129770992366412,1.4961832061068703,-2.3969465648854964,-0.465087890625,0.003662109375,-0.141357421875,0.187
4.916030534351145,1.6793893129770991,-2.3053435114503817,-0.466796875,0.00244140625,-0.141357421875,0.18869999999999998
4.6106870229007635,1.786259541984733,-2.1374045801526718,-0.461181640625,0.002197265625,-0.140625,0.19039999999999999
4.687022900763359,1.5725190839694656,-2.0916030534351147,-0.462646484375,0.004638671875,-0.13720703125,0.1921
4.763358778625954,1.8473282442748091,-2.030534351145038,-0.462890625,0.005126953125,-0.13818359375,0.1938
4.427480916030534,1.7709923664122138,-2.015267175572519,-0.4658203125,0.004150390625,-0.14208984375,0.19549999999999998
4.442748091603053,1.7251908396946565,-1.816793893129771,-0.46875,0.00146484375,-0.134765625,0.1972
4.366412213740458,1.7709923664122138,-1.83206106870229,-0.4658203125,0.008056640625,-0.1376953125,0.1989
4.091603053435114,1.984732824427481,-1.786259541984733,-0.46630859375,0.00146484375,-0.139892578125,0.2006
3.8625954198473282,2.0763358778625953,-1.8015267175572518,-0.46826171875,0.001953125,-0.14013671875,0.20229999999999998
3.801526717557252,1.9389312977099236,-1.8015267175572518,-0.47021484375,0.006591796875,-0.147216796875,0.204
3.6793893129770994,1.8931297709923665,-1.7099236641221374,-0.4677734375,0.003173828125,-0.14013671875,0.2057
3.618320610687023,2.015267175572519,-1.6030534351145038,-0.465576171875,0.003662109375,-0.14794921875,0.2074
3.4198473282442747,2.0610687022900764,-1.5725190839694656,-0.472900390625,0.004638671875,-0.145751953125,0.20909999999999998
3.435114503816794,1.9389312977099236,-1.6946564885496183,-0.475830078125,-0.00537109375,-0.140625,0.2108
3.1603053435114505,2.1374045801526718,-1.5114503816793894,-0.47314453125,-0.000244140625,-0.1357421875,0.2125
3.1755725190839694,2.3053435114503817,-1.4198473282442747,-0.473876953125,0.006103515625,-0.14111328125,0.2142
3.068702290076336,2.213740458015267,-1.4351145038167938,-0.4716796875,0.007568359375,-0.148681640625,0.21589999999999998
2.6412213740458017,2.366412213740458,-1.2213740458015268,-0.469482421875,0.006591796875,-0.14990234375,0.2176
2.6564885496183206,2.7480916030534353,-1.2366412213740459,-0.467529296875,0.001708984375,-0.14599609375,0.2193
2.717557251908397,2.763358778625954,-1.2671755725190839,-0.472900390625,0.0,-0.143310546875,0.22099999999999997
2.381679389312977,3.0229007633587788,-1.2061068702290076,-0.479736328125,0.001220703125,-0.14453125,0.22269999999999998
2.1374045801526718,3.068702290076336,-1.3740458015267176,-0.474609375,0.0048828125,-0.146484375,0.2244
2.4427480916030535,3.3282442748091605,-1.1297709923664123,-0.46875,-0.000244140625,-0.14794921875,0.2261
2.2748091603053435,3.1755725190839694,-1.297709923664122,-0.466064453125,0.00390625,-0.14306640625,0.22779999999999997
2.1374045801526718,3.1755725190839694,-1.3282442748091603,-0.46630859375,0.00341796875,-0.14892578125,0.22949999999999998
1.9541984732824427,3.2519083969465647,-1.3740458015267176,-0.46875,0.005615234375,-0.14208984375,0.2312
1.984732824427481,3.4198473282442747,-1.6641221374045803,-0.466064453125,0.001708984375,-0.143310546875,0.2329
1.786259541984733,3.114503816793893,-1.618320610687023,-0.464599609375,0.0068359375,-0.144287109375,0.23459999999999998
1.5725190839694656,3.068702290076336,-1.450381679389313,-0.468505859375,0.010009765625,-0.145263671875,0.23629999999999998
1.6641221374045803,3.2061068702290076,-1.5572519083969465,-0.466064453125,0.004638671875,-0.140380859375,0.238
1.6641221374045803,2.8244274809160306,-1.6030534351145038,-0.468994140625,0.006103515625,-0.143798828125,0.2397
1.4351145038167938,2.885496183206107,-1.5877862595419847,-0.46826171875,0.015625,-0.141357421875,0.24139999999999998
1.5267175572519085,3.053435114503817,-1.6793893129770991,-0.46533203125,0.010986328125,-0.150390625,0.24309999999999998
1.3587786259541985,3.114503816793893,-1.5572519083969465,-0.47021484375,0.004150390625,-0.13720703125,0.2448
1.1755725190839694,3.0229007633587788,-1.450381679389313,-0.469970703125,0.001708984375,-0.13671875,0.2465
1.099236641221374,3.2213740458015265,-1.2671755725190839,-0.466796875,0.005615234375,-0.139404296875,0.24819999999999998
0.9770992366412213,3.1297709923664123,-1.282442748091603,-0.465087890625,0.0068359375,-0.1396484375,0.24989999999999998
0.8091603053435115,3.1603053435114505,-1.1755725190839694,-0.46630859375,0.00927734375,-0.137939453125,0.2516
0.6564885496183206,3.2977099236641223,-1.1145038167938932,-0.4619140625,0.0068359375,-0.1474609375,0.25329999999999997
0.8549618320610687,3.2977099236641223,-1.1908396946564885,-0.46142578125,0.006591796875,-0.14013671875,0.255
0.8549618320610687,3.435114503816794,-1.1145038167938932,-0.4658203125,0.007080078125,-0.1474609375,0.2567
0.3816793893129771,3.4198473282442747,-1.0381679389312977,-0.462890625,0.00927734375,-0.141845703125,0.25839999999999996
0.6870229007633588,3.312977099236641,-1.297709923664122,-0.462890625,0.01171875,-0.1396484375,0.2601
0.4580152671755725,3.3282442748091605,-1.2061068702290076,-0.46337890625,0.0048828125,-0.15283203125,0.2618
0.5648854961832062,3.3282442748091605,-1.3282442748091603,-0.4619140625,0.00634765625,-0.142333984375,0.2635
0.33587786259541985,3.267175572519084,-1.6030534351145038,-0.46728515625,0.010986328125,-0.143798828125,0.2652
0.366412213740458,3.3740458015267176,-1.3435114503816794,-0.45703125,0.01171875,-0.1396484375,0.26689999999999997
0.1984732824427481,3.3893129770992365,-1.465648854961832,-0.461669921875,0.0107421875,-0.138916015625,0.2686
0.2595419847328244,3.2977099236641223,-1.4809160305343512,-0.46533203125,0.0048828125,-0.140869140625,0.2703
0.061068702290076333,3.0839694656488548,-1.83206106870229,-0.459716796875,0.01171875,-0.148681640625,0.27199999999999996
0.030534351145038167,3.3282442748091605,-1.8473282442748091,-0.46142578125,0.009521484375,-0.13916015625,0.2737
0.015267175572519083,3.3587786259541983,-1.7709923664122138,-0.464599609375,0.010986328125,-0.1416015625,0.2754
0.030534351145038167,3.3740458015267176,-1.8473282442748091,-0.468994140625,0.01318359375,-0.143798828125,0.27709999999999996
-0.0916030534351145,3.3282442748091605,-1.9694656488549618,-0.463623046875,0.009521484375,-0.1435546875,0.2788
0.2900763358778626,3.1908396946564888,-1.9389312977099236,-0.462890625,0.009521484375,-0.14208984375,0.28049999999999997
0.1984732824427481,3.236641221374046,-1.9236641221374047,-0.466552734375,0.011474609375,-0.144287109375,0.2822
-0.04580152671755725,3.435114503816794,-1.9389312977099236,-0.465576171875,0.014404296875,-0.1396484375,0.2839
0.015267175572519083,3.404580152671756,-2.0763358778625953,-0.462890625,0.019287109375,-0.14208984375,0.28559999999999997
-0.12213740458015267,3.572519083969466,-1.9694656488549618,-0.463134765625,0.015625,-0.1435546875,0.2873
0.0916030534351145,3.435114503816794,-2.198473282442748,-0.463134765625,0.01318359375,-0.145263671875,0.289
0.07633587786259542,3.6793893129770994,-2.045801526717557,-0.455810546875,0.0146484375,-0.15185546875,0.29069999999999996
0.183206106870229,3.49618320610687,-2.3053435114503817,-0.4619140625,0.01220703125,-0.141357421875,0.2924
0.13740458015267176,3.5419847328244276,-2.549618320610687,-0.466064453125,0.01220703125,-0.13818359375,0.2941
0.24427480916030533,3.572519083969466,-2.351145038167939,-0.4599609375,0.017333984375,-0.140380859375,0.2958
0.44274809160305345,3.83206106870229,-2.4122137404580153,-0.458984375,0.01220703125,-0.14794921875,0.2975
0.2748091603053435,3.572519083969466,-2.4885496183206106,-0.464111328125,0.013427734375,-0.146728515625,0.29919999999999997
0.44274809160305345,3.5419847328244276,-2.4427480916030535,-0.4658203125,0.011474609375,-0.146240234375,0.3009
0.4732824427480916,3.4656488549618323,-2.4427480916030535,-0.46142578125,0.013671875,-0.142578125,0.3026
0.48854961832061067,3.6030534351145036,-2.4885496183206106,-0.46142578125,0.015380859375,-0.148193359375,0.30429999999999996
0.7480916030534351,3.7557251908396947,-2.9160305343511452,-0.46142578125,0.0185546875,-0.140380859375,0.306
0.8702290076335878,3.7251908396946565,-2.885496183206107,-0.46240234375,0.017578125,-0.1376953125,0.3077
0.7480916030534351,3.435114503816794,-2.9770992366412212,-0.463623046875,0.017822265625,-0.1455078125,0.3094
0.9923664122137404,3.236641221374046,-3.099236641221374,-0.46240234375,0.01171875,-0.14404296875,0.3111
1.0687022900763359,3.49618320610687,-2.946564885496183,-0.458740234375,0.013671875,-0.143798828125,0.31279999999999997
1.1603053435114503,3.236641221374046,-2.9923664122137406,-0.461181640625,0.016357421875,-0.140869140625,0.3145
1.3587786259541985,3.099236641221374,-3.1297709923664123,-0.4638671875,0.01513671875,-0.144287109375,0.3162
1.465648854961832,3.2061068702290076,-3.2061068702290076,-0.46484375,0.018310546875,-0.13720703125,0.31789999999999996
1.5725190839694656,3.236641221374046,-2.931297709923664,-0.4619140625,0.012939453125,-0.140380859375,0.3196
1.465648854961832,2.9923664122137406,-3.053435114503817,-0.457763671875,0.01513671875,-0.146240234375,0.3213
1.9389312977099236,2.9160305343511452,-3.2213740458015265,-0.46533203125,0.012939453125,-0.148193359375,0.323
1.9083969465648856,2.931297709923664,-2.946564885496183,-0.4638671875,0.013916015625,-0.145751953125,0.3247
1.7404580152671756,2.732824427480916,-3.0076335877862594,-0.462646484375,0.017578125,-0.1494140625,0.32639999999999997
1.9541984732824427,3.0839694656488548,-3.068702290076336,-0.463134765625,0.015869140625,-0.142822265625,0.3281
2.183206106870229,2.9770992366412212,-3.1755725190839694,-0.4580078125,0.01416015625,-0.14013671875,0.3298
2.3206106870229006,2.8702290076335877,-3.0839694656488548,-0.462890625,0.015625,-0.140869140625,0.33149999999999996
2.2748091603053435,2.6717557251908395,-3.1297709923664123,-0.460205078125,0.013916015625,-0.142822265625,0.3332
2.6412213740458017,2.5343511450381677,-2.9923664122137406,-0.46044921875,0.01220703125,-0.140625,0.3349
2.564885496183206,2.595419847328244,-3.114503816793893,-0.46435546875,0.013427734375,-0.138671875,0.33659999999999995
2.717557251908397,2.6106870229007635,-3.053435114503817,-0.460205078125,0.01025390625,-0.14990234375,0.3383
2.7022900763358777,2.50381679389313,-3.068702290076336,-0.466552734375,0.0107421875,-0.146240234375,0.33999999999999997
2.8091603053435112,2.2748091603053435,-3.0076335877862594,-0.46240234375,0.0126953125,-0.1455078125,0.3417
2.854961832061069,2.4580152671755724,-2.9770992366412212,-0.4658203125,0.01220703125,-0.142333984375,0.3434
2.8396946564885495,2.3206106870229006,-2.7938931297709924,-0.463134765625,0.011962890625,-0.151611328125,0.34509999999999996
3.4198473282442747,2.2290076335877864,-2.9923664122137406,-0.462890625,0.013916015625,-0.14453125,0.3468
3.312977099236641,2.2442748091603053,-2.7786259541984735,-0.4609375,0.01513671875,-0.1435546875,0.3485
3.2977099236641223,2.2900763358778624,-2.763358778625954,-0.464111328125,0.00537109375,-0.13818359375,0.35019999999999996
3.435114503816794,2.213740458015267,-2.732824427480916,-0.461669921875,0.009033203125,-0.132080078125,0.3519
3.2977099236641223,2.0763358778625953,-2.5801526717557253,-0.462646484375,0.01171875,-0.145751953125,0.35359999999999997
3.3435114503816794,2.3206106870229006,-2.4580152671755724,-0.462158203125,0.010009765625,-0.138671875,0.3553
3.7557251908396947,2.183206106870229,-2.381679389312977,-0.462158203125,0.009521484375,-0.145751953125,0.357
3.5267175572519083,2.198473282442748,-2.3053435114503817,-0.46240234375,0.010986328125,-0.146240234375,0.35869999999999996
3.7557251908396947,2.183206106870229,-2.3969465648854964,-0.464599609375,0.0068359375,-0.142333984375,0.3604
3.786259541984733,2.213740458015267,-2.2595419847328246,-0.460693359375,0.013916015625,-0.147705078125,0.3621
3.8473282442748094,2.1526717557251906,-2.33587786259542,-0.458251953125,0.010498046875,-0.14794921875,0.36379999999999996
3.7404580152671754,2.183206106870229,-2.2748091603053435,-0.45947265625,0.014892578125,-0.146484375,0.3655
3.816793893129771,2.3053435114503817,-2.183206106870229,-0.4638671875,0.00927734375,-0.14453125,0.36719999999999997
3.969465648854962,2.1068702290076335,-1.984732824427481,-0.4638671875,0.009765625,-0.14501953125,0.3689
3.66412213740458,2.2290076335877864,-2.2900763358778624,-0.469482421875,0.0029296875,-0.139404296875,0.3706
4.213740458015267,2.3969465648854964,-2.16793893129771,-0.464599609375,0.005859375,-0.14453125,0.37229999999999996
4.152671755725191,2.3969465648854964,-2.030534351145038,-0.46630859375,0.009765625,-0.14111328125,0.374
4.106870229007634,2.2442748091603053,-1.984732824427481,-0.462646484375,0.01171875,-0.148193359375,0.3757
4.030534351145038,1.984732824427481,-2.0,-0.467041015625,0.001953125,-0.140625,0.37739999999999996
4.106870229007634,2.1526717557251906,-2.045801526717557,-0.462890625,0.004638671875,-0.139892578125,0.3791
4.152671755725191,2.1374045801526718,-2.183206106870229,-0.4638671875,0.0087890625,-0.1474609375,0.38079999999999997
3.8931297709923665,2.0763358778625953,-1.7709923664122138,-0.465576171875,0.0009765625,-0.150390625,0.38249999999999995
3.9083969465648853,2.0916030534351147,-1.7099236641221374,-0.462890625,0.004638671875,-0.142333984375,0.3842
4.061068702290076,2.0610687022900764,-1.5267175572519085,-0.46728515625,0.006591796875,-0.150634765625,0.38589999999999997
4.1679389312977095,1.9083969465648856,-1.83206106870229,-0.45947265625,0.004638671875,-0.145263671875,0.3876
4.244274809160306,1.9694656488549618,-1.7099236641221374,-0.46044921875,0.0048828125,-0.14990234375,0.3893
4.290076335877862,2.1374045801526718,-1.6030534351145038,-0.463623046875,0.007568359375,-0.146484375,0.39099999999999996
4.061068702290076,2.1526717557251906,-1.5419847328244274,-0.464599609375,-0.001220703125,-0.144287109375,0.3927
3.9236641221374047,2.1526717557251906,-1.5877862595419847,-0.459716796875,0.004638671875,-0.142578125,0.3944
3.954198473282443,2.122137404580153,-1.2671755725190839,-0.46533203125,-0.000244140625,-0.151611328125,0.39609999999999995
3.877862595419847,2.198473282442748,-1.450381679389313,-0.463134765625,-0.001220703125,-0.151611328125,0.3978
3.83206106870229,2.2290076335877864,-1.297709923664122,-0.462890625,0.001220703125,-0.145751953125,0.39949999999999997
3.6793893129770994,2.2290076335877864,-1.3740458015267176,-0.461181640625,0.00048828125,-0.145263671875,0.4012
3.7404580152671754,2.198473282442748,-1.1603053435114503,-0.46142578125,0.00244140625,-0.14404296875,0.4029
3.5572519083969465,1.8778625954198473,-1.0076335877862594,-0.4638671875,0.00048828125,-0.146484375,0.40459999999999996
3.7251908396946565,1.6030534351145038,-1.1145038167938932,-0.45947265625,0.00341796875,-0.14892578125,0.4063
3.66412213740458,1.633587786259542,-1.1145038167938932,-0.457763671875,-0.001953125,-0.142578125,0.408
3.4656488549618323,1.816793893129771,-1.0381679389312977,-0.465576171875,-0.00048828125,-0.147705078125,0.40969999999999995
3.3740458015267176,1.7709923664122138,-0.9007633587786259,-0.464111328125,0.00048828125,-0.141845703125,0.4114
3.2213740458015265,1.4351145038167938,-0.7022900763358778,-0.466552734375,-0.005859375,-0.14794921875,0.41309999999999997
2.9923664122137406,1.3435114503816794,-0.732824427480916,-0.463134765625,-0.00537109375,-0.145263671875,0.4148
2.900763358778626,1.5572519083969465,-0.7633587786259542,-0.4658203125,-0.003173828125,-0.153564453125,0.4165
2.8244274809160306,1.6488549618320612,-0.6412213740458015,-0.463623046875,-0.001220703125,-0.151611328125,0.41819999999999996
2.763358778625954,1.5572519083969465,-0.48854961832061067,-0.46435546875,-0.00634765625,-0.143310546875,0.4199
2.4122137404580153,1.6641221374045803,-0.7022900763358778,-0.47021484375,-0.00244140625,-0.155029296875,0.4216
2.366412213740458,1.7557251908396947,-0.5801526717557252,-0.464599609375,-0.0029296875,-0.14697265625,0.42329999999999995
2.198473282442748,1.618320610687023,-0.2900763358778626,-0.463623046875,-0.000732421875,-0.152099609375,0.425
2.16793893129771,1.6793893129770991,-0.3053435114503817,-0.466064453125,-0.000732421875,-0.1455078125,0.42669999999999997
1.8473282442748091,1.618320610687023,-0.4122137404580153,-0.462890625,-0.001220703125,-0.139892578125,0.4284
1.7557251908396947,1.7251908396946565,-0.33587786259541985,-0.4638671875,0.0,-0.141845703125,0.4301
1.7404580152671756,1.618320610687023,-0.061068702290076333,-0.466552734375,-0.000732421875,-0.150146484375,0.43179999999999996
1.450381679389313,1.786259541984733,-0.3053435114503817,-0.46435546875,0.001220703125,-0.14501953125,0.4335
1.1450381679389312,1.6946564885496183,-0.21374045801526717,-0.46435546875,-0.001953125,-0.14501953125,0.4352
1.0687022900763359,1.786259541984733,0.07633587786259542,-0.461669921875,-0.001708984375,-0.153564453125,0.43689999999999996
0.732824427480916,1.6030534351145038,0.015267175572519083,-0.466552734375,-0.01025390625,-0.156982421875,0.4386
0.6106870229007634,1.6946564885496183,0.32061068702290074,-0.469482421875,-0.0048828125,-0.1533203125,0.44029999999999997
0.44274809160305345,1.9236641221374047,0.061068702290076333,-0.458984375,-0.00439453125,-0.15185546875,0.44199999999999995
0.4732824427480916,1.5267175572519085,0.2900763358778626,-0.46142578125,-0.004638671875,-0.150390625,0.4437
0.0916030534351145,1.6030534351145038,0.2900763358778626,-0.462890625,-0.0029296875,-0.1552734375,0.44539999999999996
-0.015267175572519083,1.8473282442748091,0.4580152671755725,-0.460693359375,-0.003662109375,-0.14501953125,0.4471
0.0,1.6793893129770991,0.3053435114503817,-0.46337890625,-0.002685546875,-0.1474609375,0.4488
-0.42748091603053434,1.7251908396946565,0.24427480916030533,-0.454833984375,0.0,-0.14404296875,0.45049999999999996
-0.5038167938931297,1.8473282442748091,0.2595419847328244,-0.4609375,-0.003173828125,-0.14306640625,0.4522
-0.9007633587786259,1.6488549618320612,0.5038167938931297,-0.46142578125,0.002197265625,-0.1455078125,0.45389999999999997
-1.2061068702290076,1.5572519083969465,0.0916030534351145,-0.467529296875,0.000732421875,-0.152587890625,0.45559999999999995
-1.4045801526717556,1.786259541984733,0.33587786259541985,-0.467529296875,-0.00146484375,-0.140625,0.4573
-1.3435114503816794,1.7251908396946565,0.33587786259541985,-0.465576171875,-0.002197265625,-0.1416015625,0.45899999999999996
-1.4809160305343512,1.7099236641221374,0.2595419847328244,-0.45361328125,-0.001708984375,-0.143798828125,0.4607
-1.8473282442748091,1.7404580152671756,0.3053435114503817,-0.45849609375,-0.00244140625,-0.147216796875,0.4624
-2.2442748091603053,1.8625954198473282,0.15267175572519084,-0.455078125,-0.00048828125,-0.152587890625,0.46409999999999996
-2.213740458015267,1.5572519083969465,-0.07633587786259542,-0.457763671875,0.00048828125,-0.14892578125,0.4658
-2.4885496183206106,1.4809160305343512,-0.07633587786259542,-0.462158203125,-0.00439453125,-0.145263671875,0.46749999999999997
-2.50381679389313,1.3435114503816794,-0.030534351145038167,-0.45361328125,-0.006103515625,-0.151611328125,0.46919999999999995
-2.7938931297709924,1.3740458015267176,-0.07633587786259542,-0.45654296875,0.00048828125,-0.146240234375,0.4709
-3.099236641221374,0.916030534351145,-0.16793893129770993,-0.453369140625,-0.002685546875,-0.143310546875,0.47259999999999996
-3.1908396946564888,0.9618320610687023,-0.183206106870229,-0.455322265625,-0.00048828125,-0.14453125,0.4743
-3.2519083969465647,0.8854961832061069,-0.04580152671755725,-0.456298828125,-0.003173828125,-0.14599609375,0.476
-3.236641221374046,0.6106870229007634,-0.22900763358778625,-0.45751953125,-0.002197265625,-0.152099609375,0.47769999999999996
-3.4198473282442747,0.2900763358778626,-0.183206106870229,-0.453125,0.003173828125,-0.146240234375,0.4794
-3.6030534351145036,0.183206106870229,-0.15267175572519084,-0.45361328125,0.00390625,-0.146240234375,0.48109999999999997
-3.633587786259542,0.2900763358778626,-0.24427480916030533,-0.457763671875,0.003662109375,-0.15185546875,0.48279999999999995
-3.7557251908396947,0.21374045801526717,-0.3053435114503817,-0.459228515625,0.0048828125,-0.1455078125,0.4845
-4.1679389312977095,0.2595419847328244,-0.21374045801526717,-0.4580078125,0.000244140625,-0.1474609375,0.48619999999999997
-3.8473282442748094,0.24427480916030533,-0.3969465648854962,-0.45751953125,0.0078125,-0.14990234375,0.4879
-4.137404580152672,0.1984732824427481,-0.3969465648854962,-0.458251953125,0.001220703125,-0.1474609375,0.4896
-4.183206106870229,-0.015267175572519083,-0.5343511450381679,-0.457763671875,0.003173828125,-0.144775390625,0.49129999999999996
-4.2748091603053435,-0.15267175572519084,-0.549618320610687,-0.45361328125,0.01171875,-0.144775390625,0.493
-4.290076335877862,0.10687022900763359,-0.5801526717557252,-0.45263671875,0.008544921875,-0.152587890625,0.4947
-4.458015267175573,-0.061068702290076333,-0.549618320610687,-0.457763671875,0.007568359375,-0.14404296875,0.49639999999999995
-4.625954198473282,-0.183206106870229,-0.7786259541984732,-0.45849609375,0.010986328125,-0.1416015625,0.4981
-4.6106870229007635,-0.549618320610687,-0.9007633587786259,-0.45654296875,0.01123046875,-0.147705078125,0.49979999999999997
-4.412213740458015,-0.5343511450381679,-0.9618320610687023,-0.456787109375,0.0126953125,-0.1494140625,0.5015
-4.549618320610687,-0.6717557251908397,-0.7633587786259542,-0.458251953125,0.013916015625,-0.150634765625,0.5032
-4.702290076335878,-0.6259541984732825,-1.083969465648855,-0.4619140625,0.0087890625,-0.144775390625,0.5049
-4.717557251908397,-0.9618320610687023,-1.1603053435114503,-0.453369140625,0.00927734375,-0.143310546875,0.5065999999999999
-4.625954198473282,-1.1297709923664123,-1.1450381679389312,-0.45458984375,0.009765625,-0.14404296875,0.5083
-4.748091603053435,-1.282442748091603,-1.1450381679389312,-0.457275390625,0.010498046875,-0.140380859375,0.51
-4.916030534351145,-1.4198473282442747,-1.1450381679389312,-0.457275390625,0.01318359375,-0.146728515625,0.5116999999999999
-4.6106870229007635,-1.4809160305343512,-1.1603053435114503,-0.459228515625,0.01318359375,-0.144775390625,0.5134
-4.824427480916031,-1.8473282442748091,-1.2061068702290076,-0.453857421875,0.00927734375,-0.151611328125,0.5151
-4.687022900763359,-1.9389312977099236,-1.083969465648855,-0.45458984375,0.009521484375,-0.140869140625,0.5167999999999999
-4.488549618320611,-2.1374045801526718,-1.297709923664122,-0.4580078125,0.013671875,-0.142333984375,0.5185
-4.625954198473282,-2.0916030534351147,-1.251908396946565,-0.457275390625,0.0146484375,-0.145751953125,0.5202
-4.564885496183206,-2.5801526717557253,-1.3893129770992367,-0.46240234375,0.01416015625,-0.1416015625,0.5218999999999999
-4.6106870229007635,-2.7938931297709924,-1.2213740458015268,-0.45556640625,0.015380859375,-0.142333984375,0.5236
-4.6106870229007635,-3.0076335877862594,-1.3740458015267176,-0.46142578125,0.01416015625,-0.14111328125,0.5253
-4.534351145038168,-2.7938931297709924,-1.3129770992366412,-0.4658203125,0.013427734375,-0.149169921875,0.527
-4.580152671755725,-3.1755725190839694,-1.3435114503816794,-0.4638671875,0.018798828125,-0.144775390625,0.5287
-4.488549618320611,-3.114503816793893,-1.3740458015267176,-0.4638671875,0.015625,-0.1494140625,0.5304
-4.396946564885496,-2.9770992366412212,-1.4351145038167938,-0.47265625,0.016845703125,-0.140869140625,0.5321
-4.519083969465649,-3.0381679389312977,-1.5419847328244274,-0.46875,0.01708984375,-0.14453125,0.5337999999999999
-4.366412213740458,-3.0076335877862594,-1.4961832061068703,-0.468994140625,0.015625,-0.13916015625,0.5355
-4.091603053435114,-2.8244274809160306,-1.6030534351145038,-0.471923828125,0.019775390625,-0.1318359375,0.5372
-4.427480916030534,-2.7938931297709924,-1.5114503816793894,-0.466552734375,0.018798828125,-0.14208984375,0.5388999999999999
-4.1679389312977095,-2.7480916030534353,-1.465648854961832,-0.466796875,0.01513671875,-0.145263671875,0.5406
-3.83206106870229,-2.6259541984732824,-1.8015267175572518,-0.463134765625,0.016845703125,-0.1474609375,0.5423
-4.106870229007634,-2.381679389312977,-1.8778625954198473,-0.464111328125,0.01806640625,-0.1416015625,0.5439999999999999
-3.9389312977099236,-2.3969465648854964,-1.9694656488549618,-0.47119140625,0.014892578125,-0.140625,0.5457
-3.66412213740458,-2.2442748091603053,-1.7251908396946565,-0.4677734375,0.015380859375,-0.140380859375,0.5474
-3.2519083969465647,-2.045801526717557,-1.816793893129771,-0.46484375,0.020751953125,-0.141357421875,0.5490999999999999
-3.49618320610687,-1.9541984732824427,-2.1068702290076335,-0.46875,0.015869140625,-0.142333984375,0.5508
-3.5114503816793894,-2.0,-2.0610687022900764,-0.4677734375,0.018798828125,-0.1337890625,0.5525
-3.2519083969465647,-1.9236641221374047,-1.9694656488549618,-0.468994140625,0.018310546875,-0.141845703125,0.5541999999999999
-3.099236641221374,-1.9083969465648856,-2.1526717557251906,-0.469482421875,0.020751953125,-0.14013671875,0.5559
-2.9923664122137406,-1.7099236641221374,-2.0,-0.468505859375,0.0166015625,-0.136474609375,0.5576
-2.8396946564885495,-1.984732824427481,-2.0763358778625953,-0.46826171875,0.01806640625,-0.131591796875,0.5593
-2.6717557251908395,-1.7404580152671756,-2.015267175572519,-0.465576171875,0.01513671875,-0.13720703125,0.5609999999999999
-2.595419847328244,-1.6641221374045803,-2.3053435114503817,-0.463623046875,0.01611328125,-0.14794921875,0.5627
-2.351145038167939,-1.5267175572519085,-2.030534351145038,-0.469970703125,0.020263671875,-0.139892578125,0.5644
-2.183206106870229,-1.5572519083969465,-2.045801526717557,-0.466064453125,0.02001953125,-0.129150390625,0.5660999999999999
-2.0916030534351147,-1.251908396946565,-2.0,-0.4677734375,0.014404296875,-0.14990234375,0.5678
-1.816793893129771,-1.1603053435114503,-2.0763358778625953,-0.47216796875,0.0166015625,-0.1416015625,0.5695
-1.5419847328244274,-1.1450381679389312,-1.8778625954198473,-0.471435546875,0.015380859375,-0.139404296875,0.5711999999999999
-1.5877862595419847,-0.8854961832061069,-2.2900763358778624,-0.467529296875,0.018310546875,-0.1396484375,0.5729
-1.465648854961832,-0.7480916030534351,-2.1374045801526718,-0.4716796875,0.02392578125,-0.134033203125,0.5746
-1.2213740458015268,-0.5038167938931297,-2.2290076335877864,-0.47119140625,0.02001953125,-0.1337890625,0.5762999999999999
-1.1297709923664123,-0.2748091603053435,-1.8015267175572518,-0.46923828125,0.019775390625,-0.142333984375,0.578
-1.099236641221374,-0.183206106870229,-2.030534351145038,-0.472900390625,0.0205078125,-0.146728515625,0.5797
-1.099236641221374,0.07633587786259542,-1.8625954198473282,-0.472900390625,0.018310546875,-0.1337890625,0.5813999999999999
-0.7786259541984732,0.3053435114503817,-2.0763358778625953,-0.468994140625,0.0146484375,-0.136474609375,0.5831
-0.6717557251908397,0.22900763358778625,-1.8625954198473282,-0.476318359375,0.013427734375,-0.137451171875,0.5848
-0.5190839694656488,0.5038167938931297,-2.0,-0.4677734375,0.015380859375,-0.1328125,0.5865
-0.3053435114503817,0.7022900763358778,-1.7709923664122138,-0.46826171875,0.015380859375,-0.139892578125,0.5882
-0.0916030534351145,0.6717557251908397,-1.8625954198473282,-0.467529296875,0.01171875,-0.140869140625,0.5899
0.0,0.8396946564885496,-1.786259541984733,-0.47265625,0.01708984375,-0.13623046875,0.5916
0.10687022900763359,1.099236641221374,-1.8015267175572518,-0.4755859375,0.02001953125,-0.14453125,0.5932999999999999
0.04580152671755725,1.4045801526717556,-1.633587786259542,-0.474853515625,0.020263671875,-0.136962890625,0.595
0.13740458015267176,1.297709923664122,-1.786259541984733,-0.467529296875,0.01611328125,-0.134521484375,0.5967
0.3969465648854962,1.5572519083969465,-1.6946564885496183,-0.46435546875,0.0107421875,-0.142578125,0.5983999999999999
0.183206106870229,1.618320610687023,-1.83206106870229,-0.46875,0.017578125,-0.13623046875,0.6001
0.44274809160305345,1.8625954198473282,-1.5419847328244274,-0.469970703125,0.014892578125,-0.144775390625,0.6018
0.7175572519083969,1.984732824427481,-1.7709923664122138,-0.471435546875,0.014892578125,-0.14013671875,0.6034999999999999
0.8091603053435115,1.8931297709923665,-1.8473282442748091,-0.466064453125,0.015869140625,-0.1328125,0.6052
0.732824427480916,1.816793893129771,-1.8931297709923665,-0.469482421875,0.013671875,-0.1376953125,0.6069
0.7175572519083969,1.6946564885496183,-1.7099236641221374,-0.468017578125,0.017822265625,-0.140869140625,0.6085999999999999
0.8702290076335878,1.83206106870229,-1.618320610687023,-0.4716796875,0.01611328125,-0.12451171875,0.6103
0.9007633587786259,2.213740458015267,-1.6641221374045803,-0.465087890625,0.015869140625,-0.143798828125,0.612
1.0381679389312977,2.015267175572519,-1.9236641221374047,-0.466552734375,0.013916015625,-0.14013671875,0.6136999999999999
1.0534351145038168,1.7251908396946565,-1.786259541984733,-0.47216796875,0.0166015625,-0.1357421875,0.6154
1.099236641221374,1.8778625954198473,-1.6641221374045803,-0.46728515625,0.014404296875,-0.139892578125,0.6171
1.1603053435114503,1.7251908396946565,-1.8625954198473282,-0.46826171875,0.01220703125,-0.14306640625,0.6188
1.2366412213740459,1.7709923664122138,-1.9541984732824427,-0.46533203125,0.017822265625,-0.137939453125,0.6204999999999999
1.0534351145038168,1.786259541984733,-1.9541984732824427,-0.47265625,0.016357421875,-0.1474609375,0.6222
1.3893129770992367,1.6946564885496183,-2.045801526717557,-0.463623046875,0.009521484375,-0.135986328125,0.6239
1.297709923664122,1.6641221374045803,-1.8778625954198473,-0.463623046875,0.010009765625,-0.133056640625,0.6255999999999999
1.1450381679389312,1.633587786259542,-1.9083969465648856,-0.466064453125,0.011962890625,-0.134521484375,0.6273
1.0687022900763359,1.8778625954198473,-1.9694656488549618,-0.46923828125,0.015869140625,-0.136962890625,0.629
1.3740458015267176,1.8625954198473282,-2.0916030534351147,-0.46728515625,0.01708984375,-0.139404296875,0.6306999999999999
1.4045801526717556,1.5572519083969465,-2.1374045801526718,-0.466796875,0.009765625,-0.139404296875,0.6324
1.3740458015267176,1.618320610687023,-2.4427480916030535,-0.4638671875,0.014892578125,-0.141845703125,0.6341
1.1755725190839694,1.8015267175572518,-2.213740458015267,-0.469482421875,0.011962890625,-0.14111328125,0.6357999999999999
1.083969465648855,1.5725190839694656,-2.2748091603053435,-0.470458984375,0.0068359375,-0.135498046875,0.6375
1.1908396946564885,1.6030534351145038,-2.351145038167939,-0.4658203125,0.01220703125,-0.140625,0.6392
0.9465648854961832,1.7557251908396947,-2.2748091603053435,-0.46923828125,0.00732421875,-0.142822265625,0.6408999999999999
0.9923664122137404,1.7099236641221374,-2.2595419847328246,-0.46728515625,0.00732421875,-0.138916015625,0.6426
1.0687022900763359,1.9083969465648856,-2.50381679389313,-0.47314453125,0.007568359375,-0.137939453125,0.6443
1.251908396946565,1.8931297709923665,-2.2748091603053435,-0.46875,0.008544921875,-0.14794921875,0.646
0.7022900763358778,1.9236641221374047,-2.5343511450381677,-0.471435546875,0.016357421875,-0.139892578125,0.6476999999999999
0.916030534351145,1.9236641221374047,-2.6106870229007635,-0.471923828125,0.0068359375,-0.144775390625,0.6494
0.8396946564885496,2.0763358778625953,-2.595419847328244,-0.466796875,0.01220703125,-0.14404296875,0.6511
0.7786259541984732,1.9083969465648856,-2.366412213740458,-0.467041015625,0.016845703125,-0.146484375,0.6527999999999999
0.8244274809160306,1.9541984732824427,-2.6717557251908395,-0.4677734375,0.01416015625,-0.14892578125,0.6545
0.6870229007633588,2.1068702290076335,-2.885496183206107,-0.470458984375,0.01171875,-0.142333984375,0.6562
0.44274809160305345,2.0763358778625953,-3.0381679389312977,-0.470703125,0.009033203125,-0.140869140625,0.6578999999999999
0.5954198473282443,1.9389312977099236,-2.5801526717557253,-0.4716796875,0.010986328125,-0.14404296875,0.6596
0.5343511450381679,2.045801526717557,-2.8702290076335877,-0.469970703125,0.006591796875,-0.140625,0.6613
0.366412213740458,2.030534351145038,-2.8091603053435112,-0.470458984375,0.008056640625,-0.139892578125,0.6629999999999999
0.5648854961832062,2.183206106870229,-2.5801526717557253,-0.46826171875,0.002685546875,-0.132080078125,0.6647
0.5648854961832062,2.16793893129771,-2.854961832061069,-0.467041015625,0.015625,-0.14208984375,0.6664
0.3816793893129771,2.3206106870229006,-2.7938931297709924,-0.468017578125,0.01123046875,-0.142822265625,0.6680999999999999
0.44274809160305345,2.33587786259542,-2.6259541984732824,-0.470947265625,0.00830078125,-0.140380859375,0.6698
0.2748091603053435,2.3206106870229006,-2.7938931297709924,-0.4677734375,0.006103515625,-0.13623046875,0.6715
0.4122137404580153,2.549618320610687,-3.0229007633587788,-0.4658203125,0.007568359375,-0.141357421875,0.6731999999999999
0.2900763358778626,2.5343511450381677,-2.8244274809160306,-0.46533203125,0.015625,-0.142333984375,0.6748999999999999
0.12213740458015267,2.4427480916030535,-2.6564885496183206,-0.46875,0.010498046875,-0.137451171875,0.6766
0.12213740458015267,2.8396946564885495,-2.8702290076335877,-0.46875,0.014404296875,-0.142822265625,0.6783
0.183206106870229,2.931297709923664,-2.9160305343511452,-0.465576171875,0.0126953125,-0.13525390625,0.6799999999999999
0.15267175572519084,2.763358778625954,-2.8396946564885495,-0.4638671875,0.013427734375,-0.1376953125,0.6817
0.030534351145038167,2.763358778625954,-2.687022900763359,-0.4609375,0.000244140625,-0.139892578125,0.6834
0.21374045801526717,2.854961832061069,-2.7480916030534353,-0.463623046875,0.009521484375,-0.143310546875,0.6850999999999999
0.44274809160305345,2.763358778625954,-2.717557251908397,-0.462646484375,0.012939453125,-0.145263671875,0.6868
0.3511450381679389,2.8091603053435112,-2.885496183206107,-0.465087890625,0.00830078125,-0.137939453125,0.6885
0.24427480916030533,2.8396946564885495,-2.763358778625954,-0.465087890625,0.01318359375,-0.147216796875,0.6901999999999999
0.4580152671755725,2.9160305343511452,-2.595419847328244,-0.465576171875,0.00927734375,-0.1435546875,0.6919
0.33587786259541985,2.7786259541984735,-2.7022900763358777,-0.462158203125,0.0087890625,-0.146484375,0.6936
0.15267175572519084,3.145038167938931,-2.6564885496183206,-0.459228515625,0.010498046875,-0.142333984375,0.6952999999999999
0.183206106870229,3.068702290076336,-2.4885496183206106,-0.462890625,0.010009765625,-0.141357421875,0.697
0.33587786259541985,2.6412213740458017,-2.2290076335877864,-0.46435546875,0.007568359375,-0.14306640625,0.6987
0.48854961832061067,2.885496183206107,-2.4427480916030535,-0.4658203125,0.012939453125,-0.13818359375,0.7003999999999999
0.6717557251908397,2.9923664122137406,-2.2442748091603053,-0.462158203125,0.015625,-0.143310546875,0.7021
0.5190839694656488,2.9160305343511452,-2.0916030534351147,-0.463134765625,0.011474609375,-0.140380859375,0.7038
0.4732824427480916,2.900763358778626,-2.0763358778625953,-0.463134765625,0.01318359375,-0.140869140625,0.7055
0.9770992366412213,2.885496183206107,-2.1374045801526718,-0.45751953125,0.00830078125,-0.1494140625,0.7071999999999999
0.732824427480916,2.687022900763359,-2.0,-0.458740234375,0.011962890625,-0.150634765625,0.7089
0.9923664122137404,2.732824427480916,-1.8625954198473282,-0.460693359375,0.010009765625,-0.1494140625,0.7106
0.9770992366412213,2.549618320610687,-1.6641221374045803,-0.458740234375,0.0107421875,-0.13525390625,0.7122999999999999
0.916030534351145,2.4732824427480917,-1.7404580152671756,-0.462158203125,0.015625,-0.147216796875,0.714
1.0076335877862594,2.7022900763358777,-1.7404580152671756,-0.461181640625,0.014892578125,-0.147216796875,0.7157
1.1450381679389312,2.8244274809160306,-1.6488549618320612,-0.46484375,0.010498046875,-0.147705078125,0.7173999999999999
1.0687022900763359,2.564885496183206,-1.4809160305343512,-0.462158203125,0.01611328125,-0.143798828125,0.7191
1.2061068702290076,2.381679389312977,-1.618320610687023,-0.4619140625,0.0126953125,-0.1474609375,0.7208
1.5877862595419847,2.4427480916030535,-1.5267175572519085,-0.466552734375,0.014404296875,-0.14990234375,0.7224999999999999
1.5419847328244274,2.2900763358778624,-1.4351145038167938,-0.46240234375,0.012451171875,-0.139892578125,0.7242
1.3893129770992367,2.2900763358778624,-1.3740458015267176,-0.464111328125,0.009521484375,-0.14501953125,0.7259
1.4961832061068703,2.2442748091603053,-1.282442748091603,-0.456787109375,0.011962890625,-0.14794921875,0.7275999999999999
1.6488549618320612,2.0916030534351147,-1.099236641221374,-0.4638671875,0.011474609375,-0.1494140625,0.7293
1.6793893129770991,2.0,-1.297709923664122,-0.4619140625,0.011962890625,-0.152587890625,0.731
1.8778625954198473,1.9236641221374047,-1.2213740458015268,-0.466796875,0.013916015625,-0.150390625,0.7326999999999999
1.8015267175572518,1.786259541984733,-1.0687022900763359,-0.4658203125,0.01611328125,-0.142822265625,0.7343999999999999
1.8625954198473282,1.618320610687023,-1.0381679389312977,-0.468994140625,0.014404296875,-0.150390625,0.7361
1.9694656488549618,1.5572519083969465,-0.9618320610687023,-0.469970703125,0.013671875,-0.151611328125,0.7378
1.7251908396946565,1.2213740458015268,-0.8702290076335878,-0.4658203125,0.01171875,-0.13916015625,0.7394999999999999
1.8625954198473282,1.465648854961832,-0.9923664122137404,-0.463134765625,0.01416015625,-0.14453125,0.7412
1.8931297709923665,1.4351145038167938,-0.5801526717557252,-0.465087890625,0.00830078125,-0.142578125,0.7429
2.213740458015267,1.6641221374045803,-0.6564885496183206,-0.465576171875,0.00634765625,-0.14111328125,0.7445999999999999
2.4122137404580153,1.8778625954198473,-0.6870229007633588,-0.466064453125,0.012451171875,-0.148681640625,0.7463
2.2290076335877864,2.3053435114503817,-0.5190839694656488,-0.4609375,0.014892578125,-0.146728515625,0.748
2.2290076335877864,2.519083969465649,-0.5343511450381679,-0.4599609375,0.014404296875,-0.145263671875,0.7496999999999999
2.0610687022900764,2.3969465648854964,-0.6870229007633588,-0.46240234375,0.00927734375,-0.150146484375,0.7514
1.9236641221374047,2.16793893129771,-0.3816793893129771,-0.461181640625,0.01171875,-0.150390625,0.7531
1.8931297709923665,2.2290076335877864,-0.366412213740458,-0.4677734375,0.010498046875,-0.147216796875,0.7547999999999999
2.0763358778625953,1.7709923664122138,-0.44274809160305345,-0.46240234375,0.012451171875,-0.142578125,0.7565
2.2900763358778624,1.7709923664122138,-0.5038167938931297,-0.459228515625,0.008544921875,-0.1474609375,0.7582
2.198473282442748,1.083969465648855,-0.4732824427480916,-0.46240234375,0.0068359375,-0.146728515625,0.7598999999999999
2.2290076335877864,0.7022900763358778,-0.3816793893129771,-0.464111328125,0.007568359375,-0.147216796875,0.7615999999999999
2.4122137404580153,0.6259541984732825,-0.183206106870229,-0.45947265625,0.011474609375,-0.1435546875,0.7633
2.33587786259542,0.24427480916030533,-0.16793893129770993,-0.46484375,0.01025390625,-0.145751953125,0.7649999999999999
2.4427480916030535,0.2595419847328244,0.015267175572519083,-0.467041015625,0.014892578125,-0.14697265625,0.7666999999999999
2.213740458015267,0.5190839694656488,-0.030534351145038167,-0.46728515625,0.010009765625,-0.1484375,0.7684
2.2900763358778624,0.366412213740458,0.04580152671755725,-0.463134765625,0.013427734375,-0.14990234375,0.7701
2.4580152671755724,0.5954198473282443,0.015267175572519083,-0.46533203125,0.011962890625,-0.155029296875,0.7717999999999999
2.1068702290076335,0.8396946564885496,0.2595419847328244,-0.465087890625,0.009765625,-0.1396484375,0.7735
2.0610687022900764,0.732824427480916,0.22900763358778625,-0.4658203125,0.01416015625,-0.148681640625,0.7752
2.122137404580153,1.1908396946564885,0.4580152671755725,-0.4677734375,0.010009765625,-0.14599609375,0.7768999999999999
1.8778625954198473,1.3129770992366412,0.24427480916030533,-0.46728515625,0.010498046875,-0.138671875,0.7786
1.7099236641221374,1.1145038167938932,0.44274809160305345,-0.47265625,0.01123046875,-0.144287109375,0.7803
1.8015267175572518,1.1450381679389312,0.24427480916030533,-0.468505859375,0.01416015625,-0.143310546875,0.7819999999999999
1.9083969465648856,1.3740458015267176,0.15267175572519084,-0.470703125,0.0126953125,-0.149658203125,0.7837
1.9236641221374047,1.3587786259541985,0.16793893129770993,-0.472412109375,0.0078125,-0.148681640625,0.7854
1.5877862595419847,1.2671755725190839,-0.030534351145038167,-0.466064453125,0.010498046875,-0.146484375,0.7870999999999999
1.5419847328244274,1.1908396946564885,0.04580152671755725,-0.468017578125,0.010009765625,-0.138916015625,0.7888
1.3282442748091603,1.2213740458015268,0.04580152671755725,-0.466552734375,0.012451171875,-0.147216796875,0.7905
1.3893129770992367,1.2366412213740459,-0.015267175572519083,-0.465087890625,0.0087890625,-0.14453125,0.7921999999999999
1.2671755725190839,1.2671755725190839,-0.10687022900763359,-0.46240234375,0.00732421875,-0.1416015625,0.7938999999999999
1.0381679389312977,1.618320610687023,-0.366412213740458,-0.465087890625,0.010986328125,-0.144775390625,0.7956
1.251908396946565,1.5114503816793894,-0.04580152671755725,-0.461181640625,0.009521484375,-0.15478515625,0.7973
1.1297709923664123,1.3893129770992367,-0.2595419847328244,-0.463623046875,0.014404296875,-0.145751953125,0.7989999999999999
0.9007633587786259,1.450381679389313,-0.04580152671755725,-0.4619140625,0.008544921875,-0.14453125,0.8007
0.9923664122137404,1.6946564885496183,-0.22900763358778625,-0.4638671875,0.01123046875,-0.142578125,0.8024
0.7786259541984732,1.786259541984733,-0.030534351145038167,-0.46484375,0.013427734375,-0.149658203125,0.8040999999999999
0.7022900763358778,1.5419847328244274,-0.12213740458015267,-0.46142578125,0.009765625,-0.14453125,0.8058
0.7480916030534351,1.7251908396946565,0.07633587786259542,-0.464111328125,0.008056640625,-0.146728515625,0.8075
0.6259541984732825,1.9694656488549618,-0.12213740458015267,-0.463134765625,0.010009765625,-0.150146484375,0.8091999999999999
0.5190839694656488,1.618320610687023,-0.21374045801526717,-0.4638671875,0.0107421875,-0.15087890625,0.8109
0.5343511450381679,1.7709923664122138,-0.32061068702290074,-0.46484375,0.010009765625,-0.15283203125,0.8126
0.4122137404580153,1.9541984732824427,-0.2595419847328244,-0.46044921875,0.01220703125,-0.142333984375,0.8142999999999999
0.4122137404580153,2.0,-0.6106870229007634,-0.46484375,0.0107421875,-0.142822265625,0.816
0.366412213740458,2.198473282442748,-0.5038167938931297,-0.461181640625,0.017822265625,-0.140380859375,0.8177
0.183206106870229,2.122137404580153,-0.8702290076335878,-0.458984375,0.018798828125,-0.140869140625,0.8193999999999999
0.061068702290076333,1.984732824427481,-0.8854961832061069,-0.45556640625,0.014892578125,-0.138916015625,0.8210999999999999
0.2748091603053435,2.0916030534351147,-1.0076335877862594,-0.45703125,0.009765625,-0.1337890625,0.8228
0.0916030534351145,2.030534351145038,-1.1145038167938932,-0.455322265625,0.011962890625,-0.14794921875,0.8244999999999999
-0.13740458015267176,2.1374045801526718,-1.4045801526717556,-0.45654296875,0.00830078125,-0.1474609375,0.8261999999999999
0.2900763358778626,2.2290076335877864,-1.3129770992366412,-0.451416015625,0.01513671875,-0.1494140625,0.8279
0.15267175572519084,2.2290076335877864,-1.786259541984733,-0.449462890625,0.01171875,-0.14111328125,0.8296
0.15267175572519084,2.213740458015267,-1.5877862595419847,-0.454345703125,0.013916015625,-0.152587890625,0.8312999999999999
-0.16793893129770993,2.2900763358778624,-1.7557251908396947,-0.451904296875,0.01513671875,-0.14697265625,0.833
-0.1984732824427481,2.045801526717557,-2.0610687022900764,-0.449462890625,0.015625,-0.1435546875,0.8347
0.0916030534351145,2.0610687022900764,-2.045801526717557,-0.44970703125,0.01123046875,-0.14208984375,0.8363999999999999
0.07633587786259542,1.83206106870229,-2.122137404580153,-0.451171875,0.012451171875,-0.135498046875,0.8381
-0.04580152671755725,1.8473282442748091,-2.2442748091603053,-0.45263671875,0.013671875,-0.141845703125,0.8398
0.0,1.8931297709923665,-2.2290076335877864,-0.4501953125,0.014892578125,-0.140380859375,0.8414999999999999
0.12213740458015267,2.0,-2.4732824427480917,-0.448974609375,0.013916015625,-0.1455078125,0.8432
0.21374045801526717,1.7709923664122138,-2.5343511450381677,-0.44677734375,0.010009765625,-0.14306640625,0.8449
-0.061068702290076333,1.4961832061068703,-2.7022900763358777,-0.44677734375,0.0146484375,-0.148193359375,0.8465999999999999
0.0,1.5114503816793894,-2.549618320610687,-0.447021484375,0.013427734375,-0.14404296875,0.8482999999999999
0.12213740458015267,1.5267175572519085,-2.7938931297709924,-0.4462890625,0.01318359375,-0.142333984375,0.85
0.3511450381679389,1.3435114503816794,-2.9770992366412212,-0.44482421875,0.0146484375,-0.137451171875,0.8516999999999999
0.4732824427480916,1.3282442748091603,-2.931297709923664,-0.449462890625,0.0166015625,-0.1396484375,0.8533999999999999
0.32061068702290074,1.297709923664122,-2.9160305343511452,-0.445068359375,0.016845703125,-0.138671875,0.8551
0.16793893129770993,1.0381679389312977,-3.312977099236641,-0.443359375,0.013916015625,-0.13671875,0.8568
0.44274809160305345,1.0381679389312977,-3.068702290076336,-0.44921875,0.0166015625,-0.14453125,0.8584999999999999
0.32061068702290074,1.0381679389312977,-3.3282442748091605,-0.451904296875,0.019775390625,-0.144287109375,0.8602
0.366412213740458,0.9312977099236641,-3.282442748091603,-0.448486328125,0.01513671875,-0.142333984375,0.8619
0.6717557251908397,0.8244274809160306,-3.3435114503816794,-0.45166015625,0.016357421875,-0.14013671875,0.8635999999999999
0.5801526717557252,0.8244274809160306,-3.6793893129770994,-0.4521484375,0.015625,-0.143798828125,0.8653
0.7938931297709924,0.5190839694656488,-3.7709923664122136,-0.45361328125,0.01708984375,-0.134033203125,0.867
0.9618320610687023,0.6717557251908397,-3.6793893129770994,-0.458984375,0.013916015625,-0.143798828125,0.8686999999999999
0.6717557251908397,0.5190839694656488,-3.7709923664122136,-0.45849609375,0.01708984375,-0.148681640625,0.8704
0.8702290076335878,0.366412213740458,-3.83206106870229,-0.46044921875,0.0126953125,-0.146728515625,0.8721
0.9923664122137404,0.549618320610687,-4.1679389312977095,-0.45458984375,0.012939453125,-0.144775390625,0.8737999999999999
0.9923664122137404,0.33587786259541985,-4.061068702290076,-0.461669921875,0.015625,-0.152099609375,0.8755
1.083969465648855,0.3511450381679389,-4.152671755725191,-0.463134765625,0.01708984375,-0.150390625,0.8772
1.0229007633587786,0.6412213740458015,-4.0458015267175576,-0.466552734375,0.02001953125,-0.138671875,0.8788999999999999
1.251908396946565,0.5801526717557252,-4.229007633587786,-0.461669921875,0.011474609375,-0.1513671875,0.8805999999999999
1.5725190839694656,0.6412213740458015,-4.290076335877862,-0.465576171875,0.01416015625,-0.154541015625,0.8823
1.3435114503816794,0.5954198473282443,-4.061068702290076,-0.458251953125,0.013427734375,-0.14892578125,0.8839999999999999
1.5267175572519085,0.44274809160305345,-4.259541984732825,-0.462890625,0.00927734375,-0.14892578125,0.8856999999999999
1.6488549618320612,0.4122137404580153,-4.3816793893129775,-0.4658203125,0.018798828125,-0.1513671875,0.8874
1.6946564885496183,0.4580152671755725,-4.33587786259542,-0.466552734375,0.01953125,-0.155029296875,0.8891
1.6793893129770991,0.44274809160305345,-4.534351145038168,-0.469482421875,0.01416015625,-0.153564453125,0.8907999999999999
1.8625954198473282,0.24427480916030533,-4.396946564885496,-0.465576171875,0.012451171875,-0.146240234375,0.8925
1.9083969465648856,0.22900763358778625,-4.6106870229007635,-0.46044921875,0.01806640625,-0.138671875,0.8942
1.83206106870229,-0.030534351145038167,-4.595419847328245,-0.4638671875,0.01708984375,-0.14453125,0.8958999999999999
2.045801526717557,-0.15267175572519084,-4.656488549618321,-0.462158203125,0.011474609375,-0.143798828125,0.8976
2.0916030534351147,-0.13740458015267176,-4.595419847328245,-0.463623046875,0.010986328125,-0.14599609375,0.8993
2.4885496183206106,-0.2595419847328244,-4.595419847328245,-0.4638671875,0.013916015625,-0.145751953125,0.9009999999999999
2.4732824427480917,-0.2748091603053435,-4.763358778625954,-0.4658203125,0.01123046875,-0.140380859375,0.9027
2.50381679389313,-0.32061068702290074,-4.67175572519084,-0.461181640625,0.01513671875,-0.14306640625,0.9044
2.6564885496183206,-0.48854961832061067,-4.564885496183206,-0.459716796875,0.0146484375,-0.151611328125,0.9060999999999999
2.7480916030534353,-0.732824427480916,-4.5038167938931295,-0.4658203125,0.013671875,-0.1435546875,0.9077999999999999
2.9923664122137406,-0.5648854961832062,-4.519083969465649,-0.462890625,0.012939453125,-0.13818359375,0.9095
2.8244274809160306,-0.7633587786259542,-4.244274809160306,-0.46630859375,0.015869140625,-0.140625,0.9111999999999999
2.9923664122137406,-1.083969465648855,-4.137404580152672,-0.46630859375,0.015380859375,-0.1494140625,0.9128999999999999
3.236641221374046,-0.8396946564885496,-4.2748091603053435,-0.466064453125,0.012939453125,-0.149658203125,0.9146
3.3435114503816794,-0.8854961832061069,-4.152671755725191,-0.466064453125,0.01513671875,-0.15234375,0.9163
3.3740458015267176,-1.0687022900763359,-3.969465648854962,-0.46728515625,0.014404296875,-0.13818359375,0.9179999999999999
3.1755725190839694,-1.1145038167938932,-3.9389312977099236,-0.469970703125,0.013916015625,-0.14599609375,0.9197
3.480916030534351,-1.1450381679389312,-3.7709923664122136,-0.464599609375,0.013671875,-0.142822265625,0.9214
3.7404580152671754,-1.083969465648855,-3.5877862595419847,-0.468994140625,0.01220703125,-0.146728515625,0.9230999999999999
3.66412213740458,-0.9770992366412213,-3.3893129770992365,-0.466552734375,0.015380859375,-0.148681640625,0.9248
3.7404580152671754,-1.2061068702290076,-3.3587786259541983,-0.466552734375,0.0068359375,-0.146240234375,0.9265
3.801526717557252,-1.465648854961832,-3.5267175572519083,-0.464599609375,0.008056640625,-0.1416015625,0.9281999999999999
3.8931297709923665,-1.1908396946564885,-3.0076335877862594,-0.4619140625,0.009521484375,-0.153076171875,0.9299
4.33587786259542,-1.3587786259541985,-3.068702290076336,-0.46240234375,0.00927734375,-0.1474609375,0.9316
4.122137404580153,-1.4961832061068703,-2.900763358778626,-0.463134765625,0.0126953125,-0.140380859375,0.9332999999999999
4.427480916030534,-1.5419847328244274,-3.0839694656488548,-0.462158203125,0.00439453125,-0.158203125,0.9349999999999999
4.290076335877862,-1.5877862595419847,-2.9618320610687023,-0.4609375,0.0078125,-0.143310546875,0.9367
4.458015267175573,-1.6030534351145038,-2.7480916030534353,-0.46533203125,0.009033203125,-0.148681640625,0.9383999999999999
4.5038167938931295,-1.6946564885496183,-2.5801526717557253,-0.460693359375,0.00830078125,-0.143798828125,0.9400999999999999
4.458015267175573,-1.7709923664122138,-2.6106870229007635,-0.4658203125,0.013427734375,-0.142822265625,0.9418
4.656488549618321,-1.8931297709923665,-2.50381679389313,-0.45751953125,0.00830078125,-0.1396484375,0.9434999999999999
4.656488549618321,-2.1526717557251906,-2.33587786259542,-0.46044921875,0.0087890625,-0.14111328125,0.9451999999999999
4.717557251908397,-2.16793893129771,-2.213740458015267,-0.45947265625,0.005615234375,-0.13916015625,0.9469
4.763358778625954,-2.122137404580153,-2.2900763358778624,-0.459716796875,0.007568359375,-0.151123046875,0.9486
4.870229007633588,-2.198473282442748,-2.0916030534351147,-0.460205078125,0.010498046875,-0.1396484375,0.9502999999999999
5.129770992366412,-2.5343511450381677,-1.786259541984733,-0.458740234375,0.009033203125,-0.13623046875,0.952
5.175572519083969,-2.5801526717557253,-1.9236641221374047,-0.46142578125,0.010498046875,-0.13671875,0.9537
4.900763358778626,-2.4732824427480917,-1.7099236641221374,-0.456787109375,0.005615234375,-0.133544921875,0.9553999999999999
4.977099236641221,-2.50381679389313,-1.7709923664122138,-0.45751953125,0.01025390625,-0.1337890625,0.9571
5.251908396946565,-2.564885496183206,-1.5267175572519085,-0.457763671875,0.00439453125,-0.14208984375,0.9588
5.145038167938932,-2.6564885496183206,-1.618320610687023,-0.45458984375,0.009521484375,-0.142822265625,0.9604999999999999
5.32824427480916,-2.7938931297709924,-1.6946564885496183,-0.462158203125,0.005615234375,-0.1435546875,0.9621999999999999
5.480916030534351,-2.8702290076335877,-1.7251908396946565,-0.45849609375,0.0048828125,-0.135498046875,0.9639
5.435114503816794,-2.8244274809160306,-1.5572519083969465,-0.457275390625,0.00146484375,-0.146240234375,0.9655999999999999
5.114503816793893,-2.8702290076335877,-1.618320610687023,-0.45849609375,0.009033203125,-0.14453125,0.9672999999999999
5.1603053435114505,-3.2061068702290076,-1.465648854961832,-0.46484375,0.006591796875,-0.135009765625,0.969
5.450381679389313,-3.282442748091603,-1.5419847328244274,-0.458251953125,0.01025390625,-0.13134765625,0.9706999999999999
5.267175572519084,-3.5267175572519083,-1.1755725190839694,-0.457275390625,0.008544921875,-0.13525390625,0.9723999999999999
5.221374045801527,-3.618320610687023,-1.450381679389313,-0.459716796875,0.004150390625,-0.14501953125,0.9741
5.32824427480916,-3.648854961832061,-1.5114503816793894,-0.462158203125,0.006591796875,-0.142578125,0.9758
5.221374045801527,-3.648854961832061,-1.4351145038167938,-0.45703125,0.008056640625,-0.133056640625,0.9774999999999999
4.8396946564885495,-3.7404580152671754,-1.3740458015267176,-0.464111328125,0.004638671875,-0.13671875,0.9792
5.358778625954199,-3.9083969465648853,-0.9770992366412213,-0.4619140625,0.0087890625,-0.14111328125,0.9809
5.129770992366412,-3.7557251908396947,-0.9312977099236641,-0.4609375,0.002685546875,-0.13671875,0.9825999999999999
5.083969465648855,-3.816793893129771,-1.1450381679389312,-0.461669921875,0.0068359375,-0.143310546875,0.9843
4.900763358778626,-4.0458015267175576,-0.9770992366412213,-0.46142578125,0.013916015625,-0.130615234375,0.986
5.221374045801527,-3.7557251908396947,-0.9923664122137404,-0.460693359375,0.005859375,-0.13818359375,0.9876999999999999
4.99236641221374,-3.984732824427481,-0.8244274809160306,-0.46728515625,0.0048828125,-0.14453125,0.9894
4.900763358778626,-4.0458015267175576,-0.6564885496183206,-0.46142578125,-0.00244140625,-0.1328125,0.9911
4.870229007633588,-3.8931297709923665,-0.48854961832061067,-0.46435546875,0.004150390625,-0.136962890625,0.9927999999999999
4.549618320610687,-3.816793893129771,-0.549618320610687,-0.466064453125,0.005615234375,-0.138671875,0.9944999999999999
4.793893129770993,-4.0,-0.4122137404580153,-0.46630859375,0.006591796875,-0.14208984375,0.9962
4.6106870229007635,-4.137404580152672,-0.4580152671755725,-0.46533203125,0.005615234375,-0.13525390625,0.9978999999999999
4.213740458015267,-3.954198473282443,-0.3816793893129771,-0.466064453125,0.006103515625,-0.129150390625,0.9995999999999999
4.305343511450381,-3.954198473282443,-0.366412213740458,-0.46875,-0.003173828125,-0.13818359375,1.0012999999999999
4.5038167938931295,-3.7404580152671754,-0.15267175572519084,-0.467041015625,-0.000244140625,-0.13037109375,1.003
4.061068702290076,-3.8931297709923665,-0.22900763358778625,-0.463134765625,0.001708984375,-0.142822265625,1.0047
3.9236641221374047,-3.66412213740458,-0.22900763358778625,-0.462646484375,0.0,-0.146484375,1.0064
3.8625954198473282,-3.7557251908396947,-0.04580152671755725,-0.4638671875,0.0009765625,-0.13916015625,1.0081
3.786259541984733,-3.633587786259542,0.13740458015267176,-0.46435546875,-0.009765625,-0.141357421875,1.0098
3.5419847328244276,-3.7557251908396947,-0.13740458015267176,-0.46533203125,0.001220703125,-0.135009765625,1.0114999999999998
3.267175572519084,-3.6030534351145036,0.24427480916030533,-0.4677734375,0.001220703125,-0.1337890625,1.0131999999999999
3.5419847328244276,-3.49618320610687,0.1984732824427481,-0.462646484375,-0.0009765625,-0.140625,1.0149
3.114503816793893,-3.404580152671756,0.21374045801526717,-0.464111328125,-0.000244140625,-0.134765625,1.0166
3.053435114503817,-3.312977099236641,0.7022900763358778,-0.46826171875,-0.00048828125,-0.14111328125,1.0183
2.854961832061069,-3.5114503816793894,0.5648854961832062,-0.466064453125,0.0078125,-0.136474609375,1.02
2.854961832061069,-3.114503816793893,0.366412213740458,-0.459716796875,0.000244140625,-0.12646484375,1.0217
2.8244274809160306,-3.053435114503817,0.7633587786259542,-0.46142578125,-0.002197265625,-0.1298828125,1.0233999999999999
2.4580152671755724,-3.3740458015267176,0.7938931297709924,-0.462890625,-0.00146484375,-0.131591796875,1.0251
2.4427480916030535,-3.312977099236641,0.916030534351145,-0.46435546875,0.002685546875,-0.1328125,1.0268
2.2900763358778624,-3.068702290076336,0.8854961832061069,-0.45751953125,0.00732421875,-0.131103515625,1.0285
1.9236641221374047,-2.9618320610687023,0.9770992366412213,-0.467041015625,-0.002197265625,-0.1357421875,1.0302
1.9083969465648856,-2.9770992366412212,1.1297709923664123,-0.462646484375,0.0029296875,-0.131591796875,1.0319
1.8931297709923665,-3.053435114503817,1.2366412213740459,-0.46044921875,0.005859375,-0.135498046875,1.0335999999999999
1.5114503816793894,-3.0381679389312977,0.9312977099236641,-0.460693359375,0.00048828125,-0.132080078125,1.0352999999999999
1.618320610687023,-2.9618320610687023,1.1145038167938932,-0.46728515625,0.0029296875,-0.131103515625,1.037
1.2366412213740459,-2.8091603053435112,1.1145038167938932,-0.4609375,0.00341796875,-0.1298828125,1.0387
0.9465648854961832,-2.6412213740458017,1.282442748091603,-0.464599609375,0.00390625,-0.13232421875,1.0404
1.0534351145038168,-2.7938931297709924,1.3435114503816794,-0.469970703125,0.00244140625,-0.12841796875,1.0421
0.8244274809160306,-2.7480916030534353,1.3435114503816794,-0.462890625,0.0029296875,-0.13525390625,1.0437999999999998
0.7022900763358778,-2.7480916030534353,1.3435114503816794,-0.468017578125,0.005126953125,-0.131103515625,1.0454999999999999
0.5954198473282443,-2.6564885496183206,1.282442748091603,-0.462646484375,0.006591796875,-0.119384765625,1.0472
0.4732824427480916,-2.7938931297709924,1.3129770992366412,-0.467529296875,0.002197265625,-0.135498046875,1.0489
0.2900763358778626,-2.6106870229007635,1.4809160305343512,-0.470947265625,0.000244140625,-0.138916015625,1.0506
0.15267175572519084,-2.50381679389313,1.251908396946565,-0.4697265625,0.005859375,-0.139892578125,1.0523
-0.24427480916030533,-2.3053435114503817,1.2671755725190839,-0.466552734375,0.009521484375,-0.1376953125,1.054
-0.10687022900763359,-2.2595419847328246,1.099236641221374,-0.467041015625,0.003173828125,-0.123291015625,1.0556999999999999
-0.04580152671755725,-2.198473282442748,0.9770992366412213,-0.469482421875,0.004638671875,-0.131591796875,1.0574
-0.3053435114503817,-1.984732824427481,0.9618320610687023,-0.46728515625,0.008544921875,-0.1318359375,1.0591
-0.48854961832061067,-1.8473282442748091,1.1908396946564885,-0.4658203125,0.007568359375,-0.130615234375,1.0608
-0.549618320610687,-1.6946564885496183,0.8396946564885496,-0.467041015625,0.003662109375,-0.135498046875,1.0625
-0.8244274809160306,-1.5267175572519085,0.6870229007633588,-0.463623046875,0.005615234375,-0.13671875,1.0642
-1.083969465648855,-1.450381679389313,0.7022900763358778,-0.46533203125,0.004150390625,-0.127197265625,1.0658999999999998
-0.8549618320610687,-1.2213740458015268,0.7022900763358778,-0.465576171875,0.006103515625,-0.131591796875,1.0675999999999999
-1.099236641221374,-1.1450381679389312,0.5648854961832062,-0.468017578125,0.009033203125,-0.135009765625,1.0693
-1.3435114503816794,-1.1450381679389312,0.6564885496183206,-0.466064453125,0.00830078125,-0.131103515625,1.071
-1.4198473282442747,-0.8244274809160306,0.33587786259541985,-0.4658203125,0.00732421875,-0.1328125,1.0727
-1.4198473282442747,-0.6412213740458015,0.22900763358778625,-0.46826171875,0.00732421875,-0.12890625,1.0744
-1.6946564885496183,-0.9465648854961832,0.32061068702290074,-0.4638671875,0.001220703125,-0.127685546875,1.0760999999999998
-1.816793893129771,-1.1145038167938932,0.16793893129770993,-0.46240234375,0.0009765625,-0.129638671875,1.0777999999999999
-1.9083969465648856,-0.8244274809160306,-0.04580152671755725,-0.4658203125,0.014404296875,-0.134521484375,1.0795
-1.7404580152671756,-0.5190839694656488,-0.0916030534351145,-0.4658203125,0.009033203125,-0.139404296875,1.0812
-1.816793893129771,-0.6106870229007634,-0.33587786259541985,-0.467041015625,0.015380859375,-0.139892578125,1.0829
-2.030534351145038,-0.5038167938931297,-0.3511450381679389,-0.46484375,0.01416015625,-0.135498046875,1.0846
-2.030534351145038,-0.5038167938931297,-0.48854961832061067,-0.468994140625,0.014404296875,-0.13671875,1.0863
-1.9694656488549618,-0.3511450381679389,-0.5038167938931297,-0.468017578125,0.01025390625,-0.130859375,1.0879999999999999
-2.3053435114503817,-0.4122137404580153,-0.7022900763358778,-0.466064453125,0.009765625,-0.131591796875,1.0897
-2.2748091603053435,-0.4732824427480916,-0.5648854961832062,-0.46484375,0.0078125,-0.13232421875,1.0914
-2.2900763358778624,-0.12213740458015267,-0.6717557251908397,-0.4677734375,0.009033203125,-0.13134765625,1.0931
-2.6259541984732824,-0.2595419847328244,-0.5954198473282443,-0.466552734375,0.010986328125,-0.1298828125,1.0948
-2.763358778625954,-0.15267175572519084,-0.7480916030534351,-0.468994140625,0.01171875,-0.13671875,1.0965
-2.7938931297709924,0.16793893129770993,-0.916030534351145,-0.472900390625,0.010986328125,-0.125732421875,1.0981999999999998
-2.8702290076335877,0.22900763358778625,-1.251908396946565,-0.472900390625,0.01123046875,-0.1357421875,1.0998999999999999
-2.931297709923664,0.0916030534351145,-1.1908396946564885,-0.469970703125,0.013427734375,-0.138916015625,1.1016
-2.732824427480916,0.24427480916030533,-1.2366412213740459,-0.46728515625,0.01416015625,-0.13818359375,1.1033
-2.763358778625954,0.12213740458015267,-1.450381679389313,-0.4658203125,0.016357421875,-0.128173828125,1.105
-2.854961832061069,0.16793893129770993,-1.7404580152671756,-0.472412109375,0.01708984375,-0.133544921875,1.1067
-2.946564885496183,0.32061068702290074,-1.7404580152671756,-0.465576171875,0.013916015625,-0.1298828125,1.1083999999999998
-2.9770992366412212,0.21374045801526717,-1.8778625954198473,-0.460693359375,0.01611328125,-0.135498046875,1.1100999999999999
-3.0229007633587788,0.3969465648854962,-1.6946564885496183,-0.463134765625,0.014404296875,-0.13623046875,1.1118
-2.931297709923664,0.48854961832061067,-2.0,-0.466064453125,0.018310546875,-0.12841796875,1.1135
-3.053435114503817,0.4122137404580153,-1.8473282442748091,-0.462646484375,0.017822265625,-0.1279296875,1.1152
-2.7786259541984735,0.32061068702290074,-2.0,-0.464599609375,0.015380859375,-0.140625,1.1169
-2.6564885496183206,0.44274809160305345,-2.122137404580153,-0.466552734375,0.016845703125,-0.123046875,1.1186
-2.900763358778626,0.3511450381679389,-2.3053435114503817,-0.46630859375,0.016357421875,-0.13037109375,1.1202999999999999
-2.8396946564885495,0.2900763358778626,-2.213740458015267,-0.4658203125,0.01904296875,-0.139892578125,1.1219999999999999
-2.7786259541984735,0.48854961832061067,-2.3206106870229006,-0.464111328125,0.01416015625,-0.131103515625,1.1237
-2.6106870229007635,0.13740458015267176,-2.366412213740458,-0.468017578125,0.015380859375,-0.132568359375,1.1254
-2.6564885496183206,0.030534351145038167,-2.4122137404580153,-0.462158203125,0.01806640625,-0.126953125,1.1271
-2.564885496183206,0.183206106870229,-2.381679389312977,-0.468017578125,0.021484375,-0.132568359375,1.1288
-2.427480916030534,0.21374045801526717,-2.50381679389313,-0.468017578125,0.018798828125,-0.130615234375,1.1304999999999998
-2.3969465648854964,0.12213740458015267,-2.4885496183206106,-0.4697265625,0.0263671875,-0.131591796875,1.1321999999999999
-2.4122137404580153,0.12213740458015267,-2.7938931297709924,-0.468505859375,0.02783203125,-0.140869140625,1.1339
-2.183206106870229,0.3053435114503817,-2.595419847328244,-0.47216796875,0.013916015625,-0.130859375,1.1356
-2.0916030534351147,0.4122137404580153,-2.6412213740458017,-0.464111328125,0.0146484375,-0.129638671875,1.1373
-2.0763358778625953,0.5648854961832062,-2.854961832061069,-0.471435546875,0.021728515625,-0.131591796875,1.139
-1.7404580152671756,0.4580152671755725,-2.7786259541984735,-0.46728515625,0.018310546875,-0.125244140625,1.1407
-1.6946564885496183,0.21374045801526717,-2.717557251908397,-0.46826171875,0.01611328125,-0.133056640625,1.1423999999999999
-1.3587786259541985,0.2748091603053435,-2.885496183206107,-0.46435546875,0.02294921875,-0.131103515625,1.1441
-1.4809160305343512,0.4732824427480916,-3.1603053435114505,-0.46240234375,0.02001953125,-0.132568359375,1.1458
-0.9465648854961832,0.22900763358778625,-3.099236641221374,-0.467041015625,0.023193359375,-0.134033203125,1.1475
-1.1297709923664123,0.0916030534351145,-3.0076335877862594,-0.46484375,0.021484375,-0.12939453125,1.1492
-0.8702290076335878,0.16793893129770993,-3.236641221374046,-0.464599609375,0.02392578125,-0.14013671875,1.1509
-0.6412213740458015,0.22900763358778625,-3.1603053435114505,-0.465576171875,0.018798828125,-0.132568359375,1.1525999999999998
-0.48854961832061067,0.015267175572519083,-3.3435114503816794,-0.468017578125,0.023193359375,-0.13671875,1.1542999999999999
-0.12213740458015267,0.10687022900763359,-3.267175572519084,-0.468505859375,0.018310546875,-0.135986328125,1.156
0.22900763358778625,0.2748091603053435,-3.267175572519084,-0.47216796875,0.0244140625,-0.128662109375,1.1577
0.4732824427480916,0.07633587786259542,-3.3740458015267176,-0.47021484375,0.0166015625,-0.130859375,1.1594
0.42748091603053434,0.2595419847328244,-3.145038167938931,-0.469970703125,0.0234375,-0.13134765625,1.1611
0.7938931297709924,0.15267175572519084,-3.4198473282442747,-0.466064453125,0.02001953125,-0.13330078125,1.1627999999999998
1.1297709923664123,0.15267175572519084,-3.5572519083969465,-0.46728515625,0.022216796875,-0.13232421875,1.1644999999999999
1.282442748091603,0.3816793893129771,-3.312977099236641,-0.461669921875,0.025146484375,-0.13037109375,1.1662
1.4045801526717556,0.3969465648854962,-3.3587786259541983,-0.4619140625,0.0283203125,-0.125244140625,1.1679
1.8473282442748091,0.5038167938931297,-3.1755725190839694,-0.46923828125,0.02099609375,-0.136474609375,1.1696
2.045801526717557,0.15267175572519084,-3.2213740458015265,-0.462646484375,0.021484375,-0.13623046875,1.1713
2.2442748091603053,0.2748091603053435,-3.1603053435114505,-0.46875,0.0234375,-0.134033203125,1.173
2.3969465648854964,0.3816793893129771,-3.2213740458015265,-0.46484375,0.01953125,-0.134521484375,1.1746999999999999
2.6564885496183206,0.030534351145038167,-2.9923664122137406,-0.46142578125,0.0205078125,-0.13623046875,1.1764
2.900763358778626,0.13740458015267176,-2.8702290076335877,-0.467041015625,0.01806640625,-0.12939453125,1.1781
2.9160305343511452,0.0,-2.717557251908397,-0.465576171875,0.017333984375,-0.12353515625,1.1798
3.2977099236641223,-0.16793893129770993,-2.732824427480916,-0.469970703125,0.013427734375,-0.1416015625,1.1815
3.5114503816793894,-0.10687022900763359,-2.7022900763358777,-0.464599609375,0.019775390625,-0.1298828125,1.1832
3.66412213740458,-0.1984732824427481,-2.6412213740458017,-0.458984375,0.01220703125,-0.134521484375,1.1848999999999998
3.6946564885496183,-0.1984732824427481,-2.7022900763358777,-0.46142578125,0.0126953125,-0.137451171875,1.1865999999999999
3.9389312977099236,-0.2900763358778626,-2.5343511450381677,-0.46240234375,0.019287109375,-0.128662109375,1.1883
4.076335877862595,-0.21374045801526717,-2.595419847328244,-0.467529296875,0.01806640625,-0.13232421875,1.19
4.244274809160306,-0.3969465648854962,-2.0916030534351147,-0.46630859375,0.01171875,-0.1376953125,1.1917
4.137404580152672,-0.07633587786259542,-2.2900763358778624,-0.4609375,0.01416015625,-0.13720703125,1.1934
4.427480916030534,-0.1984732824427481,-2.3206106870229006,-0.46142578125,0.01318359375,-0.1318359375,1.1950999999999998
4.778625954198473,-0.22900763358778625,-2.0,-0.469970703125,0.017578125,-0.135986328125,1.1967999999999999
4.885496183206107,-0.2595419847328244,-2.183206106870229,-0.464599609375,0.011962890625,-0.141845703125,1.1985
4.977099236641221,-0.22900763358778625,-1.9541984732824427,-0.466552734375,0.010986328125,-0.130615234375,1.2002
4.916030534351145,-0.04580152671755725,-1.9541984732824427,-0.468017578125,0.00634765625,-0.133544921875,1.2019
5.1603053435114505,-0.061068702290076333,-1.816793893129771,-0.465576171875,0.012451171875,-0.124267578125,1.2036
5.129770992366412,-0.16793893129770993,-1.7709923664122138,-0.464111328125,0.011474609375,-0.138427734375,1.2053
5.3893129770992365,0.2595419847328244,-1.6946564885496183,-0.46533203125,0.010986328125,-0.132568359375,1.2069999999999999
5.4961832061068705,-0.04580152671755725,-1.3740458015267176,-0.4697265625,0.01318359375,-0.134521484375,1.2086999999999999
5.435114503816794,-0.16793893129770993,-1.3893129770992367,-0.463134765625,0.01123046875,-0.12841796875,1.2104
5.358778625954199,-0.061068702290076333,-1.1755725190839694,-0.46728515625,0.013427734375,-0.1337890625,1.2121
5.4961832061068705,-0.015267175572519083,-1.083969465648855,-0.466064453125,0.0107421875,-0.14013671875,1.2138
5.435114503816794,-0.183206106870229,-1.2061068702290076,-0.46533203125,0.014892578125,-0.133056640625,1.2155
5.480916030534351,-0.030534351145038167,-1.0534351145038168,-0.46044921875,0.007080078125,-0.127685546875,1.2171999999999998
5.908396946564886,-0.10687022900763359,-0.6717557251908397,-0.462646484375,0.009033203125,-0.1328125,1.2188999999999999
5.862595419847328,-0.13740458015267176,-0.7938931297709924,-0.46044921875,0.005126953125,-0.1357421875,1.2206
5.587786259541985,0.015267175572519083,-0.9007633587786259,-0.46630859375,0.00732421875,-0.132568359375,1.2223
5.66412213740458,0.061068702290076333,-0.8091603053435115,-0.46533203125,0.0078125,-0.1298828125,1.224
5.786259541984733,0.04580152671755725,-0.7633587786259542,-0.46484375,0.00537109375,-0.13525390625,1.2257
6.076335877862595,0.04580152671755725,-0.7786259541984732,-0.467529296875,0.004638671875,-0.12646484375,1.2273999999999998
5.709923664122138,0.24427480916030533,-0.6412213740458015,-0.467041015625,0.007568359375,-0.133544921875,1.2290999999999999
5.709923664122138,0.2748091603053435,-0.7633587786259542,-0.4619140625,0.00634765625,-0.134521484375,1.2308
5.679389312977099,0.22900763358778625,-0.6717557251908397,-0.472900390625,0.00390625,-0.129150390625,1.2325
5.801526717557252,0.3053435114503817,-0.5648854961832062,-0.47119140625,0.00732421875,-0.13623046875,1.2342
5.786259541984733,0.4122137404580153,-0.5343511450381679,-0.466064453125,0.00732421875,-0.1376953125,1.2359
5.801526717557252,0.5343511450381679,-0.6106870229007634,-0.46533203125,0.00390625,-0.1337890625,1.2376
5.694656488549619,0.3053435114503817,-0.5343511450381679,-0.46484375,0.006591796875,-0.129150390625,1.2392999999999998
5.755725190839694,0.5801526717557252,-0.5954198473282443,-0.4677734375,0.00537109375,-0.13671875,1.2409999999999999
5.770992366412214,0.8549618320610687,-0.366412213740458,-0.468017578125,0.008544921875,-0.134033203125,1.2427
5.572519083969466,0.6259541984732825,-0.5038167938931297,-0.468017578125,0.003173828125,-0.13623046875,1.2444
5.6183206106870225,0.7786259541984732,-0.5038167938931297,-0.467529296875,0.007080078125,-0.140625,1.2461
5.603053435114504,0.7175572519083969,-0.3969465648854962,-0.467041015625,0.00341796875,-0.134765625,1.2478
5.3893129770992365,0.9465648854961832,-0.183206106870229,-0.472412109375,0.00341796875,-0.129150390625,1.2494999999999998
5.465648854961832,0.7480916030534351,-0.366412213740458,-0.47216796875,0.001708984375,-0.130859375,1.2511999999999999
5.480916030534351,1.0229007633587786,-0.4122137404580153,-0.465087890625,0.0078125,-0.121826171875,1.2529
5.480916030534351,1.3435114503816794,-0.5038167938931297,-0.46923828125,0.0009765625,-0.138916015625,1.2546
5.251908396946565,1.3435114503816794,-0.07633587786259542,-0.46728515625,-0.00048828125,-0.134033203125,1.2563
5.190839694656488,1.5114503816793894,-0.16793893129770993,-0.468017578125,0.0009765625,-0.134521484375,1.258
5.358778625954199,1.7404580152671756,-0.2900763358778626,-0.467041015625,0.004150390625,-0.136962890625,1.2596999999999998
5.175572519083969,1.6946564885496183,-0.3816793893129771,-0.462158203125,0.00341796875,-0.1435546875,1.2613999999999999
4.99236641221374,1.9541984732824427,-0.2748091603053435,-0.46875,0.00341796875,-0.138916015625,1.2631
4.977099236641221,1.8625954198473282,-0.2595419847328244,-0.470947265625,-0.002197265625,-0.13232421875,1.2648
4.900763358778626,1.9694656488549618,-0.13740458015267176,-0.465576171875,0.00146484375,-0.133544921875,1.2665
4.809160305343512,2.16793893129771,-0.33587786259541985,-0.46826171875,0.00048828125,-0.138916015625,1.2682
4.8396946564885495,2.2595419847328246,-0.22900763358778625,-0.4658203125,0.003662109375,-0.14111328125,1.2699
4.8396946564885495,2.1526717557251906,-0.16793893129770993,-0.468017578125,0.003173828125,-0.14013671875,1.2715999999999998
4.656488549618321,2.381679389312977,-0.07633587786259542,-0.464599609375,0.005859375,-0.137939453125,1.2732999999999999
4.320610687022901,2.3969465648854964,-0.21374045801526717,-0.466064453125,0.00146484375,-0.1357421875,1.275
4.442748091603053,2.366412213740458,0.0,-0.463134765625,0.003173828125,-0.13525390625,1.2767
4.412213740458015,2.3206106870229006,-0.07633587786259542,-0.462890625,0.00048828125,-0.132568359375,1.2784
4.106870229007634,2.595419847328244,-0.16793893129770993,-0.4658203125,0.005126953125,-0.135986328125,1.2801
4.061068702290076,2.732824427480916,-0.0916030534351145,-0.46240234375,0.00146484375,-0.135498046875,1.2817999999999998
4.061068702290076,2.6259541984732824,-0.07633587786259542,-0.468505859375,0.00048828125,-0.131591796875,1.2834999999999999
3.969465648854962,2.763358778625954,-0.3053435114503817,-0.46533203125,0.0009765625,-0.130859375,1.2852
3.7557251908396947,2.717557251908397,-0.07633587786259542,-0.46044921875,0.00439453125,-0.1376953125,1.2869
3.8931297709923665,2.946564885496183,-0.24427480916030533,-0.4638671875,0.000244140625,-0.137451171875,1.2886
3.7709923664122136,2.946564885496183,0.0,-0.467529296875,0.00146484375,-0.134521484375,1.2903
3.648854961832061,3.0076335877862594,-0.2900763358778626,-0.466796875,0.0068359375,-0.144775390625,1.292
3.480916030534351,2.9160305343511452,-0.0916030534351145,-0.463134765625,0.0048828125,-0.134765625,1.2936999999999999
3.5114503816793894,2.7938931297709924,-0.15267175572519084,-0.46484375,0.001708984375,-0.1357421875,1.2953999999999999
3.49618320610687,2.9923664122137406,0.04580152671755725,-0.468017578125,0.00439453125,-0.140380859375,1.2971
3.3587786259541983,2.931297709923664,0.015267175572519083,-0.463134765625,0.00244140625,-0.14111328125,1.2988
3.2977099236641223,3.0381679389312977,0.21374045801526717,-0.46142578125,0.008544921875,-0.1357421875,1.3005
3.2519083969465647,2.8396946564885495,-0.030534351145038167,-0.4609375,0.006103515625,-0.140380859375,1.3022
3.5419847328244276,2.6564885496183206,0.061068702290076333,-0.45947265625,0.0107421875,-0.1435546875,1.3038999999999998
3.282442748091603,2.6106870229007635,0.04580152671755725,-0.46142578125,0.0,-0.136962890625,1.3055999999999999
3.053435114503817,2.687022900763359,0.2900763358778626,-0.46044921875,0.001708984375,-0.1318359375,1.3073
2.9618320610687023,2.7480916030534353,0.061068702290076333,-0.45751953125,0.00244140625,-0.14013671875,1.309
2.885496183206107,2.4427480916030535,0.3511450381679389,-0.4619140625,0.007080078125,-0.139892578125,1.3107
2.717557251908397,2.50381679389313,0.183206106870229,-0.46142578125,0.0078125,-0.131103515625,1.3124
2.931297709923664,2.4427480916030535,0.0,-0.462158203125,0.002197265625,-0.14013671875,1.3140999999999998
2.7480916030534353,2.4427480916030535,0.0,-0.46240234375,0.005859375,-0.135009765625,1.3157999999999999
2.7938931297709924,2.33587786259542,0.183206106870229,-0.462158203125,0.005615234375,-0.140869140625,1.3175
2.4427480916030535,2.2900763358778624,0.0,-0.45947265625,0.00732421875,-0.140380859375,1.3192
2.50381679389313,2.16793893129771,0.030534351145038167,-0.4638671875,0.004638671875,-0.13720703125,1.3209
2.6717557251908395,2.030534351145038,0.16793893129770993,-0.459716796875,0.0068359375,-0.138671875,1.3226
2.3206106870229006,1.9389312977099236,0.22900763358778625,-0.457275390625,0.007080078125,-0.1435546875,1.3243
2.6106870229007635,1.9389312977099236,0.04580152671755725,-0.45947265625,0.0087890625,-0.138671875,1.3259999999999998
2.427480916030534,1.816793893129771,0.24427480916030533,-0.460693359375,0.0078125,-0.143798828125,1.3276999999999999
2.3969465648854964,1.7099236641221374,0.15267175572519084,-0.458740234375,0.0068359375,-0.14111328125,1.3294
2.4122137404580153,1.5267175572519085,0.07633587786259542,-0.456787109375,0.01123046875,-0.140625,1.3311
2.1526717557251906,1.6641221374045803,-0.10687022900763359,-0.460693359375,0.009521484375,-0.146728515625,1.3328
2.16793893129771,1.5114503816793894,0.015267175572519083,-0.461181640625,0.00732421875,-0.1396484375,1.3345
2.2290076335877864,1.1908396946564885,0.061068702290076333,-0.4609375,0.0087890625,-0.13525390625,1.3361999999999998
2.213740458015267,1.1450381679389312,0.15267175572519084,-0.459716796875,0.00732421875,-0.1396484375,1.3378999999999999
2.0610687022900764,1.1297709923664123,0.21374045801526717,-0.458984375,0.011962890625,-0.144287109375,1.3396
2.0610687022900764,0.9465648854961832,0.07633587786259542,-0.457275390625,0.00732421875,-0.14306640625,1.3413
1.9389312977099236,1.0534351145038168,0.061068702290076333,-0.4560546875,0.0087890625,-0.140869140625,1.343
1.7557251908396947,0.8396946564885496,0.12213740458015267,-0.463623046875,0.006591796875,-0.14501953125,1.3447
1.5572519083969465,0.6564885496183206,-0.1984732824427481,-0.46533203125,0.005126953125,-0.13818359375,1.3463999999999998
1.7709923664122138,0.42748091603053434,0.07633587786259542,-0.461181640625,0.00732421875,-0.14404296875,1.3480999999999999
1.6641221374045803,0.6717557251908397,-0.1984732824427481,-0.46337890625,0.010009765625,-0.135498046875,1.3497999999999999
1.4351145038167938,0.4580152671755725,-0.2900763358778626,-0.4609375,0.0087890625,-0.135009765625,1.3515
1.5725190839694656,0.3969465648854962,-0.32061068702290074,-0.46337890625,0.0068359375,-0.14453125,1.3532
1.5419847328244274,0.21374045801526717,-0.12213740458015267,-0.465576171875,0.005126953125,-0.1455078125,1.3549
1.4351145038167938,0.2748091603053435,-0.5190839694656488,-0.4619140625,0.008056640625,-0.139404296875,1.3566
1.297709923664122,0.10687022900763359,-0.33587786259541985,-0.461669921875,0.01220703125,-0.139404296875,1.3582999999999998
1.099236641221374,-0.015267175572519083,-0.42748091603053434,-0.459716796875,0.0078125,-0.145263671875,1.3599999999999999
1.2671755725190839,-0.13740458015267176,-0.5038167938931297,-0.462158203125,0.009033203125,-0.135986328125,1.3617
1.2366412213740459,0.015267175572519083,-0.7175572519083969,-0.457275390625,0.005126953125,-0.123291015625,1.3634
1.083969465648855,-0.0916030534351145,-0.4122137404580153,-0.460205078125,0.010009765625,-0.133544921875,1.3651
0.7633587786259542,-0.16793893129770993,-0.6870229007633588,-0.458984375,0.00634765625,-0.1435546875,1.3668
0.8244274809160306,-0.3816793893129771,-0.5648854961832062,-0.4599609375,0.00390625,-0.145263671875,1.3684999999999998
0.7938931297709924,-0.4580152671755725,-0.7175572519083969,-0.46044921875,0.00927734375,-0.14990234375,1.3701999999999999
0.8091603053435115,-0.42748091603053434,-0.8244274809160306,-0.466552734375,0.008544921875,-0.14306640625,1.3719
0.7480916030534351,-0.5038167938931297,-0.916030534351145,-0.462158203125,0.007568359375,-0.14404296875,1.3736
0.5343511450381679,-0.7022900763358778,-1.0076335877862594,-0.4599609375,0.012451171875,-0.14404296875,1.3753
0.5190839694656488,-0.7022900763358778,-1.1145038167938932,-0.4658203125,0.010986328125,-0.145751953125,1.377
0.6412213740458015,-0.8244274809160306,-1.099236641221374,-0.4638671875,0.00537109375,-0.146728515625,1.3786999999999998
0.3969465648854962,-0.9465648854961832,-1.1297709923664123,-0.45947265625,0.008056640625,-0.140869140625,1.3803999999999998
0.6259541984732825,-0.8854961832061069,-1.1145038167938932,-0.465087890625,0.0126953125,-0.147705078125,1.3820999999999999
0.2595419847328244,-0.9312977099236641,-1.3587786259541985,-0.458984375,0.007568359375,-0.139404296875,1.3838
0.12213740458015267,-1.0381679389312977,-1.3893129770992367,-0.458740234375,0.008056640625,-0.130126953125,1.3855
0.030534351145038167,-1.0534351145038168,-1.633587786259542,-0.458984375,0.0087890625,-0.135009765625,1.3872
0.2900763358778626,-1.0229007633587786,-1.5725190839694656,-0.458740234375,0.009521484375,-0.138916015625,1.3889
0.015267175572519083,-0.9465648854961832,-1.786259541984733,-0.455078125,0.0126953125,-0.138427734375,1.3905999999999998
-0.15267175572519084,-1.1145038167938932,-1.4351145038167938,-0.462646484375,0.006591796875,-0.145751953125,1.3922999999999999
0.183206106870229,-1.3129770992366412,-1.6946564885496183,-0.46240234375,0.0078125,-0.13720703125,1.394
-0.10687022900763359,-1.2671755725190839,-1.8931297709923665,-0.45703125,0.006591796875,-0.138916015625,1.3957
-0.16793893129770993,-1.4961832061068703,-2.0763358778625953,-0.464599609375,0.008544921875,-0.143798828125,1.3974
-0.0916030534351145,-1.251908396946565,-1.9694656488549618,-0.458251953125,0.003173828125,-0.13818359375,1.3991
-0.3511450381679389,-1.3129770992366412,-2.2290076335877864,-0.461669921875,0.0107421875,-0.137451171875,1.4007999999999998
-0.4580152671755725,-1.4809160305343512,-1.9541984732824427,-0.45751953125,0.011474609375,-0.143798828125,1.4024999999999999
-0.3053435114503817,-1.4045801526717556,-1.9236641221374047,-0.4638671875,0.010986328125,-0.1396484375,1.4042
-0.24427480916030533,-1.5419847328244274,-2.213740458015267,-0.462890625,0.007568359375,-0.135986328125,1.4059
-0.2748091603053435,-1.618320610687023,-2.2900763358778624,-0.460693359375,0.00537109375,-0.136474609375,1.4076
-0.5190839694656488,-1.6030534351145038,-2.366412213740458,-0.460205078125,0.0068359375,-0.14306640625,1.4093
-0.33587786259541985,-1.5572519083969465,-2.33587786259542,-0.458740234375,0.010009765625,-0.13330078125,1.411
-0.366412213740458,-1.5419847328244274,-2.427480916030534,-0.460693359375,0.0078125,-0.1357421875,1.4126999999999998
-0.5343511450381679,-1.6641221374045803,-2.564885496183206,-0.460205078125,0.01123046875,-0.133544921875,1.4143999999999999
-0.5190839694656488,-1.7099236641221374,-2.519083969465649,-0.461181640625,0.010009765625,-0.1298828125,1.4161
-0.1984732824427481,-1.7099236641221374,-2.5343511450381677,-0.458740234375,0.006591796875,-0.1328125,1.4178
-0.3969465648854962,-1.5725190839694656,-2.732824427480916,-0.464599609375,0.00634765625,-0.131591796875,1.4195
-0.549618320610687,-1.816793893129771,-2.6106870229007635,-0.457763671875,0.0078125,-0.134521484375,1.4212
-0.3053435114503817,-1.6793893129770991,-2.8244274809160306,-0.453857421875,0.012451171875,-0.142822265625,1.4228999999999998
-0.5648854961832062,-1.6793893129770991,-2.7022900763358777,-0.456787109375,0.006103515625,-0.13720703125,1.4245999999999999
-0.4732824427480916,-1.5725190839694656,-2.900763358778626,-0.46044921875,0.011474609375,-0.130615234375,1.4263
-0.32061068702290074,-1.8015267175572518,-3.099236641221374,-0.4580078125,0.01123046875,-0.13232421875,1.428
-0.32061068702290074,-1.6488549618320612,-2.8396946564885495,-0.454833984375,0.012451171875,-0.135986328125,1.4297
-0.366412213740458,-1.9541984732824427,-2.8091603053435112,-0.45849609375,0.0029296875,-0.1337890625,1.4314
-0.2748091603053435,-2.0,-3.0381679389312977,-0.452392578125,0.010498046875,-0.140869140625,1.4330999999999998
-0.3969465648854962,-1.9389312977099236,-3.068702290076336,-0.45654296875,0.006103515625,-0.13330078125,1.4347999999999999
-0.42748091603053434,-1.8473282442748091,-3.068702290076336,-0.45751953125,0.006591796875,-0.129638671875,1.4364999999999999
-0.24427480916030533,-2.0916030534351147,-2.946564885496183,-0.453857421875,0.0126953125,-0.13330078125,1.4382
-0.22900763358778625,-2.1068702290076335,-3.099236641221374,-0.450927734375,0.00830078125,-0.134765625,1.4399
-0.4732824427480916,-2.030534351145038,-2.946564885496183,-0.450927734375,0.00732421875,-0.13525390625,1.4416
-0.183206106870229,-2.1068702290076335,-3.0839694656488548,-0.451171875,0.00830078125,-0.1318359375,1.4433
-0.21374045801526717,-2.122137404580153,-2.763358778625954,-0.457275390625,0.005615234375,-0.13134765625,1.4449999999999998
-0.366412213740458,-2.0763358778625953,-2.8396946564885495,-0.454345703125,0.00634765625,-0.136962890625,1.4466999999999999
-0.07633587786259542,-2.381679389312977,-2.7938931297709924,-0.45849609375,0.00732421875,-0.12744140625,1.4484
-0.24427480916030533,-2.366412213740458,-2.9923664122137406,-0.455078125,0.00927734375,-0.127197265625,1.4501
-0.21374045801526717,-2.3969465648854964,-2.6564885496183206,-0.456298828125,0.0087890625,-0.1337890625,1.4518
-0.13740458015267176,-2.6412213740458017,-2.4580152671755724,-0.457275390625,0.007080078125,-0.1298828125,1.4535
0.0,-2.6564885496183206,-2.519083969465649,-0.46142578125,0.009521484375,-0.13623046875,1.4551999999999998
-0.13740458015267176,-2.8244274809160306,-2.6106870229007635,-0.458251953125,0.00634765625,-0.134033203125,1.4568999999999999
-0.12213740458015267,-2.9770992366412212,-2.2748091603053435,-0.4560546875,0.007568359375,-0.12939453125,1.4586
0.0916030534351145,-3.1297709923664123,-2.33587786259542,-0.460693359375,0.006103515625,-0.141845703125,1.4603
0.13740458015267176,-3.236641221374046,-2.213740458015267,-0.4609375,0.00537109375,-0.12744140625,1.462
-0.2595419847328244,-3.3740458015267176,-2.015267175572519,-0.453369140625,0.003662109375,-0.121826171875,1.4637
-0.15267175572519084,-3.3893129770992365,-1.9541984732824427,-0.466796875,0.004638671875,-0.13623046875,1.4653999999999998
0.0916030534351145,-3.5419847328244276,-2.0,-0.460693359375,0.006103515625,-0.125244140625,1.4670999999999998
0.0,-3.5419847328244276,-1.9541984732824427,-0.45751953125,0.00244140625,-0.13623046875,1.4687999999999999
-0.030534351145038167,-3.450381679389313,-1.7709923664122138,-0.456298828125,0.00927734375,-0.137939453125,1.4705
-0.030534351145038167,-3.5267175572519083,-1.633587786259542,-0.464599609375,0.006103515625,-0.12890625,1.4722
-0.030534351145038167,-3.404580152671756,-1.5877862595419847,-0.46630859375,0.009521484375,-0.13525390625,1.4739
-0.2595419847328244,-3.7251908396946565,-1.4351145038167938,-0.46826171875,0.00732421875,-0.130859375,1.4756
-0.13740458015267176,-3.572519083969466,-1.4351145038167938,-0.46630859375,0.00244140625,-0.13330078125,1.4772999999999998
0.030534351145038167,-3.480916030534351,-1.3129770992366412,-0.4619140625,0.0087890625,-0.13427734375,1.4789999999999999
-0.07633587786259542,-3.5877862595419847,-1.1603053435114503,-0.463134765625,0.00732421875,-0.130615234375,1.4807
-0.2595419847328244,-3.435114503816794,-1.2213740458015268,-0.4677734375,0.01025390625,-0.12744140625,1.4824
-0.2900763358778626,-3.618320610687023,-0.9923664122137404,-0.4677734375,0.00634765625,-0.134521484375,1.4841
-0.16793893129770993,-3.480916030534351,-0.9923664122137404,-0.46728515625,0.005126953125,-0.1328125,1.4858
-0.21374045801526717,-3.5114503816793894,-1.0381679389312977,-0.467529296875,0.0087890625,-0.130615234375,1.4874999999999998
-0.1984732824427481,-3.633587786259542,-0.8854961832061069,-0.471435546875,0.0087890625,-0.132568359375,1.4891999999999999
-0.24427480916030533,-3.6030534351145036,-0.7786259541984732,-0.4677734375,0.005615234375,-0.1259765625,1.4909
-0.22900763358778625,-3.5877862595419847,-0.8702290076335878,-0.4677734375,0.002685546875,-0.12548828125,1.4926
-0.24427480916030533,-3.404580152671756,-0.9007633587786259,-0.468505859375,0.006103515625,-0.13037109375,1.4943
-0.2900763358778626,-3.450381679389313,-0.6106870229007634,-0.47265625,0.004638671875,-0.13232421875,1.496
-0.4580152671755725,-3.480916030534351,-0.9618320610687023,-0.465576171875,0.011962890625,-0.133544921875,1.4976999999999998
-0.24427480916030533,-3.618320610687023,-0.8702290076335878,-0.46435546875,0.005859375,-0.126220703125,1.4993999999999998
-0.3969465648854962,-3.4656488549618323,-0.6717557251908397,-0.474609375,0.010009765625,-0.133056640625,1.5010999999999999
-0.4580152671755725,-3.480916030534351,-0.4122137404580153,-0.470703125,0.008544921875,-0.13232421875,1.5028
-0.5648854961832062,-3.5267175572519083,-0.6564885496183206,-0.468505859375,0.00341796875,-0.13134765625,1.5045
-0.5801526717557252,-3.6793893129770994,-0.549618320610687,-0.46923828125,0.008056640625,-0.129150390625,1.5062
-0.4122137404580153,-3.49618320610687,-0.7786259541984732,-0.47021484375,0.004638671875,-0.1201171875,1.5079
-0.916030534351145,-3.6030534351145036,-0.6259541984732825,-0.473388671875,0.004638671875,-0.135009765625,1.5095999999999998
-0.7786259541984732,-3.5877862595419847,-0.5343511450381679,-0.4736328125,0.0029296875,-0.127197265625,1.5112999999999999
-0.7938931297709924,-3.816793893129771,-0.2595419847328244,-0.475341796875,0.005859375,-0.125244140625,1.513
-0.9465648854961832,-3.633587786259542,-0.366412213740458,-0.47216796875,0.003662109375,-0.13037109375,1.5147
-1.0076335877862594,-3.435114503816794,-0.2748091603053435,-0.47119140625,0.00341796875,-0.127197265625,1.5164
-1.1297709923664123,-3.3435114503816794,-0.3816793893129771,-0.4697265625,0.00146484375,-0.12548828125,1.5181
-0.916030534351145,-3.236641221374046,0.0,-0.469970703125,0.001708984375,-0.12451171875,1.5197999999999998
-1.0076335877862594,-3.5114503816793894,-0.15267175572519084,-0.467041015625,0.002197265625,-0.13916015625,1.5214999999999999
-1.4961832061068703,-3.2213740458015265,-0.1984732824427481,-0.47216796875,0.003173828125,-0.12646484375,1.5231999999999999
-1.2366412213740459,-3.114503816793893,-0.183206106870229,-0.470703125,0.0048828125,-0.128662109375,1.5249
-1.3587786259541985,-3.0076335877862594,0.04580152671755725,-0.468017578125,0.00146484375,-0.126708984375,1.5266
-1.6488549618320612,-2.763358778625954,-0.24427480916030533,-0.47216796875,0.00537109375,-0.128662109375,1.5283
-1.7251908396946565,-2.7786259541984735,-0.07633587786259542,-0.47314453125,0.00048828125,-0.135009765625,1.5299999999999998
-1.7709923664122138,-2.717557251908397,-0.13740458015267176,-0.47021484375,0.004150390625,-0.13330078125,1.5316999999999998
-1.786259541984733,-2.8396946564885495,-0.0916030534351145,-0.470458984375,0.005615234375,-0.12109375,1.5333999999999999
-1.9389312977099236,-2.687022900763359,-0.24427480916030533,-0.469482421875,0.006591796875,-0.119873046875,1.5351
-2.16793893129771,-2.7786259541984735,-0.12213740458015267,-0.470947265625,0.00537109375,-0.122802734375,1.5368
-2.0610687022900764,-2.351145038167939,-0.015267175572519083,-0.46875,-0.000244140625,-0.133056640625,1.5385
-1.984732824427481,-2.4122137404580153,0.030534351145038167,-0.47265625,0.00927734375,-0.12451171875,1.5402
-2.4427480916030535,-2.50381679389313,-0.183206106870229,-0.46875,0.00830078125,-0.1298828125,1.5418999999999998
-2.2748091603053435,-2.6106870229007635,-0.015267175572519083,-0.47509765625,0.006591796875,-0.128173828125,1.5435999999999999
-2.519083969465649,-2.2290076335877864,-0.04580152671755725,-0.474365234375,0.00634765625,-0.12890625,1.5453
-2.6259541984732824,-2.2442748091603053,-0.015267175572519083,-0.474365234375,0.00244140625,-0.130859375,1.547
-2.6106870229007635,-2.198473282442748,-0.07633587786259542,-0.470458984375,0.001953125,-0.12353515625,1.5487
-2.6259541984732824,-1.9389312977099236,0.04580152671755725,-0.473876953125,0.006591796875,-0.1318359375,1.5504
-2.4885496183206106,-2.015267175572519,-0.1984732824427481,-0.467041015625,0.004150390625,-0.13232421875,1.5520999999999998
-2.7022900763358777,-1.786259541984733,-0.15267175572519084,-0.47119140625,0.010009765625,-0.125732421875,1.5537999999999998
-2.8396946564885495,-1.6641221374045803,-0.1984732824427481,-0.47021484375,0.002685546875,-0.12646484375,1.5554999999999999
-3.068702290076336,-1.618320610687023,-0.04580152671755725,-0.47119140625,0.012451171875,-0.12548828125,1.5572
-2.931297709923664,-1.5877862595419847,-0.3969465648854962,-0.472412109375,0.01708984375,-0.127197265625,1.5589
-2.687022900763359,-1.297709923664122,-0.33587786259541985,-0.47216796875,0.0146484375,-0.127685546875,1.5606
-2.8244274809160306,-1.5114503816793894,-0.3511450381679389,-0.471435546875,0.011962890625,-0.120361328125,1.5623
-2.946564885496183,-1.4198473282442747,-0.3969465648854962,-0.47216796875,0.010009765625,-0.124755859375,1.5639999999999998
-2.6412213740458017,-1.3740458015267176,-0.4122137404580153,-0.46728515625,0.010009765625,-0.131591796875,1.5656999999999999
-2.595419847328244,-1.282442748091603,-0.366412213740458,-0.467529296875,0.011962890625,-0.12255859375,1.5674
-2.6412213740458017,-1.5267175572519085,-0.4732824427480916,-0.467529296875,0.01416015625,-0.1240234375,1.5691
-2.763358778625954,-1.4961832061068703,-0.7175572519083969,-0.470703125,0.014404296875,-0.119140625,1.5708
-2.7938931297709924,-1.450381679389313,-0.5038167938931297,-0.467529296875,0.01416015625,-0.120849609375,1.5725
-2.427480916030534,-1.450381679389313,-0.366412213740458,-0.4677734375,0.011474609375,-0.123046875,1.5741999999999998
-2.4122137404580153,-1.450381679389313,-0.6717557251908397,-0.466552734375,0.013671875,-0.117919921875,1.5758999999999999
-2.33587786259542,-1.6488549618320612,-0.44274809160305345,-0.474853515625,0.01806640625,-0.12353515625,1.5776
-2.50381679389313,-1.6488549618320612,-0.3053435114503817,-0.46728515625,0.01611328125,-0.128662109375,1.5793
-2.519083969465649,-1.6488549618320612,-0.549618320610687,-0.46875,0.017333984375,-0.124755859375,1.581
-2.198473282442748,-1.5877862595419847,-0.549618320610687,-0.4677734375,0.018310546875,-0.12548828125,1.5827
-2.3053435114503817,-1.4961832061068703,-0.366412213740458,-0.470458984375,0.015380859375,-0.127197265625,1.5843999999999998
-2.2900763358778624,-1.618320610687023,-0.42748091603053434,-0.4697265625,0.0146484375,-0.12548828125,1.5860999999999998
-2.1374045801526718,-1.4961832061068703,-0.13740458015267176,-0.46875,0.015625,-0.12646484375,1.5877999999999999
-2.1068702290076335,-1.5267175572519085,-0.15267175572519084,-0.470947265625,0.017822265625,-0.12255859375,1.5895
-2.0763358778625953,-1.4351145038167938,-0.0916030534351145,-0.470703125,0.01708984375,-0.122314453125,1.5912
-1.8625954198473282,-1.3129770992366412,-0.10687022900763359,-0.46435546875,0.0146484375,-0.11474609375,1.5929
-1.9694656488549618,-1.3740458015267176,-0.15267175572519084,-0.4658203125,0.015869140625,-0.13037109375,1.5946
-1.6793893129770991,-1.2671755725190839,0.15267175572519084,-0.470703125,0.017822265625,-0.127685546875,1.5962999999999998
-1.618320610687023,-1.0229007633587786,0.24427480916030533,-0.4697265625,0.01806640625,-0.1279296875,1.5979999999999999
-1.9236641221374047,-1.0687022900763359,-0.07633587786259542,-0.470703125,0.01220703125,-0.11865234375,1.5997
-1.7251908396946565,-0.8549618320610687,-0.061068702290076333,-0.46923828125,0.015625,-0.116943359375,1.6014
-1.6030534351145038,-0.9312977099236641,0.061068702290076333,-0.470458984375,0.017578125,-0.1201171875,1.6031
-1.4351145038167938,-1.0687022900763359,0.42748091603053434,-0.46875,0.015380859375,-0.12646484375,1.6048
-1.5877862595419847,-0.8549618320610687,0.24427480916030533,-0.470703125,0.012939453125,-0.128662109375,1.6064999999999998
-1.4809160305343512,-0.8244274809160306,0.42748091603053434,-0.468505859375,0.012451171875,-0.12451171875,1.6081999999999999
-1.5572519083969465,-0.7022900763358778,0.366412213740458,-0.4677734375,0.01220703125,-0.125244140625,1.6098999999999999
-1.7557251908396947,-0.8244274809160306,0.44274809160305345,-0.462158203125,0.017333984375,-0.123291015625,1.6116
-1.3282442748091603,-0.732824427480916,0.6259541984732825,-0.464599609375,0.01904296875,-0.121337890625,1.6133
-1.4045801526717556,-0.7175572519083969,0.5190839694656488,-0.464599609375,0.015380859375,-0.122802734375,1.615
-1.3587786259541985,-0.7938931297709924,0.5954198473282443,-0.46923828125,0.0126953125,-0.122802734375,1.6166999999999998
-1.297709923664122,-0.8091603053435115,0.732824427480916,-0.47021484375,0.017333984375,-0.114013671875,1.6183999999999998
-1.2213740458015268,-0.5038167938931297,0.6412213740458015,-0.469970703125,0.016357421875,-0.123291015625,1.6200999999999999
-1.0381679389312977,-0.549618320610687,0.6564885496183206,-0.468505859375,0.005859375,-0.128662109375,1.6218
-1.282442748091603,-0.7633587786259542,0.6870229007633588,-0.468017578125,0.014892578125,-0.117431640625,1.6235
-1.2671755725190839,-0.4732824427480916,0.8549618320610687,-0.466552734375,0.011962890625,-0.125732421875,1.6252
-1.1450381679389312,-0.33587786259541985,0.8244274809160306,-0.468017578125,0.01171875,-0.12451171875,1.6269
-1.1908396946564885,-0.2900763358778626,0.8854961832061069,-0.4638671875,0.014404296875,-0.12353515625,1.6285999999999998
-0.9312977099236641,-0.3969465648854962,0.7022900763358778,-0.460693359375,0.013916015625,-0.126220703125,1.6302999999999999
-1.1908396946564885,-0.16793893129770993,0.7633587786259542,-0.463623046875,0.018310546875,-0.12744140625,1.632
-1.3282442748091603,-0.3053435114503817,1.0076335877862594,-0.462646484375,0.012939453125,-0.12646484375,1.6337
-1.3740458015267176,-0.3511450381679389,0.5343511450381679,-0.461181640625,0.013916015625,-0.128662109375,1.6354
-1.4198473282442747,-0.6717557251908397,0.7480916030534351,-0.4638671875,0.01513671875,-0.12890625,1.6371
-1.251908396946565,-0.549618320610687,0.7633587786259542,-0.46337890625,0.019287109375,-0.124267578125,1.6387999999999998
-1.0534351145038168,-0.44274809160305345,0.6564885496183206,-0.4619140625,0.009033203125,-0.1259765625,1.6404999999999998
-0.9618320610687023,-0.6717557251908397,0.4732824427480916,-0.4697265625,0.012939453125,-0.134521484375,1.6421999999999999
-1.1603053435114503,-0.7633587786259542,0.5801526717557252,-0.467041015625,0.017822265625,-0.123291015625,1.6439
-0.8702290076335878,-0.7938931297709924,0.5343511450381679,-0.462158203125,0.017822265625,-0.13134765625,1.6456
-0.8244274809160306,-0.8396946564885496,0.5190839694656488,-0.46484375,0.01025390625,-0.132080078125,1.6473
-0.6412213740458015,-0.6106870229007634,0.549618320610687,-0.462646484375,0.017333984375,-0.127197265625,1.6489999999999998
-0.5648854961832062,-0.549618320610687,0.5038167938931297,-0.463134765625,0.017822265625,-0.126953125,1.6506999999999998
-0.5038167938931297,-0.24427480916030533,0.6564885496183206,-0.465576171875,0.02294921875,-0.12646484375,1.6523999999999999
-0.5343511450381679,-0.2900763358778626,0.5648854961832062,-0.464599609375,0.0234375,-0.12353515625,1.6541
-0.32061068702290074,-0.13740458015267176,0.5801526717557252,-0.46240234375,0.021240234375,-0.11962890625,1.6558
-0.42748091603053434,0.0,0.6870229007633588,-0.46630859375,0.018798828125,-0.128173828125,1.6575
-0.33587786259541985,0.015267175572519083,0.6870229007633588,-0.46484375,0.01953125,-0.13134765625,1.6592
-0.061068702290076333,0.0916030534351145,0.6259541984732825,-0.46337890625,0.01953125,-0.135986328125,1.6608999999999998
-0.16793893129770993,0.0,0.732824427480916,-0.46484375,0.018310546875,-0.1279296875,1.6625999999999999
-0.13740458015267176,0.24427480916030533,0.8854961832061069,-0.462646484375,0.0244140625,-0.12353515625,1.6643
0.061068702290076333,-0.030534351145038167,0.7480916030534351,-0.464111328125,0.019287109375,-0.117919921875,1.666
0.33587786259541985,-0.15267175572519084,0.6564885496183206,-0.459228515625,0.0166015625,-0.125244140625,1.6677
0.24427480916030533,-0.07633587786259542,0.6717557251908397,-0.460205078125,0.0185546875,-0.126708984375,1.6694
0.4122137404580153,-0.0916030534351145,0.8091603053435115,-0.460205078125,0.0185546875,-0.122802734375,1.6710999999999998
0.4580152671755725,0.04580152671755725,0.549618320610687,-0.466552734375,0.01513671875,-0.12109375,1.6727999999999998
0.5954198473282443,-0.10687022900763359,0.6870229007633588,-0.464599609375,0.0166015625,-0.123291015625,1.6744999999999999
0.3053435114503817,-0.061068702290076333,0.7175572519083969,-0.461669921875,0.0205078125,-0.117431640625,1.6762
0.4732824427480916,-0.2748091603053435,0.7786259541984732,-0.46435546875,0.01708984375,-0.126708984375,1.6779
0.732824427480916,-0.1984732824427481,0.7175572519083969,-0.47119140625,0.0146484375,-0.128173828125,1.6796
0.8702290076335878,-0.16793893129770993,0.7022900763358778,-0.46630859375,0.018798828125,-0.123046875,1.6813
0.7786259541984732,-0.0916030534351145,0.732824427480916,-0.46728515625,0.020263671875,-0.123046875,1.6829999999999998
0.8549618320610687,0.07633587786259542,0.6412213740458015,-0.4677734375,0.018310546875,-0.119873046875,1.6846999999999999
0.8854961832061069,-0.030534351145038167,0.5801526717557252,-0.46875,0.019775390625,-0.12451171875,1.6864
1.083969465648855,0.0,0.5801526717557252,-0.464599609375,0.025146484375,-0.12109375,1.6881
1.2061068702290076,0.16793893129770993,0.732824427480916,-0.469482421875,0.017333984375,-0.1240234375,1.6898
1.251908396946565,0.22900763358778625,0.8702290076335878,-0.466552734375,0.01953125,-0.12548828125,1.6915
1.297709923664122,0.4580152671755725,0.7938931297709924,-0.462890625,0.019287109375,-0.12939453125,1.6931999999999998
1.5725190839694656,0.44274809160305345,0.8091603053435115,-0.468505859375,0.025390625,-0.125732421875,1.6948999999999999
1.6946564885496183,0.3969465648854962,0.5343511450381679,-0.464599609375,0.02392578125,-0.116943359375,1.6965999999999999
1.5114503816793894,0.44274809160305345,1.1145038167938932,-0.465087890625,0.019287109375,-0.11962890625,1.6983
1.5877862595419847,0.549618320610687,0.9923664122137404,-0.463134765625,0.024658203125,-0.130126953125,1.7
1.8015267175572518,0.44274809160305345,0.9007633587786259,-0.46240234375,0.018798828125,-0.122802734375,1.7017
1.9083969465648856,0.5190839694656488,0.9007633587786259,-0.46533203125,0.02099609375,-0.11962890625,1.7033999999999998
1.8625954198473282,0.5801526717557252,0.7786259541984732,-0.4697265625,0.019287109375,-0.12255859375,1.7050999999999998
2.0,0.48854961832061067,0.5954198473282443,-0.462890625,0.021728515625,-0.125244140625,1.7067999999999999
2.16793893129771,0.366412213740458,0.8244274809160306,-0.462646484375,0.019775390625,-0.122314453125,1.7085
2.0610687022900764,0.3511450381679389,0.732824427480916,-0.463623046875,0.018310546875,-0.117431640625,1.7102
2.1068702290076335,0.4580152671755725,0.6564885496183206,-0.46875,0.02099609375,-0.1220703125,1.7119
2.122137404580153,0.4732824427480916,0.32061068702290074,-0.46533203125,0.020751953125,-0.125732421875,1.7136
2.3969465648854964,0.33587786259541985,0.6106870229007634,-0.4658203125,0.0185546875,-0.1220703125,1.7152999999999998
2.3053435114503817,0.2900763358778626,0.4732824427480916,-0.4638671875,0.019775390625,-0.123046875,1.7169999999999999
2.2900763358778624,0.44274809160305345,0.6412213740458015,-0.466064453125,0.023681640625,-0.1201171875,1.7187
2.427480916030534,0.549618320610687,0.4732824427480916,-0.465576171875,0.023681640625,-0.121337890625,1.7204
2.366412213740458,0.2595419847328244,0.42748091603053434,-0.46630859375,0.01953125,-0.1259765625,1.7221
2.366412213740458,0.549618320610687,0.24427480916030533,-0.465087890625,0.02197265625,-0.129150390625,1.7238
2.4427480916030535,0.42748091603053434,0.3816793893129771,-0.470458984375,0.02197265625,-0.12158203125,1.7254999999999998
2.3969465648854964,0.3816793893129771,0.0,-0.464599609375,0.021728515625,-0.12158203125,1.7271999999999998
2.6564885496183206,0.22900763358778625,0.2900763358778626,-0.4619140625,0.020263671875,-0.1298828125,1.7288999999999999
2.4885496183206106,0.2595419847328244,0.183206106870229,-0.46728515625,0.02099609375,-0.12744140625,1.7306
2.3969465648854964,0.549618320610687,-0.04580152671755725,-0.465087890625,0.0166015625,-0.124267578125,1.7323
2.2595419847328246,0.3969465648854962,-0.015267175572519083,-0.467041015625,0.02099609375,-0.123046875,1.734
2.33587786259542,0.2595419847328244,-0.015267175572519083,-0.465576171875,0.01611328125,-0.12744140625,1.7356999999999998
2.4122137404580153,0.3969465648854962,0.0,-0.458984375,0.01513671875,-0.125732421875,1.7373999999999998
2.2290076335877864,0.33587786259541985,0.0,-0.466064453125,0.02294921875,-0.12451171875,1.7390999999999999
2.351145038167939,0.183206106870229,-0.1984732824427481,-0.4677734375,0.019775390625,-0.127197265625,1.7408
2.351145038167939,0.5343511450381679,-0.015267175572519083,-0.47021484375,0.017578125,-0.12939453125,1.7425
2.2900763358778624,0.5648854961832062,-0.2900763358778626,-0.467529296875,0.019775390625,-0.122802734375,1.7442
2.33587786259542,0.3053435114503817,-0.10687022900763359,-0.46484375,0.019287109375,-0.11962890625,1.7459
2.351145038167939,0.5038167938931297,-0.21374045801526717,-0.46630859375,0.020751953125,-0.122802734375,1.7475999999999998
2.427480916030534,0.3816793893129771,-0.3969465648854962,-0.4638671875,0.017822265625,-0.120361328125,1.7492999999999999
2.213740458015267,0.3816793893129771,-0.6259541984732825,-0.46435546875,0.01953125,-0.12353515625,1.751
2.213740458015267,0.1984732824427481,-0.5038167938931297,-0.46630859375,0.014404296875,-0.127197265625,1.7527
2.3206106870229006,0.3816793893129771,-0.5954198473282443,-0.45947265625,0.017822265625,-0.12744140625,1.7544
2.1526717557251906,0.32061068702290074,-0.5343511450381679,-0.462890625,0.013671875,-0.12548828125,1.7561
2.0610687022900764,0.24427480916030533,-0.8702290076335878,-0.460205078125,0.017822265625,-0.126708984375,1.7577999999999998
1.8931297709923665,0.2900763358778626,-0.9007633587786259,-0.462158203125,0.018310546875,-0.12060546875,1.7594999999999998
1.9236641221374047,0.3053435114503817,-0.8702290076335878,-0.458984375,0.0146484375,-0.12109375,1.7611999999999999
2.0,0.2900763358778626,-0.8549618320610687,-0.46484375,0.014404296875,-0.119384765625,1.7629
1.8473282442748091,0.22900763358778625,-0.9312977099236641,-0.46630859375,0.018310546875,-0.119873046875,1.7646
1.6488549618320612,0.366412213740458,-0.8396946564885496,-0.46875,0.018798828125,-0.120849609375,1.7663
1.816793893129771,0.44274809160305345,-1.1755725190839694,-0.46533203125,0.0244140625,-0.12939453125,1.7679999999999998
1.5267175572519085,0.2595419847328244,-0.9923664122137404,-0.4619140625,0.02099609375,-0.12109375,1.7696999999999998
1.450381679389313,0.3816793893129771,-1.3129770992366412,-0.46142578125,0.01953125,-0.12451171875,1.7713999999999999
1.4198473282442747,0.5038167938931297,-1.099236641221374,-0.4599609375,0.0146484375,-0.127197265625,1.7731
1.6488549618320612,0.42748091603053434,-1.4351145038167938,-0.4609375,0.015869140625,-0.12890625,1.7748
1.4961832061068703,0.4580152671755725,-1.3129770992366412,-0.462646484375,0.014404296875,-0.132568359375,1.7765
1.450381679389313,0.5038167938931297,-1.5877862595419847,-0.4580078125,0.01904296875,-0.130615234375,1.7782
1.4809160305343512,0.3511450381679389,-1.5572519083969465,-0.46142578125,0.017822265625,-0.12451171875,1.7798999999999998
1.4198473282442747,0.5343511450381679,-1.5877862595419847,-0.45947265625,0.019775390625,-0.123046875,1.7815999999999999
1.2061068702290076,0.2748091603053435,-1.450381679389313,-0.46435546875,0.01708984375,-0.1318359375,1.7832999999999999
1.2213740458015268,0.44274809160305345,-1.786259541984733,-0.466064453125,0.02099609375,-0.12939453125,1.785
1.282442748091603,0.4580152671755725,-1.5877862595419847,-0.46337890625,0.0146484375,-0.12548828125,1.7867
1.1603053435114503,0.366412213740458,-1.633587786259542,-0.462646484375,0.01220703125,-0.12060546875,1.7884
1.4045801526717556,0.5190839694656488,-1.4961832061068703,-0.459716796875,0.023681640625,-0.119384765625,1.7900999999999998
1.282442748091603,0.44274809160305345,-1.8625954198473282,-0.46826171875,0.01220703125,-0.1201171875,1.7917999999999998
0.9923664122137404,0.4732824427480916,-2.015267175572519,-0.46142578125,0.0146484375,-0.127197265625,1.7934999999999999
1.297709923664122,0.32061068702290074,-1.786259541984733,-0.465576171875,0.02001953125,-0.12158203125,1.7952
1.1145038167938932,0.7175572519083969,-1.9236641221374047,-0.4658203125,0.014892578125,-0.122802734375,1.7969
1.0381679389312977,0.549618320610687,-2.030534351145038,-0.46240234375,0.019287109375,-0.125244140625,1.7986
1.2061068702290076,0.3969465648854962,-2.0,-0.463623046875,0.016845703125,-0.1220703125,1.8002999999999998
