gyrox1,gyroy1,gyroz1,accelx1,accely1,accelz1,Time
0.3969465648854962,1.099236641221374,-1.8625954198473282,-0.45947265625,-0.07568359375,-0.16552734375,0.0
0.8854961832061069,1.1755725190839694,-1.8931297709923665,-0.457275390625,-0.074951171875,-0.162353515625,0.0017
0.8854961832061069,1.3282442748091603,-1.9083969465648856,-0.4599609375,-0.075927734375,-0.163818359375,0.0034
0.9007633587786259,1.1755725190839694,-1.8625954198473282,-0.454833984375,-0.075927734375,-0.16748046875,0.0050999999999999995
0.7633587786259542,1.083969465648855,-1.9389312977099236,-0.4560546875,-0.077880859375,-0.171630859375,0.0068
0.9923664122137404,1.4351145038167938,-1.8778625954198473,-0.456298828125,-0.077880859375,-0.163818359375,0.008499999999999999
0.9770992366412213,1.251908396946565,-1.8015267175572518,-0.462890625,-0.07373046875,-0.16552734375,0.010199999999999999
1.0381679389312977,1.3435114503816794,-2.030534351145038,-0.462158203125,-0.075927734375,-0.1650390625,0.011899999999999999
1.083969465648855,1.282442748091603,-2.0916030534351147,-0.45849609375,-0.077880859375,-0.168701171875,0.0136
0.9465648854961832,1.1908396946564885,-1.9236641221374047,-0.46044921875,-0.0791015625,-0.179931640625,0.0153
1.083969465648855,1.450381679389313,-2.1374045801526718,-0.459716796875,-0.08203125,-0.1708984375,0.016999999999999998
1.3893129770992367,1.297709923664122,-2.1068702290076335,-0.45849609375,-0.076416015625,-0.166259765625,0.018699999999999998
0.9465648854961832,1.3435114503816794,-2.1068702290076335,-0.46044921875,-0.080078125,-0.165771484375,0.020399999999999998
0.8854961832061069,1.4045801526717556,-2.0,-0.455322265625,-0.07568359375,-0.1630859375,0.022099999999999998
0.9923664122137404,1.2061068702290076,-2.183206106870229,-0.459228515625,-0.08056640625,-0.16552734375,0.023799999999999998
0.8854961832061069,1.297709923664122,-2.198473282442748,-0.4599609375,-0.07861328125,-0.162353515625,0.0255
0.9923664122137404,1.3893129770992367,-2.351145038167939,-0.457763671875,-0.076416015625,-0.163330078125,0.0272
0.8549618320610687,1.5114503816793894,-2.0,-0.459716796875,-0.07763671875,-0.160888671875,0.0289
0.9312977099236641,1.3435114503816794,-2.3206106870229006,-0.457275390625,-0.075439453125,-0.177490234375,0.0306
0.6717557251908397,1.3282442748091603,-2.366412213740458,-0.46142578125,-0.076171875,-0.165283203125,0.032299999999999995
0.7480916030534351,1.3282442748091603,-2.3206106870229006,-0.458251953125,-0.079345703125,-0.163818359375,0.033999999999999996
0.5954198473282443,1.5114503816793894,-2.1068702290076335,-0.461669921875,-0.0810546875,-0.163818359375,0.035699999999999996
0.7633587786259542,1.5267175572519085,-2.2442748091603053,-0.455322265625,-0.083984375,-0.15869140625,0.037399999999999996
0.8549618320610687,1.5267175572519085,-2.366412213740458,-0.45458984375,-0.082763671875,-0.149658203125,0.039099999999999996
0.549618320610687,1.4045801526717556,-2.381679389312977,-0.45654296875,-0.07763671875,-0.164794921875,0.040799999999999996
0.7633587786259542,1.5725190839694656,-2.1374045801526718,-0.460693359375,-0.08154296875,-0.166259765625,0.042499999999999996
0.8244274809160306,1.5877862595419847,-2.2595419847328246,-0.466552734375,-0.08203125,-0.172119140625,0.044199999999999996
0.8549618320610687,1.6641221374045803,-2.427480916030534,-0.46142578125,-0.078125,-0.174072265625,0.045899999999999996
0.4732824427480916,1.6641221374045803,-2.4580152671755724,-0.45703125,-0.0849609375,-0.17041015625,0.047599999999999996
0.7938931297709924,1.6946564885496183,-2.4580152671755724,-0.462158203125,-0.08056640625,-0.159423828125,0.0493
0.9312977099236641,1.7557251908396947,-2.4122137404580153,-0.456298828125,-0.083740234375,-0.156494140625,0.051
0.4580152671755725,1.3587786259541985,-2.4732824427480917,-0.45947265625,-0.078857421875,-0.171630859375,0.0527
0.6412213740458015,1.3893129770992367,-2.5801526717557253,-0.4580078125,-0.082275390625,-0.16162109375,0.0544
0.44274809160305345,1.3435114503816794,-2.4885496183206106,-0.458740234375,-0.079345703125,-0.163818359375,0.0561
0.4580152671755725,1.3587786259541985,-2.6412213740458017,-0.455078125,-0.078857421875,-0.164306640625,0.0578
0.48854961832061067,1.1755725190839694,-2.4427480916030535,-0.456787109375,-0.081787109375,-0.176513671875,0.0595
0.3969465648854962,1.2061068702290076,-2.595419847328244,-0.46142578125,-0.081298828125,-0.1689453125,0.0612
0.0916030534351145,1.282442748091603,-2.381679389312977,-0.457275390625,-0.0771484375,-0.163818359375,0.0629
0.24427480916030533,0.9923664122137404,-2.427480916030534,-0.451171875,-0.080810546875,-0.165771484375,0.06459999999999999
0.2748091603053435,0.9770992366412213,-2.4580152671755724,-0.45703125,-0.079345703125,-0.16796875,0.0663
0.12213740458015267,0.8396946564885496,-2.549618320610687,-0.4580078125,-0.078857421875,-0.163330078125,0.06799999999999999
0.061068702290076333,0.8549618320610687,-2.381679389312977,-0.4521484375,-0.07861328125,-0.166259765625,0.0697
0.10687022900763359,0.8396946564885496,-2.6106870229007635,-0.456787109375,-0.082275390625,-0.1689453125,0.07139999999999999
0.22900763358778625,0.7022900763358778,-2.427480916030534,-0.451904296875,-0.08056640625,-0.158203125,0.0731
-0.21374045801526717,0.6259541984732825,-2.595419847328244,-0.452392578125,-0.07861328125,-0.164794921875,0.07479999999999999
0.061068702290076333,0.6106870229007634,-2.4427480916030535,-0.45556640625,-0.0830078125,-0.163818359375,0.0765
0.061068702290076333,0.44274809160305345,-2.50381679389313,-0.454345703125,-0.078125,-0.161865234375,0.07819999999999999
0.015267175572519083,0.22900763358778625,-2.4732824427480917,-0.452880859375,-0.0830078125,-0.16552734375,0.0799
-0.15267175572519084,0.4122137404580153,-2.6412213740458017,-0.4580078125,-0.077392578125,-0.16162109375,0.08159999999999999
-0.16793893129770993,0.4732824427480916,-2.4427480916030535,-0.4521484375,-0.077392578125,-0.168701171875,0.0833
-0.015267175572519083,0.5038167938931297,-2.595419847328244,-0.453369140625,-0.07958984375,-0.1650390625,0.08499999999999999
-0.183206106870229,0.3816793893129771,-2.595419847328244,-0.4521484375,-0.07568359375,-0.16650390625,0.0867
-0.2595419847328244,0.6564885496183206,-2.6412213740458017,-0.4599609375,-0.07958984375,-0.1689453125,0.08839999999999999
-0.24427480916030533,0.6564885496183206,-2.717557251908397,-0.466064453125,-0.07958984375,-0.16650390625,0.0901
-0.07633587786259542,0.6870229007633588,-2.7022900763358777,-0.459228515625,-0.07666015625,-0.162109375,0.09179999999999999
-0.32061068702290074,0.6259541984732825,-2.519083969465649,-0.45654296875,-0.072998046875,-0.16357421875,0.0935
-0.1984732824427481,0.8549618320610687,-2.7786259541984735,-0.455078125,-0.07763671875,-0.16650390625,0.09519999999999999
-0.21374045801526717,0.7022900763358778,-2.6412213740458017,-0.45947265625,-0.076416015625,-0.16162109375,0.0969
-0.015267175572519083,0.7022900763358778,-2.732824427480916,-0.456298828125,-0.07666015625,-0.166259765625,0.0986
-0.0916030534351145,0.7938931297709924,-2.6106870229007635,-0.45556640625,-0.07666015625,-0.162109375,0.1003
-0.10687022900763359,0.9312977099236641,-2.717557251908397,-0.4599609375,-0.078369140625,-0.1630859375,0.102
-0.21374045801526717,1.0534351145038168,-2.4732824427480917,-0.4580078125,-0.078125,-0.166748046875,0.1037
-0.2748091603053435,1.0381679389312977,-2.717557251908397,-0.460693359375,-0.08203125,-0.15869140625,0.1054
-0.32061068702290074,0.9007633587786259,-2.6259541984732824,-0.463623046875,-0.07763671875,-0.157958984375,0.1071
-0.10687022900763359,0.9465648854961832,-2.595419847328244,-0.461181640625,-0.08154296875,-0.1630859375,0.1088
-0.1984732824427481,1.1450381679389312,-2.6412213740458017,-0.456787109375,-0.077392578125,-0.16796875,0.11049999999999999
-0.015267175572519083,0.9007633587786259,-2.6412213740458017,-0.45947265625,-0.073974609375,-0.165283203125,0.1122
-0.3053435114503817,0.8702290076335878,-2.4885496183206106,-0.456298828125,-0.080322265625,-0.1708984375,0.11389999999999999
-0.366412213740458,0.9465648854961832,-2.8091603053435112,-0.4609375,-0.074951171875,-0.169189453125,0.1156
-0.22900763358778625,0.9312977099236641,-2.717557251908397,-0.460205078125,-0.071533203125,-0.16552734375,0.11729999999999999
-0.13740458015267176,1.0534351145038168,-2.9770992366412212,-0.460205078125,-0.077880859375,-0.159912109375,0.119
0.04580152671755725,0.8854961832061069,-2.6717557251908395,-0.458251953125,-0.072265625,-0.172607421875,0.12069999999999999
-0.2900763358778626,1.2671755725190839,-2.8244274809160306,-0.4619140625,-0.07421875,-0.172607421875,0.1224
-0.44274809160305345,1.0381679389312977,-2.717557251908397,-0.4560546875,-0.073486328125,-0.16259765625,0.12409999999999999
0.0916030534351145,0.9923664122137404,-2.7938931297709924,-0.458984375,-0.0732421875,-0.166748046875,0.1258
-0.22900763358778625,1.0381679389312977,-2.6717557251908395,-0.452880859375,-0.073486328125,-0.163330078125,0.1275
-0.12213740458015267,1.0381679389312977,-2.8091603053435112,-0.456787109375,-0.0771484375,-0.1611328125,0.12919999999999998
0.10687022900763359,0.9465648854961832,-2.6564885496183206,-0.45458984375,-0.071533203125,-0.162841796875,0.1309
-0.183206106870229,0.916030534351145,-2.717557251908397,-0.461181640625,-0.06884765625,-0.164794921875,0.1326
-0.030534351145038167,0.8549618320610687,-2.7480916030534353,-0.456298828125,-0.0703125,-0.156982421875,0.1343
0.061068702290076333,1.1603053435114503,-2.7480916030534353,-0.45849609375,-0.076416015625,-0.159912109375,0.13599999999999998
0.07633587786259542,1.0381679389312977,-2.732824427480916,-0.46044921875,-0.073974609375,-0.162109375,0.1377
0.07633587786259542,1.0687022900763359,-2.885496183206107,-0.459228515625,-0.075439453125,-0.162109375,0.1394
0.12213740458015267,1.1145038167938932,-2.6259541984732824,-0.457763671875,-0.068359375,-0.160400390625,0.1411
0.32061068702290074,1.1603053435114503,-2.7786259541984735,-0.459716796875,-0.074462890625,-0.1650390625,0.14279999999999998
0.2595419847328244,1.2366412213740459,-2.7938931297709924,-0.4580078125,-0.076904296875,-0.16943359375,0.1445
0.33587786259541985,1.3740458015267176,-2.5343511450381677,-0.45947265625,-0.079345703125,-0.1650390625,0.1462
0.3969465648854962,1.3129770992366412,-2.5343511450381677,-0.4560546875,-0.075927734375,-0.161865234375,0.1479
0.33587786259541985,1.4045801526717556,-2.6412213740458017,-0.4599609375,-0.07080078125,-0.1689453125,0.14959999999999998
0.3053435114503817,1.465648854961832,-2.4732824427480917,-0.457275390625,-0.07373046875,-0.1640625,0.1513
0.5801526717557252,1.3740458015267176,-2.3206106870229006,-0.4560546875,-0.072021484375,-0.159912109375,0.153
0.8549618320610687,1.297709923664122,-2.366412213740458,-0.46630859375,-0.072998046875,-0.167724609375,0.1547
0.8549618320610687,1.7404580152671756,-2.2900763358778624,-0.458251953125,-0.072021484375,-0.16357421875,0.15639999999999998
0.9465648854961832,1.450381679389313,-2.198473282442748,-0.4599609375,-0.074462890625,-0.16162109375,0.1581
1.1297709923664123,1.4045801526717556,-2.3053435114503817,-0.4609375,-0.07666015625,-0.162109375,0.1598
1.282442748091603,1.7099236641221374,-2.5801526717557253,-0.456298828125,-0.079833984375,-0.16015625,0.1615
1.2671755725190839,1.6641221374045803,-2.427480916030534,-0.46240234375,-0.0751953125,-0.162841796875,0.16319999999999998
1.5114503816793894,1.618320610687023,-2.4732824427480917,-0.45947265625,-0.076171875,-0.16455078125,0.1649
1.2061068702290076,1.8931297709923665,-2.4427480916030535,-0.462890625,-0.079345703125,-0.165771484375,0.1666
1.7099236641221374,1.8015267175572518,-2.519083969465649,-0.455810546875,-0.077392578125,-0.167236328125,0.16829999999999998
1.9389312977099236,1.633587786259542,-2.5801526717557253,-0.462890625,-0.078369140625,-0.17041015625,0.16999999999999998
1.8473282442748091,1.9541984732824427,-2.381679389312977,-0.458251953125,-0.080322265625,-0.163818359375,0.1717
1.8473282442748091,1.7557251908396947,-2.5801526717557253,-0.4619140625,-0.080078125,-0.16259765625,0.1734
1.9389312977099236,1.6030534351145038,-2.595419847328244,-0.45263671875,-0.0810546875,-0.162109375,0.17509999999999998
1.8931297709923665,1.7099236641221374,-2.6412213740458017,-0.455322265625,-0.0791015625,-0.166015625,0.17679999999999998
2.0763358778625953,1.6793893129770991,-2.946564885496183,-0.458251953125,-0.07763671875,-0.167724609375,0.1785
2.030534351145038,1.7404580152671756,-2.732824427480916,-0.45654296875,-0.083984375,-0.16259765625,0.1802
1.8931297709923665,1.7557251908396947,-2.717557251908397,-0.454833984375,-0.07861328125,-0.163330078125,0.18189999999999998
1.9083969465648856,1.5267175572519085,-2.595419847328244,-0.45751953125,-0.085693359375,-0.15771484375,0.18359999999999999
1.9541984732824427,1.6641221374045803,-2.885496183206107,-0.460205078125,-0.080810546875,-0.157958984375,0.1853
1.7404580152671756,1.5725190839694656,-2.8396946564885495,-0.458251953125,-0.08056640625,-0.157958984375,0.187
1.3587786259541985,1.4961832061068703,-2.9618320610687023,-0.461181640625,-0.07763671875,-0.15478515625,0.18869999999999998
1.5114503816793894,1.5877862595419847,-2.763358778625954,-0.45947265625,-0.07958984375,-0.16650390625,0.19039999999999999
1.5725190839694656,1.4198473282442747,-2.8702290076335877,-0.46044921875,-0.083251953125,-0.1572265625,0.1921
1.5572519083969465,1.3893129770992367,-2.9160305343511452,-0.45849609375,-0.08203125,-0.169189453125,0.1938
1.3282442748091603,1.4198473282442747,-2.8396946564885495,-0.454833984375,-0.0830078125,-0.158447265625,0.19549999999999998
1.099236641221374,1.2213740458015268,-2.900763358778626,-0.458251953125,-0.08447265625,-0.15478515625,0.1972
0.9618320610687023,1.1145038167938932,-2.931297709923664,-0.458251953125,-0.07666015625,-0.1611328125,0.1989
0.8396946564885496,1.1908396946564885,-2.854961832061069,-0.45703125,-0.080078125,-0.166259765625,0.2006
0.8854961832061069,0.9312977099236641,-2.8396946564885495,-0.462646484375,-0.083984375,-0.16357421875,0.20229999999999998
0.732824427480916,1.2213740458015268,-2.7022900763358777,-0.45458984375,-0.0810546875,-0.15576171875,0.204
0.16793893129770993,1.0381679389312977,-2.6412213740458017,-0.461669921875,-0.083251953125,-0.149658203125,0.2057
0.33587786259541985,1.0381679389312977,-2.717557251908397,-0.464599609375,-0.074951171875,-0.157958984375,0.2074
0.42748091603053434,0.9770992366412213,-2.7786259541984735,-0.458984375,-0.0859375,-0.1630859375,0.20909999999999998
0.183206106870229,0.9312977099236641,-2.6412213740458017,-0.46240234375,-0.083740234375,-0.1650390625,0.2108
0.13740458015267176,0.9923664122137404,-2.687022900763359,-0.456787109375,-0.086181640625,-0.159423828125,0.2125
0.24427480916030533,0.916030534351145,-2.8702290076335877,-0.45947265625,-0.081787109375,-0.163818359375,0.2142
-0.0916030534351145,0.8702290076335878,-2.6106870229007635,-0.45703125,-0.0849609375,-0.1591796875,0.21589999999999998
0.0,0.8702290076335878,-2.7022900763358777,-0.455322265625,-0.0791015625,-0.17041015625,0.2176
0.015267175572519083,0.9465648854961832,-3.0076335877862594,-0.457763671875,-0.07666015625,-0.16552734375,0.2193
-0.07633587786259542,1.1755725190839694,-2.6717557251908395,-0.4609375,-0.0771484375,-0.162109375,0.22099999999999997
0.04580152671755725,0.9007633587786259,-2.717557251908397,-0.460693359375,-0.07373046875,-0.162353515625,0.22269999999999998
0.2748091603053435,1.0534351145038168,-2.564885496183206,-0.4599609375,-0.0693359375,-0.166259765625,0.2244
0.3816793893129771,1.0229007633587786,-2.564885496183206,-0.459716796875,-0.07666015625,-0.168212890625,0.2261
0.12213740458015267,0.9465648854961832,-2.6106870229007635,-0.4560546875,-0.080078125,-0.156494140625,0.22779999999999997
0.2595419847328244,1.2213740458015268,-2.6717557251908395,-0.458740234375,-0.080078125,-0.15966796875,0.22949999999999998
0.030534351145038167,1.099236641221374,-2.6106870229007635,-0.45703125,-0.07568359375,-0.16357421875,0.2312
0.3053435114503817,1.2366412213740459,-2.6106870229007635,-0.45849609375,-0.0703125,-0.1611328125,0.2329
0.6106870229007634,1.3129770992366412,-2.6564885496183206,-0.455078125,-0.076171875,-0.16552734375,0.23459999999999998
0.22900763358778625,1.1297709923664123,-2.6259541984732824,-0.4541015625,-0.077880859375,-0.158935546875,0.23629999999999998
0.44274809160305345,1.3282442748091603,-2.5343511450381677,-0.453369140625,-0.07275390625,-0.161376953125,0.238
0.7175572519083969,1.2671755725190839,-2.717557251908397,-0.462890625,-0.07177734375,-0.160888671875,0.2397
0.8396946564885496,1.2366412213740459,-2.7022900763358777,-0.458984375,-0.071533203125,-0.16162109375,0.24139999999999998
0.8244274809160306,1.2366412213740459,-2.564885496183206,-0.45703125,-0.079833984375,-0.16943359375,0.24309999999999998
0.916030534351145,1.1450381679389312,-2.381679389312977,-0.459228515625,-0.073486328125,-0.1552734375,0.2448
0.7480916030534351,1.3740458015267176,-2.6106870229007635,-0.463134765625,-0.078369140625,-0.157470703125,0.2465
0.9465648854961832,1.3282442748091603,-2.33587786259542,-0.459716796875,-0.072021484375,-0.154052734375,0.24819999999999998
1.0687022900763359,1.1908396946564885,-2.4580152671755724,-0.4619140625,-0.072998046875,-0.16650390625,0.24989999999999998
1.3740458015267176,1.251908396946565,-2.3969465648854964,-0.458251953125,-0.074462890625,-0.162109375,0.2516
1.282442748091603,1.3129770992366412,-2.4580152671755724,-0.459716796875,-0.077880859375,-0.161865234375,0.25329999999999997
1.5267175572519085,1.3129770992366412,-2.2748091603053435,-0.45947265625,-0.069091796875,-0.158935546875,0.255
1.4961832061068703,0.9923664122137404,-2.351145038167939,-0.4580078125,-0.076171875,-0.16259765625,0.2567
1.4809160305343512,1.083969465648855,-2.3053435114503817,-0.466796875,-0.071533203125,-0.1640625,0.25839999999999996
1.5725190839694656,1.465648854961832,-2.519083969465649,-0.45947265625,-0.0732421875,-0.166748046875,0.2601
1.8015267175572518,1.0687022900763359,-2.33587786259542,-0.458740234375,-0.073974609375,-0.164306640625,0.2618
1.9236641221374047,0.9770992366412213,-2.595419847328244,-0.454345703125,-0.07080078125,-0.170654296875,0.2635
1.83206106870229,1.3893129770992367,-2.33587786259542,-0.4599609375,-0.080078125,-0.1728515625,0.2652
2.16793893129771,1.1908396946564885,-2.381679389312977,-0.46142578125,-0.08056640625,-0.162109375,0.26689999999999997
2.2442748091603053,1.2671755725190839,-2.16793893129771,-0.458984375,-0.077880859375,-0.160400390625,0.2686
2.381679389312977,1.3740458015267176,-2.3969465648854964,-0.4580078125,-0.081787109375,-0.16748046875,0.2703
2.4122137404580153,1.4809160305343512,-2.4122137404580153,-0.45556640625,-0.078857421875,-0.1611328125,0.27199999999999996
2.3969465648854964,1.4045801526717556,-2.854961832061069,-0.4580078125,-0.078369140625,-0.162841796875,0.2737
2.519083969465649,1.4045801526717556,-2.2595419847328246,-0.459228515625,-0.078369140625,-0.1640625,0.2754
2.717557251908397,1.3740458015267176,-2.427480916030534,-0.458984375,-0.082763671875,-0.153564453125,0.27709999999999996
2.519083969465649,1.5572519083969465,-2.198473282442748,-0.4560546875,-0.08251953125,-0.1611328125,0.2788
2.8244274809160306,1.6793893129770991,-2.4885496183206106,-0.454345703125,-0.07763671875,-0.169921875,0.28049999999999997
2.732824427480916,1.6793893129770991,-2.3053435114503817,-0.461669921875,-0.08154296875,-0.168701171875,0.2822
2.6717557251908395,1.8931297709923665,-2.2748091603053435,-0.453369140625,-0.083984375,-0.16162109375,0.2839
2.931297709923664,1.9694656488549618,-2.1526717557251906,-0.455322265625,-0.0810546875,-0.156982421875,0.28559999999999997
2.7938931297709924,2.030534351145038,-2.4122137404580153,-0.462158203125,-0.085205078125,-0.1640625,0.2873
3.068702290076336,1.9083969465648856,-2.213740458015267,-0.456787109375,-0.08154296875,-0.16162109375,0.289
2.9160305343511452,2.0610687022900764,-2.427480916030534,-0.456787109375,-0.077392578125,-0.156494140625,0.29069999999999996
2.717557251908397,2.015267175572519,-2.2748091603053435,-0.45703125,-0.081787109375,-0.168701171875,0.2924
2.9618320610687023,1.9541984732824427,-2.717557251908397,-0.45947265625,-0.0810546875,-0.17236328125,0.2941
2.7786259541984735,1.9541984732824427,-2.366412213740458,-0.460693359375,-0.0849609375,-0.170654296875,0.2958
2.8244274809160306,1.8931297709923665,-2.427480916030534,-0.459716796875,-0.088134765625,-0.169189453125,0.2975
2.717557251908397,1.8778625954198473,-2.4732824427480917,-0.45849609375,-0.085205078125,-0.163330078125,0.29919999999999997
3.068702290076336,1.984732824427481,-2.50381679389313,-0.460693359375,-0.082275390625,-0.156005859375,0.3009
3.0076335877862594,1.8778625954198473,-2.427480916030534,-0.462890625,-0.085205078125,-0.16064453125,0.3026
3.0839694656488548,1.8625954198473282,-2.4427480916030535,-0.45556640625,-0.080078125,-0.16357421875,0.30429999999999996
3.099236641221374,1.7709923664122138,-2.2442748091603053,-0.45703125,-0.077880859375,-0.16845703125,0.306
2.8702290076335877,1.6946564885496183,-2.2442748091603053,-0.452392578125,-0.0810546875,-0.165771484375,0.3077
2.885496183206107,1.7557251908396947,-2.2748091603053435,-0.458251953125,-0.08447265625,-0.165771484375,0.3094
3.053435114503817,1.5267175572519085,-2.4427480916030535,-0.4541015625,-0.080322265625,-0.15380859375,0.3111
2.854961832061069,1.4045801526717556,-2.213740458015267,-0.456298828125,-0.086181640625,-0.166259765625,0.31279999999999997
2.4427480916030535,1.3435114503816794,-2.33587786259542,-0.4521484375,-0.085693359375,-0.166748046875,0.3145
2.50381679389313,1.450381679389313,-2.213740458015267,-0.455810546875,-0.0810546875,-0.162109375,0.3162
2.3969465648854964,1.3129770992366412,-2.183206106870229,-0.458984375,-0.077880859375,-0.15478515625,0.31789999999999996
2.2290076335877864,1.099236641221374,-2.0916030534351147,-0.456298828125,-0.083984375,-0.167724609375,0.3196
2.0763358778625953,1.1755725190839694,-2.213740458015267,-0.455322265625,-0.08203125,-0.16357421875,0.3213
2.1526717557251906,1.1145038167938932,-2.213740458015267,-0.4599609375,-0.08154296875,-0.162841796875,0.323
2.030534351145038,1.0534351145038168,-2.2442748091603053,-0.459716796875,-0.083740234375,-0.163818359375,0.3247
2.030534351145038,1.1145038167938932,-2.045801526717557,-0.4619140625,-0.08544921875,-0.157958984375,0.32639999999999997
2.0,1.1603053435114503,-2.1374045801526718,-0.455322265625,-0.079345703125,-0.165771484375,0.3281
2.015267175572519,1.2213740458015268,-2.015267175572519,-0.454345703125,-0.078857421875,-0.162109375,0.3298
1.8015267175572518,1.3282442748091603,-2.0610687022900764,-0.459228515625,-0.08251953125,-0.163818359375,0.33149999999999996
1.9389312977099236,1.3587786259541985,-2.16793893129771,-0.458740234375,-0.080810546875,-0.156005859375,0.3332
1.9083969465648856,1.4045801526717556,-2.0916030534351147,-0.455078125,-0.077880859375,-0.159423828125,0.3349
1.7557251908396947,1.2366412213740459,-2.1374045801526718,-0.458984375,-0.077880859375,-0.16259765625,0.33659999999999995
1.9083969465648856,1.5267175572519085,-2.3053435114503817,-0.460205078125,-0.07861328125,-0.16455078125,0.3383
2.015267175572519,1.5572519083969465,-2.183206106870229,-0.456298828125,-0.07861328125,-0.165283203125,0.33999999999999997
1.9694656488549618,1.4961832061068703,-2.0610687022900764,-0.46044921875,-0.081787109375,-0.15966796875,0.3417
1.9236641221374047,1.6030534351145038,-1.8625954198473282,-0.4560546875,-0.082763671875,-0.160400390625,0.3434
2.4122137404580153,1.5877862595419847,-2.045801526717557,-0.45703125,-0.0791015625,-0.159423828125,0.34509999999999996
2.213740458015267,1.7709923664122138,-2.213740458015267,-0.45751953125,-0.084228515625,-0.16259765625,0.3468
2.045801526717557,1.633587786259542,-2.1374045801526718,-0.455078125,-0.078369140625,-0.154296875,0.3485
2.2595419847328246,1.450381679389313,-2.0763358778625953,-0.459716796875,-0.076904296875,-0.1611328125,0.35019999999999996
2.2900763358778624,1.7099236641221374,-2.0610687022900764,-0.458984375,-0.08203125,-0.158447265625,0.3519
2.2595419847328246,1.5725190839694656,-2.0610687022900764,-0.456787109375,-0.076416015625,-0.161376953125,0.35359999999999997
2.1526717557251906,1.6641221374045803,-1.9236641221374047,-0.461669921875,-0.07861328125,-0.167724609375,0.3553
2.2595419847328246,1.5725190839694656,-1.8625954198473282,-0.459716796875,-0.08056640625,-0.165283203125,0.357
2.351145038167939,1.618320610687023,-1.9236641221374047,-0.46044921875,-0.076904296875,-0.16748046875,0.35869999999999996
2.2290076335877864,1.5725190839694656,-1.816793893129771,-0.459228515625,-0.081787109375,-0.155029296875,0.3604
2.015267175572519,1.5877862595419847,-1.8625954198473282,-0.462890625,-0.080078125,-0.166259765625,0.3621
2.2748091603053435,1.618320610687023,-1.6641221374045803,-0.462158203125,-0.07763671875,-0.162109375,0.36379999999999996
2.213740458015267,1.6030534351145038,-1.6793893129770991,-0.460693359375,-0.076171875,-0.164306640625,0.3655
2.183206106870229,1.6793893129770991,-1.6793893129770991,-0.46240234375,-0.077392578125,-0.1669921875,0.36719999999999997
2.030534351145038,1.5267175572519085,-1.6946564885496183,-0.4638671875,-0.079833984375,-0.161376953125,0.3689
2.366412213740458,1.3587786259541985,-1.5725190839694656,-0.462158203125,-0.081298828125,-0.173583984375,0.3706
2.198473282442748,1.6793893129770991,-1.618320610687023,-0.46435546875,-0.081787109375,-0.170166015625,0.37229999999999996
2.213740458015267,1.6793893129770991,-1.5114503816793894,-0.460205078125,-0.0810546875,-0.16748046875,0.374
2.2442748091603053,1.9389312977099236,-1.618320610687023,-0.457275390625,-0.078857421875,-0.164306640625,0.3757
2.3969465648854964,1.7251908396946565,-1.4198473282442747,-0.458984375,-0.078369140625,-0.172119140625,0.37739999999999996
2.4580152671755724,1.618320610687023,-1.6946564885496183,-0.463623046875,-0.084228515625,-0.1669921875,0.3791
2.351145038167939,1.9541984732824427,-1.6488549618320612,-0.45947265625,-0.082763671875,-0.16796875,0.38079999999999997
2.4885496183206106,1.8931297709923665,-1.4351145038167938,-0.459716796875,-0.081787109375,-0.15576171875,0.38249999999999995
2.427480916030534,1.984732824427481,-1.6488549618320612,-0.462890625,-0.08349609375,-0.16943359375,0.3842
2.2595419847328246,1.8473282442748091,-1.618320610687023,-0.46337890625,-0.08447265625,-0.16552734375,0.38589999999999997
2.3969465648854964,1.8931297709923665,-1.6793893129770991,-0.463134765625,-0.076171875,-0.15625,0.3876
2.5801526717557253,1.9236641221374047,-1.5572519083969465,-0.461181640625,-0.086181640625,-0.171630859375,0.3893
2.6717557251908395,2.030534351145038,-1.7099236641221374,-0.459716796875,-0.083251953125,-0.155517578125,0.39099999999999996
2.564885496183206,1.83206106870229,-1.6793893129770991,-0.45751953125,-0.084228515625,-0.15869140625,0.3927
2.351145038167939,2.045801526717557,-1.6946564885496183,-0.462890625,-0.082763671875,-0.169921875,0.3944
2.5343511450381677,1.9694656488549618,-1.5419847328244274,-0.458740234375,-0.084228515625,-0.1640625,0.39609999999999995
2.732824427480916,1.8473282442748091,-1.465648854961832,-0.453369140625,-0.08203125,-0.15771484375,0.3978
2.381679389312977,1.786259541984733,-1.4198473282442747,-0.45556640625,-0.082763671875,-0.160400390625,0.39949999999999997
2.381679389312977,1.786259541984733,-1.4809160305343512,-0.460693359375,-0.078369140625,-0.163330078125,0.4012
2.427480916030534,1.7557251908396947,-1.4961832061068703,-0.458740234375,-0.07958984375,-0.16064453125,0.4029
2.549618320610687,1.6641221374045803,-1.282442748091603,-0.4599609375,-0.08447265625,-0.160888671875,0.40459999999999996
2.5801526717557253,1.5419847328244274,-1.4351145038167938,-0.4560546875,-0.083251953125,-0.15869140625,0.4063
2.2290076335877864,1.633587786259542,-1.4809160305343512,-0.453857421875,-0.087890625,-0.160888671875,0.408
2.4732824427480917,1.5572519083969465,-1.3740458015267176,-0.453857421875,-0.081298828125,-0.15576171875,0.40969999999999995
2.2595419847328246,1.5877862595419847,-1.4351145038167938,-0.4619140625,-0.08740234375,-0.157470703125,0.4114
2.2748091603053435,1.5725190839694656,-1.7557251908396947,-0.459716796875,-0.08349609375,-0.1611328125,0.41309999999999997
2.122137404580153,1.3587786259541985,-1.5267175572519085,-0.4619140625,-0.0830078125,-0.161865234375,0.4148
2.16793893129771,1.4809160305343512,-1.3740458015267176,-0.45458984375,-0.08349609375,-0.15625,0.4165
2.351145038167939,1.5267175572519085,-1.4198473282442747,-0.456298828125,-0.083251953125,-0.1591796875,0.41819999999999996
2.1068702290076335,1.5267175572519085,-1.4198473282442747,-0.45556640625,-0.080322265625,-0.162109375,0.4199
1.83206106870229,1.5725190839694656,-1.5725190839694656,-0.457763671875,-0.08349609375,-0.164306640625,0.4216
2.213740458015267,1.5877862595419847,-1.3893129770992367,-0.4658203125,-0.086669921875,-0.1611328125,0.42329999999999995
2.2900763358778624,1.6946564885496183,-1.4809160305343512,-0.464111328125,-0.090576171875,-0.163330078125,0.425
2.0916030534351147,1.5725190839694656,-1.4809160305343512,-0.454833984375,-0.08056640625,-0.16845703125,0.42669999999999997
1.8778625954198473,1.6488549618320612,-1.5725190839694656,-0.45556640625,-0.07861328125,-0.16748046875,0.4284
2.16793893129771,1.6793893129770991,-1.4198473282442747,-0.458984375,-0.0791015625,-0.167236328125,0.4301
1.7709923664122138,1.7709923664122138,-1.5877862595419847,-0.46044921875,-0.07958984375,-0.1640625,0.43179999999999996
1.816793893129771,1.7557251908396947,-1.4809160305343512,-0.46533203125,-0.08544921875,-0.165283203125,0.4335
2.1068702290076335,1.7099236641221374,-1.5725190839694656,-0.45556640625,-0.0849609375,-0.15966796875,0.4352
1.633587786259542,1.6946564885496183,-1.4809160305343512,-0.462158203125,-0.08447265625,-0.167236328125,0.43689999999999996
1.6793893129770991,1.8015267175572518,-1.618320610687023,-0.46044921875,-0.083740234375,-0.157958984375,0.4386
1.618320610687023,1.7557251908396947,-1.450381679389313,-0.46044921875,-0.086669921875,-0.159423828125,0.44029999999999997
1.6641221374045803,1.6946564885496183,-1.4351145038167938,-0.45751953125,-0.07861328125,-0.1630859375,0.44199999999999995
1.450381679389313,1.83206106870229,-1.4809160305343512,-0.45849609375,-0.084228515625,-0.160400390625,0.4437
1.4809160305343512,1.9083969465648856,-1.4351145038167938,-0.458984375,-0.081787109375,-0.162353515625,0.44539999999999996
1.3587786259541985,1.8473282442748091,-1.3740458015267176,-0.454833984375,-0.08544921875,-0.167236328125,0.4471
1.2366412213740459,1.7557251908396947,-1.3129770992366412,-0.462158203125,-0.08544921875,-0.16064453125,0.4488
1.1603053435114503,1.7099236641221374,-1.3435114503816794,-0.455078125,-0.087890625,-0.164794921875,0.45049999999999996
1.3587786259541985,1.7557251908396947,-1.4045801526717556,-0.456298828125,-0.08837890625,-0.16162109375,0.4522
1.297709923664122,1.9083969465648856,-1.4961832061068703,-0.45654296875,-0.0849609375,-0.1630859375,0.45389999999999997
1.4351145038167938,1.9236641221374047,-1.5114503816793894,-0.4560546875,-0.083984375,-0.174560546875,0.45559999999999995
1.1755725190839694,1.7557251908396947,-1.3893129770992367,-0.4638671875,-0.080322265625,-0.166748046875,0.4573
1.2671755725190839,2.0,-1.3129770992366412,-0.4580078125,-0.084716796875,-0.167724609375,0.45899999999999996
1.5267175572519085,2.030534351145038,-1.1603053435114503,-0.452880859375,-0.0810546875,-0.164306640625,0.4607
1.297709923664122,1.83206106870229,-1.5725190839694656,-0.4599609375,-0.083984375,-0.157958984375,0.4624
1.3435114503816794,1.9083969465648856,-1.4198473282442747,-0.467041015625,-0.083251953125,-0.157958984375,0.46409999999999996
1.5419847328244274,1.816793893129771,-1.3435114503816794,-0.458251953125,-0.08935546875,-0.16943359375,0.4658
1.6030534351145038,1.8473282442748091,-1.251908396946565,-0.4541015625,-0.08349609375,-0.166015625,0.46749999999999997
1.450381679389313,1.9541984732824427,-1.4045801526717556,-0.4599609375,-0.082275390625,-0.16943359375,0.46919999999999995
1.5419847328244274,1.9236641221374047,-1.3587786259541985,-0.456787109375,-0.0810546875,-0.170654296875,0.4709
1.786259541984733,1.9083969465648856,-1.3435114503816794,-0.451416015625,-0.08056640625,-0.177001953125,0.47259999999999996
1.465648854961832,1.8473282442748091,-1.3435114503816794,-0.458251953125,-0.07763671875,-0.16748046875,0.4743
1.5877862595419847,1.9236641221374047,-1.4198473282442747,-0.457763671875,-0.08056640625,-0.158203125,0.476
1.7099236641221374,2.015267175572519,-1.2213740458015268,-0.4580078125,-0.083251953125,-0.171630859375,0.47769999999999996
1.4809160305343512,2.0763358778625953,-1.297709923664122,-0.45849609375,-0.08251953125,-0.172119140625,0.4794
1.5572519083969465,2.0,-1.083969465648855,-0.454833984375,-0.0830078125,-0.166748046875,0.48109999999999997
1.3282442748091603,2.015267175572519,-1.0534351145038168,-0.454345703125,-0.08349609375,-0.162841796875,0.48279999999999995
1.1450381679389312,1.9694656488549618,-0.9770992366412213,-0.4599609375,-0.086181640625,-0.16162109375,0.4845
1.2061068702290076,2.16793893129771,-1.0534351145038168,-0.4580078125,-0.085693359375,-0.1611328125,0.48619999999999997
1.2061068702290076,2.0763358778625953,-0.8702290076335878,-0.453857421875,-0.082763671875,-0.165771484375,0.4879
1.1908396946564885,2.1374045801526718,-1.0076335877862594,-0.46142578125,-0.082763671875,-0.156005859375,0.4896
1.2671755725190839,2.015267175572519,-0.8854961832061069,-0.460205078125,-0.081298828125,-0.163818359375,0.49129999999999996
1.2671755725190839,2.045801526717557,-0.9923664122137404,-0.4609375,-0.08447265625,-0.154541015625,0.493
0.9923664122137404,2.0916030534351147,-0.8396946564885496,-0.45361328125,-0.07958984375,-0.16064453125,0.4947
0.8854961832061069,2.0916030534351147,-0.7633587786259542,-0.457763671875,-0.08544921875,-0.16455078125,0.49639999999999995
0.7786259541984732,1.9236641221374047,-0.7480916030534351,-0.451904296875,-0.0859375,-0.165771484375,0.4981
0.8702290076335878,1.9389312977099236,-0.7022900763358778,-0.45166015625,-0.08642578125,-0.16650390625,0.49979999999999997
0.8549618320610687,2.0763358778625953,-0.7633587786259542,-0.45947265625,-0.08544921875,-0.162109375,0.5015
0.7480916030534351,2.0,-0.732824427480916,-0.45703125,-0.085205078125,-0.15673828125,0.5032
0.9007633587786259,2.0,-0.8091603053435115,-0.45654296875,-0.08984375,-0.16357421875,0.5049
0.8091603053435115,2.122137404580153,-0.8854961832061069,-0.454833984375,-0.08349609375,-0.1650390625,0.5065999999999999
0.7480916030534351,2.0916030534351147,-0.6564885496183206,-0.452880859375,-0.08349609375,-0.163818359375,0.5083
1.0534351145038168,1.9541984732824427,-0.9770992366412213,-0.4501953125,-0.088134765625,-0.161865234375,0.51
1.099236641221374,2.0,-0.8854961832061069,-0.459228515625,-0.08642578125,-0.16357421875,0.5116999999999999
0.9770992366412213,1.816793893129771,-0.9618320610687023,-0.456298828125,-0.085205078125,-0.16748046875,0.5134
0.9770992366412213,1.8778625954198473,-1.083969465648855,-0.45654296875,-0.085205078125,-0.164794921875,0.5151
1.0076335877862594,1.8931297709923665,-0.9465648854961832,-0.45166015625,-0.080078125,-0.169677734375,0.5167999999999999
1.083969465648855,1.8625954198473282,-1.0229007633587786,-0.4521484375,-0.08056640625,-0.163818359375,0.5185
0.9312977099236641,1.9389312977099236,-1.1450381679389312,-0.45458984375,-0.089111328125,-0.163818359375,0.5202
1.1297709923664123,1.7099236641221374,-1.1145038167938932,-0.45654296875,-0.08740234375,-0.157470703125,0.5218999999999999
1.2213740458015268,1.7404580152671756,-1.099236641221374,-0.456298828125,-0.0869140625,-0.1640625,0.5236
1.0381679389312977,1.7251908396946565,-1.2213740458015268,-0.452392578125,-0.08447265625,-0.154296875,0.5253
0.732824427480916,1.8015267175572518,-1.3435114503816794,-0.457763671875,-0.084716796875,-0.161865234375,0.527
0.9618320610687023,1.5572519083969465,-1.2366412213740459,-0.4580078125,-0.0869140625,-0.167236328125,0.5287
0.7786259541984732,1.4198473282442747,-1.2671755725190839,-0.451904296875,-0.08544921875,-0.156005859375,0.5304
0.5038167938931297,1.6641221374045803,-1.099236641221374,-0.453369140625,-0.084716796875,-0.154296875,0.5321
0.6564885496183206,1.5419847328244274,-1.2671755725190839,-0.460205078125,-0.080810546875,-0.165283203125,0.5337999999999999
0.6564885496183206,1.618320610687023,-1.251908396946565,-0.45703125,-0.081298828125,-0.169677734375,0.5355
0.4580152671755725,1.633587786259542,-1.251908396946565,-0.45849609375,-0.082275390625,-0.1640625,0.5372
0.32061068702290074,1.7709923664122138,-1.083969465648855,-0.4580078125,-0.082763671875,-0.159912109375,0.5388999999999999
0.3053435114503817,1.7557251908396947,-1.083969465648855,-0.459716796875,-0.077880859375,-0.15869140625,0.5406
0.3816793893129771,1.7557251908396947,-1.1145038167938932,-0.464111328125,-0.081787109375,-0.169921875,0.5423
0.48854961832061067,1.8473282442748091,-1.297709923664122,-0.462158203125,-0.0869140625,-0.160400390625,0.5439999999999999
0.48854961832061067,2.030534351145038,-1.0381679389312977,-0.45361328125,-0.088134765625,-0.165771484375,0.5457
0.5648854961832062,2.030534351145038,-1.083969465648855,-0.457763671875,-0.084716796875,-0.161376953125,0.5474
0.4580152671755725,2.0916030534351147,-1.282442748091603,-0.458251953125,-0.0849609375,-0.160888671875,0.5490999999999999
0.5648854961832062,2.045801526717557,-1.3282442748091603,-0.45947265625,-0.08203125,-0.165283203125,0.5508
0.5801526717557252,2.4885496183206106,-1.0534351145038168,-0.45849609375,-0.086669921875,-0.16552734375,0.5525
0.7938931297709924,2.2748091603053435,-1.1450381679389312,-0.4658203125,-0.082763671875,-0.169189453125,0.5541999999999999
1.0687022900763359,2.366412213740458,-1.0381679389312977,-0.4638671875,-0.081298828125,-0.172119140625,0.5559
0.7175572519083969,2.4122137404580153,-1.282442748091603,-0.460205078125,-0.08251953125,-0.166748046875,0.5576
1.0076335877862594,2.549618320610687,-1.1755725190839694,-0.4580078125,-0.081298828125,-0.15869140625,0.5593
1.1908396946564885,2.4885496183206106,-1.1603053435114503,-0.459228515625,-0.08349609375,-0.16845703125,0.5609999999999999
0.9007633587786259,2.351145038167939,-1.0534351145038168,-0.459716796875,-0.082763671875,-0.16650390625,0.5627
0.9770992366412213,2.198473282442748,-1.1297709923664123,-0.46337890625,-0.08203125,-0.167236328125,0.5644
1.083969465648855,2.33587786259542,-1.297709923664122,-0.462158203125,-0.08740234375,-0.161865234375,0.5660999999999999
0.9312977099236641,2.33587786259542,-1.3129770992366412,-0.4619140625,-0.087646484375,-0.16748046875,0.5678
0.7633587786259542,2.3206106870229006,-1.3435114503816794,-0.4599609375,-0.087646484375,-0.161376953125,0.5695
1.0076335877862594,2.3053435114503817,-1.1908396946564885,-0.456787109375,-0.0869140625,-0.168212890625,0.5711999999999999
0.732824427480916,2.366412213740458,-1.3740458015267176,-0.4580078125,-0.0869140625,-0.166259765625,0.5729
0.549618320610687,2.16793893129771,-1.2366412213740459,-0.46044921875,-0.08544921875,-0.171875,0.5746
0.4122137404580153,2.3206106870229006,-1.099236641221374,-0.462158203125,-0.084228515625,-0.1669921875,0.5762999999999999
0.1984732824427481,2.519083969465649,-1.297709923664122,-0.456298828125,-0.0849609375,-0.163818359375,0.578
0.183206106870229,2.519083969465649,-1.1297709923664123,-0.463623046875,-0.08056640625,-0.1650390625,0.5797
0.3816793893129771,2.2442748091603053,-1.1450381679389312,-0.4638671875,-0.086669921875,-0.16796875,0.5813999999999999
0.15267175572519084,2.381679389312977,-1.1297709923664123,-0.462158203125,-0.08447265625,-0.162109375,0.5831
0.15267175572519084,2.33587786259542,-1.2061068702290076,-0.462158203125,-0.084716796875,-0.16015625,0.5848
0.030534351145038167,2.5343511450381677,-1.0076335877862594,-0.458984375,-0.085693359375,-0.156982421875,0.5865
-0.0916030534351145,2.6412213740458017,-1.0076335877862594,-0.45556640625,-0.082763671875,-0.1572265625,0.5882
-0.2748091603053435,2.7786259541984735,-1.083969465648855,-0.459716796875,-0.0869140625,-0.172607421875,0.5899
-0.183206106870229,2.5343511450381677,-0.8702290076335878,-0.45751953125,-0.08740234375,-0.16455078125,0.5916
0.015267175572519083,2.687022900763359,-0.9770992366412213,-0.459228515625,-0.084228515625,-0.165283203125,0.5932999999999999
-0.16793893129770993,2.519083969465649,-1.1297709923664123,-0.45849609375,-0.0810546875,-0.16796875,0.595
0.030534351145038167,2.5343511450381677,-0.9923664122137404,-0.454345703125,-0.08154296875,-0.1689453125,0.5967
0.0,2.6106870229007635,-0.9618320610687023,-0.4541015625,-0.08154296875,-0.16357421875,0.5983999999999999
-0.061068702290076333,2.4580152671755724,-0.7938931297709924,-0.453369140625,-0.07958984375,-0.159423828125,0.6001
0.030534351145038167,2.366412213740458,-0.6259541984732825,-0.459716796875,-0.084716796875,-0.16162109375,0.6018
0.04580152671755725,2.3053435114503817,-0.5648854961832062,-0.45849609375,-0.07958984375,-0.160400390625,0.6034999999999999
0.22900763358778625,2.198473282442748,-0.7175572519083969,-0.455322265625,-0.083984375,-0.15673828125,0.6052
-0.061068702290076333,2.045801526717557,-0.7938931297709924,-0.4580078125,-0.084228515625,-0.155029296875,0.6069
0.13740458015267176,2.183206106870229,-0.7633587786259542,-0.457275390625,-0.081787109375,-0.16455078125,0.6085999999999999
-0.07633587786259542,1.9389312977099236,-0.8549618320610687,-0.461181640625,-0.07958984375,-0.16357421875,0.6103
-0.22900763358778625,1.8931297709923665,-0.9007633587786259,-0.454833984375,-0.078857421875,-0.16943359375,0.612
-0.13740458015267176,1.7709923664122138,-0.6870229007633588,-0.45263671875,-0.083984375,-0.171630859375,0.6136999999999999
-0.15267175572519084,1.7251908396946565,-0.9312977099236641,-0.455322265625,-0.077880859375,-0.168212890625,0.6154
-0.4732824427480916,1.8473282442748091,-0.9312977099236641,-0.453125,-0.081298828125,-0.1611328125,0.6171
-0.5343511450381679,1.9236641221374047,-0.9923664122137404,-0.457275390625,-0.083984375,-0.167236328125,0.6188
-0.33587786259541985,1.83206106870229,-0.9465648854961832,-0.460205078125,-0.08837890625,-0.163330078125,0.6204999999999999
-0.3511450381679389,1.7404580152671756,-0.9465648854961832,-0.459228515625,-0.09033203125,-0.16845703125,0.6222
-0.3511450381679389,1.9694656488549618,-1.1297709923664123,-0.45068359375,-0.08837890625,-0.1689453125,0.6239
-0.22900763358778625,2.0610687022900764,-1.251908396946565,-0.4599609375,-0.091064453125,-0.16650390625,0.6255999999999999
-0.48854961832061067,2.0916030534351147,-1.3129770992366412,-0.457763671875,-0.0859375,-0.171630859375,0.6273
-0.44274809160305345,1.9389312977099236,-1.0534351145038168,-0.45361328125,-0.08203125,-0.170654296875,0.629
-0.4580152671755725,2.2748091603053435,-1.3435114503816794,-0.45361328125,-0.08544921875,-0.168701171875,0.6306999999999999
-0.10687022900763359,2.3969465648854964,-1.4045801526717556,-0.45458984375,-0.084228515625,-0.16650390625,0.6324
-0.3053435114503817,2.4427480916030535,-1.5877862595419847,-0.461181640625,-0.083984375,-0.16796875,0.6341
-0.44274809160305345,2.519083969465649,-1.5725190839694656,-0.457763671875,-0.08544921875,-0.17333984375,0.6357999999999999
-0.2900763358778626,2.427480916030534,-1.6030534351145038,-0.45703125,-0.08544921875,-0.16796875,0.6375
-0.2748091603053435,2.519083969465649,-1.4809160305343512,-0.457275390625,-0.086181640625,-0.18310546875,0.6392
-0.12213740458015267,2.5801526717557253,-1.5572519083969465,-0.452880859375,-0.081787109375,-0.167724609375,0.6408999999999999
-0.061068702290076333,2.595419847328244,-1.5114503816793894,-0.459716796875,-0.081298828125,-0.163330078125,0.6426
-0.3053435114503817,2.595419847328244,-1.4351145038167938,-0.455322265625,-0.08203125,-0.16552734375,0.6443
-0.44274809160305345,2.366412213740458,-1.3129770992366412,-0.453125,-0.081298828125,-0.169677734375,0.646
-0.10687022900763359,2.33587786259542,-1.6793893129770991,-0.458984375,-0.0771484375,-0.16845703125,0.6476999999999999
-0.5954198473282443,2.4427480916030535,-1.4351145038167938,-0.4599609375,-0.0791015625,-0.17041015625,0.6494
-0.366412213740458,2.4580152671755724,-1.450381679389313,-0.453369140625,-0.08056640625,-0.16748046875,0.6511
-0.3816793893129771,2.4580152671755724,-1.3893129770992367,-0.451904296875,-0.081787109375,-0.171142578125,0.6527999999999999
-0.3969465648854962,2.1374045801526718,-1.4198473282442747,-0.45556640625,-0.08056640625,-0.162353515625,0.6545
-0.48854961832061067,2.122137404580153,-1.3129770992366412,-0.456787109375,-0.079345703125,-0.169189453125,0.6562
-0.5343511450381679,1.8778625954198473,-1.5877862595419847,-0.45751953125,-0.0791015625,-0.16845703125,0.6578999999999999
-0.7175572519083969,2.045801526717557,-1.4961832061068703,-0.455810546875,-0.082275390625,-0.168701171875,0.6596
-0.6564885496183206,1.984732824427481,-1.4809160305343512,-0.45263671875,-0.08251953125,-0.166748046875,0.6613
-0.3969465648854962,1.83206106870229,-1.4198473282442747,-0.453857421875,-0.082275390625,-0.16650390625,0.6629999999999999
-0.6106870229007634,1.7709923664122138,-1.5419847328244274,-0.45556640625,-0.079833984375,-0.16259765625,0.6647
-0.5190839694656488,1.984732824427481,-1.450381679389313,-0.452392578125,-0.07861328125,-0.157470703125,0.6664
-0.6106870229007634,1.6946564885496183,-1.618320610687023,-0.45068359375,-0.078369140625,-0.16650390625,0.6680999999999999
-0.5343511450381679,1.5877862595419847,-1.4351145038167938,-0.456298828125,-0.0791015625,-0.159912109375,0.6698
-0.3969465648854962,1.7557251908396947,-1.251908396946565,-0.458251953125,-0.08154296875,-0.153076171875,0.6715
-0.5038167938931297,1.6946564885496183,-1.2366412213740459,-0.45703125,-0.078125,-0.160888671875,0.6731999999999999
-0.732824427480916,1.816793893129771,-1.4198473282442747,-0.454345703125,-0.081298828125,-0.16162109375,0.6748999999999999
-0.7175572519083969,1.7557251908396947,-1.2366412213740459,-0.453125,-0.074951171875,-0.166259765625,0.6766
-0.8854961832061069,1.8625954198473282,-1.0381679389312977,-0.45166015625,-0.084228515625,-0.167236328125,0.6783
-1.0076335877862594,1.8015267175572518,-1.1603053435114503,-0.45166015625,-0.079345703125,-0.16552734375,0.6799999999999999
-1.083969465648855,1.6641221374045803,-1.3282442748091603,-0.45166015625,-0.081298828125,-0.166748046875,0.6817
-1.1755725190839694,1.7557251908396947,-1.1145038167938932,-0.457275390625,-0.07568359375,-0.166259765625,0.6834
-1.1908396946564885,1.6641221374045803,-1.282442748091603,-0.45556640625,-0.0810546875,-0.1640625,0.6850999999999999
-1.0229007633587786,1.786259541984733,-1.2213740458015268,-0.458984375,-0.083984375,-0.1689453125,0.6868
-1.3435114503816794,1.8778625954198473,-1.3435114503816794,-0.4580078125,-0.085693359375,-0.164306640625,0.6885
-1.2671755725190839,1.8931297709923665,-0.9312977099236641,-0.455810546875,-0.083984375,-0.1611328125,0.6901999999999999
-0.8702290076335878,2.0763358778625953,-1.2061068702290076,-0.4560546875,-0.083740234375,-0.16845703125,0.6919
-0.8549618320610687,2.030534351145038,-1.1450381679389312,-0.457763671875,-0.078857421875,-0.16796875,0.6936
-0.6870229007633588,2.1526717557251906,-1.2366412213740459,-0.458251953125,-0.077880859375,-0.158447265625,0.6952999999999999
-0.5648854961832062,2.16793893129771,-1.1908396946564885,-0.457763671875,-0.083984375,-0.168212890625,0.697
-0.6412213740458015,2.33587786259542,-1.2671755725190839,-0.4580078125,-0.081298828125,-0.163818359375,0.6987
-0.8091603053435115,2.198473282442748,-1.3282442748091603,-0.4580078125,-0.0810546875,-0.166015625,0.7003999999999999
-0.549618320610687,2.2290076335877864,-1.450381679389313,-0.461669921875,-0.079833984375,-0.168701171875,0.7021
-0.42748091603053434,2.3053435114503817,-1.2213740458015268,-0.4580078125,-0.080078125,-0.170654296875,0.7038
-0.42748091603053434,2.3053435114503817,-1.5114503816793894,-0.45703125,-0.0810546875,-0.158203125,0.7055
-0.22900763358778625,2.3053435114503817,-1.4809160305343512,-0.459228515625,-0.077880859375,-0.17138671875,0.7071999999999999
-0.3816793893129771,2.366412213740458,-1.5572519083969465,-0.456787109375,-0.08154296875,-0.16162109375,0.7089
-0.33587786259541985,2.015267175572519,-1.297709923664122,-0.45458984375,-0.078857421875,-0.159912109375,0.7106
-0.33587786259541985,1.8778625954198473,-1.6641221374045803,-0.457763671875,-0.0810546875,-0.1689453125,0.7122999999999999
-0.15267175572519084,1.8473282442748091,-1.7709923664122138,-0.45556640625,-0.082275390625,-0.16796875,0.714
-0.24427480916030533,1.9389312977099236,-1.633587786259542,-0.456787109375,-0.08544921875,-0.17236328125,0.7157
-0.2595419847328244,2.0610687022900764,-1.465648854961832,-0.45947265625,-0.07958984375,-0.1650390625,0.7173999999999999
-0.4122137404580153,2.0,-1.8625954198473282,-0.45849609375,-0.079833984375,-0.161865234375,0.7191
-0.4732824427480916,1.618320610687023,-1.618320610687023,-0.4619140625,-0.076904296875,-0.15771484375,0.7208
-0.6106870229007634,1.8625954198473282,-1.83206106870229,-0.4560546875,-0.083251953125,-0.172119140625,0.7224999999999999
-0.4580152671755725,1.8015267175572518,-1.3893129770992367,-0.45751953125,-0.083740234375,-0.172607421875,0.7242
-0.6259541984732825,1.6946564885496183,-1.6488549618320612,-0.4580078125,-0.07666015625,-0.163818359375,0.7259
-0.549618320610687,1.816793893129771,-1.5572519083969465,-0.460205078125,-0.080322265625,-0.166748046875,0.7275999999999999
-0.6870229007633588,1.8778625954198473,-1.5572519083969465,-0.458740234375,-0.08349609375,-0.168212890625,0.7293
-0.8244274809160306,1.7709923664122138,-1.6030534351145038,-0.45849609375,-0.07861328125,-0.16650390625,0.731
-1.0229007633587786,1.8015267175572518,-1.786259541984733,-0.45751953125,-0.07763671875,-0.166015625,0.7326999999999999
-0.9923664122137404,2.030534351145038,-1.4961832061068703,-0.45849609375,-0.08251953125,-0.169921875,0.7343999999999999
-1.251908396946565,1.83206106870229,-1.6946564885496183,-0.461181640625,-0.081787109375,-0.160400390625,0.7361
-1.251908396946565,1.9541984732824427,-1.5419847328244274,-0.459716796875,-0.08251953125,-0.157470703125,0.7378
-1.1145038167938932,1.7557251908396947,-1.618320610687023,-0.456298828125,-0.080078125,-0.162353515625,0.7394999999999999
-1.099236641221374,1.6488549618320612,-1.4351145038167938,-0.45654296875,-0.080322265625,-0.168701171875,0.7412
-1.282442748091603,1.8015267175572518,-1.5267175572519085,-0.4560546875,-0.078369140625,-0.160400390625,0.7429
-1.3129770992366412,1.7709923664122138,-1.465648854961832,-0.45947265625,-0.080078125,-0.16748046875,0.7445999999999999
-1.3435114503816794,1.816793893129771,-1.5267175572519085,-0.454345703125,-0.08349609375,-0.168701171875,0.7463
-1.1755725190839694,1.83206106870229,-1.3893129770992367,-0.461669921875,-0.08154296875,-0.158935546875,0.748
-1.1450381679389312,1.7251908396946565,-1.6488549618320612,-0.458740234375,-0.0810546875,-0.1640625,0.7496999999999999
-1.083969465648855,1.618320610687023,-1.4198473282442747,-0.457275390625,-0.0810546875,-0.162109375,0.7514
-1.0687022900763359,1.7557251908396947,-1.4961832061068703,-0.4560546875,-0.081298828125,-0.1591796875,0.7531
-0.9618320610687023,1.6946564885496183,-1.4351145038167938,-0.45068359375,-0.08740234375,-0.169677734375,0.7547999999999999
-0.6717557251908397,1.5267175572519085,-1.6641221374045803,-0.461181640625,-0.084228515625,-0.161376953125,0.7565
-0.5954198473282443,1.7709923664122138,-1.5419847328244274,-0.461669921875,-0.085693359375,-0.1650390625,0.7582
-0.5343511450381679,1.6641221374045803,-1.5877862595419847,-0.45703125,-0.083251953125,-0.171875,0.7598999999999999
-0.366412213740458,1.7404580152671756,-1.7709923664122138,-0.462890625,-0.0830078125,-0.16845703125,0.7615999999999999
-0.6412213740458015,1.8015267175572518,-1.7709923664122138,-0.45703125,-0.081787109375,-0.171875,0.7633
-0.6564885496183206,1.7557251908396947,-1.6946564885496183,-0.46240234375,-0.084716796875,-0.16943359375,0.7649999999999999
-0.3511450381679389,1.633587786259542,-1.8625954198473282,-0.454833984375,-0.08251953125,-0.16845703125,0.7666999999999999
-0.48854961832061067,1.6030534351145038,-1.7404580152671756,-0.455810546875,-0.077392578125,-0.16650390625,0.7684
-0.7786259541984732,1.5572519083969465,-1.786259541984733,-0.455810546875,-0.078857421875,-0.166259765625,0.7701
-0.8396946564885496,1.5419847328244274,-1.618320610687023,-0.4580078125,-0.08203125,-0.176025390625,0.7717999999999999
-0.9465648854961832,1.6030534351145038,-1.6641221374045803,-0.456298828125,-0.080322265625,-0.16650390625,0.7735
-0.916030534351145,1.5267175572519085,-1.6030534351145038,-0.459228515625,-0.080810546875,-0.16259765625,0.7752
-0.9007633587786259,1.4351145038167938,-1.7099236641221374,-0.45654296875,-0.078125,-0.166015625,0.7768999999999999
-0.9312977099236641,1.5572519083969465,-1.6030534351145038,-0.454345703125,-0.08251953125,-0.1630859375,0.7786
-0.916030534351145,1.5267175572519085,-1.618320610687023,-0.46337890625,-0.076904296875,-0.17431640625,0.7803
-0.9618320610687023,1.4351145038167938,-1.5114503816793894,-0.458251953125,-0.079345703125,-0.163818359375,0.7819999999999999
-0.9007633587786259,1.3282442748091603,-1.4809160305343512,-0.462646484375,-0.08056640625,-0.15478515625,0.7837
-0.916030534351145,1.5572519083969465,-1.3435114503816794,-0.45947265625,-0.07958984375,-0.169921875,0.7854
-0.7022900763358778,1.633587786259542,-1.297709923664122,-0.459716796875,-0.077392578125,-0.171142578125,0.7870999999999999
-0.6717557251908397,1.633587786259542,-1.297709923664122,-0.461181640625,-0.0771484375,-0.164794921875,0.7888
-0.6412213740458015,1.5114503816793894,-1.4045801526717556,-0.456787109375,-0.0771484375,-0.166748046875,0.7905
-0.6717557251908397,1.6488549618320612,-1.251908396946565,-0.4560546875,-0.0732421875,-0.172119140625,0.7921999999999999
-0.5954198473282443,1.633587786259542,-1.282442748091603,-0.45654296875,-0.08056640625,-0.17138671875,0.7938999999999999
-0.7633587786259542,1.6946564885496183,-1.3282442748091603,-0.450439453125,-0.08056640625,-0.170166015625,0.7956
-0.549618320610687,1.6641221374045803,-1.4198473282442747,-0.4599609375,-0.080322265625,-0.166259765625,0.7973
-0.8091603053435115,1.5877862595419847,-1.297709923664122,-0.453857421875,-0.078369140625,-0.166015625,0.7989999999999999
-0.6412213740458015,1.7557251908396947,-1.3587786259541985,-0.454345703125,-0.078125,-0.159423828125,0.8007
-0.8549618320610687,1.633587786259542,-1.1908396946564885,-0.452880859375,-0.08154296875,-0.16748046875,0.8024
-0.8396946564885496,1.4045801526717556,-1.5419847328244274,-0.457763671875,-0.083251953125,-0.16796875,0.8040999999999999
-0.6717557251908397,1.3893129770992367,-1.3893129770992367,-0.454833984375,-0.083251953125,-0.161376953125,0.8058
-0.7175572519083969,1.3587786259541985,-1.3587786259541985,-0.45703125,-0.072509765625,-0.17138671875,0.8075
-0.9007633587786259,1.2213740458015268,-1.3587786259541985,-0.457763671875,-0.075927734375,-0.16748046875,0.8091999999999999
-1.0687022900763359,1.1145038167938932,-1.2671755725190839,-0.45361328125,-0.080078125,-0.1669921875,0.8109
-0.9465648854961832,1.0687022900763359,-1.3587786259541985,-0.45361328125,-0.076904296875,-0.15966796875,0.8126
-1.1145038167938932,1.1297709923664123,-1.3893129770992367,-0.453857421875,-0.079833984375,-0.159912109375,0.8142999999999999
-1.2366412213740459,1.1145038167938932,-1.633587786259542,-0.453125,-0.078369140625,-0.16015625,0.816
-1.2061068702290076,1.0534351145038168,-1.3129770992366412,-0.452880859375,-0.077880859375,-0.16650390625,0.8177
-1.1297709923664123,0.9770992366412213,-1.282442748091603,-0.452880859375,-0.075927734375,-0.16650390625,0.8193999999999999
-1.083969465648855,0.9770992366412213,-1.5572519083969465,-0.45458984375,-0.082763671875,-0.1552734375,0.8210999999999999
-0.9618320610687023,0.8396946564885496,-1.3893129770992367,-0.454833984375,-0.081787109375,-0.170166015625,0.8228
-0.9618320610687023,1.2366412213740459,-1.3435114503816794,-0.456298828125,-0.077392578125,-0.17138671875,0.8244999999999999
-0.9312977099236641,1.1755725190839694,-1.618320610687023,-0.4560546875,-0.078369140625,-0.159423828125,0.8261999999999999
-0.9923664122137404,1.2213740458015268,-1.618320610687023,-0.4599609375,-0.078369140625,-0.16259765625,0.8279
-1.0687022900763359,0.9923664122137404,-1.618320610687023,-0.458984375,-0.073486328125,-0.168701171875,0.8296
-1.083969465648855,1.297709923664122,-1.6793893129770991,-0.4580078125,-0.07763671875,-0.173828125,0.8312999999999999
-1.0381679389312977,1.4809160305343512,-1.7557251908396947,-0.452880859375,-0.085693359375,-0.175537109375,0.833
-1.1145038167938932,1.465648854961832,-1.5877862595419847,-0.451416015625,-0.0810546875,-0.17041015625,0.8347
-1.1908396946564885,1.4045801526717556,-1.6793893129770991,-0.4580078125,-0.07421875,-0.16796875,0.8363999999999999
-0.916030534351145,1.4809160305343512,-1.633587786259542,-0.46240234375,-0.080078125,-0.162353515625,0.8381
-0.9007633587786259,1.5572519083969465,-1.5877862595419847,-0.4560546875,-0.08203125,-0.173828125,0.8398
-0.7938931297709924,1.786259541984733,-1.3893129770992367,-0.458251953125,-0.082275390625,-0.171875,0.8414999999999999
-0.9312977099236641,1.786259541984733,-1.6488549618320612,-0.462158203125,-0.08203125,-0.16162109375,0.8432
-0.7786259541984732,1.9389312977099236,-1.5114503816793894,-0.45947265625,-0.08447265625,-0.164794921875,0.8449
-0.5954198473282443,1.816793893129771,-1.5419847328244274,-0.45703125,-0.07666015625,-0.169921875,0.8465999999999999
-0.6259541984732825,1.7099236641221374,-1.6793893129770991,-0.458740234375,-0.08056640625,-0.169677734375,0.8482999999999999
-0.4122137404580153,1.7404580152671756,-1.5114503816793894,-0.457763671875,-0.07958984375,-0.1787109375,0.85
0.030534351145038167,1.8931297709923665,-1.4809160305343512,-0.4599609375,-0.07861328125,-0.1630859375,0.8516999999999999
0.07633587786259542,1.984732824427481,-1.6488549618320612,-0.457763671875,-0.081787109375,-0.16357421875,0.8533999999999999
0.16793893129770993,1.8778625954198473,-1.4961832061068703,-0.45849609375,-0.081298828125,-0.166015625,0.8551
0.21374045801526717,1.8778625954198473,-1.6641221374045803,-0.455810546875,-0.075439453125,-0.167724609375,0.8568
0.48854961832061067,1.786259541984733,-1.7251908396946565,-0.461181640625,-0.083740234375,-0.170166015625,0.8584999999999999
0.42748091603053434,1.984732824427481,-1.786259541984733,-0.45751953125,-0.079833984375,-0.17529296875,0.8602
0.8091603053435115,2.0610687022900764,-1.8473282442748091,-0.458251953125,-0.073974609375,-0.166748046875,0.8619
0.8091603053435115,1.7709923664122138,-1.8931297709923665,-0.454833984375,-0.076904296875,-0.173095703125,0.8635999999999999
0.6564885496183206,1.8778625954198473,-1.8473282442748091,-0.45263671875,-0.0771484375,-0.162109375,0.8653
0.732824427480916,1.816793893129771,-1.9236641221374047,-0.4580078125,-0.07763671875,-0.164794921875,0.867
0.8396946564885496,1.8015267175572518,-1.8931297709923665,-0.454833984375,-0.077392578125,-0.16796875,0.8686999999999999
0.9007633587786259,1.7404580152671756,-1.8473282442748091,-0.458740234375,-0.076904296875,-0.16455078125,0.8704
0.9007633587786259,1.633587786259542,-1.83206106870229,-0.459716796875,-0.073974609375,-0.169677734375,0.8721
0.7633587786259542,1.6488549618320612,-2.015267175572519,-0.460205078125,-0.0791015625,-0.160400390625,0.8737999999999999
0.6106870229007634,1.7557251908396947,-1.8778625954198473,-0.453857421875,-0.08349609375,-0.17431640625,0.8755
0.5648854961832062,1.633587786259542,-1.8015267175572518,-0.457275390625,-0.079833984375,-0.166748046875,0.8772
0.6106870229007634,1.5725190839694656,-1.8625954198473282,-0.45654296875,-0.08447265625,-0.157470703125,0.8788999999999999
0.48854961832061067,1.6793893129770991,-1.8931297709923665,-0.457275390625,-0.0771484375,-0.1630859375,0.8805999999999999
0.48854961832061067,1.7557251908396947,-1.83206106870229,-0.455810546875,-0.076904296875,-0.16455078125,0.8823
0.4122137404580153,1.7099236641221374,-1.7404580152671756,-0.455322265625,-0.077880859375,-0.15966796875,0.8839999999999999
0.15267175572519084,1.7099236641221374,-1.8015267175572518,-0.45751953125,-0.07470703125,-0.167724609375,0.8856999999999999
0.32061068702290074,1.7709923664122138,-1.7099236641221374,-0.4580078125,-0.077392578125,-0.164794921875,0.8874
0.3816793893129771,1.7709923664122138,-1.5419847328244274,-0.460205078125,-0.080078125,-0.167236328125,0.8891
0.3816793893129771,1.7709923664122138,-1.4961832061068703,-0.4580078125,-0.077880859375,-0.168212890625,0.8907999999999999
0.6259541984732825,2.0,-1.4961832061068703,-0.458740234375,-0.074951171875,-0.168701171875,0.8925
0.5801526717557252,1.8015267175572518,-1.4961832061068703,-0.457763671875,-0.076416015625,-0.165771484375,0.8942
0.6259541984732825,1.7251908396946565,-1.4809160305343512,-0.4619140625,-0.076904296875,-0.16650390625,0.8958999999999999
0.7786259541984732,1.8473282442748091,-1.465648854961832,-0.458984375,-0.081787109375,-0.172119140625,0.8976
0.8854961832061069,1.816793893129771,-1.3129770992366412,-0.461669921875,-0.076416015625,-0.16015625,0.8993
0.9007633587786259,1.8473282442748091,-1.465648854961832,-0.462158203125,-0.082763671875,-0.1611328125,0.9009999999999999
0.8854961832061069,1.9389312977099236,-1.4809160305343512,-0.4560546875,-0.080810546875,-0.17138671875,0.9027
0.7022900763358778,1.816793893129771,-1.5114503816793894,-0.459716796875,-0.08349609375,-0.16650390625,0.9044
0.7480916030534351,1.7557251908396947,-1.4961832061068703,-0.4599609375,-0.0771484375,-0.166259765625,0.9060999999999999
0.6564885496183206,1.6488549618320612,-1.4351145038167938,-0.46240234375,-0.07763671875,-0.170654296875,0.9077999999999999
0.48854961832061067,1.7251908396946565,-1.4045801526717556,-0.455322265625,-0.077880859375,-0.171875,0.9095
0.5954198473282443,1.6793893129770991,-1.633587786259542,-0.4580078125,-0.082763671875,-0.18115234375,0.9111999999999999
0.8244274809160306,1.6946564885496183,-1.3893129770992367,-0.459228515625,-0.0859375,-0.171875,0.9128999999999999
0.7938931297709924,1.7404580152671756,-1.3435114503816794,-0.458251953125,-0.081298828125,-0.16748046875,0.9146
0.32061068702290074,1.6488549618320612,-1.3587786259541985,-0.45849609375,-0.083740234375,-0.16650390625,0.9163
0.4122137404580153,1.6488549618320612,-1.3893129770992367,-0.4619140625,-0.082763671875,-0.17138671875,0.9179999999999999
0.32061068702290074,1.5419847328244274,-1.3129770992366412,-0.460205078125,-0.080810546875,-0.1708984375,0.9197
0.6106870229007634,1.6946564885496183,-1.6030534351145038,-0.454345703125,-0.083251953125,-0.167236328125,0.9214
0.48854961832061067,1.8931297709923665,-1.6488549618320612,-0.458251953125,-0.080810546875,-0.166259765625,0.9230999999999999
0.061068702290076333,1.6641221374045803,-1.6641221374045803,-0.46435546875,-0.078857421875,-0.168212890625,0.9248
0.015267175572519083,1.83206106870229,-1.5419847328244274,-0.4609375,-0.08349609375,-0.164794921875,0.9265
0.15267175572519084,1.8625954198473282,-1.7404580152671756,-0.458984375,-0.08447265625,-0.170166015625,0.9281999999999999
0.16793893129770993,1.6793893129770991,-1.6488549618320612,-0.46533203125,-0.084228515625,-0.171142578125,0.9299
0.030534351145038167,1.7404580152671756,-1.5877862595419847,-0.461181640625,-0.079833984375,-0.163818359375,0.9316
0.015267175572519083,2.030534351145038,-1.282442748091603,-0.458251953125,-0.080078125,-0.161376953125,0.9332999999999999
-0.030534351145038167,1.9389312977099236,-1.5419847328244274,-0.45556640625,-0.080810546875,-0.169921875,0.9349999999999999
-0.10687022900763359,1.9083969465648856,-1.5267175572519085,-0.462890625,-0.08154296875,-0.17138671875,0.9367
0.07633587786259542,1.9389312977099236,-1.3282442748091603,-0.45703125,-0.0791015625,-0.1689453125,0.9383999999999999
-0.061068702290076333,1.9389312977099236,-1.3740458015267176,-0.458740234375,-0.081298828125,-0.165771484375,0.9400999999999999
0.16793893129770993,1.9389312977099236,-1.5419847328244274,-0.455322265625,-0.07861328125,-0.168212890625,0.9418
0.0916030534351145,2.030534351145038,-1.5725190839694656,-0.45654296875,-0.07763671875,-0.169189453125,0.9434999999999999
0.1984732824427481,1.8625954198473282,-1.4809160305343512,-0.456298828125,-0.0771484375,-0.16845703125,0.9451999999999999
0.21374045801526717,1.7251908396946565,-1.4351145038167938,-0.455078125,-0.080078125,-0.1640625,0.9469
0.366412213740458,1.984732824427481,-1.450381679389313,-0.45556640625,-0.080078125,-0.1669921875,0.9486
0.2900763358778626,1.9389312977099236,-1.5267175572519085,-0.456298828125,-0.078369140625,-0.169189453125,0.9502999999999999
0.33587786259541985,1.7557251908396947,-1.4045801526717556,-0.45654296875,-0.083251953125,-0.163330078125,0.952
0.549618320610687,1.8778625954198473,-1.3740458015267176,-0.4599609375,-0.0771484375,-0.172607421875,0.9537
0.4122137404580153,1.786259541984733,-1.5877862595419847,-0.456787109375,-0.075927734375,-0.1748046875,0.9553999999999999
0.6259541984732825,1.9541984732824427,-1.4961832061068703,-0.45703125,-0.078369140625,-0.1728515625,0.9571
0.5801526717557252,1.8625954198473282,-1.7709923664122138,-0.458984375,-0.078369140625,-0.1630859375,0.9588
0.4580152671755725,1.8778625954198473,-1.6030534351145038,-0.4541015625,-0.077880859375,-0.165771484375,0.9604999999999999
0.48854961832061067,1.7251908396946565,-1.450381679389313,-0.453125,-0.076416015625,-0.16748046875,0.9621999999999999
0.5954198473282443,2.030534351145038,-1.3587786259541985,-0.449951171875,-0.080810546875,-0.164794921875,0.9639
0.8549618320610687,1.9083969465648856,-1.5114503816793894,-0.4580078125,-0.077880859375,-0.175048828125,0.9655999999999999
0.7633587786259542,1.83206106870229,-1.3435114503816794,-0.45751953125,-0.07763671875,-0.176513671875,0.9672999999999999
0.8396946564885496,1.9541984732824427,-1.5419847328244274,-0.457275390625,-0.07470703125,-0.166259765625,0.969
0.8244274809160306,1.6793893129770991,-1.465648854961832,-0.45703125,-0.080810546875,-0.17041015625,0.9706999999999999
0.9923664122137404,1.9541984732824427,-1.4045801526717556,-0.457275390625,-0.082275390625,-0.169189453125,0.9723999999999999
0.8396946564885496,1.9236641221374047,-1.3282442748091603,-0.453369140625,-0.076171875,-0.161376953125,0.9741
1.1603053435114503,1.8015267175572518,-1.3740458015267176,-0.454833984375,-0.07861328125,-0.16845703125,0.9758
1.2671755725190839,1.8015267175572518,-1.4045801526717556,-0.45751953125,-0.083251953125,-0.164794921875,0.9774999999999999
1.3435114503816794,1.8473282442748091,-1.4045801526717556,-0.45556640625,-0.084716796875,-0.174560546875,0.9792
1.1755725190839694,1.9083969465648856,-1.2366412213740459,-0.454345703125,-0.0791015625,-0.172607421875,0.9809
1.0381679389312977,1.816793893129771,-1.4351145038167938,-0.450439453125,-0.078125,-0.168701171875,0.9825999999999999
1.2213740458015268,1.984732824427481,-1.297709923664122,-0.45068359375,-0.080810546875,-0.164794921875,0.9843
1.0534351145038168,1.8625954198473282,-1.5114503816793894,-0.455810546875,-0.079345703125,-0.173583984375,0.986
1.2671755725190839,2.0763358778625953,-1.1603053435114503,-0.45556640625,-0.085205078125,-0.169677734375,0.9876999999999999
1.1755725190839694,2.2442748091603053,-1.2061068702290076,-0.4560546875,-0.07958984375,-0.1611328125,0.9894
1.3740458015267176,1.8625954198473282,-1.2366412213740459,-0.45703125,-0.078857421875,-0.17724609375,0.9911
1.0076335877862594,2.0916030534351147,-1.3587786259541985,-0.451904296875,-0.077880859375,-0.17333984375,0.9927999999999999
1.0229007633587786,1.9389312977099236,-1.297709923664122,-0.45361328125,-0.078369140625,-0.169677734375,0.9944999999999999
0.9770992366412213,2.0610687022900764,-1.4198473282442747,-0.456787109375,-0.079833984375,-0.167724609375,0.9962
0.9770992366412213,2.1068702290076335,-1.251908396946565,-0.4560546875,-0.082275390625,-0.169921875,0.9978999999999999
0.8091603053435115,1.984732824427481,-1.099236641221374,-0.462158203125,-0.077392578125,-0.17431640625,0.9995999999999999
0.8091603053435115,1.7251908396946565,-1.282442748091603,-0.457763671875,-0.084716796875,-0.171630859375,1.0012999999999999
1.0381679389312977,1.8473282442748091,-1.3282442748091603,-0.45703125,-0.07861328125,-0.179931640625,1.003
0.6717557251908397,2.1526717557251906,-1.297709923664122,-0.457763671875,-0.07861328125,-0.171630859375,1.0047
0.9923664122137404,1.9083969465648856,-1.4198473282442747,-0.462158203125,-0.07666015625,-0.16748046875,1.0064
0.916030534351145,1.7099236641221374,-1.5572519083969465,-0.454833984375,-0.080078125,-0.16552734375,1.0081
0.5954198473282443,1.7557251908396947,-1.2671755725190839,-0.458251953125,-0.08154296875,-0.1650390625,1.0098
0.7022900763358778,1.9694656488549618,-1.282442748091603,-0.4619140625,-0.0830078125,-0.17333984375,1.0114999999999998
0.44274809160305345,1.8778625954198473,-1.1297709923664123,-0.456298828125,-0.076171875,-0.164794921875,1.0131999999999999
0.2900763358778626,1.8931297709923665,-1.465648854961832,-0.458740234375,-0.08203125,-0.17236328125,1.0149
0.6412213740458015,1.6946564885496183,-1.5419847328244274,-0.46142578125,-0.082275390625,-0.16259765625,1.0166
0.5648854961832062,1.7404580152671756,-1.2671755725190839,-0.46240234375,-0.080810546875,-0.159912109375,1.0183
0.3511450381679389,1.9389312977099236,-1.4351145038167938,-0.46142578125,-0.079833984375,-0.16845703125,1.02
0.44274809160305345,1.9083969465648856,-1.5725190839694656,-0.464111328125,-0.08447265625,-0.17431640625,1.0217
0.48854961832061067,1.7251908396946565,-1.4809160305343512,-0.45849609375,-0.08447265625,-0.1796875,1.0233999999999999
0.5801526717557252,1.83206106870229,-1.6030534351145038,-0.456787109375,-0.081298828125,-0.165283203125,1.0251
0.5954198473282443,1.9083969465648856,-1.4961832061068703,-0.46142578125,-0.078857421875,-0.164306640625,1.0268
0.5954198473282443,1.9083969465648856,-1.4198473282442747,-0.458984375,-0.079345703125,-0.162841796875,1.0285
0.6412213740458015,1.9236641221374047,-1.6793893129770991,-0.458984375,-0.0791015625,-0.170654296875,1.0302
0.6870229007633588,2.1526717557251906,-1.4351145038167938,-0.459228515625,-0.08203125,-0.16015625,1.0319
0.5801526717557252,2.122137404580153,-1.4809160305343512,-0.458740234375,-0.077392578125,-0.1611328125,1.0335999999999999
0.8702290076335878,2.045801526717557,-1.450381679389313,-0.457763671875,-0.077392578125,-0.161376953125,1.0352999999999999
0.7938931297709924,1.5877862595419847,-1.0229007633587786,-0.4541015625,-0.084228515625,-0.165771484375,1.037
0.8244274809160306,1.8931297709923665,-1.3893129770992367,-0.452392578125,-0.074462890625,-0.156494140625,1.0387
0.7480916030534351,1.8625954198473282,-1.3282442748091603,-0.45263671875,-0.07568359375,-0.1640625,1.0404
0.732824427480916,1.83206106870229,-1.3587786259541985,-0.454345703125,-0.073974609375,-0.166015625,1.0421
1.083969465648855,1.5725190839694656,-1.3587786259541985,-0.45703125,-0.077880859375,-0.166015625,1.0437999999999998
0.9923664122137404,1.7251908396946565,-1.1603053435114503,-0.458740234375,-0.078125,-0.164306640625,1.0454999999999999
0.7938931297709924,1.8473282442748091,-1.3893129770992367,-0.451416015625,-0.0751953125,-0.163818359375,1.0472
1.0687022900763359,1.6793893129770991,-1.3740458015267176,-0.451416015625,-0.077392578125,-0.169677734375,1.0489
1.2671755725190839,1.5572519083969465,-1.3740458015267176,-0.456298828125,-0.072998046875,-0.163818359375,1.0506
0.9923664122137404,1.4351145038167938,-1.1450381679389312,-0.455322265625,-0.07568359375,-0.162841796875,1.0523
1.099236641221374,1.3740458015267176,-1.2671755725190839,-0.45458984375,-0.0869140625,-0.169921875,1.054
1.1145038167938932,1.6488549618320612,-1.3740458015267176,-0.456787109375,-0.076171875,-0.16259765625,1.0556999999999999
0.9618320610687023,1.5267175572519085,-1.1908396946564885,-0.454833984375,-0.07421875,-0.16064453125,1.0574
1.282442748091603,1.5572519083969465,-1.2213740458015268,-0.457275390625,-0.076171875,-0.163818359375,1.0591
1.251908396946565,1.3435114503816794,-1.2213740458015268,-0.453125,-0.080322265625,-0.168701171875,1.0608
1.282442748091603,1.4351145038167938,-1.2213740458015268,-0.45556640625,-0.077392578125,-0.17041015625,1.0625
1.3435114503816794,1.5725190839694656,-0.9312977099236641,-0.451904296875,-0.074951171875,-0.165283203125,1.0642
1.2671755725190839,1.633587786259542,-1.2061068702290076,-0.455078125,-0.0751953125,-0.16796875,1.0658999999999998
1.282442748091603,1.6488549618320612,-0.8702290076335878,-0.456298828125,-0.075927734375,-0.1611328125,1.0675999999999999
1.3282442748091603,1.5114503816793894,-0.9465648854961832,-0.4541015625,-0.07958984375,-0.169677734375,1.0693
1.450381679389313,1.5725190839694656,-0.9618320610687023,-0.45361328125,-0.076416015625,-0.162353515625,1.071
1.3587786259541985,1.8473282442748091,-1.1145038167938932,-0.45458984375,-0.0810546875,-0.158447265625,1.0727
1.618320610687023,1.7251908396946565,-1.0229007633587786,-0.461669921875,-0.076171875,-0.164306640625,1.0744
1.5114503816793894,1.5877862595419847,-1.0687022900763359,-0.452880859375,-0.080322265625,-0.16015625,1.0760999999999998
1.4961832061068703,1.786259541984733,-0.9312977099236641,-0.45458984375,-0.083984375,-0.1689453125,1.0777999999999999
1.8473282442748091,1.7557251908396947,-1.0076335877862594,-0.45703125,-0.081298828125,-0.16845703125,1.0795
1.9083969465648856,1.6946564885496183,-0.7633587786259542,-0.456787109375,-0.080078125,-0.166748046875,1.0812
1.83206106870229,1.8625954198473282,-0.8396946564885496,-0.454833984375,-0.0791015625,-0.172607421875,1.0829
1.633587786259542,1.9389312977099236,-0.9770992366412213,-0.458251953125,-0.0810546875,-0.17822265625,1.0846
1.9541984732824427,1.786259541984733,-0.9312977099236641,-0.458740234375,-0.07666015625,-0.169921875,1.0863
2.0,1.5419847328244274,-0.9312977099236641,-0.45751953125,-0.080322265625,-0.16259765625,1.0879999999999999
1.8625954198473282,1.618320610687023,-0.9770992366412213,-0.458984375,-0.07861328125,-0.158935546875,1.0897
1.5114503816793894,1.6488549618320612,-0.8396946564885496,-0.45751953125,-0.083984375,-0.1708984375,1.0914
1.6641221374045803,1.5725190839694656,-0.9312977099236641,-0.459228515625,-0.081298828125,-0.1689453125,1.0931
1.5725190839694656,1.618320610687023,-0.916030534351145,-0.45703125,-0.079345703125,-0.17431640625,1.0948
1.5114503816793894,1.5725190839694656,-0.9007633587786259,-0.45458984375,-0.078369140625,-0.172119140625,1.0965
1.450381679389313,1.4351145038167938,-1.0687022900763359,-0.455078125,-0.078369140625,-0.17041015625,1.0981999999999998
1.4809160305343512,1.5572519083969465,-1.0076335877862594,-0.4541015625,-0.085205078125,-0.175048828125,1.0998999999999999
1.2671755725190839,1.465648854961832,-0.8854961832061069,-0.452392578125,-0.07958984375,-0.17236328125,1.1016
1.282442748091603,1.3282442748091603,-0.9465648854961832,-0.455810546875,-0.080810546875,-0.160888671875,1.1033
1.2213740458015268,1.618320610687023,-0.8549618320610687,-0.45703125,-0.08154296875,-0.17431640625,1.105
1.083969465648855,1.5419847328244274,-0.9007633587786259,-0.45263671875,-0.07958984375,-0.173828125,1.1067
1.1297709923664123,1.465648854961832,-0.9618320610687023,-0.45947265625,-0.0810546875,-0.170166015625,1.1083999999999998
1.0076335877862594,1.4809160305343512,-0.8244274809160306,-0.458740234375,-0.079345703125,-0.16943359375,1.1100999999999999
1.1297709923664123,1.4198473282442747,-0.8702290076335878,-0.45751953125,-0.083984375,-0.16796875,1.1118
1.1145038167938932,1.5419847328244274,-0.8396946564885496,-0.454345703125,-0.08154296875,-0.174072265625,1.1135
1.0229007633587786,1.7099236641221374,-0.6259541984732825,-0.455078125,-0.082275390625,-0.166748046875,1.1152
0.9923664122137404,1.618320610687023,-0.8091603053435115,-0.454345703125,-0.0859375,-0.171875,1.1169
1.0229007633587786,1.6946564885496183,-0.6870229007633588,-0.45361328125,-0.07861328125,-0.173583984375,1.1186
0.8854961832061069,1.7557251908396947,-0.9923664122137404,-0.451904296875,-0.08203125,-0.177001953125,1.1202999999999999
0.7786259541984732,1.618320610687023,-0.6412213740458015,-0.45849609375,-0.080322265625,-0.162841796875,1.1219999999999999
0.732824427480916,1.8931297709923665,-0.8244274809160306,-0.456787109375,-0.078857421875,-0.157470703125,1.1237
0.9007633587786259,1.7251908396946565,-0.7633587786259542,-0.45703125,-0.08447265625,-0.16259765625,1.1254
0.7938931297709924,1.9083969465648856,-0.7175572519083969,-0.4521484375,-0.082275390625,-0.163818359375,1.1271
0.549618320610687,1.8015267175572518,-0.7786259541984732,-0.454345703125,-0.08349609375,-0.162109375,1.1288
0.6870229007633588,1.5725190839694656,-1.099236641221374,-0.4541015625,-0.080810546875,-0.1572265625,1.1304999999999998
0.5038167938931297,1.9694656488549618,-0.7175572519083969,-0.453125,-0.088134765625,-0.152099609375,1.1321999999999999
0.3511450381679389,1.7099236641221374,-0.8244274809160306,-0.450927734375,-0.080322265625,-0.16748046875,1.1339
0.6106870229007634,1.5267175572519085,-1.0229007633587786,-0.45458984375,-0.0810546875,-0.164794921875,1.1356
0.33587786259541985,1.4351145038167938,-0.7786259541984732,-0.4521484375,-0.08056640625,-0.170166015625,1.1373
0.42748091603053434,1.4351145038167938,-0.7938931297709924,-0.455810546875,-0.078369140625,-0.173828125,1.139
0.5190839694656488,1.1297709923664123,-0.8702290076335878,-0.4521484375,-0.079833984375,-0.168212890625,1.1407
0.3816793893129771,0.8854961832061069,-0.7633587786259542,-0.451171875,-0.080810546875,-0.170166015625,1.1423999999999999
0.24427480916030533,0.8702290076335878,-0.9770992366412213,-0.456787109375,-0.0810546875,-0.161376953125,1.1441
0.4122137404580153,1.1450381679389312,-0.7633587786259542,-0.45361328125,-0.083984375,-0.157958984375,1.1458
0.030534351145038167,0.8396946564885496,-0.8091603053435115,-0.454345703125,-0.0771484375,-0.16259765625,1.1475
0.04580152671755725,0.732824427480916,-0.8244274809160306,-0.453125,-0.08056640625,-0.16357421875,1.1492
0.04580152671755725,0.6259541984732825,-0.8854961832061069,-0.459716796875,-0.079833984375,-0.170166015625,1.1509
-0.030534351145038167,0.6412213740458015,-0.7633587786259542,-0.460205078125,-0.07763671875,-0.16552734375,1.1525999999999998
-0.0916030534351145,0.5648854961832062,-0.7633587786259542,-0.458984375,-0.078857421875,-0.16943359375,1.1542999999999999
0.015267175572519083,0.549618320610687,-0.7480916030534351,-0.456298828125,-0.08203125,-0.161865234375,1.156
0.16793893129770993,0.6870229007633588,-0.916030534351145,-0.456787109375,-0.080322265625,-0.15771484375,1.1577
0.07633587786259542,0.5801526717557252,-0.5954198473282443,-0.46044921875,-0.07666015625,-0.1650390625,1.1594
0.04580152671755725,0.6106870229007634,-0.8549618320610687,-0.460693359375,-0.081787109375,-0.169189453125,1.1611
-0.1984732824427481,0.6717557251908397,-0.6717557251908397,-0.461181640625,-0.08447265625,-0.171142578125,1.1627999999999998
-0.13740458015267176,0.8244274809160306,-0.8244274809160306,-0.456298828125,-0.078125,-0.17236328125,1.1644999999999999
0.015267175572519083,0.8244274809160306,-0.6564885496183206,-0.457763671875,-0.082275390625,-0.17822265625,1.1662
0.015267175572519083,0.7022900763358778,-0.7175572519083969,-0.45166015625,-0.083251953125,-0.16796875,1.1679
-0.12213740458015267,0.7175572519083969,-0.7633587786259542,-0.4599609375,-0.08154296875,-0.17041015625,1.1696
0.04580152671755725,0.916030534351145,-0.9770992366412213,-0.46337890625,-0.079345703125,-0.164794921875,1.1713
0.16793893129770993,0.8702290076335878,-0.8854961832061069,-0.4580078125,-0.081787109375,-0.16162109375,1.173
0.21374045801526717,0.8091603053435115,-0.8091603053435115,-0.461669921875,-0.08447265625,-0.1728515625,1.1746999999999999
0.42748091603053434,0.9312977099236641,-0.9312977099236641,-0.458251953125,-0.076416015625,-0.169677734375,1.1764
0.21374045801526717,0.9923664122137404,-0.916030534351145,-0.459716796875,-0.077392578125,-0.1728515625,1.1781
0.3511450381679389,1.0076335877862594,-1.0381679389312977,-0.45947265625,-0.076904296875,-0.171142578125,1.1798
0.4580152671755725,1.0229007633587786,-0.7938931297709924,-0.4619140625,-0.07763671875,-0.1767578125,1.1815
0.3969465648854962,0.9465648854961832,-0.7480916030534351,-0.458984375,-0.077392578125,-0.1669921875,1.1832
0.5801526717557252,0.8244274809160306,-0.8091603053435115,-0.458984375,-0.076171875,-0.169677734375,1.1848999999999998
0.732824427480916,0.8854961832061069,-0.6870229007633588,-0.45361328125,-0.08056640625,-0.1669921875,1.1865999999999999
0.8702290076335878,0.8549618320610687,-0.916030534351145,-0.4599609375,-0.078125,-0.166259765625,1.1883
0.8091603053435115,0.7480916030534351,-0.7480916030534351,-0.45947265625,-0.0751953125,-0.1650390625,1.19
0.8244274809160306,0.8549618320610687,-0.8244274809160306,-0.455078125,-0.078369140625,-0.171142578125,1.1917
1.083969465648855,0.7786259541984732,-0.7633587786259542,-0.460205078125,-0.07568359375,-0.172607421875,1.1934
0.916030534351145,0.7175572519083969,-0.5190839694656488,-0.45751953125,-0.074951171875,-0.16455078125,1.1950999999999998
1.099236641221374,0.7022900763358778,-0.7633587786259542,-0.454345703125,-0.06787109375,-0.162109375,1.1967999999999999
1.1297709923664123,0.366412213740458,-0.916030534351145,-0.457275390625,-0.073974609375,-0.1630859375,1.1985
1.1450381679389312,0.5038167938931297,-0.48854961832061067,-0.45263671875,-0.072998046875,-0.157958984375,1.2002
1.1908396946564885,0.6717557251908397,-0.5190839694656488,-0.456787109375,-0.071533203125,-0.161865234375,1.2019
1.0534351145038168,0.5954198473282443,-0.4732824427480916,-0.4560546875,-0.06982421875,-0.1669921875,1.2036
1.2061068702290076,0.5801526717557252,-0.5648854961832062,-0.453369140625,-0.074462890625,-0.1572265625,1.2053
1.3129770992366412,0.7175572519083969,-0.5648854961832062,-0.450927734375,-0.07568359375,-0.163818359375,1.2069999999999999
1.3587786259541985,0.7175572519083969,-0.33587786259541985,-0.45166015625,-0.072998046875,-0.166015625,1.2086999999999999
1.3893129770992367,0.6106870229007634,-0.2900763358778626,-0.456298828125,-0.0712890625,-0.166748046875,1.2104
1.5419847328244274,0.5343511450381679,-0.48854961832061067,-0.453857421875,-0.0693359375,-0.164794921875,1.2121
1.4809160305343512,0.4122137404580153,-0.33587786259541985,-0.45458984375,-0.0751953125,-0.15478515625,1.2138
1.4961832061068703,0.4580152671755725,-0.42748091603053434,-0.4560546875,-0.07470703125,-0.168212890625,1.2155
1.7709923664122138,0.549618320610687,-0.3511450381679389,-0.455078125,-0.070068359375,-0.164794921875,1.2171999999999998
1.3893129770992367,0.5801526717557252,-0.2595419847328244,-0.459228515625,-0.076904296875,-0.166015625,1.2188999999999999
1.4961832061068703,0.5343511450381679,-0.2748091603053435,-0.4501953125,-0.07373046875,-0.1650390625,1.2206
1.786259541984733,0.48854961832061067,-0.183206106870229,-0.451904296875,-0.0751953125,-0.168701171875,1.2223
1.6030534351145038,0.5801526717557252,-0.21374045801526717,-0.456298828125,-0.07421875,-0.16748046875,1.224
1.6030534351145038,0.3511450381679389,-0.4580152671755725,-0.456298828125,-0.078857421875,-0.162109375,1.2257
1.465648854961832,0.5038167938931297,-0.4580152671755725,-0.45458984375,-0.081787109375,-0.165771484375,1.2273999999999998
1.786259541984733,0.549618320610687,-0.3511450381679389,-0.4541015625,-0.076171875,-0.16943359375,1.2290999999999999
1.5572519083969465,0.3969465648854962,-0.32061068702290074,-0.455810546875,-0.084716796875,-0.162109375,1.2308
1.6030534351145038,0.4580152671755725,-0.3816793893129771,-0.454345703125,-0.07958984375,-0.170654296875,1.2325
1.3740458015267176,0.3969465648854962,-0.44274809160305345,-0.451904296875,-0.08203125,-0.173095703125,1.2342
1.3282442748091603,0.5038167938931297,-0.3053435114503817,-0.4521484375,-0.08349609375,-0.17138671875,1.2359
1.3893129770992367,0.42748091603053434,-0.5648854961832062,-0.451171875,-0.07763671875,-0.168701171875,1.2376
1.5114503816793894,0.5801526717557252,-0.48854961832061067,-0.45361328125,-0.079345703125,-0.16015625,1.2392999999999998
1.282442748091603,0.44274809160305345,-0.8702290076335878,-0.453857421875,-0.083740234375,-0.164306640625,1.2409999999999999
1.4045801526717556,0.549618320610687,-0.5648854961832062,-0.455810546875,-0.080322265625,-0.164306640625,1.2427
1.3282442748091603,0.732824427480916,-0.8854961832061069,-0.45458984375,-0.0849609375,-0.16552734375,1.2444
1.633587786259542,0.6564885496183206,-0.8091603053435115,-0.45361328125,-0.081787109375,-0.175537109375,1.2461
1.4809160305343512,0.6106870229007634,-0.9465648854961832,-0.454833984375,-0.085205078125,-0.171630859375,1.2478
1.2671755725190839,0.549618320610687,-0.732824427480916,-0.4521484375,-0.08154296875,-0.164794921875,1.2494999999999998
1.4351145038167938,0.6717557251908397,-0.9465648854961832,-0.45751953125,-0.08447265625,-0.16748046875,1.2511999999999999
1.2366412213740459,0.5648854961832062,-1.0534351145038168,-0.454833984375,-0.08544921875,-0.1650390625,1.2529
1.0687022900763359,0.5648854961832062,-1.0076335877862594,-0.453857421875,-0.086181640625,-0.16162109375,1.2546
1.099236641221374,0.3511450381679389,-0.9312977099236641,-0.453857421875,-0.08447265625,-0.17529296875,1.2563
0.8396946564885496,0.366412213740458,-0.9770992366412213,-0.45703125,-0.082275390625,-0.17431640625,1.258
0.8091603053435115,0.2900763358778626,-1.0229007633587786,-0.452880859375,-0.086181640625,-0.1669921875,1.2596999999999998
0.8854961832061069,0.2595419847328244,-1.1755725190839694,-0.457763671875,-0.082763671875,-0.166259765625,1.2613999999999999
0.8549618320610687,0.3511450381679389,-1.2213740458015268,-0.457763671875,-0.082275390625,-0.16943359375,1.2631
0.8396946564885496,0.2900763358778626,-1.3435114503816794,-0.455322265625,-0.082275390625,-0.169921875,1.2648
0.6259541984732825,0.2595419847328244,-1.4045801526717556,-0.456787109375,-0.085693359375,-0.171875,1.2665
0.44274809160305345,0.07633587786259542,-1.3282442748091603,-0.461181640625,-0.082763671875,-0.165283203125,1.2682
0.7175572519083969,0.1984732824427481,-1.0381679389312977,-0.455322265625,-0.08544921875,-0.17333984375,1.2699
0.3816793893129771,0.21374045801526717,-1.2213740458015268,-0.46240234375,-0.0810546875,-0.163818359375,1.2715999999999998
0.3053435114503817,0.13740458015267176,-1.5267175572519085,-0.454833984375,-0.07861328125,-0.1787109375,1.2732999999999999
0.48854961832061067,0.21374045801526717,-1.4351145038167938,-0.453125,-0.079833984375,-0.172119140625,1.275
0.42748091603053434,0.22900763358778625,-1.1603053435114503,-0.45556640625,-0.08203125,-0.163330078125,1.2767
0.0916030534351145,0.21374045801526717,-1.3740458015267176,-0.45654296875,-0.081298828125,-0.173095703125,1.2784
0.22900763358778625,0.13740458015267176,-1.2213740458015268,-0.45751953125,-0.08447265625,-0.17138671875,1.2801
0.10687022900763359,0.2748091603053435,-1.4198473282442747,-0.46142578125,-0.080322265625,-0.1748046875,1.2817999999999998
0.04580152671755725,0.5038167938931297,-1.2671755725190839,-0.458251953125,-0.078369140625,-0.16357421875,1.2834999999999999
0.12213740458015267,0.3816793893129771,-1.282442748091603,-0.453857421875,-0.081787109375,-0.161376953125,1.2852
0.22900763358778625,0.183206106870229,-1.1297709923664123,-0.458984375,-0.072998046875,-0.16845703125,1.2869
0.1984732824427481,0.2748091603053435,-1.2671755725190839,-0.453125,-0.08056640625,-0.177490234375,1.2886
0.183206106870229,0.4122137404580153,-1.1755725190839694,-0.459228515625,-0.077880859375,-0.165771484375,1.2903
0.15267175572519084,0.44274809160305345,-1.2671755725190839,-0.45947265625,-0.080322265625,-0.16650390625,1.292
0.3053435114503817,0.2900763358778626,-1.1908396946564885,-0.45703125,-0.076416015625,-0.173583984375,1.2936999999999999
0.2900763358778626,0.3053435114503817,-1.4045801526717556,-0.45556640625,-0.077392578125,-0.170166015625,1.2953999999999999
0.2595419847328244,0.04580152671755725,-1.297709923664122,-0.455322265625,-0.076171875,-0.17333984375,1.2971
0.22900763358778625,0.15267175572519084,-1.2671755725190839,-0.455810546875,-0.073974609375,-0.173828125,1.2988
0.3511450381679389,0.1984732824427481,-1.2213740458015268,-0.460693359375,-0.076171875,-0.178955078125,1.3005
0.5648854961832062,0.2900763358778626,-1.2366412213740459,-0.45849609375,-0.076904296875,-0.171142578125,1.3022
0.366412213740458,0.12213740458015267,-1.0076335877862594,-0.4638671875,-0.0771484375,-0.1689453125,1.3038999999999998
0.7480916030534351,0.015267175572519083,-1.1908396946564885,-0.4599609375,-0.07373046875,-0.1630859375,1.3055999999999999
0.8244274809160306,0.13740458015267176,-1.083969465648855,-0.461181640625,-0.076416015625,-0.175537109375,1.3073
0.7022900763358778,0.1984732824427481,-1.2671755725190839,-0.458984375,-0.077880859375,-0.173095703125,1.309
0.6870229007633588,0.15267175572519084,-1.0381679389312977,-0.451416015625,-0.076904296875,-0.157470703125,1.3107
0.3969465648854962,0.3053435114503817,-1.2366412213740459,-0.460205078125,-0.07470703125,-0.172119140625,1.3124
0.7175572519083969,0.24427480916030533,-1.0229007633587786,-0.4560546875,-0.077880859375,-0.163330078125,1.3140999999999998
1.0687022900763359,0.22900763358778625,-0.9923664122137404,-0.463134765625,-0.07373046875,-0.172607421875,1.3157999999999999
0.9312977099236641,0.3969465648854962,-0.9618320610687023,-0.45751953125,-0.074951171875,-0.17626953125,1.3175
0.8854961832061069,0.44274809160305345,-1.1908396946564885,-0.456787109375,-0.07470703125,-0.167724609375,1.3192
0.9770992366412213,0.3511450381679389,-0.7938931297709924,-0.452880859375,-0.07568359375,-0.16796875,1.3209
0.9618320610687023,0.5038167938931297,-1.083969465648855,-0.456298828125,-0.0751953125,-0.16552734375,1.3226
0.7786259541984732,0.3511450381679389,-1.0381679389312977,-0.454833984375,-0.076904296875,-0.17138671875,1.3243
0.8702290076335878,0.0916030534351145,-1.1297709923664123,-0.460693359375,-0.078857421875,-0.175537109375,1.3259999999999998
1.099236641221374,0.183206106870229,-0.916030534351145,-0.461669921875,-0.077392578125,-0.176513671875,1.3276999999999999
1.1908396946564885,0.061068702290076333,-0.8549618320610687,-0.46044921875,-0.078857421875,-0.17236328125,1.3294
0.7175572519083969,0.12213740458015267,-0.8244274809160306,-0.4619140625,-0.0810546875,-0.16748046875,1.3311
0.9923664122137404,-0.21374045801526717,-1.1145038167938932,-0.458251953125,-0.08203125,-0.162109375,1.3328
0.9312977099236641,0.12213740458015267,-0.9312977099236641,-0.459228515625,-0.080078125,-0.16259765625,1.3345
0.9770992366412213,0.061068702290076333,-1.0687022900763359,-0.460693359375,-0.07958984375,-0.167236328125,1.3361999999999998
1.1145038167938932,-0.07633587786259542,-0.9007633587786259,-0.458984375,-0.078369140625,-0.171875,1.3378999999999999
1.1755725190839694,-0.10687022900763359,-0.9923664122137404,-0.45751953125,-0.082763671875,-0.171142578125,1.3396
1.1603053435114503,0.04580152671755725,-1.0229007633587786,-0.4619140625,-0.08349609375,-0.17138671875,1.3413
1.3893129770992367,-0.015267175572519083,-1.1603053435114503,-0.452392578125,-0.077880859375,-0.167724609375,1.343
1.0534351145038168,0.030534351145038167,-1.1145038167938932,-0.45654296875,-0.08154296875,-0.163818359375,1.3447
1.1755725190839694,0.2595419847328244,-1.4351145038167938,-0.453125,-0.07666015625,-0.166748046875,1.3463999999999998
1.1755725190839694,0.32061068702290074,-1.1145038167938932,-0.458251953125,-0.08056640625,-0.160400390625,1.3480999999999999
1.3740458015267176,0.32061068702290074,-1.2213740458015268,-0.46044921875,-0.07470703125,-0.162109375,1.3497999999999999
1.5419847328244274,0.3969465648854962,-1.2366412213740459,-0.45751953125,-0.080078125,-0.1669921875,1.3515
1.3129770992366412,0.5648854961832062,-1.2671755725190839,-0.46240234375,-0.079345703125,-0.170166015625,1.3532
1.816793893129771,0.732824427480916,-1.0229007633587786,-0.45751953125,-0.080322265625,-0.167724609375,1.3549
1.7404580152671756,0.7786259541984732,-1.0229007633587786,-0.453857421875,-0.077392578125,-0.1611328125,1.3566
1.618320610687023,0.732824427480916,-1.2671755725190839,-0.45751953125,-0.07958984375,-0.170654296875,1.3582999999999998
1.618320610687023,0.6870229007633588,-1.1755725190839694,-0.455810546875,-0.076171875,-0.1708984375,1.3599999999999999
1.450381679389313,0.7633587786259542,-1.3282442748091603,-0.458251953125,-0.07666015625,-0.171875,1.3617
1.450381679389313,0.6717557251908397,-1.251908396946565,-0.45703125,-0.07958984375,-0.1611328125,1.3634
1.3740458015267176,0.5954198473282443,-0.916030534351145,-0.450927734375,-0.0791015625,-0.166748046875,1.3651
1.282442748091603,0.5954198473282443,-1.0076335877862594,-0.44921875,-0.078125,-0.172607421875,1.3668
1.7099236641221374,0.6259541984732825,-0.8702290076335878,-0.453369140625,-0.07861328125,-0.160888671875,1.3684999999999998
1.618320610687023,0.5343511450381679,-1.0381679389312977,-0.457275390625,-0.075439453125,-0.158935546875,1.3701999999999999
1.3282442748091603,0.2748091603053435,-0.8396946564885496,-0.462158203125,-0.080078125,-0.1650390625,1.3719
1.3129770992366412,0.366412213740458,-1.0534351145038168,-0.4521484375,-0.081787109375,-0.158447265625,1.3736
1.4351145038167938,0.2900763358778626,-1.0687022900763359,-0.4580078125,-0.07861328125,-0.15869140625,1.3753
1.1603053435114503,0.0916030534351145,-1.083969465648855,-0.460205078125,-0.0810546875,-0.170654296875,1.377
1.297709923664122,0.07633587786259542,-0.8396946564885496,-0.455322265625,-0.082763671875,-0.16796875,1.3786999999999998
1.282442748091603,0.1984732824427481,-0.9618320610687023,-0.459716796875,-0.082275390625,-0.173583984375,1.3803999999999998
1.1297709923664123,0.13740458015267176,-0.916030534351145,-0.452392578125,-0.081298828125,-0.171630859375,1.3820999999999999
1.1755725190839694,0.0,-0.9770992366412213,-0.460205078125,-0.081787109375,-0.1640625,1.3838
1.282442748091603,-0.015267175572519083,-1.0076335877862594,-0.45458984375,-0.076171875,-0.170166015625,1.3855
1.0229007633587786,-0.0916030534351145,-1.0229007633587786,-0.450927734375,-0.080810546875,-0.164306640625,1.3872
0.9618320610687023,-0.030534351145038167,-0.9465648854961832,-0.455810546875,-0.0810546875,-0.17138671875,1.3889
0.9465648854961832,-0.1984732824427481,-0.8549618320610687,-0.4599609375,-0.079833984375,-0.175537109375,1.3905999999999998
0.9312977099236641,-0.030534351145038167,-0.9770992366412213,-0.45849609375,-0.0791015625,-0.176513671875,1.3922999999999999
0.7175572519083969,0.0,-0.8244274809160306,-0.456298828125,-0.08056640625,-0.1708984375,1.394
0.8702290076335878,-0.061068702290076333,-1.0381679389312977,-0.46435546875,-0.081298828125,-0.176513671875,1.3957
0.9618320610687023,-0.015267175572519083,-0.8396946564885496,-0.460693359375,-0.081787109375,-0.176513671875,1.3974
1.1603053435114503,0.15267175572519084,-0.7175572519083969,-0.462890625,-0.076904296875,-0.17919921875,1.3991
0.7938931297709924,0.2595419847328244,-0.6870229007633588,-0.4580078125,-0.08056640625,-0.171875,1.4007999999999998
0.8702290076335878,0.3511450381679389,-0.7022900763358778,-0.458740234375,-0.0791015625,-0.17138671875,1.4024999999999999
0.9618320610687023,0.21374045801526717,-0.9465648854961832,-0.456787109375,-0.0751953125,-0.169677734375,1.4042
0.7786259541984732,0.22900763358778625,-1.0229007633587786,-0.451171875,-0.08056640625,-0.169921875,1.4059
0.9770992366412213,0.2748091603053435,-0.9465648854961832,-0.458984375,-0.074462890625,-0.1767578125,1.4076
0.9312977099236641,0.4580152671755725,-0.7633587786259542,-0.462158203125,-0.0751953125,-0.172119140625,1.4093
1.0687022900763359,0.3969465648854962,-0.732824427480916,-0.4599609375,-0.07861328125,-0.173095703125,1.411
1.0076335877862594,0.12213740458015267,-1.0076335877862594,-0.455078125,-0.07958984375,-0.178466796875,1.4126999999999998
1.0229007633587786,0.4122137404580153,-0.8091603053435115,-0.454833984375,-0.0791015625,-0.171630859375,1.4143999999999999
1.0229007633587786,0.3053435114503817,-0.7480916030534351,-0.4541015625,-0.07666015625,-0.16455078125,1.4161
1.1450381679389312,0.33587786259541985,-0.7786259541984732,-0.46044921875,-0.08544921875,-0.165771484375,1.4178
1.297709923664122,0.2595419847328244,-0.7022900763358778,-0.45947265625,-0.077880859375,-0.166259765625,1.4195
1.1297709923664123,0.2595419847328244,-0.7175572519083969,-0.4560546875,-0.072265625,-0.169189453125,1.4212
1.2366412213740459,0.21374045801526717,-0.5038167938931297,-0.454833984375,-0.074462890625,-0.171875,1.4228999999999998
1.1755725190839694,0.030534351145038167,-0.5954198473282443,-0.45751953125,-0.0732421875,-0.16552734375,1.4245999999999999
1.450381679389313,0.183206106870229,-0.6412213740458015,-0.455810546875,-0.077880859375,-0.163330078125,1.4263
1.2366412213740459,0.183206106870229,-0.6259541984732825,-0.46240234375,-0.079833984375,-0.168212890625,1.428
1.1603053435114503,0.16793893129770993,-0.6412213740458015,-0.456298828125,-0.07421875,-0.160888671875,1.4297
1.3435114503816794,0.0,-0.6412213740458015,-0.452392578125,-0.0751953125,-0.171875,1.4314
1.3587786259541985,-0.061068702290076333,-0.6412213740458015,-0.454833984375,-0.07177734375,-0.1728515625,1.4330999999999998
1.1908396946564885,-0.10687022900763359,-0.6412213740458015,-0.45654296875,-0.07421875,-0.164306640625,1.4347999999999999
1.3893129770992367,0.13740458015267176,-0.5801526717557252,-0.457763671875,-0.07666015625,-0.166259765625,1.4364999999999999
1.5267175572519085,-0.12213740458015267,-0.5343511450381679,-0.453857421875,-0.072998046875,-0.1640625,1.4382
1.465648854961832,-0.04580152671755725,-0.44274809160305345,-0.453369140625,-0.074462890625,-0.159423828125,1.4399
1.4351145038167938,-0.030534351145038167,-0.5954198473282443,-0.455078125,-0.081298828125,-0.17236328125,1.4416
1.5114503816793894,-0.030534351145038167,-0.48854961832061067,-0.46240234375,-0.07861328125,-0.16650390625,1.4433
1.8778625954198473,0.015267175572519083,-0.366412213740458,-0.455322265625,-0.077392578125,-0.171875,1.4449999999999998
1.7404580152671756,-0.030534351145038167,-0.6106870229007634,-0.455810546875,-0.0751953125,-0.161376953125,1.4466999999999999
1.6946564885496183,-0.07633587786259542,-0.4580152671755725,-0.459716796875,-0.083984375,-0.162353515625,1.4484
1.7099236641221374,0.04580152671755725,-0.5038167938931297,-0.4638671875,-0.07275390625,-0.1630859375,1.4501
1.8473282442748091,0.13740458015267176,-0.5038167938931297,-0.454345703125,-0.084228515625,-0.16650390625,1.4518
1.7251908396946565,-0.015267175572519083,-0.44274809160305345,-0.456298828125,-0.0810546875,-0.16845703125,1.4535
1.83206106870229,0.22900763358778625,-0.366412213740458,-0.455322265625,-0.082763671875,-0.165283203125,1.4551999999999998
2.030534351145038,0.15267175572519084,-0.549618320610687,-0.4501953125,-0.076416015625,-0.159912109375,1.4568999999999999
2.030534351145038,0.33587786259541985,-0.4122137404580153,-0.457275390625,-0.07861328125,-0.158203125,1.4586
1.9083969465648856,0.3969465648854962,-0.5648854961832062,-0.4560546875,-0.07421875,-0.16552734375,1.4603
1.83206106870229,0.3816793893129771,-0.5801526717557252,-0.4619140625,-0.075439453125,-0.1669921875,1.462
2.2442748091603053,0.33587786259541985,-0.8549618320610687,-0.459228515625,-0.07958984375,-0.162109375,1.4637
2.2290076335877864,0.366412213740458,-0.549618320610687,-0.456298828125,-0.07861328125,-0.170166015625,1.4653999999999998
2.2748091603053435,0.42748091603053434,-0.8091603053435115,-0.45556640625,-0.078369140625,-0.157958984375,1.4670999999999998
1.9694656488549618,0.3816793893129771,-0.8244274809160306,-0.455322265625,-0.080078125,-0.160400390625,1.4687999999999999
2.030534351145038,0.3053435114503817,-0.7633587786259542,-0.45556640625,-0.0830078125,-0.16162109375,1.4705
1.8931297709923665,0.2900763358778626,-0.7633587786259542,-0.45556640625,-0.083251953125,-0.1669921875,1.4722
1.618320610687023,0.21374045801526717,-0.9618320610687023,-0.457275390625,-0.078369140625,-0.17138671875,1.4739
1.8473282442748091,0.13740458015267176,-1.0534351145038168,-0.458251953125,-0.08056640625,-0.16796875,1.4756
1.7709923664122138,0.07633587786259542,-0.9465648854961832,-0.456787109375,-0.078369140625,-0.16162109375,1.4772999999999998
1.8015267175572518,0.16793893129770993,-0.9007633587786259,-0.458740234375,-0.083984375,-0.156494140625,1.4789999999999999
1.7099236641221374,0.0916030534351145,-1.1145038167938932,-0.453857421875,-0.077392578125,-0.16162109375,1.4807
1.8473282442748091,0.183206106870229,-1.083969465648855,-0.458984375,-0.078857421875,-0.161376953125,1.4824
1.786259541984733,0.12213740458015267,-1.0687022900763359,-0.452880859375,-0.07763671875,-0.166748046875,1.4841
1.7404580152671756,0.22900763358778625,-1.0534351145038168,-0.461181640625,-0.084716796875,-0.17138671875,1.4858
1.5725190839694656,-0.10687022900763359,-1.0229007633587786,-0.455078125,-0.082763671875,-0.1669921875,1.4874999999999998
1.7709923664122138,-0.015267175572519083,-0.9312977099236641,-0.453125,-0.080810546875,-0.160400390625,1.4891999999999999
1.7709923664122138,0.33587786259541985,-1.1297709923664123,-0.45947265625,-0.072509765625,-0.164306640625,1.4909
1.5572519083969465,0.183206106870229,-1.0381679389312977,-0.45654296875,-0.078125,-0.16455078125,1.4926
1.5877862595419847,0.183206106870229,-1.1297709923664123,-0.459228515625,-0.076171875,-0.169189453125,1.4943
1.7099236641221374,0.2900763358778626,-0.9770992366412213,-0.4580078125,-0.07861328125,-0.170654296875,1.496
1.6793893129770991,0.2748091603053435,-1.099236641221374,-0.453125,-0.078369140625,-0.1552734375,1.4976999999999998
1.5877862595419847,0.10687022900763359,-0.916030534351145,-0.460693359375,-0.071533203125,-0.170166015625,1.4993999999999998
1.7099236641221374,0.24427480916030533,-1.0229007633587786,-0.455810546875,-0.080810546875,-0.159423828125,1.5010999999999999
1.786259541984733,0.2900763358778626,-0.9923664122137404,-0.464599609375,-0.07666015625,-0.16796875,1.5028
1.5877862595419847,0.22900763358778625,-1.1145038167938932,-0.458251953125,-0.07666015625,-0.174560546875,1.5045
1.7251908396946565,0.21374045801526717,-0.7175572519083969,-0.458984375,-0.077392578125,-0.158447265625,1.5062
1.6488549618320612,0.16793893129770993,-0.7480916030534351,-0.4560546875,-0.078125,-0.172119140625,1.5079
1.5267175572519085,0.12213740458015267,-0.6870229007633588,-0.463623046875,-0.0751953125,-0.169189453125,1.5095999999999998
1.465648854961832,0.07633587786259542,-1.0076335877862594,-0.464599609375,-0.076416015625,-0.15966796875,1.5112999999999999
1.6946564885496183,-0.10687022900763359,-0.9465648854961832,-0.459716796875,-0.076171875,-0.16357421875,1.513
1.4351145038167938,-0.04580152671755725,-0.9007633587786259,-0.45458984375,-0.07763671875,-0.169189453125,1.5147
1.3893129770992367,0.15267175572519084,-0.8091603053435115,-0.46044921875,-0.079345703125,-0.17626953125,1.5164
1.6488549618320612,-0.04580152671755725,-0.7633587786259542,-0.462890625,-0.07568359375,-0.171142578125,1.5181
1.450381679389313,0.10687022900763359,-0.8091603053435115,-0.462890625,-0.079345703125,-0.160888671875,1.5197999999999998
1.6488549618320612,0.061068702290076333,-1.0534351145038168,-0.459716796875,-0.0791015625,-0.169677734375,1.5214999999999999
1.7251908396946565,-0.015267175572519083,-0.8854961832061069,-0.456787109375,-0.0810546875,-0.16943359375,1.5231999999999999
1.3893129770992367,0.0,-0.916030534351145,-0.46142578125,-0.079833984375,-0.16552734375,1.5249
1.5114503816793894,-0.2748091603053435,-0.916030534351145,-0.45849609375,-0.080078125,-0.16064453125,1.5266
1.2671755725190839,-0.12213740458015267,-0.6412213740458015,-0.45751953125,-0.078125,-0.1640625,1.5283
1.4198473282442747,-0.15267175572519084,-0.6564885496183206,-0.45849609375,-0.079833984375,-0.159423828125,1.5299999999999998
1.4198473282442747,-0.24427480916030533,-1.099236641221374,-0.45556640625,-0.07763671875,-0.172119140625,1.5316999999999998
1.6030534351145038,-0.21374045801526717,-0.9312977099236641,-0.4580078125,-0.078857421875,-0.163818359375,1.5333999999999999
1.3435114503816794,-0.15267175572519084,-0.9007633587786259,-0.4599609375,-0.079345703125,-0.1689453125,1.5351
1.3740458015267176,-0.015267175572519083,-0.7480916030534351,-0.457275390625,-0.079345703125,-0.166015625,1.5368
1.4351145038167938,-0.12213740458015267,-0.9312977099236641,-0.45751953125,-0.07421875,-0.16015625,1.5385
1.3282442748091603,-0.16793893129770993,-0.8702290076335878,-0.4560546875,-0.0830078125,-0.166259765625,1.5402
1.3587786259541985,-0.015267175572519083,-0.9312977099236641,-0.456298828125,-0.0849609375,-0.15869140625,1.5418999999999998
1.3282442748091603,-0.015267175572519083,-0.7175572519083969,-0.458740234375,-0.08447265625,-0.157958984375,1.5435999999999999
1.3587786259541985,-0.183206106870229,-0.9618320610687023,-0.46484375,-0.0771484375,-0.16357421875,1.5453
1.2061068702290076,0.04580152671755725,-0.9312977099236641,-0.45703125,-0.078125,-0.17236328125,1.547
1.4198473282442747,0.0916030534351145,-0.9923664122137404,-0.45703125,-0.0791015625,-0.171875,1.5487
1.4198473282442747,0.13740458015267176,-0.9923664122137404,-0.4580078125,-0.080810546875,-0.1611328125,1.5504
1.618320610687023,0.12213740458015267,-0.8549618320610687,-0.458984375,-0.080322265625,-0.171142578125,1.5520999999999998
1.5877862595419847,0.04580152671755725,-0.6717557251908397,-0.463134765625,-0.0810546875,-0.16943359375,1.5537999999999998
1.4198473282442747,0.0916030534351145,-0.8702290076335878,-0.456298828125,-0.081298828125,-0.15869140625,1.5554999999999999
1.5877862595419847,0.15267175572519084,-0.8549618320610687,-0.463134765625,-0.07958984375,-0.156982421875,1.5572
1.6030534351145038,0.12213740458015267,-0.8549618320610687,-0.455322265625,-0.077880859375,-0.169677734375,1.5589
1.4198473282442747,0.015267175572519083,-0.7633587786259542,-0.456298828125,-0.07958984375,-0.165283203125,1.5606
1.6488549618320612,0.015267175572519083,-0.8702290076335878,-0.462890625,-0.080810546875,-0.16357421875,1.5623
1.6488549618320612,0.04580152671755725,-1.0687022900763359,-0.458251953125,-0.0810546875,-0.168212890625,1.5639999999999998
1.5267175572519085,0.10687022900763359,-1.0229007633587786,-0.45556640625,-0.080078125,-0.159423828125,1.5656999999999999
1.3282442748091603,0.0,-1.0229007633587786,-0.460205078125,-0.077880859375,-0.157470703125,1.5674
1.4351145038167938,0.04580152671755725,-1.1603053435114503,-0.463623046875,-0.0791015625,-0.15771484375,1.5691
1.4961832061068703,0.12213740458015267,-0.9770992366412213,-0.459716796875,-0.080810546875,-0.160400390625,1.5708
1.251908396946565,0.04580152671755725,-1.0381679389312977,-0.46337890625,-0.078857421875,-0.170654296875,1.5725
0.9923664122137404,0.2900763358778626,-1.0687022900763359,-0.45849609375,-0.086669921875,-0.159423828125,1.5741999999999998
1.2061068702290076,0.2748091603053435,-1.1603053435114503,-0.45703125,-0.080322265625,-0.16650390625,1.5758999999999999
1.1603053435114503,0.2900763358778626,-1.1603053435114503,-0.459716796875,-0.080322265625,-0.16650390625,1.5776
1.3587786259541985,0.24427480916030533,-1.1145038167938932,-0.454345703125,-0.07666015625,-0.167724609375,1.5793
1.3435114503816794,0.16793893129770993,-0.9312977099236641,-0.4541015625,-0.0771484375,-0.162109375,1.581
1.3893129770992367,0.32061068702290074,-1.0229007633587786,-0.458251953125,-0.082275390625,-0.157470703125,1.5827
1.3893129770992367,0.2595419847328244,-0.8244274809160306,-0.455810546875,-0.07958984375,-0.164306640625,1.5843999999999998
1.5725190839694656,0.2900763358778626,-1.282442748091603,-0.4599609375,-0.082763671875,-0.163818359375,1.5860999999999998
1.0381679389312977,0.366412213740458,-1.1603053435114503,-0.458984375,-0.075439453125,-0.16796875,1.5877999999999999
1.2213740458015268,0.183206106870229,-0.916030534351145,-0.45751953125,-0.081787109375,-0.1611328125,1.5895
1.450381679389313,0.3053435114503817,-0.9007633587786259,-0.460205078125,-0.081787109375,-0.15869140625,1.5912
1.4351145038167938,0.183206106870229,-1.0076335877862594,-0.460205078125,-0.07861328125,-0.166015625,1.5929
1.3893129770992367,0.061068702290076333,-1.1755725190839694,-0.45556640625,-0.07958984375,-0.17041015625,1.5946
1.633587786259542,0.13740458015267176,-1.0687022900763359,-0.459228515625,-0.07666015625,-0.165771484375,1.5962999999999998
1.3740458015267176,0.15267175572519084,-0.9923664122137404,-0.45947265625,-0.078125,-0.164306640625,1.5979999999999999
1.282442748091603,0.15267175572519084,-1.0076335877862594,-0.45849609375,-0.079833984375,-0.1611328125,1.5997
1.5267175572519085,0.07633587786259542,-1.0687022900763359,-0.46044921875,-0.070068359375,-0.170654296875,1.6014
1.3129770992366412,0.10687022900763359,-1.0076335877862594,-0.458251953125,-0.080810546875,-0.16748046875,1.6031
1.4809160305343512,0.22900763358778625,-0.8549618320610687,-0.460693359375,-0.074462890625,-0.170654296875,1.6048
1.3435114503816794,0.0,-1.0381679389312977,-0.452880859375,-0.07421875,-0.17138671875,1.6064999999999998
1.3893129770992367,-0.0916030534351145,-1.1145038167938932,-0.453857421875,-0.07666015625,-0.171875,1.6081999999999999
1.099236641221374,0.183206106870229,-1.0687022900763359,-0.4580078125,-0.07568359375,-0.1640625,1.6098999999999999
1.2671755725190839,0.15267175572519084,-0.9618320610687023,-0.4609375,-0.074951171875,-0.173583984375,1.6116
1.450381679389313,-0.183206106870229,-1.083969465648855,-0.457275390625,-0.078125,-0.168701171875,1.6133
1.3129770992366412,0.0916030534351145,-0.9923664122137404,-0.459716796875,-0.079833984375,-0.1640625,1.615
0.9618320610687023,0.061068702290076333,-1.0076335877862594,-0.45751953125,-0.0791015625,-0.1572265625,1.6166999999999998
0.9770992366412213,-0.030534351145038167,-0.916030534351145,-0.45849609375,-0.076171875,-0.156982421875,1.6183999999999998
1.1297709923664123,0.04580152671755725,-1.0229007633587786,-0.449951171875,-0.074951171875,-0.1650390625,1.6200999999999999
1.0534351145038168,0.15267175572519084,-0.9312977099236641,-0.463623046875,-0.081298828125,-0.165283203125,1.6218
0.9007633587786259,0.24427480916030533,-1.1145038167938932,-0.459716796875,-0.081787109375,-0.16845703125,1.6235
0.7786259541984732,0.21374045801526717,-1.0229007633587786,-0.46240234375,-0.080078125,-0.169921875,1.6252
0.5954198473282443,0.33587786259541985,-0.9312977099236641,-0.460693359375,-0.078369140625,-0.162109375,1.6269
0.8854961832061069,0.1984732824427481,-1.0534351145038168,-0.458251953125,-0.076416015625,-0.168212890625,1.6285999999999998
0.6870229007633588,0.3816793893129771,-1.0687022900763359,-0.457275390625,-0.080810546875,-0.1689453125,1.6302999999999999
0.7480916030534351,0.0916030534351145,-1.2671755725190839,-0.456298828125,-0.07763671875,-0.170166015625,1.632
0.7175572519083969,0.21374045801526717,-1.0381679389312977,-0.456298828125,-0.08544921875,-0.171142578125,1.6337
0.8244274809160306,0.1984732824427481,-0.8854961832061069,-0.45361328125,-0.085693359375,-0.173583984375,1.6354
1.0381679389312977,0.42748091603053434,-0.9770992366412213,-0.456787109375,-0.086181640625,-0.171142578125,1.6371
0.7633587786259542,0.4732824427480916,-0.9465648854961832,-0.462890625,-0.07568359375,-0.17236328125,1.6387999999999998
0.9312977099236641,0.3511450381679389,-1.1145038167938932,-0.458740234375,-0.078369140625,-0.163330078125,1.6404999999999998
1.1450381679389312,0.2900763358778626,-1.1603053435114503,-0.4580078125,-0.084716796875,-0.16357421875,1.6421999999999999
1.1450381679389312,0.21374045801526717,-0.9007633587786259,-0.455322265625,-0.083251953125,-0.171630859375,1.6439
1.1908396946564885,0.15267175572519084,-0.9618320610687023,-0.456298828125,-0.082275390625,-0.162109375,1.6456
1.0687022900763359,0.2748091603053435,-1.2366412213740459,-0.45751953125,-0.081787109375,-0.166015625,1.6473
1.3435114503816794,0.12213740458015267,-1.1755725190839694,-0.45849609375,-0.08203125,-0.159912109375,1.6489999999999998
1.1908396946564885,0.12213740458015267,-1.099236641221374,-0.457763671875,-0.078857421875,-0.162353515625,1.6506999999999998
1.1145038167938932,0.2595419847328244,-1.1145038167938932,-0.4599609375,-0.078857421875,-0.1689453125,1.6523999999999999
1.2061068702290076,0.24427480916030533,-1.099236641221374,-0.45361328125,-0.079833984375,-0.172607421875,1.6541
1.083969465648855,0.48854961832061067,-1.2213740458015268,-0.452880859375,-0.07958984375,-0.169677734375,1.6558
0.9923664122137404,0.2748091603053435,-1.1450381679389312,-0.457275390625,-0.07763671875,-0.162109375,1.6575
0.8854961832061069,0.12213740458015267,-1.0534351145038168,-0.45703125,-0.077880859375,-0.166015625,1.6592
0.9923664122137404,0.3969465648854962,-1.0381679389312977,-0.458984375,-0.078369140625,-0.16259765625,1.6608999999999998
1.0534351145038168,0.5038167938931297,-1.1755725190839694,-0.464111328125,-0.07958984375,-0.163818359375,1.6625999999999999
0.8549618320610687,0.2595419847328244,-1.282442748091603,-0.457763671875,-0.079345703125,-0.166259765625,1.6643
1.1145038167938932,0.4122137404580153,-1.4961832061068703,-0.456298828125,-0.0791015625,-0.16748046875,1.666
0.9465648854961832,0.3511450381679389,-1.3587786259541985,-0.458984375,-0.076904296875,-0.167236328125,1.6677
0.8702290076335878,0.21374045801526717,-1.3587786259541985,-0.453125,-0.080322265625,-0.163330078125,1.6694
0.9618320610687023,0.22900763358778625,-1.4351145038167938,-0.460205078125,-0.082275390625,-0.166748046875,1.6710999999999998
0.549618320610687,0.33587786259541985,-1.282442748091603,-0.46044921875,-0.07763671875,-0.16748046875,1.6727999999999998
1.0534351145038168,0.3511450381679389,-1.2366412213740459,-0.459228515625,-0.08251953125,-0.171630859375,1.6744999999999999
1.0076335877862594,0.16793893129770993,-1.5725190839694656,-0.45654296875,-0.08203125,-0.164306640625,1.6762
0.8549618320610687,0.12213740458015267,-1.251908396946565,-0.460205078125,-0.076416015625,-0.16650390625,1.6779
0.9465648854961832,0.366412213740458,-1.297709923664122,-0.45947265625,-0.078369140625,-0.16552734375,1.6796
0.916030534351145,0.3511450381679389,-1.4198473282442747,-0.4619140625,-0.07763671875,-0.16064453125,1.6813
0.9770992366412213,0.32061068702290074,-1.3435114503816794,-0.459716796875,-0.076416015625,-0.165771484375,1.6829999999999998
1.099236641221374,0.44274809160305345,-1.0381679389312977,-0.462646484375,-0.07666015625,-0.1708984375,1.6846999999999999
1.0229007633587786,0.4122137404580153,-1.1908396946564885,-0.45849609375,-0.081298828125,-0.171142578125,1.6864
1.1908396946564885,0.42748091603053434,-1.099236641221374,-0.462158203125,-0.0791015625,-0.166259765625,1.6881
0.9770992366412213,0.22900763358778625,-1.2213740458015268,-0.46435546875,-0.07763671875,-0.171142578125,1.6898
1.0076335877862594,0.183206106870229,-1.2213740458015268,-0.456787109375,-0.078857421875,-0.156982421875,1.6915
0.8854961832061069,0.21374045801526717,-0.9007633587786259,-0.457275390625,-0.0791015625,-0.1669921875,1.6931999999999998
0.9465648854961832,0.42748091603053434,-1.1908396946564885,-0.45556640625,-0.078857421875,-0.16796875,1.6948999999999999
1.2061068702290076,0.549618320610687,-1.0381679389312977,-0.458740234375,-0.076416015625,-0.17333984375,1.6965999999999999
0.9465648854961832,0.32061068702290074,-1.0076335877862594,-0.46435546875,-0.081298828125,-0.1728515625,1.6983
1.083969465648855,0.3816793893129771,-1.0534351145038168,-0.462646484375,-0.072265625,-0.16064453125,1.7
0.9923664122137404,0.32061068702290074,-1.0534351145038168,-0.459716796875,-0.0751953125,-0.1708984375,1.7017
0.8549618320610687,0.366412213740458,-0.916030534351145,-0.462890625,-0.080078125,-0.168701171875,1.7033999999999998
1.0381679389312977,0.3969465648854962,-0.7938931297709924,-0.460693359375,-0.07470703125,-0.17333984375,1.7050999999999998
1.0534351145038168,0.4580152671755725,-0.9618320610687023,-0.46240234375,-0.077392578125,-0.1650390625,1.7067999999999999
0.916030534351145,0.3816793893129771,-0.8854961832061069,-0.459716796875,-0.0791015625,-0.16796875,1.7085
0.6412213740458015,0.3816793893129771,-0.7938931297709924,-0.45654296875,-0.077880859375,-0.1708984375,1.7102
0.7480916030534351,0.5801526717557252,-0.7786259541984732,-0.457275390625,-0.07763671875,-0.171875,1.7119
0.6870229007633588,0.4580152671755725,-0.8702290076335878,-0.458251953125,-0.075439453125,-0.174560546875,1.7136
0.8091603053435115,0.6259541984732825,-0.6717557251908397,-0.455078125,-0.077392578125,-0.164306640625,1.7152999999999998
0.7786259541984732,0.5801526717557252,-1.0076335877862594,-0.457275390625,-0.083740234375,-0.1630859375,1.7169999999999999
0.5343511450381679,0.5038167938931297,-1.0229007633587786,-0.4580078125,-0.07373046875,-0.1669921875,1.7187
0.7938931297709924,0.5648854961832062,-0.916030534351145,-0.456787109375,-0.081298828125,-0.162109375,1.7204
0.5343511450381679,0.7938931297709924,-1.0534351145038168,-0.453857421875,-0.078857421875,-0.16259765625,1.7221
0.5038167938931297,0.7633587786259542,-0.8854961832061069,-0.4609375,-0.078857421875,-0.16064453125,1.7238
0.7633587786259542,0.6106870229007634,-0.8702290076335878,-0.458984375,-0.078857421875,-0.1689453125,1.7254999999999998
0.7022900763358778,0.7175572519083969,-1.0687022900763359,-0.45703125,-0.0810546875,-0.165283203125,1.7271999999999998
0.7022900763358778,0.732824427480916,-0.9007633587786259,-0.458251953125,-0.082763671875,-0.16064453125,1.7288999999999999
0.6259541984732825,0.6564885496183206,-0.8854961832061069,-0.4580078125,-0.080322265625,-0.168701171875,1.7306
0.7938931297709924,0.6412213740458015,-0.8396946564885496,-0.45703125,-0.07861328125,-0.16259765625,1.7323
0.7480916030534351,0.6412213740458015,-1.0076335877862594,-0.455322265625,-0.07470703125,-0.1591796875,1.734
0.7938931297709924,0.5801526717557252,-0.9770992366412213,-0.456787109375,-0.07763671875,-0.159912109375,1.7356999999999998
1.0229007633587786,0.7938931297709924,-0.9923664122137404,-0.46435546875,-0.079345703125,-0.15771484375,1.7373999999999998
0.9312977099236641,0.7480916030534351,-0.7633587786259542,-0.46044921875,-0.0751953125,-0.171630859375,1.7390999999999999
0.6870229007633588,0.4580152671755725,-0.9312977099236641,-0.457763671875,-0.078369140625,-0.169921875,1.7408
0.6870229007633588,0.2595419847328244,-0.8549618320610687,-0.4541015625,-0.074462890625,-0.16162109375,1.7425
0.8091603053435115,0.366412213740458,-0.7938931297709924,-0.456787109375,-0.0751953125,-0.16357421875,1.7442
0.6259541984732825,0.24427480916030533,-0.7633587786259542,-0.45654296875,-0.080322265625,-0.164306640625,1.7459
0.7633587786259542,0.21374045801526717,-0.7786259541984732,-0.45751953125,-0.076171875,-0.15869140625,1.7475999999999998
0.5954198473282443,0.24427480916030533,-0.732824427480916,-0.457763671875,-0.07568359375,-0.156982421875,1.7492999999999999
0.42748091603053434,0.2595419847328244,-0.9465648854961832,-0.4580078125,-0.076171875,-0.17333984375,1.751
0.5343511450381679,0.13740458015267176,-0.8702290076335878,-0.461669921875,-0.074951171875,-0.17041015625,1.7527
0.5038167938931297,0.1984732824427481,-0.9618320610687023,-0.457763671875,-0.075439453125,-0.158935546875,1.7544
0.42748091603053434,0.33587786259541985,-0.7480916030534351,-0.45947265625,-0.079833984375,-0.171142578125,1.7561
0.3511450381679389,0.3053435114503817,-0.8244274809160306,-0.456787109375,-0.0751953125,-0.157470703125,1.7577999999999998
0.42748091603053434,0.4580152671755725,-0.8702290076335878,-0.457763671875,-0.078857421875,-0.171875,1.7594999999999998
0.732824427480916,0.5038167938931297,-0.9770992366412213,-0.4599609375,-0.08544921875,-0.165283203125,1.7611999999999999
0.549618320610687,0.42748091603053434,-0.7938931297709924,-0.460693359375,-0.081298828125,-0.164306640625,1.7629
0.6717557251908397,0.7786259541984732,-0.9465648854961832,-0.457763671875,-0.082275390625,-0.170654296875,1.7646
0.44274809160305345,0.7633587786259542,-0.9465648854961832,-0.46240234375,-0.08251953125,-0.16552734375,1.7663
0.6412213740458015,0.9618320610687023,-1.1603053435114503,-0.46142578125,-0.080322265625,-0.16015625,1.7679999999999998
0.7938931297709924,0.8244274809160306,-0.9923664122137404,-0.4658203125,-0.07421875,-0.16845703125,1.7696999999999998
0.7175572519083969,0.7633587786259542,-1.083969465648855,-0.46044921875,-0.078857421875,-0.170654296875,1.7713999999999999
0.8091603053435115,1.0534351145038168,-1.0687022900763359,-0.4619140625,-0.082763671875,-0.174072265625,1.7731
0.9007633587786259,1.1908396946564885,-1.1603053435114503,-0.462890625,-0.081787109375,-0.1689453125,1.7748
0.8396946564885496,1.2061068702290076,-1.0534351145038168,-0.462158203125,-0.080810546875,-0.172607421875,1.7765
0.7938931297709924,1.2213740458015268,-1.2671755725190839,-0.460205078125,-0.08203125,-0.167724609375,1.7782
0.9007633587786259,0.9618320610687023,-1.1145038167938932,-0.465087890625,-0.0771484375,-0.1650390625,1.7798999999999998
0.9007633587786259,1.0687022900763359,-1.297709923664122,-0.4638671875,-0.0859375,-0.169677734375,1.7815999999999999
