gyrox1,gyroy1,gyroz1,accelx1,accely1,accelz1,Time
1.8778625954198473,1.099236641221374,-0.9312977099236641,-0.01171875,-0.07666015625,-0.609130859375,0.0
2.0,1.1297709923664123,-0.7938931297709924,-0.011474609375,-0.080078125,-0.61279296875,0.0017
2.0763358778625953,1.3435114503816794,-0.8244274809160306,-0.011474609375,-0.07568359375,-0.60986328125,0.0034
2.122137404580153,1.4198473282442747,-0.8702290076335878,-0.013671875,-0.07666015625,-0.61669921875,0.0050999999999999995
2.183206106870229,1.4961832061068703,-1.083969465648855,-0.01171875,-0.0751953125,-0.6123046875,0.0068
2.4122137404580153,1.4045801526717556,-0.8549618320610687,-0.01220703125,-0.07421875,-0.598388671875,0.008499999999999999
2.5343511450381677,1.5419847328244274,-0.916030534351145,-0.012939453125,-0.072998046875,-0.625,0.010199999999999999
2.4122137404580153,1.3893129770992367,-1.0534351145038168,-0.013427734375,-0.079345703125,-0.613037109375,0.011899999999999999
2.16793893129771,1.5114503816793894,-1.083969465648855,-0.01513671875,-0.075927734375,-0.615478515625,0.0136
2.381679389312977,1.6488549618320612,-1.1297709923664123,-0.01123046875,-0.073974609375,-0.615478515625,0.0153
2.381679389312977,1.6946564885496183,-1.297709923664122,-0.011474609375,-0.074462890625,-0.608642578125,0.016999999999999998
2.4122137404580153,1.7099236641221374,-1.099236641221374,-0.011474609375,-0.078369140625,-0.61279296875,0.018699999999999998
2.2748091603053435,1.7709923664122138,-0.916030534351145,-0.01220703125,-0.072265625,-0.616943359375,0.020399999999999998
2.4122137404580153,1.9083969465648856,-1.083969465648855,-0.01025390625,-0.071044921875,-0.611572265625,0.022099999999999998
2.549618320610687,1.8931297709923665,-1.083969465648855,-0.010986328125,-0.07080078125,-0.6103515625,0.023799999999999998
2.5801526717557253,1.9694656488549618,-1.0381679389312977,-0.0107421875,-0.07666015625,-0.612060546875,0.0255
2.6717557251908395,2.122137404580153,-0.9618320610687023,-0.010498046875,-0.076171875,-0.608154296875,0.0272
2.7938931297709924,2.213740458015267,-1.2366412213740459,-0.014892578125,-0.076904296875,-0.60791015625,0.0289
2.931297709923664,2.1068702290076335,-1.0076335877862594,-0.01416015625,-0.0751953125,-0.6162109375,0.0306
2.8702290076335877,2.030534351145038,-1.1450381679389312,-0.013671875,-0.07421875,-0.60498046875,0.032299999999999995
2.946564885496183,1.8625954198473282,-1.083969465648855,-0.0087890625,-0.0751953125,-0.619140625,0.033999999999999996
2.7938931297709924,1.9236641221374047,-1.3587786259541985,-0.010986328125,-0.07763671875,-0.619140625,0.035699999999999996
3.053435114503817,2.1068702290076335,-1.5114503816793894,-0.00830078125,-0.081787109375,-0.6123046875,0.037399999999999996
3.099236641221374,1.83206106870229,-1.618320610687023,-0.010986328125,-0.07958984375,-0.61767578125,0.039099999999999996
2.9618320610687023,1.9541984732824427,-1.7099236641221374,-0.00537109375,-0.081298828125,-0.61083984375,0.040799999999999996
2.6564885496183206,1.9236641221374047,-1.7099236641221374,-0.015380859375,-0.077880859375,-0.6171875,0.042499999999999996
2.595419847328244,2.1374045801526718,-1.6030534351145038,-0.012451171875,-0.080078125,-0.614501953125,0.044199999999999996
2.5343511450381677,2.045801526717557,-1.6946564885496183,-0.012451171875,-0.08544921875,-0.613037109375,0.045899999999999996
2.4732824427480917,2.0610687022900764,-1.633587786259542,-0.014892578125,-0.082275390625,-0.61474609375,0.047599999999999996
2.1526717557251906,2.16793893129771,-1.8473282442748091,-0.01123046875,-0.08349609375,-0.614990234375,0.0493
2.030534351145038,2.3053435114503817,-1.7557251908396947,-0.009033203125,-0.077392578125,-0.608642578125,0.051
1.8778625954198473,2.427480916030534,-1.6946564885496183,-0.00830078125,-0.078857421875,-0.6181640625,0.0527
1.5114503816793894,2.4580152671755724,-1.4351145038167938,-0.01318359375,-0.084228515625,-0.61181640625,0.0544
1.3282442748091603,2.4122137404580153,-1.6793893129770991,-0.017333984375,-0.08447265625,-0.614990234375,0.0561
1.0076335877862594,2.4732824427480917,-1.7557251908396947,-0.01220703125,-0.077880859375,-0.60791015625,0.0578
0.8244274809160306,2.50381679389313,-1.6488549618320612,-0.01171875,-0.080078125,-0.607421875,0.0595
0.6412213740458015,2.4580152671755724,-1.7557251908396947,-0.009765625,-0.0791015625,-0.616455078125,0.0612
0.2595419847328244,2.4885496183206106,-1.8625954198473282,-0.011474609375,-0.082763671875,-0.611328125,0.0629
0.04580152671755725,2.3969465648854964,-1.9541984732824427,-0.0048828125,-0.083984375,-0.607666015625,0.06459999999999999
-0.07633587786259542,2.2748091603053435,-2.0610687022900764,-0.006591796875,-0.078125,-0.61181640625,0.0663
-0.2748091603053435,2.3969465648854964,-2.030534351145038,-0.01123046875,-0.082763671875,-0.60791015625,0.06799999999999999
-0.3053435114503817,2.351145038167939,-2.045801526717557,-0.013427734375,-0.081298828125,-0.60693359375,0.0697
-0.42748091603053434,2.33587786259542,-2.0916030534351147,-0.013427734375,-0.0830078125,-0.611572265625,0.07139999999999999
-0.3053435114503817,2.2442748091603053,-2.3053435114503817,-0.01171875,-0.078857421875,-0.606689453125,0.0731
-0.2748091603053435,2.1374045801526718,-2.1526717557251906,-0.009033203125,-0.080322265625,-0.60791015625,0.07479999999999999
-0.44274809160305345,2.015267175572519,-2.4122137404580153,-0.013427734375,-0.078857421875,-0.608642578125,0.0765
-0.07633587786259542,2.015267175572519,-2.198473282442748,-0.0107421875,-0.07958984375,-0.6064453125,0.07819999999999999
-0.2900763358778626,1.8778625954198473,-2.2595419847328246,-0.005126953125,-0.074951171875,-0.610595703125,0.0799
-0.15267175572519084,1.83206106870229,-2.1374045801526718,-0.008056640625,-0.08642578125,-0.607177734375,0.08159999999999999
-0.061068702290076333,1.984732824427481,-2.16793893129771,-0.01123046875,-0.07568359375,-0.610107421875,0.0833
-0.07633587786259542,1.7557251908396947,-1.9694656488549618,-0.0087890625,-0.073974609375,-0.614990234375,0.08499999999999999
-0.13740458015267176,1.8015267175572518,-1.9389312977099236,-0.009521484375,-0.076171875,-0.613525390625,0.0867
0.16793893129770993,1.6641221374045803,-1.8473282442748091,-0.004150390625,-0.080078125,-0.608642578125,0.08839999999999999
0.061068702290076333,1.5725190839694656,-1.7709923664122138,-0.001220703125,-0.072998046875,-0.61083984375,0.0901
0.3969465648854962,1.6030534351145038,-1.4351145038167938,-0.005859375,-0.077392578125,-0.613037109375,0.09179999999999999
0.5343511450381679,1.5419847328244274,-1.5267175572519085,-0.008056640625,-0.0751953125,-0.601318359375,0.0935
0.366412213740458,1.6030534351145038,-1.297709923664122,-0.00390625,-0.073486328125,-0.61474609375,0.09519999999999999
0.6412213740458015,1.4198473282442747,-1.3129770992366412,-0.007568359375,-0.072998046875,-0.60791015625,0.0969
1.099236641221374,1.3129770992366412,-1.251908396946565,-0.00927734375,-0.079833984375,-0.60595703125,0.0986
1.0229007633587786,1.1603053435114503,-1.251908396946565,-0.00830078125,-0.080078125,-0.59765625,0.1003
1.1145038167938932,1.3129770992366412,-1.1145038167938932,-0.015380859375,-0.077392578125,-0.59765625,0.102
0.9923664122137404,1.0381679389312977,-1.5114503816793894,-0.00732421875,-0.08056640625,-0.603271484375,0.1037
1.0381679389312977,0.9923664122137404,-1.3740458015267176,-0.00634765625,-0.077392578125,-0.620361328125,0.1054
1.450381679389313,0.8396946564885496,-1.6030534351145038,-0.008544921875,-0.0859375,-0.60986328125,0.1071
1.6793893129770991,0.7022900763358778,-1.6030534351145038,-0.010498046875,-0.082763671875,-0.60791015625,0.1088
1.4351145038167938,0.7786259541984732,-1.5419847328244274,-0.006591796875,-0.08154296875,-0.610107421875,0.11049999999999999
1.7404580152671756,0.5954198473282443,-1.5572519083969465,-0.00927734375,-0.080078125,-0.605712890625,0.1122
1.6641221374045803,0.4580152671755725,-1.6946564885496183,-0.010498046875,-0.07763671875,-0.601806640625,0.11389999999999999
1.5877862595419847,0.42748091603053434,-1.7709923664122138,-0.009765625,-0.07666015625,-0.6064453125,0.1156
1.816793893129771,0.3816793893129771,-2.0,-0.01416015625,-0.077392578125,-0.611083984375,0.11729999999999999
1.6793893129770991,0.48854961832061067,-1.9541984732824427,-0.012451171875,-0.07861328125,-0.607421875,0.119
1.83206106870229,0.5801526717557252,-2.0763358778625953,-0.011962890625,-0.08203125,-0.603515625,0.12069999999999999
1.7709923664122138,0.5801526717557252,-2.198473282442748,-0.013671875,-0.079833984375,-0.607666015625,0.1224
1.5725190839694656,0.5190839694656488,-2.3969465648854964,-0.01220703125,-0.07470703125,-0.610107421875,0.12409999999999999
1.4198473282442747,0.48854961832061067,-2.2748091603053435,-0.010986328125,-0.073486328125,-0.60546875,0.1258
1.6946564885496183,0.6564885496183206,-2.33587786259542,-0.012939453125,-0.076904296875,-0.607666015625,0.1275
1.6641221374045803,0.8702290076335878,-2.381679389312977,-0.0166015625,-0.07958984375,-0.6064453125,0.12919999999999998
1.5572519083969465,0.9312977099236641,-2.427480916030534,-0.01708984375,-0.07958984375,-0.60791015625,0.1309
1.5267175572519085,1.0076335877862594,-2.2290076335877864,-0.0166015625,-0.0810546875,-0.60888671875,0.1326
1.5572519083969465,1.099236641221374,-2.3206106870229006,-0.0166015625,-0.078125,-0.603271484375,0.1343
1.4045801526717556,1.3129770992366412,-2.1374045801526718,-0.009033203125,-0.074951171875,-0.60498046875,0.13599999999999998
1.465648854961832,1.450381679389313,-2.2748091603053435,-0.0126953125,-0.079833984375,-0.607177734375,0.1377
1.1450381679389312,1.3129770992366412,-2.198473282442748,-0.01171875,-0.078125,-0.603515625,0.1394
1.4809160305343512,1.3740458015267176,-2.213740458015267,-0.01416015625,-0.07763671875,-0.60595703125,0.1411
1.3282442748091603,1.465648854961832,-2.030534351145038,-0.0146484375,-0.083740234375,-0.608154296875,0.14279999999999998
1.1145038167938932,1.5267175572519085,-2.3206106870229006,-0.013916015625,-0.078125,-0.609130859375,0.1445
1.3282442748091603,1.5114503816793894,-2.0916030534351147,-0.008544921875,-0.0791015625,-0.61328125,0.1462
1.3282442748091603,1.5419847328244274,-2.2748091603053435,-0.015625,-0.0791015625,-0.604248046875,0.1479
1.1908396946564885,1.6641221374045803,-2.2595419847328246,-0.01611328125,-0.07958984375,-0.61328125,0.14959999999999998
1.3435114503816794,1.5572519083969465,-2.3206106870229006,-0.013671875,-0.085693359375,-0.605712890625,0.1513
1.3587786259541985,1.6030534351145038,-2.4122137404580153,-0.0087890625,-0.08544921875,-0.6064453125,0.153
1.1908396946564885,1.3282442748091603,-2.4732824427480917,-0.01220703125,-0.0849609375,-0.60107421875,0.1547
1.3129770992366412,1.5877862595419847,-2.4427480916030535,-0.01513671875,-0.0810546875,-0.604736328125,0.15639999999999998
1.0534351145038168,1.5877862595419847,-2.519083969465649,-0.00830078125,-0.0810546875,-0.599609375,0.1581
0.9312977099236641,1.5267175572519085,-2.3206106870229006,-0.01416015625,-0.082275390625,-0.61328125,0.1598
0.9923664122137404,1.4809160305343512,-2.4580152671755724,-0.007080078125,-0.085693359375,-0.599365234375,0.1615
0.7786259541984732,1.3282442748091603,-2.595419847328244,-0.013916015625,-0.081298828125,-0.59228515625,0.16319999999999998
0.6564885496183206,1.3129770992366412,-2.549618320610687,-0.011962890625,-0.083251953125,-0.601806640625,0.1649
0.5954198473282443,1.3435114503816794,-2.549618320610687,-0.01416015625,-0.083740234375,-0.61376953125,0.1666
0.5343511450381679,1.5114503816793894,-2.4580152671755724,-0.010498046875,-0.08544921875,-0.60546875,0.16829999999999998
0.16793893129770993,1.3435114503816794,-2.4732824427480917,-0.01220703125,-0.08447265625,-0.599365234375,0.16999999999999998
0.0916030534351145,1.1603053435114503,-2.50381679389313,-0.011962890625,-0.08544921875,-0.611083984375,0.1717
0.16793893129770993,1.2671755725190839,-2.4427480916030535,-0.008056640625,-0.082275390625,-0.608154296875,0.1734
-0.2748091603053435,1.251908396946565,-2.519083969465649,-0.0068359375,-0.077392578125,-0.611328125,0.17509999999999998
-0.22900763358778625,1.2366412213740459,-2.5343511450381677,-0.015869140625,-0.081298828125,-0.6015625,0.17679999999999998
-0.3053435114503817,1.1755725190839694,-2.564885496183206,-0.011474609375,-0.0849609375,-0.616943359375,0.1785
-0.5648854961832062,1.2213740458015268,-2.5801526717557253,-0.01611328125,-0.084228515625,-0.616455078125,0.1802
-0.5343511450381679,1.297709923664122,-2.6259541984732824,-0.0166015625,-0.08056640625,-0.61083984375,0.18189999999999998
-0.549618320610687,1.4809160305343512,-2.564885496183206,-0.012451171875,-0.07666015625,-0.6015625,0.18359999999999999
-0.732824427480916,1.282442748091603,-2.519083969465649,-0.014892578125,-0.081787109375,-0.609130859375,0.1853
-0.6870229007633588,1.4045801526717556,-2.4580152671755724,-0.0166015625,-0.07861328125,-0.607177734375,0.187
-0.7480916030534351,1.450381679389313,-2.7786259541984735,-0.016357421875,-0.0810546875,-0.6083984375,0.18869999999999998
-0.916030534351145,1.5267175572519085,-2.6106870229007635,-0.013427734375,-0.07568359375,-0.608642578125,0.19039999999999999
-0.5190839694656488,1.5267175572519085,-2.6259541984732824,-0.011962890625,-0.076416015625,-0.60693359375,0.1921
-0.7480916030534351,1.6030534351145038,-2.50381679389313,-0.01318359375,-0.08056640625,-0.606201171875,0.1938
-0.5190839694656488,1.7099236641221374,-2.549618320610687,-0.0107421875,-0.074462890625,-0.601806640625,0.19549999999999998
-0.4122137404580153,1.7099236641221374,-2.3969465648854964,-0.0078125,-0.078857421875,-0.605224609375,0.1972
-0.3053435114503817,1.6030534351145038,-2.6564885496183206,-0.013671875,-0.0830078125,-0.603271484375,0.1989
-0.24427480916030533,1.6488549618320612,-2.564885496183206,-0.011474609375,-0.078369140625,-0.60791015625,0.2006
-0.2595419847328244,1.7251908396946565,-2.50381679389313,-0.014404296875,-0.0791015625,-0.60693359375,0.20229999999999998
-0.24427480916030533,1.6030534351145038,-2.519083969465649,-0.012451171875,-0.080078125,-0.610595703125,0.204
0.07633587786259542,1.633587786259542,-2.564885496183206,-0.015625,-0.07763671875,-0.602294921875,0.2057
0.5038167938931297,1.8015267175572518,-2.564885496183206,-0.011474609375,-0.07666015625,-0.60693359375,0.2074
0.5038167938931297,1.5725190839694656,-2.7022900763358777,-0.01025390625,-0.0771484375,-0.610595703125,0.20909999999999998
0.4732824427480916,1.6030534351145038,-2.687022900763359,-0.009033203125,-0.082275390625,-0.60400390625,0.2108
0.5648854961832062,1.7099236641221374,-2.763358778625954,-0.010498046875,-0.078369140625,-0.598388671875,0.2125
0.7786259541984732,1.6793893129770991,-2.717557251908397,-0.014892578125,-0.0810546875,-0.602783203125,0.2142
0.9618320610687023,1.7099236641221374,-2.595419847328244,-0.006591796875,-0.07763671875,-0.60595703125,0.21589999999999998
0.9007633587786259,1.7557251908396947,-2.5801526717557253,-0.010986328125,-0.078369140625,-0.60791015625,0.2176
0.8549618320610687,1.5877862595419847,-2.6412213740458017,-0.012939453125,-0.074951171875,-0.609375,0.2193
1.0687022900763359,1.6030534351145038,-2.6412213740458017,-0.0107421875,-0.074951171875,-0.60302734375,0.22099999999999997
1.297709923664122,1.7709923664122138,-2.50381679389313,-0.01513671875,-0.07373046875,-0.610595703125,0.22269999999999998
1.3129770992366412,1.816793893129771,-2.519083969465649,-0.011474609375,-0.077392578125,-0.608642578125,0.2244
1.1908396946564885,1.6030534351145038,-2.381679389312977,-0.0126953125,-0.0703125,-0.598388671875,0.2261
1.3740458015267176,1.6030534351145038,-2.351145038167939,-0.0185546875,-0.07861328125,-0.606201171875,0.22779999999999997
1.6793893129770991,1.618320610687023,-2.2748091603053435,-0.013427734375,-0.073974609375,-0.6015625,0.22949999999999998
1.6488549618320612,1.7709923664122138,-2.427480916030534,-0.011474609375,-0.076171875,-0.612060546875,0.2312
1.786259541984733,1.6488549618320612,-2.3206106870229006,-0.01318359375,-0.076416015625,-0.601318359375,0.2329
1.7099236641221374,1.5725190839694656,-2.2900763358778624,-0.0068359375,-0.08056640625,-0.607177734375,0.23459999999999998
1.618320610687023,1.5267175572519085,-2.0916030534351147,-0.00634765625,-0.08251953125,-0.593017578125,0.23629999999999998
1.5114503816793894,1.6488549618320612,-2.213740458015267,-0.013427734375,-0.0791015625,-0.603759765625,0.238
1.9694656488549618,1.5877862595419847,-1.9389312977099236,-0.00830078125,-0.0810546875,-0.598876953125,0.2397
1.7404580152671756,1.5725190839694656,-2.2442748091603053,-0.009521484375,-0.07861328125,-0.609619140625,0.24139999999999998
1.786259541984733,1.7251908396946565,-2.0,-0.014404296875,-0.081298828125,-0.596923828125,0.24309999999999998
1.465648854961832,1.618320610687023,-1.8625954198473282,-0.016845703125,-0.081298828125,-0.61181640625,0.2448
1.6946564885496183,1.6641221374045803,-1.9694656488549618,-0.0029296875,-0.0830078125,-0.610107421875,0.2465
1.8931297709923665,1.7557251908396947,-1.816793893129771,-0.013427734375,-0.079345703125,-0.610107421875,0.24819999999999998
1.633587786259542,1.7557251908396947,-1.5419847328244274,-0.0146484375,-0.07958984375,-0.611572265625,0.24989999999999998
1.5877862595419847,1.7557251908396947,-1.9389312977099236,-0.011474609375,-0.0849609375,-0.610107421875,0.2516
1.816793893129771,1.9236641221374047,-1.6030534351145038,-0.014892578125,-0.08056640625,-0.608642578125,0.25329999999999997
1.9236641221374047,1.5572519083969465,-1.6946564885496183,-0.01318359375,-0.08544921875,-0.604248046875,0.255
2.045801526717557,1.8931297709923665,-1.618320610687023,-0.0166015625,-0.082763671875,-0.608154296875,0.2567
2.2442748091603053,1.6946564885496183,-1.6793893129770991,-0.01220703125,-0.08447265625,-0.611328125,0.25839999999999996
1.9694656488549618,1.6488549618320612,-1.6030534351145038,-0.009521484375,-0.087646484375,-0.59619140625,0.2601
1.786259541984733,1.816793893129771,-1.7251908396946565,-0.009033203125,-0.08056640625,-0.6103515625,0.2618
1.6641221374045803,1.633587786259542,-1.5572519083969465,-0.011962890625,-0.079345703125,-0.61474609375,0.2635
1.8778625954198473,1.633587786259542,-1.9694656488549618,-0.01123046875,-0.080322265625,-0.611572265625,0.2652
1.6793893129770991,1.5725190839694656,-1.7099236641221374,-0.01416015625,-0.077880859375,-0.615966796875,0.26689999999999997
1.618320610687023,1.6641221374045803,-1.786259541984733,-0.009765625,-0.08349609375,-0.60791015625,0.2686
1.5267175572519085,1.4198473282442747,-1.7404580152671756,-0.01318359375,-0.07958984375,-0.602294921875,0.2703
1.4961832061068703,1.4045801526717556,-1.9236641221374047,-0.0146484375,-0.089111328125,-0.602783203125,0.27199999999999996
1.2061068702290076,1.450381679389313,-1.7251908396946565,-0.0166015625,-0.081787109375,-0.613037109375,0.2737
1.3740458015267176,1.3893129770992367,-1.8931297709923665,-0.01171875,-0.08154296875,-0.609130859375,0.2754
1.1908396946564885,1.3587786259541985,-1.5419847328244274,-0.008056640625,-0.08203125,-0.598876953125,0.27709999999999996
1.0381679389312977,1.3893129770992367,-1.8778625954198473,-0.01171875,-0.083984375,-0.61181640625,0.2788
1.1145038167938932,1.4809160305343512,-1.8015267175572518,-0.013916015625,-0.08203125,-0.60205078125,0.28049999999999997
1.0687022900763359,1.282442748091603,-1.786259541984733,-0.011474609375,-0.083251953125,-0.607177734375,0.2822
0.8091603053435115,1.3129770992366412,-1.6946564885496183,-0.01416015625,-0.083251953125,-0.607177734375,0.2839
0.5954198473282443,1.4045801526717556,-1.7709923664122138,-0.017578125,-0.084716796875,-0.60546875,0.28559999999999997
0.7786259541984732,1.4351145038167938,-1.6946564885496183,-0.01513671875,-0.080810546875,-0.6044921875,0.2873
0.7480916030534351,1.3129770992366412,-1.8473282442748091,-0.009521484375,-0.07568359375,-0.612548828125,0.289
0.6564885496183206,1.1603053435114503,-1.7709923664122138,-0.010986328125,-0.080322265625,-0.608642578125,0.29069999999999996
0.8702290076335878,1.3740458015267176,-1.8778625954198473,-0.0107421875,-0.0791015625,-0.61474609375,0.2924
0.5343511450381679,1.251908396946565,-1.8015267175572518,-0.015869140625,-0.077392578125,-0.604736328125,0.2941
0.9618320610687023,1.3893129770992367,-2.030534351145038,-0.019775390625,-0.08251953125,-0.60546875,0.2958
0.9770992366412213,1.297709923664122,-1.7099236641221374,-0.019775390625,-0.0791015625,-0.60693359375,0.2975
0.8091603053435115,1.2061068702290076,-1.8778625954198473,-0.013916015625,-0.07861328125,-0.6162109375,0.29919999999999997
0.8091603053435115,1.3282442748091603,-1.8778625954198473,-0.013671875,-0.078857421875,-0.60205078125,0.3009
1.1755725190839694,1.5267175572519085,-2.1374045801526718,-0.013916015625,-0.076904296875,-0.603271484375,0.3026
1.1603053435114503,1.3435114503816794,-1.9541984732824427,-0.011474609375,-0.076416015625,-0.60791015625,0.30429999999999996
1.2213740458015268,1.4809160305343512,-1.786259541984733,-0.0146484375,-0.078369140625,-0.60009765625,0.306
1.251908396946565,1.3893129770992367,-2.015267175572519,-0.01611328125,-0.072509765625,-0.60986328125,0.3077
1.3129770992366412,1.5419847328244274,-2.122137404580153,-0.013671875,-0.07373046875,-0.605712890625,0.3094
1.618320610687023,1.3282442748091603,-1.984732824427481,-0.0166015625,-0.08056640625,-0.6123046875,0.3111
1.7404580152671756,1.3282442748091603,-2.030534351145038,-0.013427734375,-0.08203125,-0.61376953125,0.31279999999999997
1.5572519083969465,1.7251908396946565,-1.8625954198473282,-0.0146484375,-0.08154296875,-0.6162109375,0.3145
1.618320610687023,1.5572519083969465,-1.8931297709923665,-0.01416015625,-0.078857421875,-0.607177734375,0.3162
1.786259541984733,1.5572519083969465,-1.9236641221374047,-0.015869140625,-0.07275390625,-0.60888671875,0.31789999999999996
1.8473282442748091,1.633587786259542,-1.984732824427481,-0.017578125,-0.08056640625,-0.603271484375,0.3196
1.6946564885496183,1.3740458015267176,-1.7709923664122138,-0.015869140625,-0.079833984375,-0.609619140625,0.3213
1.83206106870229,1.4961832061068703,-1.9083969465648856,-0.01806640625,-0.0771484375,-0.61181640625,0.323
1.9389312977099236,1.465648854961832,-1.6488549618320612,-0.01025390625,-0.0849609375,-0.60009765625,0.3247
1.6641221374045803,1.465648854961832,-1.7404580152671756,-0.01220703125,-0.08203125,-0.59814453125,0.32639999999999997
1.6488549618320612,1.4045801526717556,-1.618320610687023,-0.01220703125,-0.082275390625,-0.60693359375,0.3281
1.633587786259542,1.3435114503816794,-1.786259541984733,-0.016845703125,-0.0830078125,-0.602783203125,0.3298
1.7404580152671756,1.3893129770992367,-1.618320610687023,-0.01708984375,-0.083251953125,-0.59814453125,0.33149999999999996
1.4809160305343512,1.2671755725190839,-1.6946564885496183,-0.01171875,-0.083984375,-0.598876953125,0.3332
1.3129770992366412,1.4045801526717556,-1.6946564885496183,-0.01806640625,-0.082763671875,-0.599609375,0.3349
1.5114503816793894,1.2671755725190839,-1.8931297709923665,-0.01513671875,-0.08642578125,-0.600830078125,0.33659999999999995
1.5267175572519085,1.099236641221374,-1.7099236641221374,-0.0107421875,-0.08544921875,-0.596435546875,0.3383
1.3435114503816794,1.0381679389312977,-1.786259541984733,-0.010986328125,-0.084716796875,-0.608642578125,0.33999999999999997
0.9618320610687023,1.0687022900763359,-1.7709923664122138,-0.009521484375,-0.083251953125,-0.609619140625,0.3417
0.9923664122137404,0.9465648854961832,-1.786259541984733,-0.01220703125,-0.0810546875,-0.611328125,0.3434
0.8702290076335878,0.916030534351145,-1.7709923664122138,-0.02001953125,-0.080810546875,-0.60302734375,0.34509999999999996
0.6412213740458015,0.8854961832061069,-1.8931297709923665,-0.015869140625,-0.075927734375,-0.60400390625,0.3468
0.6106870229007634,1.099236641221374,-1.7251908396946565,-0.01708984375,-0.078857421875,-0.61279296875,0.3485
0.42748091603053434,1.2366412213740459,-1.8931297709923665,-0.01611328125,-0.076904296875,-0.608642578125,0.35019999999999996
0.44274809160305345,1.1908396946564885,-1.6641221374045803,-0.012939453125,-0.079833984375,-0.609130859375,0.3519
0.3511450381679389,1.282442748091603,-1.6793893129770991,-0.011962890625,-0.07861328125,-0.608154296875,0.35359999999999997
0.21374045801526717,1.297709923664122,-1.6946564885496183,-0.0185546875,-0.0791015625,-0.61376953125,0.3553
0.48854961832061067,1.4351145038167938,-1.4809160305343512,-0.012451171875,-0.074951171875,-0.60888671875,0.357
0.15267175572519084,1.4198473282442747,-1.4351145038167938,-0.01416015625,-0.076171875,-0.61181640625,0.35869999999999996
0.2595419847328244,1.4961832061068703,-1.2671755725190839,-0.013427734375,-0.0791015625,-0.6064453125,0.3604
0.44274809160305345,1.5267175572519085,-1.0687022900763359,-0.00732421875,-0.084716796875,-0.607666015625,0.3621
0.3816793893129771,1.6946564885496183,-1.1603053435114503,-0.009765625,-0.08056640625,-0.60107421875,0.36379999999999996
0.32061068702290074,1.7557251908396947,-0.8702290076335878,-0.01416015625,-0.07763671875,-0.60400390625,0.3655
0.42748091603053434,1.6946564885496183,-1.0229007633587786,-0.015625,-0.077880859375,-0.615966796875,0.36719999999999997
0.3969465648854962,1.7099236641221374,-1.0229007633587786,-0.013427734375,-0.076416015625,-0.612060546875,0.3689
0.3816793893129771,1.6488549618320612,-0.8702290076335878,-0.010498046875,-0.078369140625,-0.61279296875,0.3706
0.3969465648854962,1.5877862595419847,-0.6564885496183206,-0.011962890625,-0.07666015625,-0.607666015625,0.37229999999999996
0.5648854961832062,1.633587786259542,-0.5954198473282443,-0.0126953125,-0.076171875,-0.61083984375,0.374
0.48854961832061067,1.3893129770992367,-0.6259541984732825,-0.015625,-0.077880859375,-0.611083984375,0.3757
0.5190839694656488,1.4045801526717556,-0.6564885496183206,-0.01416015625,-0.076171875,-0.602783203125,0.37739999999999996
0.5954198473282443,1.3740458015267176,-0.8091603053435115,-0.01123046875,-0.076416015625,-0.6083984375,0.3791
0.6564885496183206,1.297709923664122,-0.5648854961832062,-0.012939453125,-0.07666015625,-0.61279296875,0.38079999999999997
0.8396946564885496,1.2061068702290076,-0.5648854961832062,-0.015869140625,-0.07666015625,-0.6044921875,0.38249999999999995
0.48854961832061067,1.0534351145038168,-0.4122137404580153,-0.009521484375,-0.07763671875,-0.600830078125,0.3842
0.5648854961832062,1.0229007633587786,-0.5801526717557252,-0.01123046875,-0.07421875,-0.60205078125,0.38589999999999997
0.549618320610687,1.1603053435114503,-0.3511450381679389,-0.0087890625,-0.078369140625,-0.607421875,0.3876
0.6259541984732825,1.0076335877862594,-0.2900763358778626,-0.01025390625,-0.073486328125,-0.60986328125,0.3893
0.8091603053435115,0.8091603053435115,-0.3511450381679389,-0.01220703125,-0.0732421875,-0.60791015625,0.39099999999999996
0.6259541984732825,0.5648854961832062,-0.0916030534351145,-0.01123046875,-0.072021484375,-0.60498046875,0.3927
0.5801526717557252,0.6259541984732825,-0.13740458015267176,-0.013427734375,-0.072265625,-0.614990234375,0.3944
0.6870229007633588,0.6106870229007634,0.061068702290076333,-0.00830078125,-0.0771484375,-0.6103515625,0.39609999999999995
0.6564885496183206,0.4732824427480916,0.07633587786259542,-0.012939453125,-0.0791015625,-0.622314453125,0.3978
0.5648854961832062,0.5343511450381679,0.12213740458015267,-0.0107421875,-0.07861328125,-0.614501953125,0.39949999999999997
0.9465648854961832,0.549618320610687,0.1984732824427481,-0.0068359375,-0.069091796875,-0.610107421875,0.4012
0.8396946564885496,0.2900763358778626,0.183206106870229,-0.010498046875,-0.07421875,-0.604736328125,0.4029
0.9923664122137404,0.3969465648854962,0.3511450381679389,-0.01123046875,-0.07373046875,-0.603271484375,0.40459999999999996
1.3282442748091603,0.366412213740458,0.24427480916030533,-0.0126953125,-0.07958984375,-0.6064453125,0.4063
1.2061068702290076,0.5190839694656488,0.32061068702290074,-0.01220703125,-0.0751953125,-0.610107421875,0.408
1.4809160305343512,0.3816793893129771,0.2900763358778626,-0.010986328125,-0.068603515625,-0.608642578125,0.40969999999999995
1.8473282442748091,0.24427480916030533,0.3969465648854962,-0.01025390625,-0.076171875,-0.601318359375,0.4114
1.9083969465648856,0.3816793893129771,0.2595419847328244,-0.010009765625,-0.07958984375,-0.60205078125,0.41309999999999997
2.0763358778625953,0.21374045801526717,0.22900763358778625,-0.009765625,-0.07470703125,-0.603515625,0.4148
2.045801526717557,0.22900763358778625,0.2900763358778626,-0.014892578125,-0.07763671875,-0.611083984375,0.4165
2.198473282442748,0.2900763358778626,0.22900763358778625,-0.009033203125,-0.072021484375,-0.599853515625,0.41819999999999996
2.549618320610687,0.22900763358778625,0.21374045801526717,-0.012939453125,-0.07177734375,-0.60986328125,0.4199
2.366412213740458,0.0916030534351145,0.2748091603053435,-0.01171875,-0.074462890625,-0.609375,0.4216
2.5801526717557253,0.2748091603053435,0.12213740458015267,-0.012939453125,-0.07421875,-0.600341796875,0.42329999999999995
2.8244274809160306,0.2595419847328244,0.030534351145038167,-0.015625,-0.07470703125,-0.60595703125,0.425
2.717557251908397,0.3816793893129771,0.061068702290076333,-0.014404296875,-0.076904296875,-0.600830078125,0.42669999999999997
2.732824427480916,0.21374045801526717,0.22900763358778625,-0.011474609375,-0.077392578125,-0.602783203125,0.4284
2.8091603053435112,0.183206106870229,0.13740458015267176,-0.012939453125,-0.076171875,-0.6044921875,0.4301
3.0381679389312977,0.1984732824427481,0.12213740458015267,-0.009765625,-0.07470703125,-0.597900390625,0.43179999999999996
3.1908396946564888,0.3053435114503817,0.061068702290076333,-0.014404296875,-0.076171875,-0.605712890625,0.4335
3.282442748091603,0.21374045801526717,0.030534351145038167,-0.014404296875,-0.0751953125,-0.60546875,0.4352
3.1755725190839694,0.22900763358778625,-0.030534351145038167,-0.01171875,-0.076171875,-0.604736328125,0.43689999999999996
3.236641221374046,0.13740458015267176,0.2900763358778626,-0.013916015625,-0.07861328125,-0.6064453125,0.4386
3.282442748091603,0.15267175572519084,0.13740458015267176,-0.019775390625,-0.082275390625,-0.61669921875,0.44029999999999997
3.435114503816794,0.15267175572519084,0.183206106870229,-0.00927734375,-0.08349609375,-0.6123046875,0.44199999999999995
3.3587786259541983,0.183206106870229,0.12213740458015267,-0.01416015625,-0.07861328125,-0.609375,0.4437
3.404580152671756,0.32061068702290074,-0.12213740458015267,-0.014404296875,-0.079833984375,-0.608154296875,0.44539999999999996
3.312977099236641,0.3969465648854962,0.0,-0.012451171875,-0.0830078125,-0.611328125,0.4471
3.145038167938931,0.33587786259541985,0.12213740458015267,-0.012451171875,-0.076171875,-0.606201171875,0.4488
2.8702290076335877,0.44274809160305345,-0.0916030534351145,-0.01708984375,-0.0751953125,-0.60595703125,0.45049999999999996
2.9923664122137406,0.5648854961832062,-0.015267175572519083,-0.016357421875,-0.08251953125,-0.6103515625,0.4522
2.8244274809160306,0.7022900763358778,-0.0916030534351145,-0.015869140625,-0.082275390625,-0.61181640625,0.45389999999999997
2.519083969465649,0.549618320610687,-0.12213740458015267,-0.017333984375,-0.084716796875,-0.614990234375,0.45559999999999995
2.6564885496183206,0.5801526717557252,-0.42748091603053434,-0.015869140625,-0.081787109375,-0.609130859375,0.4573
2.33587786259542,0.6259541984732825,-0.4122137404580153,-0.0146484375,-0.081787109375,-0.619384765625,0.45899999999999996
2.2442748091603053,0.7786259541984732,-0.5038167938931297,-0.010986328125,-0.081787109375,-0.609619140625,0.4607
2.3206106870229006,0.6412213740458015,-0.5801526717557252,-0.0146484375,-0.08349609375,-0.60693359375,0.4624
2.366412213740458,0.732824427480916,-0.7175572519083969,-0.015380859375,-0.089599609375,-0.609130859375,0.46409999999999996
2.045801526717557,0.6412213740458015,-0.5648854961832062,-0.01220703125,-0.090087890625,-0.612060546875,0.4658
2.030534351145038,0.732824427480916,-0.6106870229007634,-0.01025390625,-0.088623046875,-0.60693359375,0.46749999999999997
1.9236641221374047,0.5038167938931297,-0.8244274809160306,-0.017822265625,-0.08203125,-0.617919921875,0.46919999999999995
1.7557251908396947,0.7480916030534351,-1.1297709923664123,-0.01318359375,-0.08447265625,-0.616943359375,0.4709
1.816793893129771,0.732824427480916,-0.9770992366412213,-0.013427734375,-0.086669921875,-0.606689453125,0.47259999999999996
1.7557251908396947,0.6870229007633588,-0.9770992366412213,-0.009033203125,-0.08447265625,-0.6064453125,0.4743
1.6488549618320612,0.6564885496183206,-0.9770992366412213,-0.0087890625,-0.087158203125,-0.611328125,0.476
1.3587786259541985,0.8396946564885496,-1.0534351145038168,-0.01025390625,-0.084716796875,-0.601318359375,0.47769999999999996
1.282442748091603,0.8549618320610687,-0.9312977099236641,-0.01123046875,-0.08154296875,-0.607666015625,0.4794
1.282442748091603,0.7938931297709924,-1.2213740458015268,-0.012451171875,-0.085693359375,-0.6083984375,0.48109999999999997
0.9923664122137404,1.0076335877862594,-1.0076335877862594,-0.011962890625,-0.08349609375,-0.605224609375,0.48279999999999995
0.9770992366412213,1.0534351145038168,-1.2061068702290076,-0.012939453125,-0.082275390625,-0.611083984375,0.4845
0.8396946564885496,0.9770992366412213,-0.9770992366412213,-0.01220703125,-0.080078125,-0.6083984375,0.48619999999999997
0.8244274809160306,1.083969465648855,-1.099236641221374,-0.01123046875,-0.079345703125,-0.60791015625,0.4879
0.7938931297709924,1.1755725190839694,-1.0687022900763359,-0.012451171875,-0.087890625,-0.609130859375,0.4896
0.6412213740458015,1.1450381679389312,-1.1908396946564885,-0.015869140625,-0.083740234375,-0.606201171875,0.49129999999999996
0.4580152671755725,1.1145038167938932,-0.9465648854961832,-0.015869140625,-0.078125,-0.610107421875,0.493
0.5343511450381679,1.2671755725190839,-1.1450381679389312,-0.01318359375,-0.08349609375,-0.60595703125,0.4947
0.5038167938931297,1.297709923664122,-1.2366412213740459,-0.00830078125,-0.085205078125,-0.60107421875,0.49639999999999995
0.2748091603053435,1.0687022900763359,-1.3282442748091603,-0.01318359375,-0.08447265625,-0.6171875,0.4981
0.3511450381679389,1.1755725190839694,-1.1145038167938932,-0.012939453125,-0.082275390625,-0.614013671875,0.49979999999999997
0.366412213740458,1.4351145038167938,-1.4045801526717556,-0.0126953125,-0.088623046875,-0.612060546875,0.5015
0.0916030534351145,1.4351145038167938,-1.3129770992366412,-0.008056640625,-0.080810546875,-0.607177734375,0.5032
0.32061068702290074,1.4809160305343512,-1.282442748091603,-0.009765625,-0.081787109375,-0.610595703125,0.5049
0.2595419847328244,1.4809160305343512,-1.4045801526717556,-0.01318359375,-0.080078125,-0.605224609375,0.5065999999999999
0.3511450381679389,1.5572519083969465,-1.5572519083969465,-0.00732421875,-0.080078125,-0.596923828125,0.5083
0.183206106870229,1.5267175572519085,-1.5572519083969465,-0.011474609375,-0.082275390625,-0.602783203125,0.51
0.3511450381679389,1.5419847328244274,-1.8015267175572518,-0.012451171875,-0.08447265625,-0.606201171875,0.5116999999999999
0.6106870229007634,1.5114503816793894,-1.6946564885496183,-0.010009765625,-0.086181640625,-0.6181640625,0.5134
0.3053435114503817,1.786259541984733,-1.618320610687023,-0.011474609375,-0.083740234375,-0.60400390625,0.5151
0.2748091603053435,1.7557251908396947,-1.7404580152671756,-0.009033203125,-0.0859375,-0.60302734375,0.5167999999999999
0.6259541984732825,1.5267175572519085,-1.8778625954198473,-0.01025390625,-0.081787109375,-0.609619140625,0.5185
0.5038167938931297,1.816793893129771,-1.8778625954198473,-0.009521484375,-0.0791015625,-0.610107421875,0.5202
0.7022900763358778,1.8931297709923665,-1.9389312977099236,-0.0126953125,-0.08349609375,-0.61572265625,0.5218999999999999
0.5343511450381679,1.6793893129770991,-1.8778625954198473,-0.01171875,-0.080810546875,-0.60546875,0.5236
0.6259541984732825,1.6641221374045803,-1.8473282442748091,-0.008544921875,-0.082275390625,-0.6123046875,0.5253
0.2595419847328244,1.7099236641221374,-1.8473282442748091,-0.008544921875,-0.080078125,-0.606689453125,0.527
0.2748091603053435,1.9083969465648856,-1.8625954198473282,-0.00830078125,-0.077392578125,-0.609619140625,0.5287
0.549618320610687,1.7709923664122138,-1.8625954198473282,-0.006591796875,-0.075927734375,-0.6044921875,0.5304
0.4580152671755725,1.6641221374045803,-1.7404580152671756,-0.009765625,-0.077880859375,-0.609375,0.5321
0.2595419847328244,1.9389312977099236,-1.6641221374045803,-0.009521484375,-0.08203125,-0.61474609375,0.5337999999999999
0.24427480916030533,1.83206106870229,-1.816793893129771,-0.011962890625,-0.081787109375,-0.609375,0.5355
0.2595419847328244,1.8473282442748091,-1.6641221374045803,-0.00830078125,-0.07763671875,-0.610107421875,0.5372
0.2748091603053435,1.7557251908396947,-1.7404580152671756,-0.006591796875,-0.07666015625,-0.610107421875,0.5388999999999999
0.4732824427480916,1.816793893129771,-1.5419847328244274,-0.0087890625,-0.08447265625,-0.60546875,0.5406
0.5343511450381679,1.8625954198473282,-1.6030534351145038,-0.00830078125,-0.086181640625,-0.6064453125,0.5423
0.6106870229007634,1.816793893129771,-1.8015267175572518,-0.01025390625,-0.080078125,-0.603759765625,0.5439999999999999
0.4732824427480916,1.7404580152671756,-1.7099236641221374,-0.007568359375,-0.078369140625,-0.60888671875,0.5457
0.3969465648854962,1.7709923664122138,-1.6793893129770991,-0.007080078125,-0.076416015625,-0.60302734375,0.5474
0.33587786259541985,1.7709923664122138,-1.8015267175572518,-0.010009765625,-0.076904296875,-0.60546875,0.5490999999999999
0.6564885496183206,1.984732824427481,-1.6641221374045803,-0.0126953125,-0.073486328125,-0.60400390625,0.5508
0.7175572519083969,1.8778625954198473,-1.6946564885496183,-0.012939453125,-0.079345703125,-0.602783203125,0.5525
0.9618320610687023,1.9389312977099236,-1.7557251908396947,-0.0107421875,-0.078857421875,-0.60986328125,0.5541999999999999
1.099236641221374,1.8625954198473282,-1.6793893129770991,-0.00927734375,-0.07763671875,-0.609130859375,0.5559
1.3587786259541985,1.7251908396946565,-1.786259541984733,-0.012451171875,-0.081787109375,-0.6015625,0.5576
1.5267175572519085,1.9083969465648856,-1.6793893129770991,-0.008056640625,-0.074951171875,-0.611328125,0.5593
1.5572519083969465,1.7557251908396947,-1.6030534351145038,-0.010498046875,-0.08349609375,-0.607666015625,0.5609999999999999
1.5725190839694656,1.8473282442748091,-1.6030534351145038,-0.013916015625,-0.0791015625,-0.61279296875,0.5627
1.4809160305343512,2.198473282442748,-1.7404580152671756,-0.010009765625,-0.083251953125,-0.6064453125,0.5644
1.7404580152671756,1.9083969465648856,-1.5114503816793894,-0.01123046875,-0.081298828125,-0.605224609375,0.5660999999999999
2.0610687022900764,2.1068702290076335,-1.5114503816793894,-0.009033203125,-0.079833984375,-0.6083984375,0.5678
1.8625954198473282,2.030534351145038,-1.9541984732824427,-0.011474609375,-0.078857421875,-0.602783203125,0.5695
1.7099236641221374,2.3206106870229006,-1.4961832061068703,-0.0078125,-0.076416015625,-0.602783203125,0.5711999999999999
1.6641221374045803,2.213740458015267,-1.465648854961832,-0.01220703125,-0.080810546875,-0.59765625,0.5729
1.6946564885496183,2.1374045801526718,-1.4809160305343512,-0.013916015625,-0.07568359375,-0.602294921875,0.5746
1.8931297709923665,2.2595419847328246,-1.6488549618320612,-0.010498046875,-0.0810546875,-0.612548828125,0.5762999999999999
2.0916030534351147,2.351145038167939,-1.4809160305343512,-0.009033203125,-0.077880859375,-0.60546875,0.578
2.0763358778625953,2.2595419847328246,-1.3587786259541985,-0.010009765625,-0.07568359375,-0.602294921875,0.5797
2.33587786259542,2.3969465648854964,-1.5572519083969465,-0.012451171875,-0.08544921875,-0.60107421875,0.5813999999999999
2.2442748091603053,2.2748091603053435,-1.5114503816793894,-0.013916015625,-0.08154296875,-0.600341796875,0.5831
2.351145038167939,2.2900763358778624,-1.5267175572519085,-0.011474609375,-0.085205078125,-0.60546875,0.5848
2.564885496183206,2.183206106870229,-1.3435114503816794,-0.014892578125,-0.081298828125,-0.60693359375,0.5865
2.427480916030534,2.351145038167939,-1.4198473282442747,-0.01416015625,-0.07958984375,-0.6044921875,0.5882
2.549618320610687,2.4580152671755724,-1.3435114503816794,-0.010498046875,-0.085205078125,-0.60400390625,0.5899
2.4580152671755724,2.595419847328244,-1.5419847328244274,-0.01416015625,-0.0830078125,-0.6015625,0.5916
2.4580152671755724,2.5343511450381677,-1.6030534351145038,-0.009765625,-0.0810546875,-0.60791015625,0.5932999999999999
2.3053435114503817,2.595419847328244,-1.3893129770992367,-0.009765625,-0.08154296875,-0.60546875,0.595
2.16793893129771,2.6259541984732824,-1.3740458015267176,-0.013671875,-0.07958984375,-0.610595703125,0.5967
1.9694656488549618,2.885496183206107,-1.5267175572519085,-0.008544921875,-0.0869140625,-0.606201171875,0.5983999999999999
1.7099236641221374,2.717557251908397,-1.3282442748091603,-0.007568359375,-0.082275390625,-0.60888671875,0.6001
1.6488549618320612,2.7022900763358777,-1.3893129770992367,-0.0107421875,-0.0791015625,-0.599853515625,0.6018
1.6488549618320612,2.900763358778626,-1.450381679389313,-0.009033203125,-0.084228515625,-0.604248046875,0.6034999999999999
1.8931297709923665,3.1297709923664123,-1.465648854961832,-0.009033203125,-0.082763671875,-0.60595703125,0.6052
1.4961832061068703,3.0839694656488548,-1.3282442748091603,-0.010009765625,-0.083251953125,-0.60302734375,0.6069
1.6641221374045803,3.0381679389312977,-1.450381679389313,-0.009765625,-0.07763671875,-0.59814453125,0.6085999999999999
1.7099236641221374,3.068702290076336,-1.4198473282442747,-0.0107421875,-0.07958984375,-0.60498046875,0.6103
1.7709923664122138,3.099236641221374,-1.1145038167938932,-0.015380859375,-0.084228515625,-0.611083984375,0.612
1.9083969465648856,3.114503816793893,-1.282442748091603,-0.014892578125,-0.07861328125,-0.607421875,0.6136999999999999
1.7099236641221374,3.236641221374046,-1.4045801526717556,-0.011962890625,-0.082763671875,-0.610595703125,0.6154
1.6641221374045803,3.068702290076336,-1.2061068702290076,-0.00732421875,-0.078369140625,-0.603271484375,0.6171
1.9541984732824427,3.1755725190839694,-1.3282442748091603,-0.0068359375,-0.0810546875,-0.5966796875,0.6188
1.7404580152671756,3.3282442748091605,-1.2366412213740459,-0.004150390625,-0.082763671875,-0.605712890625,0.6204999999999999
1.5419847328244274,3.2213740458015265,-1.0687022900763359,-0.006591796875,-0.082763671875,-0.60302734375,0.6222
1.8015267175572518,3.2213740458015265,-1.099236641221374,-0.00390625,-0.07373046875,-0.60009765625,0.6239
2.1068702290076335,3.236641221374046,-1.099236641221374,-0.009521484375,-0.07666015625,-0.59912109375,0.6255999999999999
2.1526717557251906,3.480916030534351,-0.8702290076335878,-0.005859375,-0.074951171875,-0.600830078125,0.6273
2.16793893129771,3.5114503816793894,-0.9312977099236641,-0.0068359375,-0.078125,-0.60693359375,0.629
2.2442748091603053,3.3435114503816794,-0.6717557251908397,-0.01416015625,-0.082275390625,-0.59716796875,0.6306999999999999
2.4427480916030535,3.267175572519084,-0.9770992366412213,-0.005126953125,-0.080322265625,-0.598876953125,0.6324
2.4885496183206106,3.3740458015267176,-0.8244274809160306,-0.0048828125,-0.0791015625,-0.59375,0.6341
2.4885496183206106,3.312977099236641,-0.8091603053435115,-0.009765625,-0.079833984375,-0.601806640625,0.6357999999999999
2.549618320610687,3.4198473282442747,-0.7480916030534351,-0.007568359375,-0.08154296875,-0.597900390625,0.6375
2.763358778625954,3.435114503816794,-0.6870229007633588,-0.009765625,-0.07763671875,-0.593994140625,0.6392
3.0381679389312977,3.312977099236641,-0.5954198473282443,-0.007568359375,-0.07568359375,-0.6005859375,0.6408999999999999
3.068702290076336,3.4198473282442747,-0.3053435114503817,-0.0068359375,-0.07666015625,-0.606689453125,0.6426
3.053435114503817,3.5114503816793894,-0.3511450381679389,-0.01171875,-0.077880859375,-0.6025390625,0.6443
3.267175572519084,3.5114503816793894,-0.366412213740458,-0.0107421875,-0.081298828125,-0.59814453125,0.646
3.5114503816793894,3.5419847328244276,-0.13740458015267176,-0.009765625,-0.07666015625,-0.602294921875,0.6476999999999999
3.5877862595419847,3.4198473282442747,-0.2748091603053435,-0.010498046875,-0.07421875,-0.596923828125,0.6494
3.4198473282442747,3.5572519083969465,0.13740458015267176,-0.00439453125,-0.079345703125,-0.59619140625,0.6511
3.7404580152671754,3.5114503816793894,-0.030534351145038167,-0.007568359375,-0.079833984375,-0.59912109375,0.6527999999999999
3.6946564885496183,3.5419847328244276,-0.015267175572519083,-0.0029296875,-0.08154296875,-0.60107421875,0.6545
4.137404580152672,3.572519083969466,-0.030534351145038167,-0.003662109375,-0.07763671875,-0.602294921875,0.6562
4.351145038167939,3.435114503816794,0.15267175572519084,-0.00439453125,-0.080078125,-0.5966796875,0.6578999999999999
4.244274809160306,3.3282442748091605,0.030534351145038167,-0.006591796875,-0.082763671875,-0.601318359375,0.6596
4.320610687022901,3.3893129770992365,0.2900763358778626,-0.007568359375,-0.081298828125,-0.600341796875,0.6613
4.473282442748092,3.3435114503816794,0.12213740458015267,-0.002685546875,-0.0859375,-0.59912109375,0.6629999999999999
4.625954198473282,3.1297709923664123,0.32061068702290074,-0.003173828125,-0.08642578125,-0.599853515625,0.6647
4.763358778625954,3.0839694656488548,0.21374045801526717,-0.004150390625,-0.08349609375,-0.60400390625,0.6664
5.022900763358779,3.1908396946564888,0.183206106870229,-0.010498046875,-0.087158203125,-0.598388671875,0.6680999999999999
5.00763358778626,3.0076335877862594,0.07633587786259542,-0.001708984375,-0.089111328125,-0.6044921875,0.6698
5.221374045801527,2.7480916030534353,0.16793893129770993,-0.00732421875,-0.082763671875,-0.59619140625,0.6715
5.236641221374046,3.053435114503817,-0.1984732824427481,-0.0087890625,-0.084228515625,-0.599609375,0.6731999999999999
5.404580152671755,2.9923664122137406,0.0,-0.003173828125,-0.083251953125,-0.605224609375,0.6748999999999999
5.587786259541985,2.9160305343511452,0.0,-0.008544921875,-0.083740234375,-0.61279296875,0.6766
5.572519083969466,2.900763358778626,-0.07633587786259542,-0.0078125,-0.082763671875,-0.610107421875,0.6783
5.6183206106870225,2.7022900763358777,-0.3511450381679389,-0.00537109375,-0.085693359375,-0.60107421875,0.6799999999999999
5.709923664122138,2.6412213740458017,-0.3969465648854962,-0.0078125,-0.085205078125,-0.59765625,0.6817
6.0458015267175576,2.33587786259542,-0.549618320610687,-0.008056640625,-0.08349609375,-0.6064453125,0.6834
5.847328244274809,2.381679389312977,-0.4580152671755725,-0.00732421875,-0.082275390625,-0.606201171875,0.6850999999999999
5.694656488549619,2.2748091603053435,-0.7633587786259542,-0.0068359375,-0.08349609375,-0.605224609375,0.6868
6.213740458015267,2.1374045801526718,-0.7175572519083969,-0.006103515625,-0.08056640625,-0.606689453125,0.6885
6.534351145038168,2.1068702290076335,-0.8244274809160306,-0.003173828125,-0.082763671875,-0.600341796875,0.6901999999999999
6.458015267175573,1.83206106870229,-0.9312977099236641,-0.005615234375,-0.07763671875,-0.61572265625,0.6919
6.473282442748092,1.7099236641221374,-0.8854961832061069,-0.0029296875,-0.083740234375,-0.6015625,0.6936
6.717557251908397,1.83206106870229,-1.0534351145038168,-0.00341796875,-0.0869140625,-0.60107421875,0.6952999999999999
6.656488549618321,1.618320610687023,-1.099236641221374,-0.004150390625,-0.08154296875,-0.60986328125,0.697
6.625954198473282,1.4351145038167938,-1.0381679389312977,0.003173828125,-0.0869140625,-0.59326171875,0.6987
6.732824427480916,1.633587786259542,-1.3893129770992367,-0.003173828125,-0.08642578125,-0.599609375,0.7003999999999999
6.580152671755725,1.6946564885496183,-1.4198473282442747,-0.007568359375,-0.0859375,-0.605224609375,0.7021
6.3816793893129775,1.5572519083969465,-1.6030534351145038,-0.0029296875,-0.08203125,-0.609375,0.7038
6.198473282442748,1.6030534351145038,-1.5114503816793894,-0.001708984375,-0.08203125,-0.614501953125,0.7055
5.938931297709924,1.3893129770992367,-1.7557251908396947,-0.00390625,-0.079345703125,-0.61083984375,0.7071999999999999
5.66412213740458,1.4198473282442747,-1.83206106870229,-0.009521484375,-0.088134765625,-0.607666015625,0.7089
5.374045801526718,1.3740458015267176,-1.7557251908396947,-0.009765625,-0.086181640625,-0.60888671875,0.7106
5.206106870229007,1.4809160305343512,-1.8473282442748091,-0.009033203125,-0.092529296875,-0.614013671875,0.7122999999999999
4.809160305343512,1.5419847328244274,-1.7251908396946565,-0.010009765625,-0.09716796875,-0.62255859375,0.714
4.5038167938931295,1.5114503816793894,-1.9389312977099236,-0.00927734375,-0.09228515625,-0.609130859375,0.7157
4.213740458015267,1.4351145038167938,-1.9389312977099236,-0.006591796875,-0.096923828125,-0.60888671875,0.7173999999999999
4.0458015267175576,1.4198473282442747,-1.9694656488549618,-0.010009765625,-0.093505859375,-0.612548828125,0.7191
3.877862595419847,1.3893129770992367,-2.1374045801526718,-0.005859375,-0.098876953125,-0.609619140625,0.7208
3.2977099236641223,1.3740458015267176,-1.984732824427481,-0.003173828125,-0.100830078125,-0.608642578125,0.7224999999999999
3.3435114503816794,1.4045801526717556,-2.2900763358778624,-0.008544921875,-0.096435546875,-0.610107421875,0.7242
2.854961832061069,1.282442748091603,-2.0763358778625953,-0.00732421875,-0.099365234375,-0.61767578125,0.7259
2.6259541984732824,1.3893129770992367,-2.2900763358778624,-0.0078125,-0.094482421875,-0.613525390625,0.7275999999999999
2.4580152671755724,1.282442748091603,-2.2442748091603053,-0.0068359375,-0.097412109375,-0.616455078125,0.7293
1.9083969465648856,1.4198473282442747,-2.3206106870229006,-0.010009765625,-0.093505859375,-0.613525390625,0.731
1.6030534351145038,1.4961832061068703,-2.2900763358778624,-0.013427734375,-0.09765625,-0.61083984375,0.7326999999999999
1.0687022900763359,1.4961832061068703,-2.183206106870229,-0.013916015625,-0.095458984375,-0.612548828125,0.7343999999999999
0.7480916030534351,1.6641221374045803,-2.427480916030534,-0.00927734375,-0.087158203125,-0.605224609375,0.7361
0.4732824427480916,1.5877862595419847,-2.366412213740458,-0.010009765625,-0.093017578125,-0.612060546875,0.7378
-0.10687022900763359,1.6641221374045803,-2.595419847328244,-0.013916015625,-0.092529296875,-0.611328125,0.7394999999999999
-0.5190839694656488,1.816793893129771,-2.6106870229007635,-0.009033203125,-0.091064453125,-0.604736328125,0.7412
-0.9312977099236641,1.465648854961832,-2.564885496183206,-0.007568359375,-0.096435546875,-0.607421875,0.7429
-1.3129770992366412,1.5572519083969465,-2.900763358778626,-0.007568359375,-0.0966796875,-0.608642578125,0.7445999999999999
-1.5877862595419847,1.7557251908396947,-3.1297709923664123,-0.018798828125,-0.0947265625,-0.601806640625,0.7463
-1.7709923664122138,1.3893129770992367,-3.267175572519084,-0.00927734375,-0.091796875,-0.608154296875,0.748
-1.9694656488549618,1.4351145038167938,-3.5114503816793894,-0.015869140625,-0.09033203125,-0.614501953125,0.7496999999999999
-2.213740458015267,1.5114503816793894,-3.7404580152671754,-0.014892578125,-0.091064453125,-0.61181640625,0.7514
-2.0,1.3893129770992367,-3.9083969465648853,-0.008544921875,-0.086669921875,-0.611328125,0.7531
-2.198473282442748,1.5572519083969465,-4.0458015267175576,-0.012451171875,-0.084716796875,-0.612548828125,0.7547999999999999
-2.0916030534351147,1.4351145038167938,-4.290076335877862,-0.012939453125,-0.0849609375,-0.6123046875,0.7565
-1.6946564885496183,1.3282442748091603,-4.519083969465649,-0.01416015625,-0.082275390625,-0.606201171875,0.7582
-1.984732824427481,1.3129770992366412,-4.641221374045801,-0.0146484375,-0.080810546875,-0.61083984375,0.7598999999999999
-1.5419847328244274,1.3740458015267176,-4.595419847328245,-0.01611328125,-0.0791015625,-0.615478515625,0.7615999999999999
-1.465648854961832,1.3282442748091603,-4.717557251908397,-0.00732421875,-0.076171875,-0.61572265625,0.7633
-1.282442748091603,1.4351145038167938,-4.6106870229007635,-0.015380859375,-0.074951171875,-0.60791015625,0.7649999999999999
-0.7786259541984732,1.4045801526717556,-4.763358778625954,-0.018310546875,-0.07470703125,-0.609130859375,0.7666999999999999
-0.5954198473282443,1.5572519083969465,-4.717557251908397,-0.011474609375,-0.06787109375,-0.61962890625,0.7684
-0.3969465648854962,1.7251908396946565,-4.687022900763359,-0.01416015625,-0.073486328125,-0.610107421875,0.7701
-0.3816793893129771,1.9389312977099236,-4.625954198473282,-0.00927734375,-0.0732421875,-0.61279296875,0.7717999999999999
-0.030534351145038167,1.7557251908396947,-4.625954198473282,-0.0107421875,-0.071533203125,-0.611572265625,0.7735
0.48854961832061067,2.1374045801526718,-4.442748091603053,-0.016845703125,-0.077880859375,-0.610595703125,0.7752
0.7022900763358778,2.213740458015267,-4.488549618320611,-0.01611328125,-0.07470703125,-0.614990234375,0.7768999999999999
0.8854961832061069,2.3206106870229006,-4.351145038167939,-0.011474609375,-0.072998046875,-0.60888671875,0.7786
1.2671755725190839,2.4122137404580153,-4.152671755725191,-0.012451171875,-0.0703125,-0.6103515625,0.7803
1.7251908396946565,2.595419847328244,-3.969465648854962,-0.015380859375,-0.076171875,-0.6171875,0.7819999999999999
1.9694656488549618,2.6412213740458017,-4.061068702290076,-0.012451171875,-0.0732421875,-0.621337890625,0.7837
2.3206106870229006,2.717557251908397,-3.801526717557252,-0.012939453125,-0.083251953125,-0.614990234375,0.7854
2.6412213740458017,2.8244274809160306,-3.816793893129771,-0.0107421875,-0.072265625,-0.617431640625,0.7870999999999999
3.0229007633587788,2.931297709923664,-3.5572519083969465,-0.01513671875,-0.079345703125,-0.61328125,0.7888
3.114503816793893,2.9618320610687023,-3.648854961832061,-0.017333984375,-0.078125,-0.6064453125,0.7905
3.2213740458015265,2.763358778625954,-3.7099236641221376,-0.009033203125,-0.08154296875,-0.609619140625,0.7921999999999999
3.3282442748091605,2.7938931297709924,-3.7404580152671754,-0.01318359375,-0.0791015625,-0.61669921875,0.7938999999999999
3.5114503816793894,2.687022900763359,-3.435114503816794,-0.0146484375,-0.083251953125,-0.6142578125,0.7956
3.3893129770992365,2.6259541984732824,-3.633587786259542,-0.012451171875,-0.081298828125,-0.61279296875,0.7973
3.404580152671756,2.6717557251908395,-3.5114503816793894,-0.013427734375,-0.08447265625,-0.62548828125,0.7989999999999999
3.435114503816794,2.564885496183206,-3.1755725190839694,-0.01220703125,-0.08251953125,-0.6171875,0.8007
3.099236641221374,2.5343511450381677,-3.114503816793893,-0.005615234375,-0.0830078125,-0.614013671875,0.8024
3.2519083969465647,2.4885496183206106,-3.068702290076336,-0.016845703125,-0.080322265625,-0.615478515625,0.8040999999999999
3.099236641221374,2.427480916030534,-3.0839694656488548,-0.011962890625,-0.084228515625,-0.612548828125,0.8058
2.7938931297709924,2.4427480916030535,-3.053435114503817,-0.009765625,-0.085693359375,-0.619384765625,0.8075
2.564885496183206,2.427480916030534,-2.732824427480916,-0.004150390625,-0.084716796875,-0.614013671875,0.8091999999999999
2.4580152671755724,2.5343511450381677,-2.946564885496183,-0.0087890625,-0.0869140625,-0.61328125,0.8109
2.0,2.2900763358778624,-2.5801526717557253,-0.007568359375,-0.086669921875,-0.61328125,0.8126
1.9389312977099236,2.16793893129771,-2.4580152671755724,-0.00732421875,-0.086181640625,-0.6103515625,0.8142999999999999
1.83206106870229,2.2595419847328246,-2.4580152671755724,-0.008056640625,-0.081787109375,-0.616455078125,0.816
1.4961832061068703,2.1374045801526718,-2.381679389312977,-0.00634765625,-0.081298828125,-0.61865234375,0.8177
1.4809160305343512,2.183206106870229,-2.1068702290076335,-0.004150390625,-0.0771484375,-0.61376953125,0.8193999999999999
1.251908396946565,2.015267175572519,-2.4122137404580153,-0.0078125,-0.07763671875,-0.618408203125,0.8210999999999999
0.9618320610687023,2.015267175572519,-1.9389312977099236,-0.00732421875,-0.079833984375,-0.615234375,0.8228
1.083969465648855,1.8931297709923665,-1.984732824427481,-0.00341796875,-0.07958984375,-0.616943359375,0.8244999999999999
0.8549618320610687,1.6030534351145038,-2.015267175572519,-0.004638671875,-0.075927734375,-0.6201171875,0.8261999999999999
0.6106870229007634,1.5877862595419847,-2.030534351145038,-0.007080078125,-0.077392578125,-0.615234375,0.8279
0.4122137404580153,1.450381679389313,-1.9389312977099236,-0.00732421875,-0.074462890625,-0.613037109375,0.8296
0.42748091603053434,1.3587786259541985,-1.8778625954198473,-0.008056640625,-0.07666015625,-0.615966796875,0.8312999999999999
0.3969465648854962,1.297709923664122,-1.8625954198473282,-0.00537109375,-0.0732421875,-0.61083984375,0.833
0.3816793893129771,1.4045801526717556,-2.1374045801526718,-0.010009765625,-0.07275390625,-0.609619140625,0.8347
0.33587786259541985,1.1145038167938932,-1.9083969465648856,-0.010498046875,-0.078125,-0.61083984375,0.8363999999999999
0.22900763358778625,0.9923664122137404,-2.015267175572519,-0.0107421875,-0.070556640625,-0.613037109375,0.8381
0.22900763358778625,0.8091603053435115,-2.030534351145038,-0.01025390625,-0.072265625,-0.6171875,0.8398
0.2900763358778626,0.8854961832061069,-1.9083969465648856,-0.006591796875,-0.07470703125,-0.620361328125,0.8414999999999999
0.366412213740458,0.7022900763358778,-1.9694656488549618,-0.0166015625,-0.072265625,-0.61474609375,0.8432
0.4580152671755725,0.549618320610687,-2.1526717557251906,-0.01025390625,-0.0703125,-0.612060546875,0.8449
0.22900763358778625,0.732824427480916,-1.9694656488549618,-0.010498046875,-0.065673828125,-0.6220703125,0.8465999999999999
0.13740458015267176,0.6564885496183206,-2.2290076335877864,-0.0078125,-0.071044921875,-0.615966796875,0.8482999999999999
0.030534351145038167,0.7175572519083969,-2.0763358778625953,-0.014404296875,-0.073974609375,-0.61572265625,0.85
0.22900763358778625,0.5801526717557252,-2.198473282442748,-0.013916015625,-0.072021484375,-0.615234375,0.8516999999999999
0.15267175572519084,0.5343511450381679,-2.213740458015267,-0.007568359375,-0.064453125,-0.61376953125,0.8533999999999999
0.12213740458015267,0.5038167938931297,-2.33587786259542,-0.012451171875,-0.0693359375,-0.6201171875,0.8551
-0.07633587786259542,0.42748091603053434,-2.213740458015267,-0.00927734375,-0.0654296875,-0.614013671875,0.8568
0.12213740458015267,0.4732824427480916,-2.3969465648854964,-0.013916015625,-0.0712890625,-0.619873046875,0.8584999999999999
-0.04580152671755725,0.6870229007633588,-2.351145038167939,-0.0107421875,-0.069580078125,-0.61572265625,0.8602
0.030534351145038167,0.6564885496183206,-2.183206106870229,-0.012939453125,-0.06591796875,-0.616455078125,0.8619
-0.030534351145038167,0.4732824427480916,-2.0,-0.0166015625,-0.07177734375,-0.619873046875,0.8635999999999999
0.015267175572519083,0.3053435114503817,-2.1374045801526718,-0.011962890625,-0.06689453125,-0.618896484375,0.8653
0.015267175572519083,0.4732824427480916,-2.213740458015267,-0.011474609375,-0.072509765625,-0.619140625,0.867
-0.015267175572519083,0.366412213740458,-2.2290076335877864,-0.011962890625,-0.07568359375,-0.621337890625,0.8686999999999999
0.15267175572519084,0.4580152671755725,-2.0,-0.01171875,-0.06982421875,-0.617431640625,0.8704
0.12213740458015267,0.2748091603053435,-2.16793893129771,-0.012939453125,-0.0751953125,-0.619873046875,0.8721
0.04580152671755725,0.2595419847328244,-2.122137404580153,-0.01416015625,-0.072265625,-0.61962890625,0.8737999999999999
-0.061068702290076333,0.22900763358778625,-2.183206106870229,-0.009033203125,-0.070556640625,-0.61474609375,0.8755
-0.16793893129770993,0.0916030534351145,-2.030534351145038,-0.01318359375,-0.074462890625,-0.613525390625,0.8772
-0.15267175572519084,0.1984732824427481,-2.0916030534351147,-0.01513671875,-0.07568359375,-0.615478515625,0.8788999999999999
-0.16793893129770993,0.04580152671755725,-1.9389312977099236,-0.01416015625,-0.07373046875,-0.620361328125,0.8805999999999999
-0.1984732824427481,0.015267175572519083,-2.1374045801526718,-0.00830078125,-0.075927734375,-0.61767578125,0.8823
-0.2900763358778626,-0.030534351145038167,-2.1374045801526718,-0.010498046875,-0.072021484375,-0.614990234375,0.8839999999999999
-0.3969465648854962,-0.33587786259541985,-2.183206106870229,-0.013916015625,-0.07958984375,-0.612548828125,0.8856999999999999
-0.5190839694656488,0.015267175572519083,-1.8473282442748091,-0.010498046875,-0.0791015625,-0.613525390625,0.8874
-0.7175572519083969,-0.183206106870229,-2.0763358778625953,-0.014892578125,-0.07470703125,-0.6064453125,0.8891
-0.9923664122137404,-0.16793893129770993,-1.8778625954198473,-0.011962890625,-0.0712890625,-0.612548828125,0.8907999999999999
-0.9312977099236641,-0.16793893129770993,-2.030534351145038,-0.007080078125,-0.082275390625,-0.619140625,0.8925
-1.0381679389312977,-0.10687022900763359,-1.8931297709923665,-0.011474609375,-0.07421875,-0.615966796875,0.8942
-1.5877862595419847,-0.10687022900763359,-1.9389312977099236,-0.01123046875,-0.073974609375,-0.61865234375,0.8958999999999999
-1.4809160305343512,0.04580152671755725,-2.16793893129771,-0.01708984375,-0.07763671875,-0.61669921875,0.8976
-1.6946564885496183,-0.061068702290076333,-2.213740458015267,-0.015869140625,-0.073974609375,-0.607177734375,0.8993
-1.5572519083969465,-0.12213740458015267,-2.0610687022900764,-0.014404296875,-0.0791015625,-0.61328125,0.9009999999999999
-1.618320610687023,-0.015267175572519083,-2.3053435114503817,-0.017333984375,-0.08203125,-0.615966796875,0.9027
-1.6488549618320612,-0.061068702290076333,-2.4122137404580153,-0.01025390625,-0.077880859375,-0.6142578125,0.9044
-1.5267175572519085,-0.07633587786259542,-2.0916030534351147,-0.005126953125,-0.080810546875,-0.61181640625,0.9060999999999999
-1.3740458015267176,-0.12213740458015267,-2.2900763358778624,-0.008544921875,-0.076416015625,-0.607421875,0.9077999999999999
-1.6488549618320612,0.015267175572519083,-2.4580152671755724,-0.01123046875,-0.07958984375,-0.609619140625,0.9095
-1.3282442748091603,-0.04580152671755725,-2.2748091603053435,-0.01025390625,-0.072265625,-0.6162109375,0.9111999999999999
-1.2061068702290076,-0.015267175572519083,-2.1374045801526718,-0.010986328125,-0.07470703125,-0.614990234375,0.9128999999999999
-0.8396946564885496,-0.061068702290076333,-2.2595419847328246,-0.01611328125,-0.077880859375,-0.605712890625,0.9146
-0.8854961832061069,0.0,-2.0,-0.010986328125,-0.07666015625,-0.606689453125,0.9163
-1.0076335877862594,-0.12213740458015267,-2.0916030534351147,-0.013671875,-0.08203125,-0.609375,0.9179999999999999
-0.7633587786259542,0.061068702290076333,-2.030534351145038,-0.009765625,-0.080078125,-0.608154296875,0.9197
-0.5343511450381679,0.04580152671755725,-1.786259541984733,-0.006591796875,-0.07275390625,-0.618896484375,0.9214
-0.5343511450381679,0.15267175572519084,-1.984732824427481,-0.013671875,-0.07275390625,-0.615478515625,0.9230999999999999
-0.5038167938931297,0.1984732824427481,-1.7557251908396947,-0.01220703125,-0.07568359375,-0.614013671875,0.9248
-0.48854961832061067,0.21374045801526717,-1.465648854961832,-0.013671875,-0.074462890625,-0.613525390625,0.9265
-0.5190839694656488,0.24427480916030533,-1.450381679389313,-0.005859375,-0.08056640625,-0.6064453125,0.9281999999999999
-0.1984732824427481,0.3969465648854962,-1.6030534351145038,-0.00830078125,-0.078125,-0.6142578125,0.9299
-0.24427480916030533,0.2595419847328244,-1.3435114503816794,-0.01025390625,-0.07275390625,-0.612548828125,0.9316
-0.15267175572519084,0.366412213740458,-1.3435114503816794,-0.0068359375,-0.0751953125,-0.610595703125,0.9332999999999999
-0.1984732824427481,0.3816793893129771,-1.0381679389312977,-0.004638671875,-0.077392578125,-0.60595703125,0.9349999999999999
-0.2900763358778626,0.5801526717557252,-1.099236641221374,-0.009521484375,-0.076904296875,-0.609619140625,0.9367
-0.3053435114503817,0.2748091603053435,-1.1145038167938932,-0.00390625,-0.073486328125,-0.60791015625,0.9383999999999999
-0.3511450381679389,0.2595419847328244,-1.1450381679389312,-0.005859375,-0.078125,-0.609619140625,0.9400999999999999
-0.5343511450381679,0.33587786259541985,-1.0076335877862594,-0.01171875,-0.080078125,-0.60986328125,0.9418
-0.183206106870229,0.2748091603053435,-1.1297709923664123,-0.010009765625,-0.08056640625,-0.60302734375,0.9434999999999999
-0.12213740458015267,0.12213740458015267,-1.0534351145038168,-0.010009765625,-0.07861328125,-0.605712890625,0.9451999999999999
-0.5343511450381679,0.15267175572519084,-0.9770992366412213,-0.010986328125,-0.08349609375,-0.60400390625,0.9469
-0.33587786259541985,0.0916030534351145,-1.083969465648855,-0.005615234375,-0.07666015625,-0.6064453125,0.9486
-0.3511450381679389,0.04580152671755725,-1.0381679389312977,-0.009521484375,-0.080322265625,-0.609619140625,0.9502999999999999
-0.4732824427480916,0.0,-1.0687022900763359,-0.010986328125,-0.077392578125,-0.613525390625,0.952
-0.2900763358778626,-0.030534351145038167,-1.0076335877862594,-0.010986328125,-0.076904296875,-0.608642578125,0.9537
-0.42748091603053434,-0.0916030534351145,-0.9770992366412213,-0.00537109375,-0.08349609375,-0.602294921875,0.9553999999999999
-0.5648854961832062,-0.10687022900763359,-1.2366412213740459,-0.0068359375,-0.08642578125,-0.60986328125,0.9571
-0.5038167938931297,0.0,-1.2213740458015268,-0.013916015625,-0.0810546875,-0.611328125,0.9588
-0.6870229007633588,-0.04580152671755725,-1.1450381679389312,-0.00732421875,-0.0849609375,-0.605712890625,0.9604999999999999
-0.5038167938931297,0.0,-1.1145038167938932,-0.0126953125,-0.082275390625,-0.60986328125,0.9621999999999999
-0.6717557251908397,-0.0916030534351145,-0.9923664122137404,-0.009521484375,-0.08349609375,-0.592529296875,0.9639
-0.5038167938931297,0.07633587786259542,-1.1908396946564885,-0.010009765625,-0.07861328125,-0.60595703125,0.9655999999999999
-0.6717557251908397,0.21374045801526717,-1.1297709923664123,-0.00830078125,-0.085205078125,-0.60986328125,0.9672999999999999
-0.48854961832061067,0.32061068702290074,-1.1755725190839694,-0.005126953125,-0.08056640625,-0.603515625,0.969
-0.48854961832061067,0.366412213740458,-0.9465648854961832,-0.0087890625,-0.080322265625,-0.59619140625,0.9706999999999999
-0.32061068702290074,0.33587786259541985,-1.1908396946564885,-0.009765625,-0.078125,-0.610107421875,0.9723999999999999
-0.5648854961832062,0.366412213740458,-0.9465648854961832,-0.0068359375,-0.077880859375,-0.6015625,0.9741
-0.2900763358778626,0.5954198473282443,-0.9618320610687023,-0.01513671875,-0.08203125,-0.60498046875,0.9758
-0.5038167938931297,0.6259541984732825,-0.7633587786259542,-0.009033203125,-0.0810546875,-0.605224609375,0.9774999999999999
-0.48854961832061067,0.5954198473282443,-0.9618320610687023,-0.01171875,-0.078369140625,-0.605224609375,0.9792
-0.2748091603053435,0.5343511450381679,-0.6259541984732825,-0.01220703125,-0.081298828125,-0.602294921875,0.9809
-0.48854961832061067,0.8244274809160306,-0.8549618320610687,-0.00830078125,-0.087158203125,-0.607421875,0.9825999999999999
-0.33587786259541985,0.7786259541984732,-0.8396946564885496,-0.012451171875,-0.074462890625,-0.608642578125,0.9843
-0.4732824427480916,0.8091603053435115,-0.7633587786259542,-0.01025390625,-0.07958984375,-0.59814453125,0.986
-0.42748091603053434,0.6564885496183206,-0.7633587786259542,-0.01123046875,-0.083251953125,-0.606689453125,0.9876999999999999
-0.24427480916030533,0.7786259541984732,-0.6412213740458015,-0.005859375,-0.082275390625,-0.599365234375,0.9894
-0.07633587786259542,0.7480916030534351,-0.7480916030534351,-0.009765625,-0.083740234375,-0.594482421875,0.9911
-0.04580152671755725,0.7480916030534351,-0.8396946564885496,-0.012939453125,-0.08251953125,-0.603515625,0.9927999999999999
0.2748091603053435,0.6564885496183206,-0.6106870229007634,-0.00634765625,-0.08544921875,-0.607177734375,0.9944999999999999
0.2748091603053435,0.8702290076335878,-0.6564885496183206,-0.00537109375,-0.08203125,-0.607666015625,0.9962
0.21374045801526717,0.6106870229007634,-0.7480916030534351,-0.011474609375,-0.082275390625,-0.602294921875,0.9978999999999999
0.2595419847328244,0.6870229007633588,-0.8396946564885496,-0.01318359375,-0.078125,-0.593505859375,0.9995999999999999
0.5954198473282443,0.6870229007633588,-0.7022900763358778,-0.00927734375,-0.083984375,-0.591064453125,1.0012999999999999
0.6564885496183206,0.6717557251908397,-0.7633587786259542,-0.0078125,-0.078857421875,-0.60302734375,1.003
0.5801526717557252,0.9312977099236641,-0.6870229007633588,-0.0087890625,-0.0810546875,-0.603515625,1.0047
0.5954198473282443,0.5954198473282443,-0.8854961832061069,-0.00830078125,-0.082275390625,-0.5986328125,1.0064
0.6106870229007634,0.4580152671755725,-0.8702290076335878,-0.002685546875,-0.085693359375,-0.605712890625,1.0081
0.48854961832061067,0.6564885496183206,-1.0687022900763359,-0.005615234375,-0.08251953125,-0.608642578125,1.0098
0.4732824427480916,0.7786259541984732,-0.8244274809160306,-0.00830078125,-0.082763671875,-0.603759765625,1.0114999999999998
0.4580152671755725,0.48854961832061067,-0.7786259541984732,-0.004638671875,-0.081787109375,-0.60888671875,1.0131999999999999
0.21374045801526717,0.732824427480916,-0.7480916030534351,-0.007568359375,-0.078857421875,-0.596923828125,1.0149
0.3511450381679389,0.8244274809160306,-0.9923664122137404,-0.009033203125,-0.0859375,-0.604736328125,1.0166
0.4732824427480916,0.732824427480916,-0.6717557251908397,-0.010986328125,-0.08251953125,-0.6015625,1.0183
0.48854961832061067,0.7480916030534351,-0.6259541984732825,-0.00732421875,-0.07958984375,-0.608642578125,1.02
0.32061068702290074,0.8091603053435115,-0.549618320610687,-0.0087890625,-0.08447265625,-0.609375,1.0217
0.549618320610687,0.7938931297709924,-0.6870229007633588,-0.005615234375,-0.083984375,-0.60009765625,1.0233999999999999
0.32061068702290074,0.9465648854961832,-0.5648854961832062,-0.00634765625,-0.083251953125,-0.603271484375,1.0251
0.6259541984732825,0.8396946564885496,-0.5954198473282443,-0.0087890625,-0.08837890625,-0.60791015625,1.0268
0.42748091603053434,0.7633587786259542,-0.4580152671755725,0.000244140625,-0.0849609375,-0.606201171875,1.0285
0.4732824427480916,0.6717557251908397,-0.549618320610687,-0.00390625,-0.08740234375,-0.600341796875,1.0302
0.16793893129770993,0.6412213740458015,-0.5190839694656488,-0.00341796875,-0.0830078125,-0.59619140625,1.0319
0.44274809160305345,0.732824427480916,-0.3969465648854962,-0.004150390625,-0.087890625,-0.602783203125,1.0335999999999999
0.21374045801526717,0.6870229007633588,-0.42748091603053434,-0.005126953125,-0.08642578125,-0.611083984375,1.0352999999999999
0.366412213740458,0.5648854961832062,-0.5954198473282443,-0.009765625,-0.078857421875,-0.593505859375,1.037
0.4732824427480916,0.5038167938931297,-0.48854961832061067,-0.007080078125,-0.080078125,-0.592041015625,1.0387
0.22900763358778625,0.6106870229007634,-0.5343511450381679,-0.0068359375,-0.082763671875,-0.5986328125,1.0404
0.44274809160305345,0.5038167938931297,-0.42748091603053434,-0.010986328125,-0.086669921875,-0.600341796875,1.0421
0.6412213740458015,0.48854961832061067,-0.44274809160305345,-0.01123046875,-0.085693359375,-0.602294921875,1.0437999999999998
0.7786259541984732,0.48854961832061067,-0.44274809160305345,-0.01318359375,-0.087646484375,-0.599609375,1.0454999999999999
0.8854961832061069,0.5190839694656488,-0.8091603053435115,-0.012939453125,-0.08740234375,-0.60107421875,1.0472
0.9770992366412213,0.48854961832061067,-0.5801526717557252,-0.007080078125,-0.088623046875,-0.592529296875,1.0489
1.1755725190839694,0.4732824427480916,-0.8396946564885496,-0.006591796875,-0.087646484375,-0.596923828125,1.0506
1.1297709923664123,0.48854961832061067,-0.5648854961832062,-0.0087890625,-0.08447265625,-0.603271484375,1.0523
1.3740458015267176,0.3511450381679389,-0.7480916030534351,-0.009033203125,-0.0859375,-0.595947265625,1.054
1.4045801526717556,0.5190839694656488,-0.7633587786259542,-0.0107421875,-0.08349609375,-0.597412109375,1.0556999999999999
1.3740458015267176,0.5801526717557252,-0.8091603053435115,-0.015625,-0.08740234375,-0.610107421875,1.0574
1.5725190839694656,0.44274809160305345,-0.8549618320610687,-0.004638671875,-0.0849609375,-0.5986328125,1.0591
1.6030534351145038,0.366412213740458,-1.0381679389312977,-0.013427734375,-0.08837890625,-0.611572265625,1.0608
1.4045801526717556,0.7175572519083969,-0.7480916030534351,-0.0107421875,-0.08447265625,-0.595947265625,1.0625
1.282442748091603,0.8702290076335878,-0.9923664122137404,-0.00927734375,-0.08935546875,-0.594970703125,1.0642
1.5725190839694656,0.7022900763358778,-1.0076335877862594,-0.012451171875,-0.0830078125,-0.602294921875,1.0658999999999998
1.5114503816793894,0.732824427480916,-0.9770992366412213,-0.017333984375,-0.08447265625,-0.604736328125,1.0675999999999999
1.4809160305343512,0.9007633587786259,-1.099236641221374,-0.0185546875,-0.08447265625,-0.609619140625,1.0693
1.5419847328244274,0.8854961832061069,-1.1755725190839694,-0.013671875,-0.084716796875,-0.6083984375,1.071
1.8015267175572518,1.0076335877862594,-1.2061068702290076,-0.01513671875,-0.088134765625,-0.602783203125,1.0727
1.633587786259542,1.1145038167938932,-1.2671755725190839,-0.015869140625,-0.086181640625,-0.599365234375,1.0744
1.7557251908396947,1.083969465648855,-1.1908396946564885,-0.0146484375,-0.086669921875,-0.610595703125,1.0760999999999998
1.5267175572519085,1.3282442748091603,-1.4351145038167938,-0.01904296875,-0.08544921875,-0.611572265625,1.0777999999999999
1.5419847328244274,1.4351145038167938,-1.4198473282442747,-0.017578125,-0.086181640625,-0.6064453125,1.0795
1.6488549618320612,1.2213740458015268,-1.6488549618320612,-0.010986328125,-0.087158203125,-0.603759765625,1.0812
1.6793893129770991,1.5114503816793894,-1.6793893129770991,-0.01220703125,-0.0810546875,-0.603271484375,1.0829
1.83206106870229,1.618320610687023,-1.6030534351145038,-0.017578125,-0.083251953125,-0.59765625,1.0846
1.5572519083969465,1.8625954198473282,-1.7709923664122138,-0.017333984375,-0.0849609375,-0.60400390625,1.0863
1.9236641221374047,1.7251908396946565,-1.8931297709923665,-0.01806640625,-0.087158203125,-0.59521484375,1.0879999999999999
1.9389312977099236,1.9083969465648856,-1.83206106870229,-0.013427734375,-0.086181640625,-0.605712890625,1.0897
1.7709923664122138,1.9083969465648856,-2.1374045801526718,-0.013671875,-0.08544921875,-0.609130859375,1.0914
2.1068702290076335,2.045801526717557,-1.9236641221374047,-0.01953125,-0.0810546875,-0.600341796875,1.0931
1.8015267175572518,2.1526717557251906,-1.8931297709923665,-0.01025390625,-0.08447265625,-0.610595703125,1.0948
1.786259541984733,2.2748091603053435,-2.0610687022900764,-0.010986328125,-0.085693359375,-0.61376953125,1.0965
1.816793893129771,2.50381679389313,-2.1526717557251906,-0.017578125,-0.08837890625,-0.605712890625,1.0981999999999998
1.8931297709923665,2.50381679389313,-2.2900763358778624,-0.022216796875,-0.091064453125,-0.6005859375,1.0998999999999999
1.816793893129771,2.564885496183206,-2.213740458015267,-0.0126953125,-0.082763671875,-0.603759765625,1.1016
1.816793893129771,2.8244274809160306,-2.33587786259542,-0.009521484375,-0.080322265625,-0.593994140625,1.1033
1.7099236641221374,2.7786259541984735,-2.16793893129771,-0.02001953125,-0.0869140625,-0.607421875,1.105
1.7251908396946565,3.0839694656488548,-2.16793893129771,-0.01513671875,-0.0888671875,-0.601806640625,1.1067
1.5725190839694656,3.114503816793893,-2.2900763358778624,-0.016357421875,-0.0869140625,-0.611083984375,1.1083999999999998
1.633587786259542,3.099236641221374,-2.030534351145038,-0.01220703125,-0.08642578125,-0.59765625,1.1100999999999999
1.4809160305343512,3.0839694656488548,-2.1526717557251906,-0.0146484375,-0.092529296875,-0.608154296875,1.1118
1.5419847328244274,3.068702290076336,-1.984732824427481,-0.009521484375,-0.088623046875,-0.6123046875,1.1135
1.6030534351145038,3.2061068702290076,-1.816793893129771,-0.01416015625,-0.0869140625,-0.605224609375,1.1152
1.6946564885496183,3.2519083969465647,-2.0610687022900764,-0.010986328125,-0.087158203125,-0.60498046875,1.1169
1.083969465648855,3.2213740458015265,-2.0610687022900764,-0.0166015625,-0.08935546875,-0.60546875,1.1186
1.0534351145038168,3.0076335877862594,-1.9389312977099236,-0.011962890625,-0.08544921875,-0.602294921875,1.1202999999999999
1.1297709923664123,3.145038167938931,-1.8931297709923665,-0.01318359375,-0.086181640625,-0.598876953125,1.1219999999999999
1.1908396946564885,3.2213740458015265,-2.0916030534351147,-0.002685546875,-0.085693359375,-0.60888671875,1.1237
1.099236641221374,3.145038167938931,-2.0610687022900764,-0.00830078125,-0.083984375,-0.608154296875,1.1254
1.2671755725190839,3.099236641221374,-1.9236641221374047,-0.013427734375,-0.083740234375,-0.603515625,1.1271
1.1450381679389312,3.1755725190839694,-1.984732824427481,-0.012451171875,-0.08544921875,-0.60107421875,1.1288
1.0687022900763359,2.900763358778626,-2.1068702290076335,-0.01171875,-0.08447265625,-0.60205078125,1.1304999999999998
1.2671755725190839,2.854961832061069,-1.9083969465648856,-0.01171875,-0.0849609375,-0.604736328125,1.1321999999999999
1.251908396946565,2.9923664122137406,-1.8625954198473282,-0.010009765625,-0.08203125,-0.6025390625,1.1339
1.0076335877862594,2.931297709923664,-1.8778625954198473,-0.010498046875,-0.08203125,-0.6064453125,1.1356
1.083969465648855,2.7786259541984735,-1.8473282442748091,-0.007568359375,-0.080078125,-0.595703125,1.1373
1.1603053435114503,2.7938931297709924,-1.7404580152671756,-0.007080078125,-0.082763671875,-0.604736328125,1.139
1.282442748091603,2.8702290076335877,-1.7404580152671756,-0.010009765625,-0.08056640625,-0.604248046875,1.1407
1.1145038167938932,2.7938931297709924,-1.6793893129770991,-0.012451171875,-0.085693359375,-0.606201171875,1.1423999999999999
1.3435114503816794,2.717557251908397,-1.7251908396946565,-0.010498046875,-0.08154296875,-0.6044921875,1.1441
1.465648854961832,2.854961832061069,-1.5419847328244274,-0.006103515625,-0.08056640625,-0.60693359375,1.1458
1.3282442748091603,2.8702290076335877,-1.7099236641221374,-0.00830078125,-0.081298828125,-0.60791015625,1.1475
1.5419847328244274,2.854961832061069,-1.5725190839694656,-0.01318359375,-0.080078125,-0.599609375,1.1492
1.4809160305343512,2.931297709923664,-1.5572519083969465,-0.0087890625,-0.0830078125,-0.601318359375,1.1509
1.4961832061068703,2.7786259541984735,-1.4198473282442747,-0.009033203125,-0.082763671875,-0.6015625,1.1525999999999998
1.5572519083969465,2.564885496183206,-1.5114503816793894,-0.009765625,-0.07763671875,-0.59814453125,1.1542999999999999
1.5267175572519085,2.7480916030534353,-1.5267175572519085,-0.014404296875,-0.081298828125,-0.598876953125,1.156
1.6030534351145038,2.732824427480916,-1.5114503816793894,-0.0087890625,-0.08251953125,-0.6015625,1.1577
1.6793893129770991,2.5343511450381677,-1.4198473282442747,-0.011962890625,-0.078125,-0.605224609375,1.1594
1.7251908396946565,2.6564885496183206,-1.5114503816793894,-0.013671875,-0.077880859375,-0.60791015625,1.1611
1.7404580152671756,2.549618320610687,-1.3129770992366412,-0.012451171875,-0.08056640625,-0.609619140625,1.1627999999999998
1.984732824427481,2.549618320610687,-1.3435114503816794,-0.014404296875,-0.082275390625,-0.609619140625,1.1644999999999999
2.2595419847328246,2.3969465648854964,-1.297709923664122,-0.0126953125,-0.087158203125,-0.60693359375,1.1662
2.3053435114503817,2.4580152671755724,-1.282442748091603,-0.01123046875,-0.08251953125,-0.606689453125,1.1679
2.7022900763358777,2.4427480916030535,-1.3587786259541985,-0.01318359375,-0.08203125,-0.602294921875,1.1696
2.717557251908397,2.366412213740458,-1.282442748091603,-0.011962890625,-0.079833984375,-0.6044921875,1.1713
3.0229007633587788,2.3206106870229006,-1.083969465648855,-0.0087890625,-0.084228515625,-0.607421875,1.173
3.145038167938931,2.1374045801526718,-1.2366412213740459,-0.007080078125,-0.081787109375,-0.607421875,1.1746999999999999
3.099236641221374,2.1526717557251906,-1.3740458015267176,-0.011962890625,-0.076904296875,-0.614013671875,1.1764
2.885496183206107,2.183206106870229,-1.3740458015267176,-0.008056640625,-0.076904296875,-0.611083984375,1.1781
2.854961832061069,2.015267175572519,-1.2213740458015268,-0.00927734375,-0.080078125,-0.614990234375,1.1798
3.0229007633587788,2.0,-1.4045801526717556,-0.0107421875,-0.076416015625,-0.60546875,1.1815
2.7786259541984735,2.122137404580153,-1.1908396946564885,-0.00634765625,-0.08056640625,-0.616943359375,1.1832
2.6106870229007635,2.030534351145038,-1.3282442748091603,-0.00634765625,-0.07861328125,-0.602783203125,1.1848999999999998
2.6717557251908395,2.015267175572519,-1.2366412213740459,-0.011474609375,-0.078125,-0.598388671875,1.1865999999999999
2.595419847328244,1.9541984732824427,-1.3129770992366412,-0.01318359375,-0.07958984375,-0.6015625,1.1883
2.4580152671755724,1.9541984732824427,-1.1603053435114503,-0.01171875,-0.079833984375,-0.60498046875,1.19
2.4427480916030535,1.9083969465648856,-1.297709923664122,-0.013427734375,-0.0791015625,-0.611572265625,1.1917
2.4885496183206106,1.8931297709923665,-1.1297709923664123,-0.01220703125,-0.0830078125,-0.61328125,1.1934
2.2900763358778624,2.030534351145038,-1.3435114503816794,-0.01123046875,-0.0810546875,-0.61865234375,1.1950999999999998
2.50381679389313,1.786259541984733,-1.1450381679389312,-0.0146484375,-0.081787109375,-0.609130859375,1.1967999999999999
2.366412213740458,1.7404580152671756,-1.5267175572519085,-0.01513671875,-0.081298828125,-0.60595703125,1.1985
2.3206106870229006,1.6488549618320612,-1.3587786259541985,-0.01611328125,-0.0810546875,-0.61572265625,1.2002
2.1068702290076335,1.8015267175572518,-1.4198473282442747,-0.01123046875,-0.08203125,-0.615234375,1.2019
2.0610687022900764,1.6793893129770991,-1.465648854961832,-0.009521484375,-0.0859375,-0.615966796875,1.2036
1.9694656488549618,1.7251908396946565,-1.5267175572519085,-0.013427734375,-0.08642578125,-0.616455078125,1.2053
2.0,1.5877862595419847,-1.450381679389313,-0.01513671875,-0.081787109375,-0.614013671875,1.2069999999999999
1.8015267175572518,1.6641221374045803,-1.7099236641221374,-0.010009765625,-0.081298828125,-0.6083984375,1.2086999999999999
1.8625954198473282,1.6946564885496183,-1.465648854961832,-0.012939453125,-0.0810546875,-0.61328125,1.2104
1.5725190839694656,1.5572519083969465,-1.5114503816793894,-0.01416015625,-0.083251953125,-0.61181640625,1.2121
1.3587786259541985,1.7099236641221374,-1.4961832061068703,-0.013916015625,-0.081787109375,-0.61865234375,1.2138
1.2061068702290076,1.4961832061068703,-1.5877862595419847,-0.008056640625,-0.08154296875,-0.615966796875,1.2155
1.2213740458015268,1.5267175572519085,-1.4351145038167938,-0.007080078125,-0.080078125,-0.605224609375,1.2171999999999998
1.0534351145038168,1.5419847328244274,-1.4198473282442747,-0.01220703125,-0.084716796875,-0.60888671875,1.2188999999999999
0.9770992366412213,1.6793893129770991,-1.3587786259541985,-0.003173828125,-0.0791015625,-0.609375,1.2206
0.7175572519083969,1.5572519083969465,-1.5572519083969465,-0.010986328125,-0.08251953125,-0.609130859375,1.2223
0.7633587786259542,1.5114503816793894,-1.4809160305343512,-0.009765625,-0.082275390625,-0.6103515625,1.224
0.6564885496183206,1.465648854961832,-1.3282442748091603,-0.01123046875,-0.08349609375,-0.613037109375,1.2257
0.6259541984732825,1.5572519083969465,-1.282442748091603,-0.006591796875,-0.0830078125,-0.616943359375,1.2273999999999998
0.5190839694656488,1.6793893129770991,-1.3893129770992367,-0.01171875,-0.079833984375,-0.607177734375,1.2290999999999999
0.24427480916030533,1.4351145038167938,-1.1450381679389312,-0.0078125,-0.07958984375,-0.60693359375,1.2308
0.366412213740458,1.450381679389313,-1.2061068702290076,-0.0107421875,-0.081298828125,-0.611572265625,1.2325
0.5801526717557252,1.3282442748091603,-1.3282442748091603,-0.007568359375,-0.086181640625,-0.614501953125,1.2342
0.366412213740458,1.3435114503816794,-1.1908396946564885,-0.007568359375,-0.083740234375,-0.61328125,1.2359
0.2595419847328244,1.2671755725190839,-1.2366412213740459,-0.008544921875,-0.0791015625,-0.61083984375,1.2376
0.3511450381679389,1.1908396946564885,-1.251908396946565,-0.009765625,-0.080078125,-0.6123046875,1.2392999999999998
0.5190839694656488,1.2366412213740459,-1.1755725190839694,-0.009765625,-0.080078125,-0.6064453125,1.2409999999999999
0.4732824427480916,1.0381679389312977,-1.3587786259541985,-0.013427734375,-0.08154296875,-0.605224609375,1.2427
0.21374045801526717,1.0076335877862594,-1.1297709923664123,-0.0087890625,-0.076904296875,-0.611083984375,1.2444
0.366412213740458,1.099236641221374,-1.2671755725190839,-0.009033203125,-0.080322265625,-0.618408203125,1.2461
0.3816793893129771,0.9770992366412213,-1.2366412213740459,-0.007080078125,-0.079345703125,-0.611328125,1.2478
0.1984732824427481,1.083969465648855,-1.3282442748091603,-0.005859375,-0.07666015625,-0.615234375,1.2494999999999998
0.3511450381679389,1.0381679389312977,-1.0534351145038168,-0.010986328125,-0.082275390625,-0.6142578125,1.2511999999999999
0.32061068702290074,0.9007633587786259,-1.3740458015267176,-0.0068359375,-0.0791015625,-0.607177734375,1.2529
0.22900763358778625,1.0229007633587786,-1.3435114503816794,-0.00830078125,-0.08056640625,-0.6103515625,1.2546
0.44274809160305345,1.0229007633587786,-1.2366412213740459,-0.0107421875,-0.076416015625,-0.61474609375,1.2563
0.2900763358778626,0.732824427480916,-1.2061068702290076,-0.00634765625,-0.082763671875,-0.60595703125,1.258
0.5954198473282443,0.7022900763358778,-1.251908396946565,-0.008056640625,-0.08203125,-0.616943359375,1.2596999999999998
0.732824427480916,0.7633587786259542,-1.2061068702290076,-0.01220703125,-0.07666015625,-0.6064453125,1.2613999999999999
0.5648854961832062,0.7786259541984732,-1.4198473282442747,-0.012939453125,-0.07763671875,-0.61083984375,1.2631
0.6412213740458015,0.7175572519083969,-1.251908396946565,-0.01220703125,-0.080810546875,-0.6181640625,1.2648
0.6259541984732825,0.7633587786259542,-1.3893129770992367,-0.013427734375,-0.077880859375,-0.611572265625,1.2665
0.6564885496183206,0.7938931297709924,-1.3587786259541985,-0.0087890625,-0.07958984375,-0.61767578125,1.2682
0.4580152671755725,0.8854961832061069,-1.4809160305343512,-0.00927734375,-0.08056640625,-0.610595703125,1.2699
0.6564885496183206,0.732824427480916,-1.2366412213740459,-0.011962890625,-0.079345703125,-0.609619140625,1.2715999999999998
0.7938931297709924,0.7175572519083969,-1.3282442748091603,-0.012451171875,-0.078857421875,-0.610595703125,1.2732999999999999
0.7022900763358778,0.5801526717557252,-1.3740458015267176,-0.01171875,-0.080322265625,-0.60595703125,1.275
0.7938931297709924,0.8702290076335878,-1.4961832061068703,-0.0087890625,-0.073974609375,-0.613525390625,1.2767
0.7786259541984732,0.6106870229007634,-1.3740458015267176,-0.010498046875,-0.0771484375,-0.615234375,1.2784
0.9312977099236641,0.7938931297709924,-1.2366412213740459,-0.013671875,-0.076416015625,-0.616455078125,1.2801
0.8396946564885496,0.9007633587786259,-1.3282442748091603,-0.0087890625,-0.076171875,-0.6123046875,1.2817999999999998
0.8854961832061069,0.732824427480916,-1.297709923664122,-0.009765625,-0.080322265625,-0.60302734375,1.2834999999999999
0.8244274809160306,0.8244274809160306,-1.3282442748091603,-0.01123046875,-0.0791015625,-0.607421875,1.2852
0.6259541984732825,0.5954198473282443,-1.297709923664122,-0.0107421875,-0.082763671875,-0.608154296875,1.2869
0.6717557251908397,0.8244274809160306,-1.3129770992366412,-0.0087890625,-0.078857421875,-0.611572265625,1.2886
0.6106870229007634,0.8396946564885496,-1.1297709923664123,-0.00927734375,-0.07763671875,-0.61181640625,1.2903
0.5801526717557252,0.9770992366412213,-1.083969465648855,-0.00830078125,-0.080322265625,-0.614990234375,1.292
0.5801526717557252,1.0076335877862594,-1.2366412213740459,-0.009033203125,-0.08203125,-0.610595703125,1.2936999999999999
0.33587786259541985,0.9465648854961832,-1.3282442748091603,-0.008056640625,-0.08154296875,-0.6083984375,1.2953999999999999
0.4122137404580153,0.916030534351145,-1.3435114503816794,-0.00732421875,-0.0849609375,-0.607666015625,1.2971
0.183206106870229,0.9618320610687023,-1.1603053435114503,-0.006103515625,-0.082763671875,-0.60791015625,1.2988
0.24427480916030533,1.099236641221374,-1.4351145038167938,-0.009033203125,-0.0849609375,-0.607177734375,1.3005
0.030534351145038167,0.7633587786259542,-1.297709923664122,-0.00927734375,-0.08056640625,-0.608642578125,1.3022
-0.10687022900763359,0.5801526717557252,-1.282442748091603,-0.0087890625,-0.082763671875,-0.618408203125,1.3038999999999998
-0.12213740458015267,0.9618320610687023,-1.3435114503816794,-0.008056640625,-0.080078125,-0.6064453125,1.3055999999999999
-0.21374045801526717,0.8854961832061069,-1.2213740458015268,-0.005126953125,-0.079833984375,-0.621337890625,1.3073
-0.5343511450381679,0.7786259541984732,-1.0534351145038168,-0.01171875,-0.08056640625,-0.614990234375,1.309
-0.549618320610687,0.5801526717557252,-1.1908396946564885,-0.006591796875,-0.084716796875,-0.610107421875,1.3107
-0.549618320610687,0.7175572519083969,-1.2366412213740459,-0.002685546875,-0.076904296875,-0.612060546875,1.3124
-0.5190839694656488,0.916030534351145,-1.1145038167938932,-0.00634765625,-0.08203125,-0.610107421875,1.3140999999999998
-0.7786259541984732,0.8091603053435115,-1.0229007633587786,-0.014404296875,-0.079833984375,-0.6083984375,1.3157999999999999
-0.732824427480916,0.7022900763358778,-0.9618320610687023,-0.007080078125,-0.080810546875,-0.612548828125,1.3175
-0.7938931297709924,0.5954198473282443,-0.9007633587786259,-0.004150390625,-0.078369140625,-0.610595703125,1.3192
-0.9312977099236641,0.7480916030534351,-0.8091603053435115,-0.0048828125,-0.078125,-0.615478515625,1.3209
-1.099236641221374,0.6259541984732825,-0.7480916030534351,-0.009521484375,-0.076171875,-0.611328125,1.3226
-1.0076335877862594,0.6717557251908397,-0.7480916030534351,-0.0048828125,-0.077880859375,-0.604736328125,1.3243
-1.0687022900763359,0.5801526717557252,-0.6259541984732825,-0.001708984375,-0.076904296875,-0.60595703125,1.3259999999999998
-1.3435114503816794,0.6106870229007634,-0.4580152671755725,-0.0078125,-0.072265625,-0.61181640625,1.3276999999999999
-1.083969465648855,0.4732824427480916,-0.366412213740458,-0.00732421875,-0.080322265625,-0.604736328125,1.3294
-1.1603053435114503,0.4732824427480916,-0.5190839694656488,-0.00830078125,-0.075927734375,-0.603271484375,1.3311
-1.099236641221374,0.3053435114503817,-0.33587786259541985,-0.0068359375,-0.079833984375,-0.602294921875,1.3328
-0.8244274809160306,0.48854961832061067,-0.3053435114503817,-0.008544921875,-0.078857421875,-0.59765625,1.3345
-0.5343511450381679,0.2900763358778626,-0.4732824427480916,-0.00439453125,-0.081787109375,-0.609130859375,1.3361999999999998
-0.5954198473282443,0.183206106870229,-0.2595419847328244,-0.005615234375,-0.08056640625,-0.60546875,1.3378999999999999
-0.366412213740458,0.1984732824427481,-0.0916030534351145,-0.00537109375,-0.07421875,-0.603271484375,1.3396
-0.22900763358778625,0.04580152671755725,-0.13740458015267176,-0.00732421875,-0.07421875,-0.60986328125,1.3413
-0.3053435114503817,-0.061068702290076333,-0.22900763358778625,-0.010986328125,-0.0732421875,-0.610595703125,1.343
-0.16793893129770993,0.12213740458015267,-0.1984732824427481,-0.00537109375,-0.076904296875,-0.605712890625,1.3447
-0.015267175572519083,-0.183206106870229,-0.13740458015267176,-0.002197265625,-0.078125,-0.601318359375,1.3463999999999998
0.2900763358778626,-0.13740458015267176,-0.22900763358778625,-0.008544921875,-0.07421875,-0.606689453125,1.3480999999999999
0.030534351145038167,-0.3511450381679389,-0.183206106870229,-0.006591796875,-0.07568359375,-0.60595703125,1.3497999999999999
0.2595419847328244,-0.10687022900763359,-0.13740458015267176,-0.009521484375,-0.078369140625,-0.607666015625,1.3515
0.5190839694656488,0.0,-0.2748091603053435,-0.009521484375,-0.07177734375,-0.607177734375,1.3532
0.5801526717557252,-0.3511450381679389,-0.21374045801526717,-0.00634765625,-0.076904296875,-0.60546875,1.3549
0.7175572519083969,-0.2900763358778626,-0.10687022900763359,-0.011962890625,-0.07568359375,-0.610107421875,1.3566
0.8854961832061069,-0.10687022900763359,-0.04580152671755725,-0.01318359375,-0.076171875,-0.60009765625,1.3582999999999998
1.083969465648855,-0.33587786259541985,-0.12213740458015267,-0.010498046875,-0.072021484375,-0.6025390625,1.3599999999999999
1.251908396946565,-0.22900763358778625,-0.07633587786259542,-0.013671875,-0.079345703125,-0.609130859375,1.3617
1.1755725190839694,-0.3053435114503817,-0.15267175572519084,-0.010986328125,-0.079833984375,-0.607177734375,1.3634
1.1908396946564885,-0.5954198473282443,-0.3053435114503817,-0.008544921875,-0.07421875,-0.6025390625,1.3651
1.297709923664122,-0.5801526717557252,-0.15267175572519084,-0.01025390625,-0.077880859375,-0.610107421875,1.3668
1.2671755725190839,-0.7022900763358778,-0.3053435114503817,-0.009765625,-0.076171875,-0.6181640625,1.3684999999999998
1.450381679389313,-0.7480916030534351,-0.3816793893129771,-0.0107421875,-0.081787109375,-0.61279296875,1.3701999999999999
1.5267175572519085,-0.5954198473282443,-0.5038167938931297,-0.008544921875,-0.07421875,-0.60595703125,1.3719
1.5725190839694656,-0.7022900763358778,-0.549618320610687,-0.009521484375,-0.06982421875,-0.6025390625,1.3736
1.6641221374045803,-0.5190839694656488,-0.4580152671755725,-0.010498046875,-0.0771484375,-0.608154296875,1.3753
1.633587786259542,-0.6106870229007634,-0.6564885496183206,-0.0126953125,-0.079833984375,-0.60009765625,1.377
1.6488549618320612,-0.7175572519083969,-0.6870229007633588,-0.01123046875,-0.076171875,-0.610107421875,1.3786999999999998
1.7557251908396947,-0.5190839694656488,-0.8854961832061069,-0.010986328125,-0.080322265625,-0.613525390625,1.3803999999999998
1.5877862595419847,-0.4580152671755725,-0.732824427480916,-0.009765625,-0.083984375,-0.611083984375,1.3820999999999999
1.6793893129770991,-0.6564885496183206,-0.8702290076335878,-0.009765625,-0.08056640625,-0.60400390625,1.3838
1.5877862595419847,-0.6870229007633588,-0.9465648854961832,-0.013671875,-0.078369140625,-0.604736328125,1.3855
1.6793893129770991,-0.6564885496183206,-0.9923664122137404,-0.0087890625,-0.076171875,-0.59912109375,1.3872
1.6946564885496183,-0.5954198473282443,-0.8549618320610687,-0.0107421875,-0.083251953125,-0.60498046875,1.3889
1.7099236641221374,-0.5343511450381679,-0.9618320610687023,-0.016357421875,-0.08203125,-0.602294921875,1.3905999999999998
1.6793893129770991,-0.7022900763358778,-0.9312977099236641,-0.01171875,-0.07763671875,-0.60693359375,1.3922999999999999
1.6488549618320612,-0.6412213740458015,-1.099236641221374,-0.010498046875,-0.081787109375,-0.60546875,1.394
1.7099236641221374,-0.7175572519083969,-0.916030534351145,-0.017333984375,-0.085693359375,-0.608154296875,1.3957
1.6488549618320612,-0.6259541984732825,-0.9923664122137404,-0.009033203125,-0.086669921875,-0.60888671875,1.3974
1.6793893129770991,-0.549618320610687,-1.083969465648855,-0.00732421875,-0.08154296875,-0.608642578125,1.3991
1.4809160305343512,-0.5343511450381679,-1.2671755725190839,-0.010498046875,-0.085205078125,-0.607421875,1.4007999999999998
1.5419847328244274,-0.549618320610687,-0.9618320610687023,-0.012451171875,-0.083984375,-0.603759765625,1.4024999999999999
1.3893129770992367,-0.5954198473282443,-1.2213740458015268,-0.01025390625,-0.087158203125,-0.606689453125,1.4042
1.465648854961832,-0.6412213740458015,-1.099236641221374,-0.010498046875,-0.081787109375,-0.603271484375,1.4059
1.2671755725190839,-0.44274809160305345,-1.450381679389313,-0.010009765625,-0.08349609375,-0.6142578125,1.4076
1.1145038167938932,-0.4580152671755725,-1.1755725190839694,-0.01123046875,-0.080322265625,-0.60693359375,1.4093
1.1755725190839694,-0.5648854961832062,-1.297709923664122,-0.008056640625,-0.0849609375,-0.599853515625,1.411
0.916030534351145,-0.48854961832061067,-1.282442748091603,-0.010498046875,-0.0869140625,-0.60546875,1.4126999999999998
0.5801526717557252,-0.3816793893129771,-1.297709923664122,-0.0087890625,-0.08544921875,-0.610107421875,1.4143999999999999
0.5343511450381679,-0.42748091603053434,-1.297709923664122,-0.01318359375,-0.0791015625,-0.6103515625,1.4161
0.32061068702290074,-0.2748091603053435,-1.2366412213740459,-0.011962890625,-0.0859375,-0.611328125,1.4178
0.12213740458015267,-0.366412213740458,-1.083969465648855,-0.0087890625,-0.08544921875,-0.6103515625,1.4195
-0.15267175572519084,-0.3969465648854962,-1.0534351145038168,-0.012451171875,-0.0830078125,-0.603759765625,1.4212
-0.1984732824427481,-0.24427480916030533,-1.1297709923664123,-0.013427734375,-0.086181640625,-0.61083984375,1.4228999999999998
-0.3816793893129771,-0.3511450381679389,-0.916030534351145,-0.007080078125,-0.0869140625,-0.6103515625,1.4245999999999999
-0.42748091603053434,-0.44274809160305345,-1.0534351145038168,-0.0078125,-0.084716796875,-0.60888671875,1.4263
-0.6412213740458015,-0.6412213740458015,-0.8854961832061069,-0.0068359375,-0.0810546875,-0.61376953125,1.428
-0.7022900763358778,-0.4122137404580153,-1.1908396946564885,-0.0126953125,-0.083251953125,-0.5966796875,1.4297
-0.5038167938931297,-0.3511450381679389,-1.3129770992366412,-0.00439453125,-0.087158203125,-0.6015625,1.4314
-0.732824427480916,-0.3816793893129771,-1.2213740458015268,-0.0068359375,-0.085693359375,-0.60595703125,1.4330999999999998
-0.8702290076335878,-0.549618320610687,-1.1145038167938932,-0.0068359375,-0.084716796875,-0.60595703125,1.4347999999999999
-0.6106870229007634,-0.6106870229007634,-1.1297709923664123,-0.0087890625,-0.086181640625,-0.600830078125,1.4364999999999999
-0.5190839694656488,-0.3969465648854962,-1.083969465648855,-0.007080078125,-0.083740234375,-0.60693359375,1.4382
-0.366412213740458,-0.7022900763358778,-1.3129770992366412,-0.006591796875,-0.082275390625,-0.611328125,1.4399
-0.6412213740458015,-0.6259541984732825,-1.2671755725190839,-0.00439453125,-0.08349609375,-0.605224609375,1.4416
-0.061068702290076333,-0.9312977099236641,-1.1297709923664123,-0.00634765625,-0.07958984375,-0.602294921875,1.4433
0.0,-0.8702290076335878,-1.1603053435114503,-0.003173828125,-0.08203125,-0.60205078125,1.4449999999999998
0.1984732824427481,-0.8244274809160306,-1.2213740458015268,-0.005615234375,-0.0830078125,-0.598876953125,1.4466999999999999
0.4122137404580153,-0.8244274809160306,-1.1908396946564885,-0.01123046875,-0.08349609375,-0.591796875,1.4484
0.32061068702290074,-0.9618320610687023,-1.3435114503816794,-0.007080078125,-0.078369140625,-0.608154296875,1.4501
0.6412213740458015,-1.0534351145038168,-1.297709923664122,-0.01220703125,-0.07568359375,-0.608642578125,1.4518
0.7480916030534351,-0.8396946564885496,-1.0229007633587786,-0.006591796875,-0.079345703125,-0.606689453125,1.4535
1.1450381679389312,-0.7175572519083969,-1.4809160305343512,-0.003173828125,-0.076171875,-0.605712890625,1.4551999999999998
0.9007633587786259,-0.9007633587786259,-1.2366412213740459,-0.0048828125,-0.072265625,-0.602783203125,1.4568999999999999
1.083969465648855,-0.7480916030534351,-1.282442748091603,-0.007568359375,-0.077392578125,-0.60498046875,1.4586
1.3129770992366412,-0.5648854961832062,-1.1145038167938932,-0.009765625,-0.074462890625,-0.603271484375,1.4603
1.5419847328244274,-0.7175572519083969,-1.4045801526717556,-0.009521484375,-0.077392578125,-0.59814453125,1.462
1.6793893129770991,-0.7938931297709924,-1.3740458015267176,-0.00634765625,-0.081787109375,-0.60986328125,1.4637
1.8778625954198473,-0.7175572519083969,-1.297709923664122,-0.006591796875,-0.08154296875,-0.60546875,1.4653999999999998
1.9083969465648856,-0.732824427480916,-1.7099236641221374,-0.00439453125,-0.076904296875,-0.61376953125,1.4670999999999998
2.381679389312977,-0.6564885496183206,-1.6641221374045803,-0.01318359375,-0.08203125,-0.60009765625,1.4687999999999999
2.2290076335877864,-0.5954198473282443,-1.5877862595419847,-0.008056640625,-0.08251953125,-0.599853515625,1.4705
2.4122137404580153,-0.732824427480916,-1.6946564885496183,-0.007080078125,-0.079345703125,-0.605224609375,1.4722
2.687022900763359,-0.5038167938931297,-1.633587786259542,-0.007080078125,-0.080078125,-0.60498046875,1.4739
2.7938931297709924,-0.6412213740458015,-1.7557251908396947,-0.005126953125,-0.08447265625,-0.607421875,1.4756
2.931297709923664,-0.5038167938931297,-1.8931297709923665,-0.001708984375,-0.083251953125,-0.60791015625,1.4772999999999998
3.053435114503817,-0.48854961832061067,-1.7404580152671756,-0.005126953125,-0.081787109375,-0.609130859375,1.4789999999999999
2.8244274809160306,-0.44274809160305345,-1.6488549618320612,-0.0078125,-0.078369140625,-0.6083984375,1.4807
2.8702290076335877,-0.4732824427480916,-2.0,-0.00634765625,-0.081787109375,-0.60986328125,1.4824
2.900763358778626,-0.5648854961832062,-1.83206106870229,-0.013671875,-0.083984375,-0.60791015625,1.4841
2.7022900763358777,-0.33587786259541985,-1.786259541984733,-0.007080078125,-0.07666015625,-0.604736328125,1.4858
2.4732824427480917,-0.4580152671755725,-2.0610687022900764,-0.014404296875,-0.076416015625,-0.60986328125,1.4874999999999998
2.564885496183206,-0.32061068702290074,-1.9083969465648856,-0.00634765625,-0.08056640625,-0.6044921875,1.4891999999999999
2.0610687022900764,-0.1984732824427481,-2.0,-0.011962890625,-0.081298828125,-0.60302734375,1.4909
1.8473282442748091,-0.061068702290076333,-2.030534351145038,-0.007568359375,-0.083251953125,-0.611083984375,1.4926
1.8015267175572518,-0.2748091603053435,-1.9236641221374047,-0.010009765625,-0.086181640625,-0.61181640625,1.4943
1.6641221374045803,-0.1984732824427481,-1.7557251908396947,-0.010009765625,-0.077880859375,-0.6015625,1.496
1.465648854961832,0.0,-1.9541984732824427,-0.008056640625,-0.07958984375,-0.608642578125,1.4976999999999998
1.3740458015267176,0.0,-1.9541984732824427,-0.00341796875,-0.0810546875,-0.60302734375,1.4993999999999998
1.6030534351145038,-0.12213740458015267,-1.984732824427481,-0.0087890625,-0.079833984375,-0.5966796875,1.5010999999999999
1.5267175572519085,-0.10687022900763359,-1.8931297709923665,-0.00732421875,-0.087890625,-0.6044921875,1.5028
1.5419847328244274,0.0,-1.9694656488549618,-0.004638671875,-0.091552734375,-0.60986328125,1.5045
1.618320610687023,0.0,-1.8473282442748091,-0.003173828125,-0.08251953125,-0.60205078125,1.5062
1.4809160305343512,0.183206106870229,-1.8625954198473282,-0.00927734375,-0.089111328125,-0.608642578125,1.5079
1.618320610687023,0.061068702290076333,-1.83206106870229,-0.011962890625,-0.0849609375,-0.6083984375,1.5095999999999998
1.5419847328244274,0.07633587786259542,-1.9083969465648856,-0.011962890625,-0.08984375,-0.6064453125,1.5112999999999999
1.4045801526717556,0.183206106870229,-1.633587786259542,-0.010498046875,-0.088623046875,-0.60546875,1.513
1.4809160305343512,0.04580152671755725,-1.6641221374045803,-0.002685546875,-0.090576171875,-0.605224609375,1.5147
1.618320610687023,-0.04580152671755725,-1.618320610687023,-0.003662109375,-0.087158203125,-0.604736328125,1.5164
1.465648854961832,0.2595419847328244,-1.6030534351145038,-0.004150390625,-0.087890625,-0.608642578125,1.5181
1.465648854961832,0.1984732824427481,-1.4045801526717556,-0.00732421875,-0.091796875,-0.604248046875,1.5197999999999998
1.5114503816793894,0.24427480916030533,-1.6488549618320612,-0.010498046875,-0.087646484375,-0.6015625,1.5214999999999999
1.4961832061068703,0.061068702290076333,-1.3282442748091603,-0.005615234375,-0.081298828125,-0.603271484375,1.5231999999999999
1.2366412213740459,0.24427480916030533,-1.450381679389313,-0.0048828125,-0.08837890625,-0.60791015625,1.5249
0.9923664122137404,0.3511450381679389,-1.0687022900763359,-0.005859375,-0.08740234375,-0.6044921875,1.5266
1.083969465648855,0.10687022900763359,-1.1297709923664123,-0.010009765625,-0.087158203125,-0.599853515625,1.5283
1.2366412213740459,-0.04580152671755725,-1.0534351145038168,-0.01025390625,-0.083740234375,-0.60595703125,1.5299999999999998
1.251908396946565,0.13740458015267176,-0.9770992366412213,-0.005615234375,-0.087890625,-0.60791015625,1.5316999999999998
1.083969465648855,0.183206106870229,-0.9770992366412213,-0.006591796875,-0.08935546875,-0.60791015625,1.5333999999999999
1.0381679389312977,0.030534351145038167,-1.083969465648855,-0.017822265625,-0.086669921875,-0.6162109375,1.5351
1.1145038167938932,-0.12213740458015267,-1.083969465648855,-0.0048828125,-0.085693359375,-0.603271484375,1.5368
1.1145038167938932,-0.13740458015267176,-1.2366412213740459,-0.009033203125,-0.085693359375,-0.612060546875,1.5385
1.0534351145038168,-0.12213740458015267,-1.2213740458015268,-0.01123046875,-0.08251953125,-0.60107421875,1.5402
1.0687022900763359,-0.12213740458015267,-1.282442748091603,-0.003173828125,-0.08447265625,-0.603759765625,1.5418999999999998
0.8854961832061069,-0.1984732824427481,-1.4045801526717556,-0.0087890625,-0.08349609375,-0.60498046875,1.5435999999999999
0.7938931297709924,-0.4122137404580153,-1.8473282442748091,-0.00927734375,-0.086181640625,-0.61572265625,1.5453
0.9465648854961832,-0.4122137404580153,-1.8015267175572518,-0.010498046875,-0.08251953125,-0.59912109375,1.547
0.8396946564885496,-0.32061068702290074,-2.0916030534351147,-0.00927734375,-0.08349609375,-0.617919921875,1.5487
0.8396946564885496,-0.44274809160305345,-2.030534351145038,-0.010498046875,-0.083251953125,-0.613037109375,1.5504
0.7633587786259542,-0.3816793893129771,-2.3053435114503817,-0.010498046875,-0.076171875,-0.60986328125,1.5520999999999998
0.9618320610687023,-0.5038167938931297,-2.3053435114503817,-0.011474609375,-0.078369140625,-0.61181640625,1.5537999999999998
1.099236641221374,-0.5648854961832062,-2.4427480916030535,-0.01123046875,-0.078125,-0.616943359375,1.5554999999999999
0.9770992366412213,-0.366412213740458,-2.6259541984732824,-0.010009765625,-0.07373046875,-0.6083984375,1.5572
1.1297709923664123,-0.4580152671755725,-2.763358778625954,-0.01025390625,-0.076416015625,-0.6123046875,1.5589
1.2061068702290076,-0.33587786259541985,-2.7480916030534353,-0.01123046875,-0.078125,-0.6064453125,1.5606
1.5267175572519085,-0.2900763358778626,-2.8244274809160306,-0.015869140625,-0.0732421875,-0.6142578125,1.5623
1.5419847328244274,-0.1984732824427481,-2.931297709923664,-0.007568359375,-0.073486328125,-0.61474609375,1.5639999999999998
1.5114503816793894,-0.21374045801526717,-2.900763358778626,-0.012451171875,-0.07080078125,-0.614013671875,1.5656999999999999
1.6793893129770991,-0.07633587786259542,-3.0839694656488548,-0.011474609375,-0.072509765625,-0.60791015625,1.5674
1.816793893129771,0.12213740458015267,-3.099236641221374,-0.013671875,-0.0751953125,-0.60888671875,1.5691
2.122137404580153,0.10687022900763359,-3.068702290076336,-0.017822265625,-0.0751953125,-0.61181640625,1.5708
2.1374045801526718,0.030534351145038167,-3.1755725190839694,-0.009521484375,-0.07470703125,-0.610595703125,1.5725
2.1526717557251906,0.10687022900763359,-3.099236641221374,-0.007568359375,-0.07470703125,-0.61572265625,1.5741999999999998
2.183206106870229,0.22900763358778625,-3.1908396946564888,-0.016357421875,-0.0732421875,-0.60888671875,1.5758999999999999
1.816793893129771,0.22900763358778625,-3.0839694656488548,-0.0107421875,-0.075439453125,-0.614990234375,1.5776
2.1526717557251906,0.2595419847328244,-3.2213740458015265,-0.01123046875,-0.0751953125,-0.6181640625,1.5793
2.0763358778625953,0.3816793893129771,-3.2519083969465647,-0.013427734375,-0.08056640625,-0.620361328125,1.581
1.9541984732824427,0.4732824427480916,-3.114503816793893,-0.013916015625,-0.079833984375,-0.609375,1.5827
1.7709923664122138,0.33587786259541985,-3.3587786259541983,-0.013671875,-0.08056640625,-0.61083984375,1.5843999999999998
1.6641221374045803,0.15267175572519084,-3.236641221374046,-0.009521484375,-0.0751953125,-0.609130859375,1.5860999999999998
1.6793893129770991,0.44274809160305345,-2.9770992366412212,-0.009033203125,-0.074951171875,-0.60205078125,1.5877999999999999
1.5114503816793894,0.2595419847328244,-3.1297709923664123,-0.013671875,-0.07861328125,-0.616943359375,1.5895
1.4045801526717556,0.1984732824427481,-3.1603053435114505,-0.010498046875,-0.085205078125,-0.6044921875,1.5912
1.2671755725190839,0.3816793893129771,-3.0839694656488548,-0.00830078125,-0.08251953125,-0.612548828125,1.5929
1.3893129770992367,0.3053435114503817,-2.8702290076335877,-0.009521484375,-0.08154296875,-0.608154296875,1.5946
1.083969465648855,0.21374045801526717,-3.068702290076336,-0.009765625,-0.085693359375,-0.609619140625,1.5962999999999998
0.9770992366412213,0.32061068702290074,-3.0076335877862594,-0.0087890625,-0.078857421875,-0.607177734375,1.5979999999999999
0.6259541984732825,0.3511450381679389,-2.9160305343511452,-0.009765625,-0.082763671875,-0.607421875,1.5997
0.6259541984732825,0.12213740458015267,-2.8244274809160306,-0.009521484375,-0.079345703125,-0.6083984375,1.6014
0.44274809160305345,-0.015267175572519083,-3.0076335877862594,-0.010009765625,-0.083984375,-0.61572265625,1.6031
0.366412213740458,0.0,-2.763358778625954,-0.009521484375,-0.08349609375,-0.60986328125,1.6048
0.183206106870229,0.015267175572519083,-2.885496183206107,-0.00830078125,-0.084716796875,-0.6103515625,1.6064999999999998
0.030534351145038167,-0.24427480916030533,-2.763358778625954,-0.012451171875,-0.08154296875,-0.603759765625,1.6081999999999999
-0.0916030534351145,-0.030534351145038167,-2.885496183206107,-0.009033203125,-0.0849609375,-0.610595703125,1.6098999999999999
-0.5648854961832062,-0.030534351145038167,-2.8244274809160306,-0.010498046875,-0.083251953125,-0.604248046875,1.6116
-0.6564885496183206,-0.061068702290076333,-2.717557251908397,-0.013427734375,-0.07763671875,-0.603515625,1.6133
-0.6412213740458015,-0.04580152671755725,-2.6106870229007635,-0.010498046875,-0.0771484375,-0.607177734375,1.615
-0.732824427480916,-0.2748091603053435,-2.6564885496183206,-0.01416015625,-0.08056640625,-0.611083984375,1.6166999999999998
-1.1603053435114503,-0.0916030534351145,-2.4885496183206106,-0.012939453125,-0.08251953125,-0.607177734375,1.6183999999999998
-1.0687022900763359,-0.21374045801526717,-2.6717557251908395,-0.015869140625,-0.078125,-0.607421875,1.6200999999999999
-0.9923664122137404,-0.0916030534351145,-2.5801526717557253,-0.015869140625,-0.07861328125,-0.607421875,1.6218
-1.099236641221374,-0.22900763358778625,-2.717557251908397,-0.0126953125,-0.08203125,-0.608154296875,1.6235
-0.916030534351145,-0.10687022900763359,-2.595419847328244,-0.01220703125,-0.0771484375,-0.599365234375,1.6252
-0.8549618320610687,0.030534351145038167,-2.717557251908397,-0.0185546875,-0.077392578125,-0.6064453125,1.6269
-0.7480916030534351,-0.10687022900763359,-2.717557251908397,-0.01171875,-0.076416015625,-0.609130859375,1.6285999999999998
-0.6259541984732825,-0.04580152671755725,-2.717557251908397,-0.010986328125,-0.076416015625,-0.613037109375,1.6302999999999999
-0.48854961832061067,0.12213740458015267,-2.7786259541984735,-0.012939453125,-0.0751953125,-0.61328125,1.632
-0.44274809160305345,0.030534351145038167,-2.6717557251908395,-0.01123046875,-0.072509765625,-0.607177734375,1.6337
-0.3053435114503817,0.2595419847328244,-2.6564885496183206,-0.008056640625,-0.073486328125,-0.61279296875,1.6354
-0.1984732824427481,0.22900763358778625,-2.6564885496183206,-0.01416015625,-0.073486328125,-0.607421875,1.6371
-0.015267175572519083,0.12213740458015267,-2.6564885496183206,-0.0107421875,-0.074462890625,-0.61083984375,1.6387999999999998
0.21374045801526717,0.0916030534351145,-2.854961832061069,-0.013427734375,-0.07421875,-0.6103515625,1.6404999999999998
0.3053435114503817,0.42748091603053434,-2.5343511450381677,-0.013671875,-0.068603515625,-0.61181640625,1.6421999999999999
0.33587786259541985,0.4580152671755725,-2.366412213740458,-0.013427734375,-0.07177734375,-0.6123046875,1.6439
0.3816793893129771,0.42748091603053434,-2.519083969465649,-0.016845703125,-0.072265625,-0.6103515625,1.6456
0.6870229007633588,0.6564885496183206,-2.4122137404580153,-0.013916015625,-0.076416015625,-0.6123046875,1.6473
0.7480916030534351,0.5801526717557252,-2.2595419847328246,-0.009765625,-0.067626953125,-0.612060546875,1.6489999999999998
0.8549618320610687,0.7022900763358778,-2.3206106870229006,-0.013427734375,-0.0673828125,-0.613525390625,1.6506999999999998
1.1145038167938932,0.7786259541984732,-2.381679389312977,-0.011474609375,-0.068115234375,-0.6123046875,1.6523999999999999
1.099236641221374,0.916030534351145,-2.427480916030534,-0.015380859375,-0.0732421875,-0.61083984375,1.6541
1.4351145038167938,1.0534351145038168,-2.351145038167939,-0.0107421875,-0.077392578125,-0.616455078125,1.6558
1.6793893129770991,1.083969465648855,-2.183206106870229,-0.014404296875,-0.07861328125,-0.608154296875,1.6575
1.7709923664122138,0.9923664122137404,-2.4885496183206106,-0.012939453125,-0.076904296875,-0.610595703125,1.6592
1.8778625954198473,1.1297709923664123,-2.3053435114503817,-0.015869140625,-0.07373046875,-0.611572265625,1.6608999999999998
1.8473282442748091,1.1908396946564885,-2.2748091603053435,-0.01904296875,-0.076171875,-0.615478515625,1.6625999999999999
1.8625954198473282,1.2366412213740459,-2.427480916030534,-0.021728515625,-0.07958984375,-0.61474609375,1.6643
2.1526717557251906,1.1908396946564885,-2.33587786259542,-0.017578125,-0.0830078125,-0.609130859375,1.666
2.366412213740458,1.4045801526717556,-2.33587786259542,-0.01416015625,-0.082275390625,-0.606689453125,1.6677
2.1068702290076335,1.4351145038167938,-2.4580152671755724,-0.01220703125,-0.080322265625,-0.6083984375,1.6694
1.8931297709923665,1.3282442748091603,-2.33587786259542,-0.017578125,-0.0791015625,-0.60791015625,1.6710999999999998
1.9083969465648856,1.5114503816793894,-2.519083969465649,-0.017578125,-0.074462890625,-0.6162109375,1.6727999999999998
1.786259541984733,1.3893129770992367,-2.2900763358778624,-0.012451171875,-0.078125,-0.60791015625,1.6744999999999999
1.816793893129771,1.633587786259542,-2.33587786259542,-0.016845703125,-0.083251953125,-0.610107421875,1.6762
1.5572519083969465,1.7099236641221374,-2.427480916030534,-0.01416015625,-0.084228515625,-0.6123046875,1.6779
1.6641221374045803,1.6641221374045803,-2.4580152671755724,-0.01171875,-0.077880859375,-0.61767578125,1.6796
1.3129770992366412,1.7251908396946565,-2.4580152671755724,-0.01806640625,-0.084716796875,-0.61279296875,1.6813
1.2061068702290076,1.9389312977099236,-2.3206106870229006,-0.016845703125,-0.0830078125,-0.604248046875,1.6829999999999998
1.251908396946565,1.7404580152671756,-2.2290076335877864,-0.01513671875,-0.083984375,-0.609619140625,1.6846999999999999
0.9618320610687023,1.8473282442748091,-2.183206106870229,-0.01806640625,-0.083984375,-0.617431640625,1.6864
0.8702290076335878,2.0763358778625953,-2.2442748091603053,-0.015869140625,-0.082763671875,-0.610107421875,1.6881
0.7175572519083969,1.8778625954198473,-2.33587786259542,-0.011474609375,-0.0888671875,-0.613525390625,1.6898
0.7480916030534351,1.7404580152671756,-2.1068702290076335,-0.009765625,-0.078369140625,-0.6083984375,1.6915
0.8091603053435115,1.8015267175572518,-2.2748091603053435,-0.013916015625,-0.08203125,-0.60205078125,1.6931999999999998
0.5190839694656488,1.8473282442748091,-2.030534351145038,-0.014892578125,-0.081787109375,-0.606689453125,1.6948999999999999
0.3816793893129771,1.7404580152671756,-1.9541984732824427,-0.01123046875,-0.080078125,-0.611572265625,1.6965999999999999
0.48854961832061067,1.8473282442748091,-2.0,-0.01318359375,-0.080810546875,-0.610595703125,1.6983
0.4732824427480916,1.5877862595419847,-1.984732824427481,-0.011962890625,-0.078369140625,-0.60791015625,1.7
0.3969465648854962,1.633587786259542,-1.83206106870229,-0.016357421875,-0.08447265625,-0.6064453125,1.7017
0.6412213740458015,1.8778625954198473,-1.8473282442748091,-0.015869140625,-0.085205078125,-0.60595703125,1.7033999999999998
0.4580152671755725,1.6793893129770991,-1.5572519083969465,-0.013427734375,-0.0791015625,-0.60693359375,1.7050999999999998
0.9007633587786259,1.786259541984733,-1.6793893129770991,-0.010986328125,-0.0791015625,-0.607421875,1.7067999999999999
1.0381679389312977,1.816793893129771,-1.6488549618320612,-0.013427734375,-0.0732421875,-0.61181640625,1.7085
1.2061068702290076,1.6946564885496183,-1.5114503816793894,-0.0146484375,-0.0791015625,-0.6162109375,1.7102
1.251908396946565,1.4809160305343512,-1.5725190839694656,-0.01318359375,-0.076904296875,-0.6103515625,1.7119
1.2671755725190839,1.6641221374045803,-1.618320610687023,-0.0126953125,-0.072509765625,-0.61328125,1.7136
1.5114503816793894,1.786259541984733,-1.5114503816793894,-0.01708984375,-0.0791015625,-0.609619140625,1.7152999999999998
1.3893129770992367,1.6946564885496183,-1.5419847328244274,-0.0185546875,-0.076416015625,-0.613037109375,1.7169999999999999
1.5419847328244274,1.6946564885496183,-1.6030534351145038,-0.01708984375,-0.074462890625,-0.607666015625,1.7187
1.450381679389313,1.5419847328244274,-1.5725190839694656,-0.01513671875,-0.076171875,-0.6123046875,1.7204
1.1908396946564885,1.9541984732824427,-1.6641221374045803,-0.01171875,-0.076171875,-0.613037109375,1.7221
1.2366412213740459,2.0,-1.5725190839694656,-0.0107421875,-0.072509765625,-0.6123046875,1.7238
1.4961832061068703,1.9389312977099236,-1.6030534351145038,-0.0107421875,-0.072509765625,-0.602783203125,1.7254999999999998
1.5267175572519085,2.0,-1.633587786259542,-0.01806640625,-0.07568359375,-0.608642578125,1.7271999999999998
1.4961832061068703,1.9694656488549618,-1.5419847328244274,-0.020751953125,-0.074951171875,-0.602783203125,1.7288999999999999
1.3129770992366412,2.122137404580153,-1.5419847328244274,-0.012939453125,-0.074951171875,-0.610107421875,1.7306
1.4198473282442747,1.9236641221374047,-1.5877862595419847,-0.019775390625,-0.0751953125,-0.610107421875,1.7323
1.5572519083969465,2.16793893129771,-1.7251908396946565,-0.0166015625,-0.07666015625,-0.60791015625,1.734
1.5877862595419847,2.0763358778625953,-1.3893129770992367,-0.017822265625,-0.07958984375,-0.608154296875,1.7356999999999998
1.3893129770992367,2.030534351145038,-1.633587786259542,-0.0166015625,-0.07861328125,-0.610107421875,1.7373999999999998
1.633587786259542,2.0916030534351147,-1.8931297709923665,-0.01416015625,-0.07861328125,-0.60400390625,1.7390999999999999
1.5114503816793894,2.2748091603053435,-1.7709923664122138,-0.018798828125,-0.078857421875,-0.609375,1.7408
1.5725190839694656,2.16793893129771,-1.5725190839694656,-0.015625,-0.075927734375,-0.607177734375,1.7425
1.5267175572519085,2.16793893129771,-1.9083969465648856,-0.018798828125,-0.07177734375,-0.60595703125,1.7442
1.7557251908396947,2.0916030534351147,-1.6793893129770991,-0.01318359375,-0.0810546875,-0.612060546875,1.7459
1.5267175572519085,2.045801526717557,-1.7404580152671756,-0.012451171875,-0.077392578125,-0.622802734375,1.7475999999999998
1.3435114503816794,2.045801526717557,-1.633587786259542,-0.015869140625,-0.081298828125,-0.6103515625,1.7492999999999999
1.4045801526717556,1.9694656488549618,-1.816793893129771,-0.0166015625,-0.079345703125,-0.606201171875,1.751
1.3893129770992367,1.8473282442748091,-1.6946564885496183,-0.011962890625,-0.08056640625,-0.612060546875,1.7527
1.1450381679389312,1.816793893129771,-1.6488549618320612,-0.012939453125,-0.082763671875,-0.60888671875,1.7544
1.282442748091603,1.9083969465648856,-1.4198473282442747,-0.010986328125,-0.085205078125,-0.608154296875,1.7561
1.3129770992366412,1.786259541984733,-1.6641221374045803,-0.0107421875,-0.08154296875,-0.618408203125,1.7577999999999998
1.2213740458015268,1.8473282442748091,-1.5114503816793894,-0.012451171875,-0.077880859375,-0.614013671875,1.7594999999999998
1.3740458015267176,1.6793893129770991,-1.6641221374045803,-0.013427734375,-0.078369140625,-0.60693359375,1.7611999999999999
1.083969465648855,1.816793893129771,-1.5877862595419847,-0.012939453125,-0.07568359375,-0.618896484375,1.7629
1.083969465648855,1.6946564885496183,-1.5572519083969465,-0.014404296875,-0.078125,-0.606201171875,1.7646
1.2213740458015268,1.633587786259542,-1.3129770992366412,-0.014892578125,-0.080810546875,-0.615478515625,1.7663
1.282442748091603,1.7099236641221374,-1.618320610687023,-0.0166015625,-0.0771484375,-0.61083984375,1.7679999999999998
0.8854961832061069,1.5572519083969465,-1.4961832061068703,-0.01318359375,-0.0751953125,-0.603515625,1.7696999999999998
0.7633587786259542,1.5267175572519085,-1.5419847328244274,-0.013427734375,-0.079833984375,-0.615234375,1.7713999999999999
0.6717557251908397,1.6030534351145038,-1.3740458015267176,-0.013671875,-0.083984375,-0.60693359375,1.7731
0.7175572519083969,1.450381679389313,-1.4961832061068703,-0.014892578125,-0.0810546875,-0.609375,1.7748
0.6259541984732825,1.4045801526717556,-1.4809160305343512,-0.01416015625,-0.0810546875,-0.61181640625,1.7765
0.5648854961832062,1.3435114503816794,-1.4351145038167938,-0.01220703125,-0.080810546875,-0.608154296875,1.7782
0.3053435114503817,1.3282442748091603,-1.5419847328244274,-0.01806640625,-0.075439453125,-0.60302734375,1.7798999999999998
0.44274809160305345,1.5114503816793894,-1.6641221374045803,-0.01318359375,-0.073974609375,-0.605224609375,1.7815999999999999
0.3816793893129771,1.3893129770992367,-1.3740458015267176,-0.01123046875,-0.081787109375,-0.603759765625,1.7832999999999999
0.2595419847328244,1.1145038167938932,-1.7404580152671756,-0.013427734375,-0.07666015625,-0.59716796875,1.785
