gyrox1,gyroy1,gyroz1,accelx1,accely1,accelz1,Time
1.450381679389313,0.33587786259541985,-2.0763358778625953,-0.031494140625,-0.13427734375,-0.5986328125,0.0
1.3740458015267176,0.2900763358778626,-2.1068702290076335,-0.032470703125,-0.1396484375,-0.599365234375,0.0017
1.465648854961832,0.1984732824427481,-2.2900763358778624,-0.03125,-0.13720703125,-0.60400390625,0.0034
1.450381679389313,0.13740458015267176,-2.3206106870229006,-0.03076171875,-0.137939453125,-0.6015625,0.0050999999999999995
1.3282442748091603,0.16793893129770993,-2.1374045801526718,-0.03125,-0.137451171875,-0.59765625,0.0068
1.1450381679389312,0.16793893129770993,-2.2442748091603053,-0.027587890625,-0.138916015625,-0.596923828125,0.008499999999999999
0.9618320610687023,0.13740458015267176,-2.351145038167939,-0.03515625,-0.1357421875,-0.60400390625,0.010199999999999999
1.0381679389312977,0.16793893129770993,-2.2290076335877864,-0.0283203125,-0.142333984375,-0.60205078125,0.011899999999999999
1.1755725190839694,0.015267175572519083,-2.5801526717557253,-0.03271484375,-0.139892578125,-0.60107421875,0.0136
1.2213740458015268,0.015267175572519083,-2.16793893129771,-0.026123046875,-0.140380859375,-0.60107421875,0.0153
1.0381679389312977,0.030534351145038167,-2.427480916030534,-0.027587890625,-0.136474609375,-0.603515625,0.016999999999999998
1.083969465648855,-0.030534351145038167,-2.4580152671755724,-0.02783203125,-0.13330078125,-0.597412109375,0.018699999999999998
0.9618320610687023,0.030534351145038167,-2.381679389312977,-0.027587890625,-0.13623046875,-0.59326171875,0.020399999999999998
0.916030534351145,-0.015267175572519083,-2.2442748091603053,-0.0263671875,-0.13525390625,-0.593505859375,0.022099999999999998
1.0687022900763359,-0.22900763358778625,-2.6564885496183206,-0.0263671875,-0.140625,-0.58984375,0.023799999999999998
1.2366412213740459,0.07633587786259542,-2.4732824427480917,-0.02880859375,-0.134033203125,-0.597900390625,0.0255
1.099236641221374,-0.13740458015267176,-2.6564885496183206,-0.026123046875,-0.13525390625,-0.59619140625,0.0272
1.099236641221374,-0.16793893129770993,-2.33587786259542,-0.02197265625,-0.1396484375,-0.59716796875,0.0289
1.083969465648855,-0.015267175572519083,-2.366412213740458,-0.0302734375,-0.135498046875,-0.598388671875,0.0306
1.1908396946564885,-0.10687022900763359,-2.366412213740458,-0.031005859375,-0.14013671875,-0.60107421875,0.032299999999999995
1.1755725190839694,0.0,-2.3053435114503817,-0.026611328125,-0.14111328125,-0.5986328125,0.033999999999999996
1.1450381679389312,0.0916030534351145,-2.16793893129771,-0.027587890625,-0.13720703125,-0.6025390625,0.035699999999999996
1.2213740458015268,-0.12213740458015267,-2.33587786259542,-0.0283203125,-0.13623046875,-0.597412109375,0.037399999999999996
1.5877862595419847,0.0916030534351145,-2.198473282442748,-0.02490234375,-0.138916015625,-0.589599609375,0.039099999999999996
1.3587786259541985,0.07633587786259542,-2.16793893129771,-0.02880859375,-0.137451171875,-0.593017578125,0.040799999999999996
1.2061068702290076,0.0916030534351145,-2.015267175572519,-0.025390625,-0.13330078125,-0.58984375,0.042499999999999996
1.297709923664122,0.16793893129770993,-2.2595419847328246,-0.02490234375,-0.136474609375,-0.59619140625,0.044199999999999996
1.1755725190839694,0.15267175572519084,-2.1374045801526718,-0.02685546875,-0.134033203125,-0.60107421875,0.045899999999999996
1.3282442748091603,0.07633587786259542,-2.2900763358778624,-0.028076171875,-0.135986328125,-0.5966796875,0.047599999999999996
1.1908396946564885,0.015267175572519083,-1.8931297709923665,-0.030029296875,-0.137451171875,-0.60009765625,0.0493
1.465648854961832,0.2595419847328244,-2.3053435114503817,-0.030517578125,-0.13427734375,-0.598876953125,0.051
1.3129770992366412,0.24427480916030533,-2.3053435114503817,-0.029541015625,-0.133544921875,-0.604248046875,0.0527
1.1145038167938932,0.32061068702290074,-2.2595419847328246,-0.031005859375,-0.1396484375,-0.59228515625,0.0544
1.1603053435114503,0.33587786259541985,-2.015267175572519,-0.02978515625,-0.134765625,-0.589599609375,0.0561
1.083969465648855,0.32061068702290074,-2.213740458015267,-0.028564453125,-0.136962890625,-0.598388671875,0.0578
1.083969465648855,0.3053435114503817,-2.0916030534351147,-0.030517578125,-0.135986328125,-0.592529296875,0.0595
1.0534351145038168,0.3816793893129771,-2.16793893129771,-0.033447265625,-0.1337890625,-0.599853515625,0.0612
0.8091603053435115,0.5343511450381679,-1.9389312977099236,-0.033447265625,-0.134765625,-0.599609375,0.0629
0.6870229007633588,0.3969465648854962,-2.1526717557251906,-0.0263671875,-0.139404296875,-0.603271484375,0.06459999999999999
0.8854961832061069,0.5648854961832062,-1.9541984732824427,-0.033447265625,-0.13427734375,-0.597412109375,0.0663
0.7633587786259542,0.6259541984732825,-1.8625954198473282,-0.034912109375,-0.132080078125,-0.591796875,0.06799999999999999
0.7938931297709924,0.6717557251908397,-1.7709923664122138,-0.03173828125,-0.1357421875,-0.597412109375,0.0697
0.9618320610687023,0.7786259541984732,-1.984732824427481,-0.033935546875,-0.13525390625,-0.58740234375,0.07139999999999999
0.732824427480916,0.732824427480916,-1.8473282442748091,-0.034912109375,-0.135009765625,-0.594970703125,0.0731
0.9923664122137404,1.0076335877862594,-2.015267175572519,-0.031494140625,-0.137451171875,-0.599365234375,0.07479999999999999
0.9923664122137404,0.9618320610687023,-2.045801526717557,-0.031005859375,-0.1328125,-0.59814453125,0.0765
0.916030534351145,0.8702290076335878,-1.9236641221374047,-0.03125,-0.136962890625,-0.59619140625,0.07819999999999999
0.8702290076335878,0.916030534351145,-1.8473282442748091,-0.033203125,-0.1357421875,-0.598388671875,0.0799
1.0687022900763359,0.8854961832061069,-1.9389312977099236,-0.030029296875,-0.135986328125,-0.588134765625,0.08159999999999999
1.0229007633587786,0.7938931297709924,-1.7099236641221374,-0.028076171875,-0.136474609375,-0.598876953125,0.0833
1.083969465648855,1.0381679389312977,-1.8625954198473282,-0.03173828125,-0.138671875,-0.599365234375,0.08499999999999999
1.1145038167938932,0.8244274809160306,-1.7709923664122138,-0.03271484375,-0.138671875,-0.598876953125,0.0867
1.1755725190839694,0.916030534351145,-1.8015267175572518,-0.028564453125,-0.137451171875,-0.59033203125,0.08839999999999999
1.3893129770992367,0.8091603053435115,-1.8015267175572518,-0.02978515625,-0.136962890625,-0.59912109375,0.0901
0.9618320610687023,0.7938931297709924,-1.8931297709923665,-0.026123046875,-0.139404296875,-0.597412109375,0.09179999999999999
1.450381679389313,0.9770992366412213,-1.7251908396946565,-0.029296875,-0.1328125,-0.595703125,0.0935
1.4351145038167938,0.8091603053435115,-1.83206106870229,-0.033447265625,-0.136962890625,-0.59423828125,0.09519999999999999
1.5267175572519085,0.916030534351145,-1.9389312977099236,-0.02978515625,-0.13037109375,-0.599365234375,0.0969
1.465648854961832,1.0687022900763359,-1.9389312977099236,-0.03076171875,-0.13623046875,-0.596923828125,0.0986
1.4809160305343512,1.0381679389312977,-1.83206106870229,-0.029541015625,-0.1376953125,-0.59423828125,0.1003
1.5725190839694656,0.9007633587786259,-2.045801526717557,-0.03125,-0.135009765625,-0.59619140625,0.102
1.7099236641221374,0.9770992366412213,-2.0,-0.0283203125,-0.13623046875,-0.599609375,0.1037
1.5572519083969465,1.0076335877862594,-2.0610687022900764,-0.0263671875,-0.130615234375,-0.5947265625,0.1054
1.6030534351145038,0.8396946564885496,-2.1374045801526718,-0.030517578125,-0.1298828125,-0.594482421875,0.1071
1.9236641221374047,0.7938931297709924,-2.045801526717557,-0.0322265625,-0.135009765625,-0.593017578125,0.1088
1.786259541984733,1.083969465648855,-2.1374045801526718,-0.034423828125,-0.1357421875,-0.5966796875,0.11049999999999999
1.984732824427481,0.7938931297709924,-2.16793893129771,-0.025390625,-0.133544921875,-0.603515625,0.1122
1.9694656488549618,0.9923664122137404,-2.16793893129771,-0.0283203125,-0.135498046875,-0.603271484375,0.11389999999999999
2.16793893129771,1.0076335877862594,-2.0,-0.03271484375,-0.14208984375,-0.59619140625,0.1156
2.3053435114503817,0.7786259541984732,-2.0916030534351147,-0.031982421875,-0.13671875,-0.603759765625,0.11729999999999999
2.213740458015267,0.9465648854961832,-2.1068702290076335,-0.0322265625,-0.135498046875,-0.602294921875,0.119
2.3053435114503817,1.083969465648855,-2.198473282442748,-0.023681640625,-0.136962890625,-0.59375,0.12069999999999999
2.33587786259542,1.0534351145038168,-2.0916030534351147,-0.02734375,-0.13525390625,-0.592529296875,0.1224
2.2900763358778624,1.0229007633587786,-1.8473282442748091,-0.033935546875,-0.139404296875,-0.593017578125,0.12409999999999999
2.4122137404580153,0.8244274809160306,-2.030534351145038,-0.02587890625,-0.135009765625,-0.592529296875,0.1258
2.381679389312977,0.9007633587786259,-2.213740458015267,-0.0283203125,-0.136474609375,-0.593505859375,0.1275
2.3053435114503817,1.1297709923664123,-2.198473282442748,-0.031005859375,-0.1416015625,-0.5966796875,0.12919999999999998
2.5343511450381677,1.0076335877862594,-2.2748091603053435,-0.03369140625,-0.1396484375,-0.591552734375,0.1309
2.564885496183206,0.8702290076335878,-2.198473282442748,-0.027587890625,-0.13818359375,-0.59912109375,0.1326
2.7938931297709924,0.9465648854961832,-2.1068702290076335,-0.02685546875,-0.138916015625,-0.599853515625,0.1343
2.4732824427480917,1.099236641221374,-2.3206106870229006,-0.03076171875,-0.139404296875,-0.598388671875,0.13599999999999998
2.427480916030534,1.1145038167938932,-2.1374045801526718,-0.027587890625,-0.142333984375,-0.601318359375,0.1377
2.3969465648854964,0.9770992366412213,-2.030534351145038,-0.02783203125,-0.13623046875,-0.608154296875,0.1394
2.3053435114503817,1.0687022900763359,-2.1526717557251906,-0.02783203125,-0.13720703125,-0.60107421875,0.1411
2.122137404580153,0.9770992366412213,-2.0610687022900764,-0.03271484375,-0.1357421875,-0.5927734375,0.14279999999999998
2.122137404580153,1.1297709923664123,-2.0610687022900764,-0.031005859375,-0.1318359375,-0.59912109375,0.1445
2.030534351145038,0.9312977099236641,-1.984732824427481,-0.025390625,-0.13720703125,-0.59375,0.1462
2.030534351145038,0.9618320610687023,-2.2442748091603053,-0.030517578125,-0.135986328125,-0.595703125,0.1479
1.8778625954198473,0.8854961832061069,-2.0916030534351147,-0.025634765625,-0.137939453125,-0.595703125,0.14959999999999998
1.8015267175572518,0.7938931297709924,-2.0916030534351147,-0.02880859375,-0.13916015625,-0.59228515625,0.1513
1.633587786259542,0.916030534351145,-2.3053435114503817,-0.026611328125,-0.137451171875,-0.6005859375,0.153
1.4351145038167938,0.7022900763358778,-2.351145038167939,-0.030029296875,-0.13720703125,-0.60400390625,0.1547
1.6030534351145038,0.7480916030534351,-2.351145038167939,-0.030517578125,-0.136962890625,-0.59375,0.15639999999999998
1.4961832061068703,0.7938931297709924,-2.198473282442748,-0.034423828125,-0.13427734375,-0.601806640625,0.1581
1.3893129770992367,0.7022900763358778,-2.381679389312977,-0.030029296875,-0.13671875,-0.604736328125,0.1598
1.1908396946564885,0.8854961832061069,-2.3969465648854964,-0.035888671875,-0.145263671875,-0.595703125,0.1615
0.9618320610687023,0.8549618320610687,-2.2595419847328246,-0.030029296875,-0.142822265625,-0.602294921875,0.16319999999999998
0.916030534351145,0.7786259541984732,-2.427480916030534,-0.02734375,-0.133544921875,-0.598876953125,0.1649
1.099236641221374,0.7022900763358778,-2.351145038167939,-0.03076171875,-0.13525390625,-0.603515625,0.1666
0.9465648854961832,0.732824427480916,-2.519083969465649,-0.035400390625,-0.1376953125,-0.6044921875,0.16829999999999998
0.7175572519083969,0.8702290076335878,-2.4427480916030535,-0.0341796875,-0.142822265625,-0.604736328125,0.16999999999999998
0.8396946564885496,0.732824427480916,-2.3206106870229006,-0.030517578125,-0.133544921875,-0.600830078125,0.1717
0.8244274809160306,0.7022900763358778,-2.4427480916030535,-0.031494140625,-0.133544921875,-0.595703125,0.1734
0.732824427480916,0.7022900763358778,-2.381679389312977,-0.03173828125,-0.1318359375,-0.600341796875,0.17509999999999998
0.8396946564885496,0.6870229007633588,-2.2900763358778624,-0.031982421875,-0.1396484375,-0.599365234375,0.17679999999999998
0.8549618320610687,0.6412213740458015,-2.4427480916030535,-0.029541015625,-0.139892578125,-0.592529296875,0.1785
0.8091603053435115,0.6564885496183206,-2.519083969465649,-0.02783203125,-0.138916015625,-0.598388671875,0.1802
0.8702290076335878,0.6259541984732825,-2.33587786259542,-0.031005859375,-0.141845703125,-0.597412109375,0.18189999999999998
0.9007633587786259,0.8396946564885496,-2.3969465648854964,-0.03173828125,-0.134521484375,-0.598876953125,0.18359999999999999
0.8396946564885496,0.5038167938931297,-2.4122137404580153,-0.032958984375,-0.134521484375,-0.603271484375,0.1853
0.8244274809160306,0.7175572519083969,-2.2748091603053435,-0.036865234375,-0.13720703125,-0.603515625,0.187
0.9618320610687023,0.6412213740458015,-2.50381679389313,-0.032958984375,-0.13427734375,-0.595947265625,0.18869999999999998
0.9770992366412213,0.5648854961832062,-2.50381679389313,-0.03076171875,-0.13623046875,-0.6005859375,0.19039999999999999
1.2061068702290076,0.5038167938931297,-2.595419847328244,-0.029296875,-0.138916015625,-0.5947265625,0.1921
1.1297709923664123,0.6564885496183206,-2.4732824427480917,-0.02880859375,-0.13916015625,-0.604248046875,0.1938
0.9618320610687023,0.7480916030534351,-2.5801526717557253,-0.029296875,-0.132568359375,-0.591552734375,0.19549999999999998
1.1297709923664123,0.6564885496183206,-2.5343511450381677,-0.033447265625,-0.13671875,-0.5966796875,0.1972
1.1755725190839694,0.5038167938931297,-2.7480916030534353,-0.032470703125,-0.1337890625,-0.59033203125,0.1989
1.1755725190839694,0.5038167938931297,-2.8244274809160306,-0.03076171875,-0.135986328125,-0.58984375,0.2006
1.297709923664122,0.5190839694656488,-2.8091603053435112,-0.029541015625,-0.13671875,-0.601318359375,0.20229999999999998
1.3282442748091603,0.6106870229007634,-2.900763358778626,-0.0322265625,-0.13330078125,-0.598876953125,0.204
1.3282442748091603,0.6564885496183206,-3.0839694656488548,-0.033203125,-0.1376953125,-0.60107421875,0.2057
1.5572519083969465,0.6412213740458015,-2.931297709923664,-0.03173828125,-0.138427734375,-0.599609375,0.2074
1.3740458015267176,0.7938931297709924,-3.053435114503817,-0.0263671875,-0.13037109375,-0.595703125,0.20909999999999998
1.4045801526717556,0.7480916030534351,-2.931297709923664,-0.031494140625,-0.13525390625,-0.595947265625,0.2108
1.5725190839694656,0.8244274809160306,-2.9160305343511452,-0.029296875,-0.132568359375,-0.60009765625,0.2125
1.5267175572519085,0.5801526717557252,-2.854961832061069,-0.03125,-0.13623046875,-0.59814453125,0.2142
1.5725190839694656,0.7786259541984732,-3.053435114503817,-0.0302734375,-0.13427734375,-0.591796875,0.21589999999999998
1.9083969465648856,0.8549618320610687,-3.0076335877862594,-0.032470703125,-0.135009765625,-0.59375,0.2176
1.5572519083969465,0.8244274809160306,-2.9160305343511452,-0.03271484375,-0.13427734375,-0.594482421875,0.2193
1.5419847328244274,0.8702290076335878,-2.885496183206107,-0.02783203125,-0.142578125,-0.59716796875,0.22099999999999997
1.6946564885496183,0.8549618320610687,-2.900763358778626,-0.030029296875,-0.138916015625,-0.597412109375,0.22269999999999998
1.9083969465648856,0.7786259541984732,-2.900763358778626,-0.03271484375,-0.131103515625,-0.599853515625,0.2244
1.8625954198473282,0.7480916030534351,-2.885496183206107,-0.036865234375,-0.131591796875,-0.592529296875,0.2261
1.8473282442748091,0.916030534351145,-2.8091603053435112,-0.030029296875,-0.133056640625,-0.601806640625,0.22779999999999997
1.7404580152671756,0.7633587786259542,-2.931297709923664,-0.03369140625,-0.13525390625,-0.60400390625,0.22949999999999998
1.816793893129771,0.8244274809160306,-2.7786259541984735,-0.026123046875,-0.13818359375,-0.59765625,0.2312
1.7099236641221374,0.732824427480916,-3.0381679389312977,-0.030517578125,-0.139404296875,-0.592529296875,0.2329
1.8625954198473282,0.8702290076335878,-2.9770992366412212,-0.031005859375,-0.1416015625,-0.594482421875,0.23459999999999998
1.816793893129771,0.7633587786259542,-2.931297709923664,-0.031005859375,-0.137451171875,-0.59912109375,0.23629999999999998
1.7404580152671756,0.7175572519083969,-2.9770992366412212,-0.032958984375,-0.13720703125,-0.6005859375,0.238
2.0,0.9007633587786259,-2.9160305343511452,-0.026123046875,-0.137451171875,-0.59716796875,0.2397
1.618320610687023,0.9007633587786259,-2.885496183206107,-0.028076171875,-0.1376953125,-0.60205078125,0.24139999999999998
1.7709923664122138,1.0381679389312977,-2.900763358778626,-0.03125,-0.132080078125,-0.593994140625,0.24309999999999998
1.4351145038167938,0.916030534351145,-2.8244274809160306,-0.02587890625,-0.14013671875,-0.5966796875,0.2448
1.4198473282442747,0.8549618320610687,-2.946564885496183,-0.03076171875,-0.1357421875,-0.597412109375,0.2465
1.1603053435114503,0.9312977099236641,-2.854961832061069,-0.033203125,-0.139892578125,-0.601318359375,0.24819999999999998
1.099236641221374,1.1145038167938932,-2.946564885496183,-0.03076171875,-0.1357421875,-0.602294921875,0.24989999999999998
1.297709923664122,1.0381679389312977,-2.9160305343511452,-0.034423828125,-0.13623046875,-0.60205078125,0.2516
1.282442748091603,1.0229007633587786,-3.0381679389312977,-0.034912109375,-0.138427734375,-0.6005859375,0.25329999999999997
1.450381679389313,1.2671755725190839,-2.763358778625954,-0.0302734375,-0.13720703125,-0.596435546875,0.255
1.3282442748091603,1.1755725190839694,-2.8244274809160306,-0.031005859375,-0.137939453125,-0.59619140625,0.2567
1.297709923664122,1.2061068702290076,-2.7938931297709924,-0.030517578125,-0.136962890625,-0.598388671875,0.25839999999999996
1.0381679389312977,1.1908396946564885,-2.8396946564885495,-0.0283203125,-0.13720703125,-0.598876953125,0.2601
0.9923664122137404,1.1297709923664123,-2.6106870229007635,-0.028076171875,-0.137451171875,-0.595947265625,0.2618
1.0076335877862594,1.3893129770992367,-2.717557251908397,-0.03076171875,-0.13720703125,-0.589599609375,0.2635
1.1908396946564885,1.3282442748091603,-2.5801526717557253,-0.029296875,-0.1376953125,-0.58984375,0.2652
1.0687022900763359,1.3893129770992367,-2.687022900763359,-0.029296875,-0.135009765625,-0.591796875,0.26689999999999997
0.7175572519083969,1.1755725190839694,-2.7938931297709924,-0.034423828125,-0.1357421875,-0.593505859375,0.2686
1.0076335877862594,1.251908396946565,-2.687022900763359,-0.028076171875,-0.1396484375,-0.59716796875,0.2703
1.0534351145038168,1.2366412213740459,-2.4427480916030535,-0.031494140625,-0.13623046875,-0.599853515625,0.27199999999999996
1.099236641221374,1.297709923664122,-2.687022900763359,-0.0361328125,-0.14013671875,-0.599853515625,0.2737
1.0381679389312977,1.3435114503816794,-2.6412213740458017,-0.036376953125,-0.137451171875,-0.602783203125,0.2754
1.0381679389312977,1.282442748091603,-2.7786259541984735,-0.031005859375,-0.137451171875,-0.595458984375,0.27709999999999996
0.7175572519083969,1.1755725190839694,-2.732824427480916,-0.031982421875,-0.130126953125,-0.599365234375,0.2788
0.8396946564885496,1.2366412213740459,-2.6106870229007635,-0.031982421875,-0.13623046875,-0.60205078125,0.28049999999999997
0.9312977099236641,1.2213740458015268,-2.6259541984732824,-0.03466796875,-0.139404296875,-0.59033203125,0.2822
0.8396946564885496,1.2213740458015268,-2.7938931297709924,-0.03076171875,-0.13671875,-0.59765625,0.2839
0.7786259541984732,1.1145038167938932,-2.6412213740458017,-0.03173828125,-0.136962890625,-0.599609375,0.28559999999999997
0.7480916030534351,1.0534351145038168,-2.9770992366412212,-0.03173828125,-0.13037109375,-0.6025390625,0.2873
0.9312977099236641,1.2671755725190839,-2.687022900763359,-0.035400390625,-0.13623046875,-0.598388671875,0.289
1.0381679389312977,1.1603053435114503,-2.7786259541984735,-0.03466796875,-0.137939453125,-0.597900390625,0.29069999999999996
0.9923664122137404,1.1908396946564885,-2.7480916030534353,-0.02392578125,-0.13232421875,-0.59814453125,0.2924
0.8549618320610687,1.2061068702290076,-2.595419847328244,-0.028076171875,-0.141357421875,-0.60107421875,0.2941
0.8854961832061069,1.4351145038167938,-2.6717557251908395,-0.0322265625,-0.135498046875,-0.6005859375,0.2958
0.9923664122137404,1.1450381679389312,-2.885496183206107,-0.03369140625,-0.13720703125,-0.6005859375,0.2975
0.7022900763358778,1.1297709923664123,-2.6259541984732824,-0.03369140625,-0.138671875,-0.601318359375,0.29919999999999997
0.9007633587786259,1.1603053435114503,-2.6564885496183206,-0.03515625,-0.135986328125,-0.599609375,0.3009
1.2366412213740459,1.0687022900763359,-2.7480916030534353,-0.030517578125,-0.1396484375,-0.591552734375,0.3026
1.083969465648855,1.099236641221374,-2.595419847328244,-0.029541015625,-0.13720703125,-0.5986328125,0.30429999999999996
1.1755725190839694,1.0229007633587786,-2.6106870229007635,-0.02783203125,-0.137451171875,-0.594482421875,0.306
0.9770992366412213,1.099236641221374,-2.7022900763358777,-0.03173828125,-0.136474609375,-0.603271484375,0.3077
0.8702290076335878,0.9618320610687023,-2.7480916030534353,-0.034912109375,-0.137939453125,-0.593505859375,0.3094
1.2366412213740459,0.8854961832061069,-2.7786259541984735,-0.029296875,-0.13818359375,-0.60107421875,0.3111
1.3435114503816794,0.9007633587786259,-2.854961832061069,-0.031005859375,-0.13720703125,-0.596923828125,0.31279999999999997
1.251908396946565,0.8091603053435115,-3.0076335877862594,-0.03173828125,-0.138427734375,-0.594970703125,0.3145
1.1603053435114503,0.6717557251908397,-2.900763358778626,-0.029296875,-0.1337890625,-0.597412109375,0.3162
1.3435114503816794,0.7175572519083969,-3.114503816793893,-0.02880859375,-0.137451171875,-0.59912109375,0.31789999999999996
1.1908396946564885,0.549618320610687,-2.885496183206107,-0.029541015625,-0.138916015625,-0.60595703125,0.3196
1.282442748091603,0.4732824427480916,-2.931297709923664,-0.029052734375,-0.130859375,-0.595947265625,0.3213
1.5267175572519085,0.6412213740458015,-3.0839694656488548,-0.03173828125,-0.13330078125,-0.600830078125,0.323
1.4045801526717556,0.732824427480916,-2.9923664122137406,-0.029541015625,-0.13037109375,-0.59814453125,0.3247
1.3740458015267176,0.5190839694656488,-3.053435114503817,-0.036376953125,-0.1337890625,-0.60302734375,0.32639999999999997
1.2366412213740459,0.5801526717557252,-3.099236641221374,-0.028564453125,-0.13330078125,-0.60009765625,0.3281
1.1450381679389312,0.5801526717557252,-3.0381679389312977,-0.03369140625,-0.128173828125,-0.5947265625,0.3298
1.1297709923664123,0.7022900763358778,-3.068702290076336,-0.029052734375,-0.132568359375,-0.5849609375,0.33149999999999996
1.282442748091603,0.6259541984732825,-2.8702290076335877,-0.029541015625,-0.13671875,-0.594970703125,0.3332
0.9770992366412213,0.7938931297709924,-2.9923664122137406,-0.03369140625,-0.1328125,-0.595947265625,0.3349
1.0076335877862594,0.7480916030534351,-3.1297709923664123,-0.03515625,-0.13134765625,-0.60205078125,0.33659999999999995
1.1755725190839694,0.6870229007633588,-2.9160305343511452,-0.034423828125,-0.129638671875,-0.587890625,0.3383
1.0381679389312977,0.7786259541984732,-3.0076335877862594,-0.03173828125,-0.134765625,-0.590576171875,0.33999999999999997
1.0687022900763359,0.7938931297709924,-3.1603053435114505,-0.030029296875,-0.13525390625,-0.5908203125,0.3417
1.1603053435114503,0.8854961832061069,-2.9618320610687023,-0.02587890625,-0.13427734375,-0.59033203125,0.3434
1.251908396946565,0.916030534351145,-2.9770992366412212,-0.02734375,-0.135498046875,-0.60302734375,0.34509999999999996
1.2061068702290076,0.9618320610687023,-2.9923664122137406,-0.031982421875,-0.131103515625,-0.605224609375,0.3468
0.9770992366412213,0.8396946564885496,-3.145038167938931,-0.033203125,-0.13330078125,-0.59326171875,0.3485
1.1603053435114503,0.6870229007633588,-3.053435114503817,-0.03125,-0.1337890625,-0.603759765625,0.35019999999999996
1.083969465648855,0.9312977099236641,-3.068702290076336,-0.032470703125,-0.13330078125,-0.593505859375,0.3519
0.9465648854961832,1.1297709923664123,-3.0229007633587788,-0.03564453125,-0.131591796875,-0.595458984375,0.35359999999999997
0.9465648854961832,0.8396946564885496,-2.946564885496183,-0.03271484375,-0.135498046875,-0.59375,0.3553
1.1450381679389312,0.8702290076335878,-2.9923664122137406,-0.035400390625,-0.138916015625,-0.5947265625,0.357
0.9618320610687023,1.0229007633587786,-2.6412213740458017,-0.03173828125,-0.1337890625,-0.59130859375,0.35869999999999996
1.083969465648855,0.9007633587786259,-2.6564885496183206,-0.02978515625,-0.135986328125,-0.594970703125,0.3604
1.1450381679389312,0.8549618320610687,-2.7938931297709924,-0.033203125,-0.13623046875,-0.596435546875,0.3621
1.3435114503816794,1.0229007633587786,-2.6564885496183206,-0.034423828125,-0.13671875,-0.598876953125,0.36379999999999996
1.1755725190839694,1.0687022900763359,-2.6106870229007635,-0.033203125,-0.13720703125,-0.6064453125,0.3655
1.1908396946564885,0.8396946564885496,-2.519083969465649,-0.03466796875,-0.13720703125,-0.603515625,0.36719999999999997
1.1145038167938932,1.083969465648855,-2.381679389312977,-0.03173828125,-0.138916015625,-0.596435546875,0.3689
1.1145038167938932,1.1755725190839694,-2.3206106870229006,-0.03759765625,-0.13720703125,-0.598388671875,0.3706
1.1755725190839694,1.0381679389312977,-2.213740458015267,-0.035888671875,-0.134033203125,-0.59814453125,0.37229999999999996
1.083969465648855,0.9770992366412213,-1.9083969465648856,-0.037353515625,-0.138916015625,-0.593994140625,0.374
1.083969465648855,0.9007633587786259,-2.2290076335877864,-0.03564453125,-0.1376953125,-0.599853515625,0.3757
0.9923664122137404,1.099236641221374,-2.2290076335877864,-0.037109375,-0.138916015625,-0.59716796875,0.37739999999999996
0.8091603053435115,1.0534351145038168,-2.2595419847328246,-0.038818359375,-0.142578125,-0.6025390625,0.3791
0.6564885496183206,1.2061068702290076,-2.1374045801526718,-0.03564453125,-0.140625,-0.595458984375,0.38079999999999997
0.6717557251908397,1.083969465648855,-2.183206106870229,-0.03857421875,-0.138916015625,-0.590087890625,0.38249999999999995
0.5190839694656488,1.1908396946564885,-2.2748091603053435,-0.0380859375,-0.135986328125,-0.6044921875,0.3842
0.5038167938931297,1.1297709923664123,-2.198473282442748,-0.037353515625,-0.140869140625,-0.599609375,0.38589999999999997
0.3511450381679389,1.0687022900763359,-2.2900763358778624,-0.0361328125,-0.13671875,-0.599365234375,0.3876
0.44274809160305345,1.3740458015267176,-2.4885496183206106,-0.03369140625,-0.13671875,-0.60888671875,0.3893
0.04580152671755725,1.1145038167938932,-2.351145038167939,-0.030517578125,-0.138671875,-0.597412109375,0.39099999999999996
0.030534351145038167,1.0534351145038168,-2.3053435114503817,-0.036865234375,-0.137939453125,-0.6044921875,0.3927
0.21374045801526717,1.1297709923664123,-2.3206106870229006,-0.03369140625,-0.1328125,-0.594970703125,0.3944
0.183206106870229,1.1297709923664123,-2.4427480916030535,-0.035888671875,-0.140380859375,-0.595703125,0.39609999999999995
-0.015267175572519083,1.2061068702290076,-2.595419847328244,-0.033447265625,-0.13916015625,-0.593994140625,0.3978
-0.16793893129770993,1.1603053435114503,-2.4885496183206106,-0.029052734375,-0.136474609375,-0.6025390625,0.39949999999999997
0.0916030534351145,1.2366412213740459,-2.595419847328244,-0.033447265625,-0.134765625,-0.596435546875,0.4012
0.16793893129770993,1.2061068702290076,-2.717557251908397,-0.033203125,-0.13232421875,-0.5908203125,0.4029
0.16793893129770993,1.2366412213740459,-2.519083969465649,-0.0322265625,-0.136962890625,-0.592529296875,0.40459999999999996
0.015267175572519083,1.1755725190839694,-2.6259541984732824,-0.032958984375,-0.135498046875,-0.60205078125,0.4063
0.2900763358778626,1.1297709923664123,-2.519083969465649,-0.03125,-0.1318359375,-0.596435546875,0.408
0.22900763358778625,1.1755725190839694,-2.6717557251908395,-0.029296875,-0.13232421875,-0.5986328125,0.40969999999999995
0.22900763358778625,1.2213740458015268,-2.381679389312977,-0.032470703125,-0.13134765625,-0.594482421875,0.4114
0.42748091603053434,1.2213740458015268,-2.4580152671755724,-0.03076171875,-0.134765625,-0.60009765625,0.41309999999999997
0.5801526717557252,1.1450381679389312,-2.6106870229007635,-0.03125,-0.13330078125,-0.603759765625,0.4148
0.5343511450381679,1.1755725190839694,-2.3206106870229006,-0.030029296875,-0.133544921875,-0.602294921875,0.4165
0.6259541984732825,1.1297709923664123,-2.2442748091603053,-0.032958984375,-0.131103515625,-0.597412109375,0.41819999999999996
0.9007633587786259,1.2213740458015268,-2.519083969465649,-0.028076171875,-0.13671875,-0.606201171875,0.4199
0.8549618320610687,1.1603053435114503,-2.427480916030534,-0.0322265625,-0.126953125,-0.5947265625,0.4216
0.8091603053435115,1.1603053435114503,-2.519083969465649,-0.0361328125,-0.1337890625,-0.5966796875,0.42329999999999995
1.0076335877862594,1.2213740458015268,-2.2595419847328246,-0.0361328125,-0.135986328125,-0.60302734375,0.425
0.9465648854961832,1.1450381679389312,-2.564885496183206,-0.03759765625,-0.13037109375,-0.601318359375,0.42669999999999997
1.3282442748091603,1.3129770992366412,-2.4732824427480917,-0.0361328125,-0.1328125,-0.598876953125,0.4284
1.083969465648855,1.099236641221374,-2.5801526717557253,-0.03271484375,-0.132568359375,-0.586181640625,0.4301
0.9923664122137404,1.1297709923664123,-2.6106870229007635,-0.03271484375,-0.130615234375,-0.59228515625,0.43179999999999996
1.2671755725190839,1.297709923664122,-2.6412213740458017,-0.034423828125,-0.1337890625,-0.5947265625,0.4335
1.251908396946565,1.2061068702290076,-2.564885496183206,-0.028564453125,-0.1318359375,-0.5986328125,0.4352
1.1908396946564885,1.1603053435114503,-2.7022900763358777,-0.03466796875,-0.134033203125,-0.596923828125,0.43689999999999996
1.4351145038167938,1.2213740458015268,-2.717557251908397,-0.0361328125,-0.133544921875,-0.5986328125,0.4386
1.465648854961832,1.2061068702290076,-2.4732824427480917,-0.027587890625,-0.131591796875,-0.587646484375,0.44029999999999997
1.4045801526717556,1.4351145038167938,-2.427480916030534,-0.03271484375,-0.135498046875,-0.59814453125,0.44199999999999995
1.3435114503816794,1.5572519083969465,-2.5801526717557253,-0.03662109375,-0.128662109375,-0.593017578125,0.4437
1.3129770992366412,1.4198473282442747,-2.7786259541984735,-0.031005859375,-0.1376953125,-0.60205078125,0.44539999999999996
1.3129770992366412,1.4045801526717556,-2.4580152671755724,-0.03125,-0.135009765625,-0.599609375,0.4471
1.099236641221374,1.4809160305343512,-2.4427480916030535,-0.029296875,-0.136474609375,-0.603271484375,0.4488
1.3587786259541985,1.5725190839694656,-2.564885496183206,-0.032958984375,-0.134033203125,-0.596435546875,0.45049999999999996
1.1450381679389312,1.5725190839694656,-2.4885496183206106,-0.035400390625,-0.135986328125,-0.59765625,0.4522
0.9770992366412213,1.450381679389313,-2.3206106870229006,-0.031005859375,-0.13671875,-0.59814453125,0.45389999999999997
0.9465648854961832,1.6641221374045803,-2.4580152671755724,-0.039794921875,-0.130615234375,-0.59521484375,0.45559999999999995
0.7633587786259542,1.5725190839694656,-2.3053435114503817,-0.031005859375,-0.1318359375,-0.59228515625,0.4573
0.6870229007633588,1.6030534351145038,-2.198473282442748,-0.037353515625,-0.1318359375,-0.593505859375,0.45899999999999996
0.7175572519083969,1.450381679389313,-2.213740458015267,-0.0302734375,-0.13623046875,-0.593505859375,0.4607
0.7633587786259542,1.465648854961832,-2.3969465648854964,-0.033203125,-0.130126953125,-0.600341796875,0.4624
0.7938931297709924,1.4198473282442747,-2.2442748091603053,-0.02685546875,-0.13330078125,-0.598388671875,0.46409999999999996
0.7633587786259542,1.633587786259542,-2.2442748091603053,-0.03515625,-0.137451171875,-0.593994140625,0.4658
0.5038167938931297,1.450381679389313,-2.1374045801526718,-0.03515625,-0.13232421875,-0.59765625,0.46749999999999997
0.4122137404580153,1.5419847328244274,-2.16793893129771,-0.033203125,-0.139404296875,-0.590576171875,0.46919999999999995
0.4122137404580153,1.3282442748091603,-2.16793893129771,-0.031005859375,-0.13818359375,-0.595703125,0.4709
0.4580152671755725,1.2671755725190839,-2.33587786259542,-0.03369140625,-0.13525390625,-0.595703125,0.47259999999999996
0.5190839694656488,1.3587786259541985,-2.0763358778625953,-0.030517578125,-0.1357421875,-0.594482421875,0.4743
0.4732824427480916,1.2366412213740459,-2.2442748091603053,-0.02685546875,-0.13818359375,-0.593017578125,0.476
0.366412213740458,1.251908396946565,-2.2900763358778624,-0.032470703125,-0.131591796875,-0.59033203125,0.47769999999999996
0.32061068702290074,1.0687022900763359,-2.2748091603053435,-0.029541015625,-0.1337890625,-0.593994140625,0.4794
0.24427480916030533,1.1603053435114503,-2.1526717557251906,-0.03466796875,-0.130615234375,-0.592529296875,0.48109999999999997
0.44274809160305345,1.1908396946564885,-2.16793893129771,-0.037353515625,-0.135009765625,-0.600830078125,0.48279999999999995
0.10687022900763359,1.0076335877862594,-2.1526717557251906,-0.036376953125,-0.13525390625,-0.597412109375,0.4845
0.22900763358778625,1.1297709923664123,-1.8625954198473282,-0.031494140625,-0.135009765625,-0.597412109375,0.48619999999999997
0.42748091603053434,0.9312977099236641,-2.0610687022900764,-0.0302734375,-0.13330078125,-0.593994140625,0.4879
0.21374045801526717,0.9312977099236641,-2.015267175572519,-0.036865234375,-0.133544921875,-0.59765625,0.4896
0.32061068702290074,0.8702290076335878,-1.8931297709923665,-0.0341796875,-0.1337890625,-0.600830078125,0.49129999999999996
0.2900763358778626,0.8091603053435115,-2.015267175572519,-0.030517578125,-0.13330078125,-0.597900390625,0.493
0.4122137404580153,1.0229007633587786,-1.786259541984733,-0.03173828125,-0.133544921875,-0.59423828125,0.4947
0.5648854961832062,0.7633587786259542,-1.8778625954198473,-0.038818359375,-0.13623046875,-0.59912109375,0.49639999999999995
0.549618320610687,0.8244274809160306,-1.633587786259542,-0.03515625,-0.1376953125,-0.594970703125,0.4981
0.6106870229007634,0.7633587786259542,-1.5572519083969465,-0.03076171875,-0.1328125,-0.58642578125,0.49979999999999997
0.8091603053435115,0.7022900763358778,-1.3435114503816794,-0.032470703125,-0.136474609375,-0.595703125,0.5015
0.8549618320610687,0.7633587786259542,-1.5419847328244274,-0.028564453125,-0.138427734375,-0.582763671875,0.5032
0.9007633587786259,0.7022900763358778,-1.465648854961832,-0.031005859375,-0.140380859375,-0.59619140625,0.5049
0.8396946564885496,0.7938931297709924,-1.5267175572519085,-0.03271484375,-0.135009765625,-0.5927734375,0.5065999999999999
1.0076335877862594,0.7175572519083969,-1.4351145038167938,-0.030517578125,-0.1328125,-0.590576171875,0.5083
0.916030534351145,0.7022900763358778,-1.6488549618320612,-0.033447265625,-0.135498046875,-0.5849609375,0.51
0.7786259541984732,0.5648854961832062,-1.5114503816793894,-0.033935546875,-0.1376953125,-0.586669921875,0.5116999999999999
0.9465648854961832,0.48854961832061067,-1.465648854961832,-0.035888671875,-0.132080078125,-0.587646484375,0.5134
0.916030534351145,0.48854961832061067,-1.4809160305343512,-0.03076171875,-0.1376953125,-0.59423828125,0.5151
1.0076335877862594,0.5343511450381679,-1.6946564885496183,-0.029541015625,-0.13818359375,-0.59814453125,0.5167999999999999
0.9770992366412213,0.4732824427480916,-1.633587786259542,-0.034912109375,-0.13427734375,-0.592529296875,0.5185
0.9923664122137404,0.44274809160305345,-1.5419847328244274,-0.029296875,-0.1318359375,-0.588134765625,0.5202
1.2061068702290076,0.2595419847328244,-1.4961832061068703,-0.030517578125,-0.134033203125,-0.595458984375,0.5218999999999999
1.1297709923664123,0.2748091603053435,-1.6030534351145038,-0.0322265625,-0.139404296875,-0.60107421875,0.5236
1.2061068702290076,0.33587786259541985,-1.5877862595419847,-0.035400390625,-0.1396484375,-0.595703125,0.5253
1.099236641221374,0.183206106870229,-1.6030534351145038,-0.03466796875,-0.138916015625,-0.592529296875,0.527
1.3282442748091603,0.0,-1.6946564885496183,-0.03271484375,-0.135986328125,-0.59521484375,0.5287
1.282442748091603,0.061068702290076333,-1.6946564885496183,-0.032470703125,-0.135986328125,-0.59033203125,0.5304
1.1603053435114503,0.183206106870229,-1.5114503816793894,-0.033203125,-0.137451171875,-0.599365234375,0.5321
1.633587786259542,-0.030534351145038167,-1.6030534351145038,-0.0341796875,-0.138427734375,-0.593017578125,0.5337999999999999
1.6488549618320612,-0.030534351145038167,-1.6793893129770991,-0.030029296875,-0.134033203125,-0.59423828125,0.5355
1.6030534351145038,0.0916030534351145,-1.786259541984733,-0.032470703125,-0.13330078125,-0.599609375,0.5372
1.618320610687023,0.0916030534351145,-1.4961832061068703,-0.031005859375,-0.140869140625,-0.59326171875,0.5388999999999999
1.5877862595419847,0.16793893129770993,-1.5267175572519085,-0.03271484375,-0.1357421875,-0.60009765625,0.5406
1.6641221374045803,0.030534351145038167,-1.6488549618320612,-0.03369140625,-0.13671875,-0.594970703125,0.5423
1.5572519083969465,0.015267175572519083,-1.6946564885496183,-0.02978515625,-0.1376953125,-0.602783203125,0.5439999999999999
1.5572519083969465,0.22900763358778625,-1.5114503816793894,-0.032470703125,-0.12841796875,-0.597412109375,0.5457
1.5267175572519085,0.3511450381679389,-1.7709923664122138,-0.029296875,-0.134033203125,-0.594482421875,0.5474
1.450381679389313,0.24427480916030533,-1.7251908396946565,-0.030029296875,-0.135986328125,-0.5986328125,0.5490999999999999
1.5725190839694656,0.3053435114503817,-1.8778625954198473,-0.0283203125,-0.131103515625,-0.5966796875,0.5508
1.6793893129770991,0.2595419847328244,-1.7251908396946565,-0.0302734375,-0.134765625,-0.592041015625,0.5525
1.4351145038167938,0.183206106870229,-1.7557251908396947,-0.031005859375,-0.1337890625,-0.59375,0.5541999999999999
1.5725190839694656,0.15267175572519084,-1.6793893129770991,-0.034423828125,-0.135009765625,-0.591796875,0.5559
1.7709923664122138,0.13740458015267176,-1.7709923664122138,-0.029541015625,-0.131591796875,-0.59130859375,0.5576
1.7099236641221374,0.21374045801526717,-1.786259541984733,-0.035888671875,-0.130126953125,-0.599853515625,0.5593
1.786259541984733,0.2595419847328244,-1.8625954198473282,-0.031005859375,-0.1357421875,-0.6015625,0.5609999999999999
1.6793893129770991,0.42748091603053434,-1.816793893129771,-0.0244140625,-0.1279296875,-0.598388671875,0.5627
1.8778625954198473,0.2595419847328244,-1.7709923664122138,-0.032470703125,-0.13134765625,-0.595458984375,0.5644
1.7557251908396947,0.21374045801526717,-1.5877862595419847,-0.03125,-0.13720703125,-0.601318359375,0.5660999999999999
2.1526717557251906,0.24427480916030533,-1.5877862595419847,-0.029052734375,-0.138671875,-0.5986328125,0.5678
1.8473282442748091,0.16793893129770993,-1.618320610687023,-0.03125,-0.135009765625,-0.59765625,0.5695
1.8473282442748091,0.33587786259541985,-1.6030534351145038,-0.02978515625,-0.13623046875,-0.60107421875,0.5711999999999999
1.8015267175572518,0.1984732824427481,-1.5419847328244274,-0.028076171875,-0.14111328125,-0.5908203125,0.5729
2.045801526717557,0.16793893129770993,-1.5572519083969465,-0.03271484375,-0.1357421875,-0.595703125,0.5746
2.16793893129771,0.3969465648854962,-1.5267175572519085,-0.034912109375,-0.1357421875,-0.595458984375,0.5762999999999999
2.1374045801526718,0.21374045801526717,-1.633587786259542,-0.029296875,-0.1357421875,-0.604248046875,0.578
1.984732824427481,0.15267175572519084,-1.282442748091603,-0.0302734375,-0.13818359375,-0.601318359375,0.5797
2.1526717557251906,0.24427480916030533,-1.3587786259541985,-0.028076171875,-0.137451171875,-0.609619140625,0.5813999999999999
2.0916030534351147,0.12213740458015267,-1.3282442748091603,-0.028564453125,-0.138427734375,-0.600830078125,0.5831
2.0610687022900764,0.15267175572519084,-1.5267175572519085,-0.033447265625,-0.139892578125,-0.59423828125,0.5848
2.122137404580153,0.1984732824427481,-1.3282442748091603,-0.02587890625,-0.138671875,-0.595703125,0.5865
1.6030534351145038,0.22900763358778625,-1.5267175572519085,-0.027587890625,-0.135498046875,-0.58740234375,0.5882
1.618320610687023,0.3511450381679389,-1.5419847328244274,-0.02783203125,-0.136962890625,-0.593994140625,0.5899
1.7557251908396947,0.366412213740458,-1.6030534351145038,-0.030029296875,-0.13427734375,-0.6005859375,0.5916
1.450381679389313,0.2900763358778626,-1.5267175572519085,-0.033203125,-0.13623046875,-0.594970703125,0.5932999999999999
1.618320610687023,0.2748091603053435,-1.6488549618320612,-0.034912109375,-0.13720703125,-0.597412109375,0.595
1.450381679389313,0.21374045801526717,-1.5419847328244274,-0.02978515625,-0.138916015625,-0.593994140625,0.5967
1.251908396946565,0.4580152671755725,-1.5419847328244274,-0.02734375,-0.13720703125,-0.59375,0.5983999999999999
1.3129770992366412,0.4732824427480916,-1.5572519083969465,-0.030029296875,-0.130126953125,-0.600830078125,0.6001
1.2366412213740459,0.6259541984732825,-1.7251908396946565,-0.0283203125,-0.13623046875,-0.594482421875,0.6018
1.1145038167938932,0.5038167938931297,-1.5267175572519085,-0.0361328125,-0.141357421875,-0.58984375,0.6034999999999999
0.9923664122137404,0.5038167938931297,-1.5419847328244274,-0.0341796875,-0.140380859375,-0.593017578125,0.6052
1.1450381679389312,0.6106870229007634,-1.4809160305343512,-0.02880859375,-0.137451171875,-0.59423828125,0.6069
0.8549618320610687,0.6870229007633588,-1.5572519083969465,-0.027587890625,-0.13720703125,-0.58642578125,0.6085999999999999
0.9770992366412213,0.7175572519083969,-1.633587786259542,-0.0283203125,-0.134521484375,-0.591796875,0.6103
0.7786259541984732,0.5648854961832062,-1.8931297709923665,-0.0322265625,-0.136962890625,-0.594970703125,0.612
0.7022900763358778,0.6717557251908397,-1.5725190839694656,-0.0263671875,-0.138427734375,-0.58984375,0.6136999999999999
1.0381679389312977,0.916030534351145,-1.5877862595419847,-0.026123046875,-0.138916015625,-0.5927734375,0.6154
1.099236641221374,0.8702290076335878,-1.5419847328244274,-0.03173828125,-0.133544921875,-0.59814453125,0.6171
1.0534351145038168,0.8091603053435115,-1.7709923664122138,-0.034423828125,-0.13525390625,-0.591552734375,0.6188
1.0534351145038168,0.6870229007633588,-1.7251908396946565,-0.032470703125,-0.13720703125,-0.599853515625,0.6204999999999999
0.9312977099236641,1.0381679389312977,-1.7557251908396947,-0.030029296875,-0.13232421875,-0.591552734375,0.6222
1.1755725190839694,0.6870229007633588,-1.7251908396946565,-0.030517578125,-0.129638671875,-0.590576171875,0.6239
1.1603053435114503,0.8091603053435115,-1.9694656488549618,-0.0341796875,-0.135498046875,-0.60302734375,0.6255999999999999
1.4351145038167938,0.8396946564885496,-1.7557251908396947,-0.030029296875,-0.13720703125,-0.598876953125,0.6273
1.5572519083969465,0.9007633587786259,-1.83206106870229,-0.03369140625,-0.13916015625,-0.58984375,0.629
1.4961832061068703,0.732824427480916,-1.816793893129771,-0.03173828125,-0.13671875,-0.591552734375,0.6306999999999999
1.6641221374045803,1.0076335877862594,-2.045801526717557,-0.03271484375,-0.14013671875,-0.5947265625,0.6324
1.8931297709923665,1.1450381679389312,-1.984732824427481,-0.031982421875,-0.138916015625,-0.59814453125,0.6341
1.7557251908396947,0.9618320610687023,-1.984732824427481,-0.02685546875,-0.138916015625,-0.59423828125,0.6357999999999999
2.0,0.8549618320610687,-1.8778625954198473,-0.02978515625,-0.133544921875,-0.591552734375,0.6375
2.0,1.1297709923664123,-1.816793893129771,-0.030517578125,-0.13427734375,-0.591552734375,0.6392
1.83206106870229,1.3129770992366412,-1.83206106870229,-0.02978515625,-0.133544921875,-0.595703125,0.6408999999999999
1.9083969465648856,1.2061068702290076,-2.045801526717557,-0.02978515625,-0.13671875,-0.595703125,0.6426
1.83206106870229,1.3282442748091603,-1.8015267175572518,-0.029052734375,-0.13671875,-0.597900390625,0.6443
2.1526717557251906,1.3129770992366412,-1.9389312977099236,-0.033447265625,-0.13134765625,-0.595458984375,0.646
2.213740458015267,1.2366412213740459,-1.7557251908396947,-0.031005859375,-0.135009765625,-0.5927734375,0.6476999999999999
2.198473282442748,1.3435114503816794,-2.1068702290076335,-0.0341796875,-0.135009765625,-0.59765625,0.6494
2.015267175572519,1.3282442748091603,-2.030534351145038,-0.02685546875,-0.14111328125,-0.595703125,0.6511
1.7251908396946565,1.4961832061068703,-1.8778625954198473,-0.035400390625,-0.1376953125,-0.60107421875,0.6527999999999999
1.7557251908396947,1.5725190839694656,-1.6488549618320612,-0.032958984375,-0.13720703125,-0.59423828125,0.6545
1.9083969465648856,1.5572519083969465,-1.8015267175572518,-0.031982421875,-0.13720703125,-0.59619140625,0.6562
1.8778625954198473,1.5725190839694656,-1.7709923664122138,-0.030029296875,-0.14013671875,-0.598388671875,0.6578999999999999
1.83206106870229,1.3740458015267176,-1.7557251908396947,-0.0263671875,-0.140869140625,-0.6015625,0.6596
1.6946564885496183,1.4045801526717556,-1.786259541984733,-0.029541015625,-0.135986328125,-0.60107421875,0.6613
1.4351145038167938,1.3587786259541985,-1.9541984732824427,-0.0283203125,-0.135498046875,-0.599609375,0.6629999999999999
1.5267175572519085,1.4351145038167938,-1.8625954198473282,-0.034423828125,-0.138427734375,-0.590087890625,0.6647
1.5877862595419847,1.3129770992366412,-1.984732824427481,-0.037109375,-0.132568359375,-0.59423828125,0.6664
1.5267175572519085,1.2671755725190839,-1.9236641221374047,-0.028076171875,-0.133544921875,-0.60205078125,0.6680999999999999
1.5725190839694656,1.2213740458015268,-1.8931297709923665,-0.03076171875,-0.135009765625,-0.597900390625,0.6698
1.3129770992366412,1.0076335877862594,-1.9083969465648856,-0.031005859375,-0.138671875,-0.598876953125,0.6715
1.5267175572519085,1.0687022900763359,-2.030534351145038,-0.030029296875,-0.138427734375,-0.593994140625,0.6731999999999999
1.5114503816793894,0.8549618320610687,-2.045801526717557,-0.029052734375,-0.135986328125,-0.593505859375,0.6748999999999999
1.5114503816793894,0.9618320610687023,-2.213740458015267,-0.030517578125,-0.135498046875,-0.600830078125,0.6766
1.3587786259541985,1.099236641221374,-1.9541984732824427,-0.032470703125,-0.1416015625,-0.59814453125,0.6783
1.4961832061068703,1.2061068702290076,-2.0610687022900764,-0.0322265625,-0.13525390625,-0.593017578125,0.6799999999999999
1.6488549618320612,0.8549618320610687,-2.0,-0.028076171875,-0.1337890625,-0.5966796875,0.6817
1.5419847328244274,0.9618320610687023,-2.16793893129771,-0.021728515625,-0.1337890625,-0.599853515625,0.6834
1.5267175572519085,0.8702290076335878,-2.030534351145038,-0.029296875,-0.131103515625,-0.59765625,0.6850999999999999
1.633587786259542,0.7175572519083969,-1.9083969465648856,-0.0302734375,-0.135986328125,-0.5947265625,0.6868
1.6641221374045803,0.6564885496183206,-1.8625954198473282,-0.025634765625,-0.135009765625,-0.60205078125,0.6885
1.7251908396946565,0.8854961832061069,-1.83206106870229,-0.031982421875,-0.134765625,-0.594482421875,0.6901999999999999
1.4198473282442747,0.8396946564885496,-1.83206106870229,-0.0322265625,-0.13232421875,-0.605224609375,0.6919
1.6793893129770991,0.7175572519083969,-1.9541984732824427,-0.032470703125,-0.13330078125,-0.60009765625,0.6936
1.6030534351145038,0.9618320610687023,-1.7099236641221374,-0.035400390625,-0.13427734375,-0.59912109375,0.6952999999999999
1.786259541984733,0.7633587786259542,-1.8931297709923665,-0.027099609375,-0.134521484375,-0.599365234375,0.697
1.6793893129770991,0.6259541984732825,-1.8931297709923665,-0.027099609375,-0.12841796875,-0.596435546875,0.6987
2.0,0.732824427480916,-1.816793893129771,-0.0322265625,-0.1318359375,-0.599853515625,0.7003999999999999
1.8473282442748091,0.6564885496183206,-1.7557251908396947,-0.029296875,-0.139404296875,-0.610107421875,0.7021
1.8473282442748091,0.7022900763358778,-1.9236641221374047,-0.029052734375,-0.130859375,-0.597900390625,0.7038
1.83206106870229,0.8244274809160306,-1.6793893129770991,-0.025634765625,-0.130859375,-0.604248046875,0.7055
1.8625954198473282,0.5954198473282443,-1.83206106870229,-0.032470703125,-0.139404296875,-0.59326171875,0.7071999999999999
1.8625954198473282,0.7786259541984732,-1.8931297709923665,-0.02880859375,-0.138916015625,-0.5986328125,0.7089
1.9236641221374047,0.9312977099236641,-1.9541984732824427,-0.031982421875,-0.13623046875,-0.603759765625,0.7106
1.5877862595419847,0.8702290076335878,-1.8015267175572518,-0.03369140625,-0.136962890625,-0.5849609375,0.7122999999999999
1.7404580152671756,0.7938931297709924,-1.8778625954198473,-0.03173828125,-0.134033203125,-0.599609375,0.714
1.8625954198473282,0.9007633587786259,-1.7709923664122138,-0.032470703125,-0.13916015625,-0.593994140625,0.7157
1.8931297709923665,0.9312977099236641,-1.8473282442748091,-0.025390625,-0.133544921875,-0.591552734375,0.7173999999999999
1.8625954198473282,0.8396946564885496,-1.7251908396946565,-0.031494140625,-0.135009765625,-0.60205078125,0.7191
1.816793893129771,0.7480916030534351,-2.045801526717557,-0.032470703125,-0.13671875,-0.596435546875,0.7208
1.9389312977099236,0.916030534351145,-1.83206106870229,-0.036376953125,-0.14111328125,-0.59912109375,0.7224999999999999
1.618320610687023,0.9923664122137404,-1.83206106870229,-0.031005859375,-0.134033203125,-0.59814453125,0.7242
1.3282442748091603,0.9618320610687023,-1.816793893129771,-0.033935546875,-0.136962890625,-0.591552734375,0.7259
1.5877862595419847,1.0381679389312977,-1.816793893129771,-0.031494140625,-0.1357421875,-0.5986328125,0.7275999999999999
1.5877862595419847,0.916030534351145,-1.984732824427481,-0.033447265625,-0.131591796875,-0.598876953125,0.7293
1.4351145038167938,0.7633587786259542,-1.9389312977099236,-0.032470703125,-0.1318359375,-0.59423828125,0.731
1.2213740458015268,0.916030534351145,-1.7709923664122138,-0.02880859375,-0.139892578125,-0.591064453125,0.7326999999999999
1.1145038167938932,1.099236641221374,-1.816793893129771,-0.02783203125,-0.13525390625,-0.59912109375,0.7343999999999999
1.5725190839694656,0.9007633587786259,-1.7099236641221374,-0.036376953125,-0.13525390625,-0.5908203125,0.7361
1.3587786259541985,0.8549618320610687,-1.5419847328244274,-0.03662109375,-0.14013671875,-0.594970703125,0.7378
1.4809160305343512,0.8854961832061069,-1.5419847328244274,-0.026611328125,-0.140625,-0.6044921875,0.7394999999999999
1.6488549618320612,0.8854961832061069,-1.633587786259542,-0.030517578125,-0.1396484375,-0.5927734375,0.7412
1.5114503816793894,1.0687022900763359,-1.6946564885496183,-0.03271484375,-0.13525390625,-0.595947265625,0.7429
1.3587786259541985,1.1450381679389312,-1.6793893129770991,-0.03466796875,-0.13671875,-0.5966796875,0.7445999999999999
1.465648854961832,1.0076335877862594,-1.5877862595419847,-0.03125,-0.136962890625,-0.601806640625,0.7463
1.618320610687023,1.0534351145038168,-1.4351145038167938,-0.03173828125,-0.137939453125,-0.607421875,0.748
1.5267175572519085,1.1145038167938932,-1.7251908396946565,-0.0302734375,-0.13720703125,-0.59716796875,0.7496999999999999
1.618320610687023,1.1908396946564885,-1.7251908396946565,-0.0322265625,-0.140625,-0.603271484375,0.7514
1.618320610687023,1.1450381679389312,-1.816793893129771,-0.031494140625,-0.134521484375,-0.600341796875,0.7531
1.5572519083969465,1.297709923664122,-1.7404580152671756,-0.032958984375,-0.138916015625,-0.596923828125,0.7547999999999999
1.6488549618320612,1.0076335877862594,-1.6793893129770991,-0.03466796875,-0.134521484375,-0.5927734375,0.7565
1.6641221374045803,1.083969465648855,-1.7251908396946565,-0.036376953125,-0.13671875,-0.587890625,0.7582
1.450381679389313,1.1908396946564885,-1.7404580152671756,-0.0302734375,-0.138916015625,-0.597412109375,0.7598999999999999
1.633587786259542,1.1908396946564885,-1.4351145038167938,-0.028564453125,-0.13037109375,-0.596435546875,0.7615999999999999
1.7251908396946565,1.297709923664122,-1.618320610687023,-0.028564453125,-0.13623046875,-0.596435546875,0.7633
1.7099236641221374,1.2061068702290076,-1.5877862595419847,-0.03466796875,-0.13818359375,-0.600341796875,0.7649999999999999
1.7557251908396947,1.3129770992366412,-1.7404580152671756,-0.03662109375,-0.131591796875,-0.595947265625,0.7666999999999999
1.5267175572519085,1.3435114503816794,-1.4809160305343512,-0.029052734375,-0.1357421875,-0.59521484375,0.7684
1.5725190839694656,1.4198473282442747,-1.633587786259542,-0.03076171875,-0.13671875,-0.606201171875,0.7701
1.4809160305343512,1.3740458015267176,-1.6793893129770991,-0.02685546875,-0.137939453125,-0.60546875,0.7717999999999999
1.5419847328244274,1.3587786259541985,-1.7099236641221374,-0.03466796875,-0.13818359375,-0.59375,0.7735
1.8015267175572518,1.282442748091603,-1.7251908396946565,-0.037353515625,-0.134033203125,-0.59033203125,0.7752
1.5267175572519085,1.3740458015267176,-1.5725190839694656,-0.036865234375,-0.136474609375,-0.588134765625,0.7768999999999999
1.5114503816793894,1.4809160305343512,-1.8473282442748091,-0.033203125,-0.13623046875,-0.595947265625,0.7786
1.5114503816793894,1.6793893129770991,-2.015267175572519,-0.02978515625,-0.13525390625,-0.60595703125,0.7803
1.2061068702290076,1.4809160305343512,-1.6793893129770991,-0.02587890625,-0.134033203125,-0.594482421875,0.7819999999999999
1.4351145038167938,1.3893129770992367,-1.7404580152671756,-0.029052734375,-0.134521484375,-0.59619140625,0.7837
1.282442748091603,1.4045801526717556,-1.9236641221374047,-0.0341796875,-0.134033203125,-0.609619140625,0.7854
1.1603053435114503,1.4198473282442747,-1.7709923664122138,-0.03173828125,-0.135986328125,-0.59619140625,0.7870999999999999
1.1755725190839694,1.2671755725190839,-1.6793893129770991,-0.034912109375,-0.13720703125,-0.59619140625,0.7888
1.3587786259541985,1.3893129770992367,-1.8778625954198473,-0.03564453125,-0.138427734375,-0.59521484375,0.7905
1.1297709923664123,1.4198473282442747,-1.816793893129771,-0.03125,-0.137939453125,-0.605224609375,0.7921999999999999
1.1755725190839694,1.3740458015267176,-1.9236641221374047,-0.03076171875,-0.139404296875,-0.59619140625,0.7938999999999999
1.1450381679389312,1.3587786259541985,-1.7404580152671756,-0.034423828125,-0.138671875,-0.591552734375,0.7956
1.282442748091603,1.3740458015267176,-1.8015267175572518,-0.030029296875,-0.1435546875,-0.595458984375,0.7973
1.465648854961832,1.3893129770992367,-1.7404580152671756,-0.03076171875,-0.138671875,-0.59521484375,0.7989999999999999
1.3893129770992367,1.297709923664122,-1.9236641221374047,-0.033203125,-0.13720703125,-0.601806640625,0.8007
1.1755725190839694,1.297709923664122,-1.7709923664122138,-0.03271484375,-0.13427734375,-0.600341796875,0.8024
1.099236641221374,1.4351145038167938,-1.9694656488549618,-0.030517578125,-0.137939453125,-0.59423828125,0.8040999999999999
1.4045801526717556,1.3587786259541985,-1.7099236641221374,-0.031005859375,-0.135009765625,-0.6064453125,0.8058
1.6641221374045803,1.465648854961832,-2.1068702290076335,-0.02685546875,-0.139404296875,-0.598876953125,0.8075
1.5267175572519085,1.3587786259541985,-1.8778625954198473,-0.03173828125,-0.140625,-0.595947265625,0.8091999999999999
1.5267175572519085,1.450381679389313,-1.83206106870229,-0.033203125,-0.137939453125,-0.597412109375,0.8109
1.5572519083969465,1.3740458015267176,-2.0916030534351147,-0.032470703125,-0.138916015625,-0.59326171875,0.8126
1.3893129770992367,1.4351145038167938,-2.1374045801526718,-0.03515625,-0.134765625,-0.59033203125,0.8142999999999999
1.3740458015267176,1.3893129770992367,-2.183206106870229,-0.03466796875,-0.13330078125,-0.60009765625,0.816
1.297709923664122,1.4198473282442747,-2.045801526717557,-0.028564453125,-0.135498046875,-0.60107421875,0.8177
1.251908396946565,1.5419847328244274,-1.8778625954198473,-0.0263671875,-0.135009765625,-0.598388671875,0.8193999999999999
1.3282442748091603,1.5267175572519085,-2.183206106870229,-0.029541015625,-0.136474609375,-0.598388671875,0.8210999999999999
1.1603053435114503,1.5725190839694656,-2.213740458015267,-0.031005859375,-0.1357421875,-0.5908203125,0.8228
0.916030534351145,1.3893129770992367,-2.1374045801526718,-0.032470703125,-0.13427734375,-0.59375,0.8244999999999999
0.8854961832061069,1.5419847328244274,-2.122137404580153,-0.0283203125,-0.138671875,-0.587890625,0.8261999999999999
0.6564885496183206,1.5114503816793894,-2.1526717557251906,-0.032470703125,-0.13623046875,-0.59375,0.8279
0.7175572519083969,1.5877862595419847,-2.198473282442748,-0.033447265625,-0.134765625,-0.597412109375,0.8296
0.916030534351145,1.5572519083969465,-2.1068702290076335,-0.029296875,-0.13623046875,-0.58984375,0.8312999999999999
1.0687022900763359,1.633587786259542,-1.8625954198473282,-0.027099609375,-0.133056640625,-0.59130859375,0.833
0.916030534351145,1.618320610687023,-2.1526717557251906,-0.029541015625,-0.1357421875,-0.595458984375,0.8347
0.9312977099236641,1.7099236641221374,-1.9694656488549618,-0.02978515625,-0.142333984375,-0.60302734375,0.8363999999999999
1.3129770992366412,1.7709923664122138,-2.198473282442748,-0.034912109375,-0.134033203125,-0.58837890625,0.8381
1.1603053435114503,1.5267175572519085,-2.0,-0.034912109375,-0.135986328125,-0.58642578125,0.8398
1.0534351145038168,1.786259541984733,-1.9236641221374047,-0.03271484375,-0.134521484375,-0.5859375,0.8414999999999999
1.251908396946565,1.786259541984733,-1.8931297709923665,-0.0302734375,-0.132080078125,-0.608642578125,0.8432
1.5419847328244274,1.8625954198473282,-2.0763358778625953,-0.027099609375,-0.133056640625,-0.604736328125,0.8449
1.618320610687023,1.7251908396946565,-1.8473282442748091,-0.029052734375,-0.133544921875,-0.592529296875,0.8465999999999999
1.3740458015267176,1.8778625954198473,-1.9694656488549618,-0.029296875,-0.13525390625,-0.5869140625,0.8482999999999999
1.5877862595419847,1.7709923664122138,-1.6641221374045803,-0.02587890625,-0.14111328125,-0.60107421875,0.85
1.786259541984733,1.8015267175572518,-1.83206106870229,-0.035888671875,-0.133544921875,-0.59326171875,0.8516999999999999
1.6641221374045803,1.8015267175572518,-1.7404580152671756,-0.0302734375,-0.1376953125,-0.5869140625,0.8533999999999999
1.8778625954198473,1.6946564885496183,-1.7099236641221374,-0.032958984375,-0.137939453125,-0.591064453125,0.8551
1.8931297709923665,1.6946564885496183,-1.5877862595419847,-0.029296875,-0.13720703125,-0.593994140625,0.8568
1.9083969465648856,1.6641221374045803,-1.5877862595419847,-0.02978515625,-0.138671875,-0.596435546875,0.8584999999999999
1.9083969465648856,1.6946564885496183,-1.4809160305343512,-0.0322265625,-0.136962890625,-0.599365234375,0.8602
2.045801526717557,1.633587786259542,-1.6030534351145038,-0.031005859375,-0.137451171875,-0.602294921875,0.8619
2.045801526717557,1.6793893129770991,-1.5877862595419847,-0.028564453125,-0.13623046875,-0.591796875,0.8635999999999999
2.045801526717557,1.618320610687023,-1.5267175572519085,-0.034423828125,-0.139404296875,-0.59912109375,0.8653
2.1374045801526718,1.6793893129770991,-1.4809160305343512,-0.03759765625,-0.138427734375,-0.599609375,0.867
1.7557251908396947,1.6793893129770991,-1.6641221374045803,-0.03271484375,-0.140625,-0.60107421875,0.8686999999999999
1.9389312977099236,1.6488549618320612,-1.6946564885496183,-0.0361328125,-0.13671875,-0.598876953125,0.8704
2.0,1.5114503816793894,-1.5267175572519085,-0.03662109375,-0.13916015625,-0.600830078125,0.8721
1.9236641221374047,1.618320610687023,-1.3893129770992367,-0.033447265625,-0.13720703125,-0.600830078125,0.8737999999999999
1.8625954198473282,1.7404580152671756,-1.5267175572519085,-0.03271484375,-0.13427734375,-0.59912109375,0.8755
1.6793893129770991,1.8625954198473282,-1.5725190839694656,-0.03369140625,-0.1298828125,-0.603759765625,0.8772
1.618320610687023,1.8015267175572518,-1.8015267175572518,-0.02783203125,-0.14111328125,-0.59765625,0.8788999999999999
1.4961832061068703,1.8931297709923665,-1.5267175572519085,-0.037353515625,-0.139404296875,-0.603271484375,0.8805999999999999
1.5114503816793894,1.9083969465648856,-1.6946564885496183,-0.035400390625,-0.1357421875,-0.591064453125,0.8823
1.4045801526717556,1.7404580152671756,-1.5877862595419847,-0.033447265625,-0.137939453125,-0.59619140625,0.8839999999999999
1.3587786259541985,1.7709923664122138,-1.6488549618320612,-0.03076171875,-0.13623046875,-0.586181640625,0.8856999999999999
1.4351145038167938,1.8625954198473282,-1.7404580152671756,-0.030517578125,-0.134521484375,-0.59033203125,0.8874
1.282442748091603,1.8625954198473282,-1.8015267175572518,-0.03125,-0.13427734375,-0.588134765625,0.8891
1.2671755725190839,1.8473282442748091,-1.7099236641221374,-0.03662109375,-0.135009765625,-0.59521484375,0.8907999999999999
1.083969465648855,1.9389312977099236,-1.6641221374045803,-0.034423828125,-0.135498046875,-0.5966796875,0.8925
1.1450381679389312,1.816793893129771,-1.7099236641221374,-0.03466796875,-0.132568359375,-0.604248046875,0.8942
0.9007633587786259,1.7251908396946565,-1.8015267175572518,-0.0361328125,-0.1337890625,-0.6015625,0.8958999999999999
0.9923664122137404,1.8473282442748091,-1.465648854961832,-0.03271484375,-0.137939453125,-0.5947265625,0.8976
1.2366412213740459,1.5725190839694656,-1.8778625954198473,-0.032470703125,-0.1337890625,-0.60302734375,0.8993
0.9618320610687023,1.7557251908396947,-1.83206106870229,-0.032470703125,-0.12890625,-0.59765625,0.9009999999999999
1.099236641221374,1.7709923664122138,-1.6641221374045803,-0.03515625,-0.13427734375,-0.59521484375,0.9027
1.099236641221374,1.8473282442748091,-1.618320610687023,-0.02880859375,-0.134765625,-0.598388671875,0.9044
0.9618320610687023,1.6030534351145038,-1.8931297709923665,-0.028076171875,-0.134033203125,-0.593505859375,0.9060999999999999
0.6412213740458015,1.7099236641221374,-1.6488549618320612,-0.0283203125,-0.132080078125,-0.599853515625,0.9077999999999999
0.916030534351145,1.4961832061068703,-1.8931297709923665,-0.033447265625,-0.13427734375,-0.594482421875,0.9095
0.7175572519083969,1.633587786259542,-1.8473282442748091,-0.030029296875,-0.140625,-0.591552734375,0.9111999999999999
0.5648854961832062,1.465648854961832,-2.1374045801526718,-0.0341796875,-0.129638671875,-0.591064453125,0.9128999999999999
0.7786259541984732,1.3129770992366412,-1.9541984732824427,-0.029052734375,-0.134521484375,-0.588134765625,0.9146
0.9465648854961832,1.2671755725190839,-2.0763358778625953,-0.02880859375,-0.1337890625,-0.5947265625,0.9163
0.6106870229007634,1.2671755725190839,-1.9389312977099236,-0.03515625,-0.13232421875,-0.594970703125,0.9179999999999999
0.6564885496183206,1.3435114503816794,-2.2442748091603053,-0.0263671875,-0.13330078125,-0.602294921875,0.9197
0.7022900763358778,1.251908396946565,-2.1068702290076335,-0.025634765625,-0.13330078125,-0.60009765625,0.9214
0.6412213740458015,1.083969465648855,-2.16793893129771,-0.027587890625,-0.135498046875,-0.5927734375,0.9230999999999999
0.6412213740458015,1.1603053435114503,-2.030534351145038,-0.03076171875,-0.12939453125,-0.60009765625,0.9248
0.7938931297709924,1.1297709923664123,-2.213740458015267,-0.026611328125,-0.13427734375,-0.595947265625,0.9265
0.6564885496183206,1.0687022900763359,-1.984732824427481,-0.0244140625,-0.130126953125,-0.6025390625,0.9281999999999999
0.7175572519083969,1.0381679389312977,-2.1526717557251906,-0.03369140625,-0.1328125,-0.58935546875,0.9299
0.9312977099236641,0.9770992366412213,-2.015267175572519,-0.0263671875,-0.133056640625,-0.590087890625,0.9316
0.9465648854961832,1.0534351145038168,-2.045801526717557,-0.0302734375,-0.136474609375,-0.595703125,0.9332999999999999
1.0534351145038168,0.9007633587786259,-1.8625954198473282,-0.02978515625,-0.1357421875,-0.603759765625,0.9349999999999999
1.1450381679389312,0.8702290076335878,-1.8015267175572518,-0.0341796875,-0.130615234375,-0.598388671875,0.9367
1.1450381679389312,0.7175572519083969,-1.6488549618320612,-0.027099609375,-0.135498046875,-0.594482421875,0.9383999999999999
1.1908396946564885,0.7480916030534351,-1.6488549618320612,-0.02880859375,-0.134521484375,-0.604248046875,0.9400999999999999
1.450381679389313,0.6412213740458015,-1.3893129770992367,-0.034423828125,-0.13720703125,-0.601806640625,0.9418
1.4045801526717556,0.5954198473282443,-1.3282442748091603,-0.028564453125,-0.137939453125,-0.60791015625,0.9434999999999999
1.5267175572519085,0.6564885496183206,-1.1145038167938932,-0.030517578125,-0.137451171875,-0.606201171875,0.9451999999999999
1.7709923664122138,0.6717557251908397,-1.2213740458015268,-0.033203125,-0.138671875,-0.59814453125,0.9469
1.5877862595419847,0.4580152671755725,-0.9770992366412213,-0.025634765625,-0.141845703125,-0.598388671875,0.9486
1.5572519083969465,0.2900763358778626,-0.9618320610687023,-0.029296875,-0.1357421875,-0.59228515625,0.9502999999999999
1.4198473282442747,0.3816793893129771,-0.8396946564885496,-0.029541015625,-0.13134765625,-0.59326171875,0.952
1.816793893129771,0.366412213740458,-0.8549618320610687,-0.033935546875,-0.14013671875,-0.593994140625,0.9537
1.9694656488549618,0.24427480916030533,-0.8702290076335878,-0.038818359375,-0.13720703125,-0.5986328125,0.9553999999999999
1.9541984732824427,0.15267175572519084,-0.9618320610687023,-0.038330078125,-0.1396484375,-0.59716796875,0.9571
1.7709923664122138,0.10687022900763359,-0.6412213740458015,-0.033447265625,-0.142822265625,-0.597900390625,0.9588
1.83206106870229,0.3053435114503817,-0.8091603053435115,-0.0361328125,-0.146728515625,-0.587890625,0.9604999999999999
1.83206106870229,0.12213740458015267,-0.7022900763358778,-0.0400390625,-0.14697265625,-0.60009765625,0.9621999999999999
1.6793893129770991,0.2748091603053435,-0.7480916030534351,-0.03857421875,-0.142333984375,-0.6064453125,0.9639
1.7099236641221374,0.3969465648854962,-0.7480916030534351,-0.043701171875,-0.13525390625,-0.60400390625,0.9655999999999999
1.7404580152671756,0.24427480916030533,-0.6106870229007634,-0.0390625,-0.13916015625,-0.60693359375,0.9672999999999999
1.6030534351145038,0.15267175572519084,-0.6259541984732825,-0.0390625,-0.136962890625,-0.587890625,0.969
1.618320610687023,0.2748091603053435,-0.5954198473282443,-0.043212890625,-0.13916015625,-0.591796875,0.9706999999999999
1.5572519083969465,0.6564885496183206,-0.5801526717557252,-0.043212890625,-0.137451171875,-0.60498046875,0.9723999999999999
1.2061068702290076,0.7175572519083969,-0.5648854961832062,-0.040283203125,-0.135009765625,-0.591064453125,0.9741
1.282442748091603,0.7633587786259542,-0.48854961832061067,-0.0400390625,-0.13671875,-0.59716796875,0.9758
1.4045801526717556,0.8702290076335878,-0.48854961832061067,-0.043212890625,-0.135498046875,-0.603759765625,0.9774999999999999
1.1755725190839694,1.099236641221374,-0.2900763358778626,-0.039794921875,-0.132568359375,-0.606201171875,0.9792
1.0229007633587786,1.1755725190839694,-0.4122137404580153,-0.04248046875,-0.136962890625,-0.6005859375,0.9809
0.8396946564885496,1.1908396946564885,-0.3511450381679389,-0.041259765625,-0.135498046875,-0.59326171875,0.9825999999999999
0.9312977099236641,1.3282442748091603,-0.21374045801526717,-0.04541015625,-0.1298828125,-0.59765625,0.9843
0.9618320610687023,1.4351145038167938,-0.1984732824427481,-0.041748046875,-0.13427734375,-0.594970703125,0.986
0.8244274809160306,1.6030534351145038,-0.33587786259541985,-0.047119140625,-0.127685546875,-0.601806640625,0.9876999999999999
0.6259541984732825,1.7404580152671756,-0.183206106870229,-0.040283203125,-0.13232421875,-0.599853515625,0.9894
0.7938931297709924,1.8778625954198473,-0.030534351145038167,-0.044189453125,-0.129638671875,-0.603515625,0.9911
0.5343511450381679,1.8931297709923665,-0.04580152671755725,-0.042236328125,-0.130859375,-0.610595703125,0.9927999999999999
0.6259541984732825,1.9083969465648856,-0.0916030534351145,-0.0390625,-0.1318359375,-0.60400390625,0.9944999999999999
0.366412213740458,2.0,-0.12213740458015267,-0.039306640625,-0.129638671875,-0.597900390625,0.9962
0.42748091603053434,2.015267175572519,-0.15267175572519084,-0.037353515625,-0.133056640625,-0.60107421875,0.9978999999999999
0.5038167938931297,2.213740458015267,0.030534351145038167,-0.040771484375,-0.129638671875,-0.604248046875,0.9995999999999999
0.2900763358778626,2.4427480916030535,0.061068702290076333,-0.037841796875,-0.130126953125,-0.60009765625,1.0012999999999999
0.2595419847328244,2.198473282442748,0.0916030534351145,-0.03564453125,-0.132568359375,-0.605224609375,1.003
0.24427480916030533,2.366412213740458,0.183206106870229,-0.033935546875,-0.1298828125,-0.60302734375,1.0047
0.3969465648854962,2.427480916030534,0.1984732824427481,-0.032470703125,-0.13232421875,-0.611083984375,1.0064
0.21374045801526717,2.2900763358778624,0.13740458015267176,-0.039306640625,-0.12451171875,-0.598876953125,1.0081
0.22900763358778625,2.4122137404580153,0.2595419847328244,-0.038330078125,-0.126220703125,-0.60400390625,1.0098
0.3511450381679389,2.427480916030534,0.24427480916030533,-0.03369140625,-0.125732421875,-0.59814453125,1.0114999999999998
-0.061068702290076333,2.351145038167939,0.4122137404580153,-0.031982421875,-0.13330078125,-0.598388671875,1.0131999999999999
0.16793893129770993,2.2290076335877864,0.3511450381679389,-0.037109375,-0.12744140625,-0.59033203125,1.0149
0.183206106870229,2.16793893129771,0.5343511450381679,-0.034912109375,-0.127197265625,-0.607666015625,1.0166
0.22900763358778625,2.2442748091603053,0.42748091603053434,-0.03271484375,-0.1298828125,-0.605224609375,1.0183
0.22900763358778625,2.0916030534351147,0.3053435114503817,-0.0302734375,-0.12548828125,-0.60107421875,1.02
0.030534351145038167,2.0610687022900764,0.6870229007633588,-0.037353515625,-0.12646484375,-0.602294921875,1.0217
0.32061068702290074,2.1526717557251906,0.6259541984732825,-0.032470703125,-0.124267578125,-0.603759765625,1.0233999999999999
0.3816793893129771,2.0,0.5801526717557252,-0.033203125,-0.1318359375,-0.593017578125,1.0251
0.0916030534351145,2.0610687022900764,0.6259541984732825,-0.033935546875,-0.1318359375,-0.60009765625,1.0268
-0.0916030534351145,2.0763358778625953,0.732824427480916,-0.031494140625,-0.129638671875,-0.597900390625,1.0285
0.10687022900763359,2.1068702290076335,0.6564885496183206,-0.03271484375,-0.127197265625,-0.600341796875,1.0302
-0.183206106870229,2.0610687022900764,0.5648854961832062,-0.036865234375,-0.132568359375,-0.6044921875,1.0319
-0.366412213740458,1.9541984732824427,0.6717557251908397,-0.035400390625,-0.129638671875,-0.594970703125,1.0335999999999999
-0.42748091603053434,1.9236641221374047,0.6412213740458015,-0.037841796875,-0.12890625,-0.6005859375,1.0352999999999999
-0.4732824427480916,2.045801526717557,0.8244274809160306,-0.031982421875,-0.12255859375,-0.602783203125,1.037
-0.5343511450381679,1.83206106870229,0.8549618320610687,-0.029541015625,-0.127197265625,-0.595703125,1.0387
-0.7786259541984732,1.8625954198473282,0.7480916030534351,-0.02783203125,-0.129150390625,-0.6025390625,1.0404
-0.6259541984732825,1.7557251908396947,0.7480916030534351,-0.033447265625,-0.12890625,-0.591064453125,1.0421
-1.0381679389312977,1.8778625954198473,0.6106870229007634,-0.0302734375,-0.131591796875,-0.59521484375,1.0437999999999998
-1.1603053435114503,1.6946564885496183,0.8244274809160306,-0.031494140625,-0.13037109375,-0.604248046875,1.0454999999999999
-0.8702290076335878,1.4809160305343512,0.8091603053435115,-0.02197265625,-0.125732421875,-0.599365234375,1.0472
-0.9770992366412213,1.4198473282442747,0.9923664122137404,-0.032958984375,-0.130126953125,-0.6015625,1.0489
-1.251908396946565,1.4198473282442747,0.9465648854961832,-0.02978515625,-0.13134765625,-0.596923828125,1.0506
-1.2213740458015268,1.297709923664122,1.0687022900763359,-0.031005859375,-0.133544921875,-0.593017578125,1.0523
-1.1145038167938932,1.1145038167938932,0.8549618320610687,-0.03076171875,-0.130615234375,-0.587890625,1.054
-1.3740458015267176,1.0076335877862594,1.0381679389312977,-0.034423828125,-0.129638671875,-0.60107421875,1.0556999999999999
-1.465648854961832,0.732824427480916,1.0534351145038168,-0.02734375,-0.1357421875,-0.59814453125,1.0574
-1.3587786259541985,0.6870229007633588,1.1145038167938932,-0.027099609375,-0.1318359375,-0.596435546875,1.0591
-1.099236641221374,0.48854961832061067,1.083969465648855,-0.03271484375,-0.134033203125,-0.598388671875,1.0608
-1.1603053435114503,0.3053435114503817,1.0687022900763359,-0.02880859375,-0.138916015625,-0.592041015625,1.0625
-1.0687022900763359,0.3511450381679389,1.0687022900763359,-0.02490234375,-0.134521484375,-0.594482421875,1.0642
-1.1603053435114503,0.1984732824427481,1.3587786259541985,-0.029541015625,-0.136474609375,-0.595703125,1.0658999999999998
-0.8702290076335878,-0.21374045801526717,1.3740458015267176,-0.02587890625,-0.13671875,-0.6005859375,1.0675999999999999
-0.6106870229007634,-0.2748091603053435,1.3587786259541985,-0.024169921875,-0.130615234375,-0.607421875,1.0693
-0.732824427480916,-0.5648854961832062,1.465648854961832,-0.02734375,-0.13671875,-0.59521484375,1.071
-0.42748091603053434,-0.6106870229007634,1.3435114503816794,-0.024169921875,-0.134033203125,-0.595703125,1.0727
-0.4580152671755725,-0.916030534351145,1.4198473282442747,-0.02490234375,-0.1357421875,-0.597900390625,1.0744
-0.5343511450381679,-1.0687022900763359,1.5877862595419847,-0.020751953125,-0.1337890625,-0.59130859375,1.0760999999999998
-0.3053435114503817,-1.1145038167938932,1.5419847328244274,-0.0244140625,-0.1298828125,-0.600341796875,1.0777999999999999
-0.2595419847328244,-1.3435114503816794,1.6488549618320612,-0.0263671875,-0.133056640625,-0.59521484375,1.0795
-0.0916030534351145,-1.5419847328244274,1.786259541984733,-0.024658203125,-0.1376953125,-0.59521484375,1.0812
0.0,-1.816793893129771,1.7709923664122138,-0.028076171875,-0.13720703125,-0.596923828125,1.0829
0.10687022900763359,-2.030534351145038,1.7404580152671756,-0.02880859375,-0.13330078125,-0.593017578125,1.0846
-0.13740458015267176,-2.0610687022900764,1.8778625954198473,-0.029052734375,-0.13427734375,-0.58984375,1.0863
0.04580152671755725,-2.183206106870229,1.83206106870229,-0.023681640625,-0.1435546875,-0.59716796875,1.0879999999999999
0.015267175572519083,-2.4580152671755724,1.9389312977099236,-0.021728515625,-0.138916015625,-0.595458984375,1.0897
-0.13740458015267176,-2.6259541984732824,1.8473282442748091,-0.021728515625,-0.141845703125,-0.596435546875,1.0914
0.15267175572519084,-2.564885496183206,2.030534351145038,-0.02490234375,-0.13916015625,-0.592529296875,1.0931
0.2900763358778626,-2.6412213740458017,1.9389312977099236,-0.0283203125,-0.140869140625,-0.59326171875,1.0948
0.13740458015267176,-2.885496183206107,1.8473282442748091,-0.029052734375,-0.13623046875,-0.587890625,1.0965
0.16793893129770993,-3.0076335877862594,1.9389312977099236,-0.025634765625,-0.145751953125,-0.589599609375,1.0981999999999998
0.2748091603053435,-3.2213740458015265,2.1068702290076335,-0.027099609375,-0.14404296875,-0.591064453125,1.0998999999999999
0.10687022900763359,-3.236641221374046,1.816793893129771,-0.0302734375,-0.144775390625,-0.590087890625,1.1016
0.24427480916030533,-3.450381679389313,1.9236641221374047,-0.02587890625,-0.145263671875,-0.599365234375,1.1033
0.5801526717557252,-3.435114503816794,1.8931297709923665,-0.02490234375,-0.149169921875,-0.600830078125,1.105
0.5343511450381679,-3.3282442748091605,1.9236641221374047,-0.021728515625,-0.146728515625,-0.5947265625,1.1067
0.5648854961832062,-3.5877862595419847,1.786259541984733,-0.0283203125,-0.14697265625,-0.59228515625,1.1083999999999998
0.6870229007633588,-3.49618320610687,1.8473282442748091,-0.030029296875,-0.144287109375,-0.59228515625,1.1100999999999999
0.4732824427480916,-3.450381679389313,1.83206106870229,-0.022705078125,-0.1533203125,-0.59130859375,1.1118
0.4732824427480916,-3.5572519083969465,1.7709923664122138,-0.02392578125,-0.146728515625,-0.59521484375,1.1135
0.7938931297709924,-3.4656488549618323,1.633587786259542,-0.02978515625,-0.14599609375,-0.587890625,1.1152
0.183206106870229,-3.5114503816793894,1.7099236641221374,-0.031005859375,-0.147216796875,-0.585693359375,1.1169
0.3053435114503817,-3.5114503816793894,1.4351145038167938,-0.031005859375,-0.1455078125,-0.593017578125,1.1186
0.48854961832061067,-3.480916030534351,1.4198473282442747,-0.03466796875,-0.14453125,-0.59521484375,1.1202999999999999
0.3053435114503817,-3.480916030534351,1.2213740458015268,-0.032470703125,-0.14501953125,-0.59716796875,1.1219999999999999
0.0916030534351145,-3.312977099236641,1.2213740458015268,-0.0263671875,-0.142822265625,-0.6015625,1.1237
-0.07633587786259542,-3.2977099236641223,1.1908396946564885,-0.030517578125,-0.14208984375,-0.589111328125,1.1254
0.15267175572519084,-3.3587786259541983,1.1603053435114503,-0.03076171875,-0.1455078125,-0.596923828125,1.1271
0.061068702290076333,-2.9923664122137406,0.9312977099236641,-0.028564453125,-0.14599609375,-0.587646484375,1.1288
-0.15267175572519084,-2.946564885496183,0.8702290076335878,-0.034912109375,-0.14794921875,-0.591796875,1.1304999999999998
-0.07633587786259542,-2.8244274809160306,0.6412213740458015,-0.039306640625,-0.142822265625,-0.594970703125,1.1321999999999999
-0.015267175572519083,-2.6259541984732824,0.6564885496183206,-0.03515625,-0.144287109375,-0.593017578125,1.1339
-0.3053435114503817,-2.4885496183206106,0.732824427480916,-0.0390625,-0.142822265625,-0.59326171875,1.1356
-0.15267175572519084,-2.351145038167939,0.5801526717557252,-0.0390625,-0.14111328125,-0.596923828125,1.1373
0.061068702290076333,-2.16793893129771,0.15267175572519084,-0.039306640625,-0.148681640625,-0.5947265625,1.139
-0.2595419847328244,-2.3206106870229006,0.2900763358778626,-0.04052734375,-0.1455078125,-0.595947265625,1.1407
-0.13740458015267176,-2.045801526717557,0.32061068702290074,-0.040283203125,-0.139892578125,-0.59423828125,1.1423999999999999
-0.13740458015267176,-1.7557251908396947,0.24427480916030533,-0.037841796875,-0.142578125,-0.59326171875,1.1441
-0.16793893129770993,-1.6488549618320612,-0.015267175572519083,-0.0400390625,-0.144287109375,-0.59619140625,1.1458
0.030534351145038167,-1.3740458015267176,0.061068702290076333,-0.041015625,-0.142333984375,-0.587158203125,1.1475
-0.07633587786259542,-0.9618320610687023,-0.22900763358778625,-0.037109375,-0.14013671875,-0.59130859375,1.1492
0.061068702290076333,-1.0229007633587786,0.13740458015267176,-0.04052734375,-0.148193359375,-0.598876953125,1.1509
0.015267175572519083,-0.7022900763358778,-0.2900763358778626,-0.039306640625,-0.14501953125,-0.595458984375,1.1525999999999998
-0.07633587786259542,-0.3816793893129771,-0.366412213740458,-0.0400390625,-0.1484375,-0.594970703125,1.1542999999999999
-0.12213740458015267,-0.183206106870229,-0.4580152671755725,-0.04248046875,-0.144775390625,-0.587646484375,1.156
-0.04580152671755725,-0.10687022900763359,-0.44274809160305345,-0.0380859375,-0.147216796875,-0.5927734375,1.1577
0.015267175572519083,0.13740458015267176,-0.5343511450381679,-0.039306640625,-0.144775390625,-0.595947265625,1.1594
-0.0916030534351145,0.44274809160305345,-0.44274809160305345,-0.038330078125,-0.14794921875,-0.5859375,1.1611
-0.10687022900763359,0.6412213740458015,-0.6259541984732825,-0.042724609375,-0.148193359375,-0.580322265625,1.1627999999999998
0.10687022900763359,0.916030534351145,-0.6717557251908397,-0.0419921875,-0.14599609375,-0.60302734375,1.1644999999999999
0.04580152671755725,0.9465648854961832,-0.8091603053435115,-0.0439453125,-0.144287109375,-0.58740234375,1.1662
0.07633587786259542,1.1450381679389312,-0.5343511450381679,-0.041259765625,-0.142333984375,-0.593017578125,1.1679
0.21374045801526717,1.1908396946564885,-0.732824427480916,-0.040283203125,-0.14404296875,-0.5986328125,1.1696
0.10687022900763359,1.4198473282442747,-0.8396946564885496,-0.036865234375,-0.14111328125,-0.58984375,1.1713
0.0,1.5725190839694656,-0.9618320610687023,-0.04296875,-0.140625,-0.59130859375,1.173
0.061068702290076333,1.8015267175572518,-0.8549618320610687,-0.04052734375,-0.1376953125,-0.591552734375,1.1746999999999999
0.12213740458015267,1.8778625954198473,-0.9923664122137404,-0.037109375,-0.13427734375,-0.597900390625,1.1764
-0.16793893129770993,1.8473282442748091,-0.916030534351145,-0.03271484375,-0.13720703125,-0.591552734375,1.1781
-0.07633587786259542,2.381679389312977,-1.297709923664122,-0.03466796875,-0.14111328125,-0.589599609375,1.1798
-0.0916030534351145,2.2900763358778624,-1.0229007633587786,-0.040283203125,-0.139404296875,-0.59619140625,1.1815
0.0916030534351145,2.381679389312977,-1.2671755725190839,-0.031982421875,-0.144287109375,-0.591552734375,1.1832
0.015267175572519083,2.5343511450381677,-1.1603053435114503,-0.034912109375,-0.142333984375,-0.597412109375,1.1848999999999998
-0.10687022900763359,2.6564885496183206,-1.1603053435114503,-0.039306640625,-0.138916015625,-0.5869140625,1.1865999999999999
0.030534351145038167,2.900763358778626,-1.0381679389312977,-0.032470703125,-0.14013671875,-0.595947265625,1.1883
0.07633587786259542,3.114503816793893,-1.3435114503816794,-0.038330078125,-0.135498046875,-0.5947265625,1.19
0.030534351145038167,3.1297709923664123,-1.4045801526717556,-0.03369140625,-0.135009765625,-0.59423828125,1.1917
0.10687022900763359,3.4656488549618323,-1.3129770992366412,-0.03759765625,-0.137451171875,-0.595703125,1.1934
0.22900763358778625,3.3282442748091605,-1.5114503816793894,-0.0341796875,-0.1416015625,-0.60009765625,1.1950999999999998
0.015267175572519083,3.49618320610687,-1.465648854961832,-0.036376953125,-0.141357421875,-0.599365234375,1.1967999999999999
0.183206106870229,3.7251908396946565,-1.3740458015267176,-0.03759765625,-0.13671875,-0.598876953125,1.1985
0.2595419847328244,3.8931297709923665,-1.5572519083969465,-0.03271484375,-0.132080078125,-0.596923828125,1.2002
0.33587786259541985,3.7251908396946565,-1.4961832061068703,-0.034912109375,-0.135009765625,-0.6005859375,1.2019
0.3816793893129771,3.954198473282443,-1.4351145038167938,-0.037353515625,-0.134765625,-0.599609375,1.2036
0.3511450381679389,4.015267175572519,-1.5419847328244274,-0.0341796875,-0.13623046875,-0.60107421875,1.2053
0.4732824427480916,3.8473282442748094,-1.6946564885496183,-0.03173828125,-0.13623046875,-0.602783203125,1.2069999999999999
0.4732824427480916,4.076335877862595,-1.5725190839694656,-0.032958984375,-0.131591796875,-0.603271484375,1.2086999999999999
0.5954198473282443,4.106870229007634,-1.7557251908396947,-0.029052734375,-0.128173828125,-0.603271484375,1.2104
0.6870229007633588,4.351145038167939,-1.5267175572519085,-0.0283203125,-0.135498046875,-0.59765625,1.2121
0.6259541984732825,4.442748091603053,-1.7557251908396947,-0.0263671875,-0.13134765625,-0.601318359375,1.2138
0.6106870229007634,4.396946564885496,-1.6641221374045803,-0.025634765625,-0.129150390625,-0.599609375,1.2155
0.6870229007633588,4.259541984732825,-1.8625954198473282,-0.03173828125,-0.12939453125,-0.60009765625,1.2171999999999998
0.6564885496183206,4.549618320610687,-1.6488549618320612,-0.030029296875,-0.129150390625,-0.60498046875,1.2188999999999999
0.5801526717557252,4.5038167938931295,-1.7404580152671756,-0.0322265625,-0.127685546875,-0.595703125,1.2206
1.0229007633587786,4.396946564885496,-1.8473282442748091,-0.02783203125,-0.12744140625,-0.59716796875,1.2223
0.7786259541984732,4.33587786259542,-1.8931297709923665,-0.031494140625,-0.1259765625,-0.597412109375,1.224
0.9618320610687023,4.473282442748092,-1.5419847328244274,-0.027587890625,-0.1328125,-0.600341796875,1.2257
1.1603053435114503,4.595419847328245,-1.6946564885496183,-0.0244140625,-0.125244140625,-0.604248046875,1.2273999999999998
1.0687022900763359,4.473282442748092,-1.6641221374045803,-0.017578125,-0.129638671875,-0.593994140625,1.2290999999999999
1.1297709923664123,4.290076335877862,-1.8473282442748091,-0.026123046875,-0.12451171875,-0.59765625,1.2308
1.450381679389313,4.3816793893129775,-1.7404580152671756,-0.027099609375,-0.1240234375,-0.6015625,1.2325
1.2061068702290076,4.290076335877862,-2.030534351145038,-0.02587890625,-0.12451171875,-0.598388671875,1.2342
1.2671755725190839,4.366412213740458,-2.0,-0.026611328125,-0.122802734375,-0.6064453125,1.2359
1.5419847328244274,4.244274809160306,-1.9236641221374047,-0.027099609375,-0.129638671875,-0.60107421875,1.2376
1.6030534351145038,4.1679389312977095,-1.8473282442748091,-0.027099609375,-0.122314453125,-0.595458984375,1.2392999999999998
1.4198473282442747,4.198473282442748,-2.122137404580153,-0.024169921875,-0.126220703125,-0.598876953125,1.2409999999999999
1.5725190839694656,4.229007633587786,-1.9389312977099236,-0.02099609375,-0.12255859375,-0.59228515625,1.2427
1.5114503816793894,3.969465648854962,-1.8473282442748091,-0.022216796875,-0.11767578125,-0.599853515625,1.2444
1.6030534351145038,4.0,-1.9389312977099236,-0.021728515625,-0.119140625,-0.595947265625,1.2461
1.5725190839694656,4.0,-1.8778625954198473,-0.02099609375,-0.12548828125,-0.59326171875,1.2478
1.7709923664122138,3.7709923664122136,-1.7404580152671756,-0.02490234375,-0.125732421875,-0.59130859375,1.2494999999999998
1.786259541984733,3.786259541984733,-1.7404580152671756,-0.02392578125,-0.126708984375,-0.597900390625,1.2511999999999999
1.816793893129771,3.7099236641221376,-1.8015267175572518,-0.02685546875,-0.116455078125,-0.6064453125,1.2529
1.8015267175572518,3.66412213740458,-2.16793893129771,-0.022216796875,-0.11865234375,-0.60595703125,1.2546
1.8625954198473282,3.66412213740458,-1.6946564885496183,-0.025390625,-0.12548828125,-0.599853515625,1.2563
1.633587786259542,3.5877862595419847,-1.8473282442748091,-0.026123046875,-0.121826171875,-0.59716796875,1.258
1.9083969465648856,3.49618320610687,-1.786259541984733,-0.026123046875,-0.125732421875,-0.601806640625,1.2596999999999998
1.7709923664122138,3.2519083969465647,-1.8625954198473282,-0.025146484375,-0.12353515625,-0.59521484375,1.2613999999999999
1.5114503816793894,3.3435114503816794,-1.8015267175572518,-0.02392578125,-0.122314453125,-0.5966796875,1.2631
1.8778625954198473,3.3893129770992365,-1.8015267175572518,-0.025634765625,-0.122314453125,-0.59716796875,1.2648
1.5114503816793894,3.282442748091603,-1.7251908396946565,-0.023193359375,-0.12353515625,-0.594482421875,1.2665
1.465648854961832,3.053435114503817,-1.6641221374045803,-0.0263671875,-0.123779296875,-0.599609375,1.2682
1.4961832061068703,2.9923664122137406,-1.7404580152671756,-0.030029296875,-0.123291015625,-0.594970703125,1.2699
1.4045801526717556,2.8244274809160306,-1.6946564885496183,-0.020263671875,-0.125244140625,-0.5947265625,1.2715999999999998
1.5725190839694656,2.885496183206107,-1.786259541984733,-0.024658203125,-0.12158203125,-0.60400390625,1.2732999999999999
1.6030534351145038,2.687022900763359,-1.6793893129770991,-0.026611328125,-0.12353515625,-0.6123046875,1.275
1.4198473282442747,2.519083969465649,-1.4961832061068703,-0.026611328125,-0.129150390625,-0.601806640625,1.2767
1.465648854961832,2.2900763358778624,-1.7404580152671756,-0.025146484375,-0.130126953125,-0.596435546875,1.2784
1.5572519083969465,2.198473282442748,-1.4961832061068703,-0.02587890625,-0.128662109375,-0.6005859375,1.2801
1.6030534351145038,2.1068702290076335,-1.3435114503816794,-0.027587890625,-0.125732421875,-0.5986328125,1.2817999999999998
1.4198473282442747,1.984732824427481,-1.6946564885496183,-0.026123046875,-0.13232421875,-0.585693359375,1.2834999999999999
1.5877862595419847,1.786259541984733,-1.450381679389313,-0.02587890625,-0.129638671875,-0.5947265625,1.2852
1.5725190839694656,1.5419847328244274,-1.450381679389313,-0.021728515625,-0.126953125,-0.59765625,1.2869
1.5114503816793894,1.6030534351145038,-1.4045801526717556,-0.026611328125,-0.127685546875,-0.602783203125,1.2886
1.3129770992366412,1.3740458015267176,-1.465648854961832,-0.02490234375,-0.1279296875,-0.604248046875,1.2903
1.2061068702290076,1.1450381679389312,-1.3282442748091603,-0.015625,-0.128662109375,-0.60546875,1.292
1.3587786259541985,0.9770992366412213,-1.465648854961832,-0.023193359375,-0.128662109375,-0.5947265625,1.2936999999999999
1.2213740458015268,0.8396946564885496,-1.465648854961832,-0.02197265625,-0.131103515625,-0.603271484375,1.2953999999999999
1.2366412213740459,0.7175572519083969,-1.3587786259541985,-0.021484375,-0.12646484375,-0.599609375,1.2971
1.083969465648855,0.6259541984732825,-1.4351145038167938,-0.019287109375,-0.129150390625,-0.594970703125,1.2988
1.083969465648855,0.5190839694656488,-1.3435114503816794,-0.023193359375,-0.1328125,-0.59716796875,1.3005
1.0534351145038168,0.33587786259541985,-1.3435114503816794,-0.019287109375,-0.13330078125,-0.595703125,1.3022
1.0229007633587786,0.12213740458015267,-1.3740458015267176,-0.02783203125,-0.13330078125,-0.60009765625,1.3038999999999998
1.2671755725190839,0.16793893129770993,-1.5114503816793894,-0.023193359375,-0.126220703125,-0.598876953125,1.3055999999999999
1.0076335877862594,-0.22900763358778625,-1.4961832061068703,-0.02734375,-0.127685546875,-0.594970703125,1.3073
1.0076335877862594,-0.3816793893129771,-1.251908396946565,-0.028076171875,-0.131103515625,-0.5947265625,1.309
1.1297709923664123,-0.32061068702290074,-1.282442748091603,-0.024169921875,-0.130615234375,-0.593505859375,1.3107
1.0381679389312977,-0.48854961832061067,-1.3282442748091603,-0.0234375,-0.13427734375,-0.60546875,1.3124
1.2366412213740459,-0.7022900763358778,-1.2061068702290076,-0.02490234375,-0.132568359375,-0.61083984375,1.3140999999999998
1.083969465648855,-0.6717557251908397,-1.3129770992366412,-0.02880859375,-0.134765625,-0.6025390625,1.3157999999999999
1.1908396946564885,-0.6870229007633588,-1.2366412213740459,-0.029296875,-0.1298828125,-0.60107421875,1.3175
1.3129770992366412,-0.8854961832061069,-1.251908396946565,-0.033203125,-0.132080078125,-0.594970703125,1.3192
1.1297709923664123,-0.8854961832061069,-1.297709923664122,-0.03173828125,-0.130615234375,-0.59912109375,1.3209
1.2213740458015268,-1.0229007633587786,-1.1603053435114503,-0.027099609375,-0.137939453125,-0.600830078125,1.3226
1.1908396946564885,-0.9770992366412213,-1.1450381679389312,-0.031982421875,-0.132568359375,-0.593505859375,1.3243
1.0076335877862594,-1.099236641221374,-1.2366412213740459,-0.033935546875,-0.134521484375,-0.593994140625,1.3259999999999998
1.4351145038167938,-0.9770992366412213,-1.0076335877862594,-0.02734375,-0.13671875,-0.594482421875,1.3276999999999999
1.2213740458015268,-0.9618320610687023,-1.1450381679389312,-0.0302734375,-0.131103515625,-0.593994140625,1.3294
1.3587786259541985,-1.0687022900763359,-1.2061068702290076,-0.034912109375,-0.13134765625,-0.5986328125,1.3311
1.3129770992366412,-1.0534351145038168,-1.099236641221374,-0.034912109375,-0.134521484375,-0.6083984375,1.3328
1.0534351145038168,-1.099236641221374,-1.1145038167938932,-0.028564453125,-0.131103515625,-0.60107421875,1.3345
1.083969465648855,-1.0534351145038168,-1.0381679389312977,-0.031494140625,-0.133544921875,-0.59375,1.3361999999999998
1.1603053435114503,-0.9312977099236641,-1.3893129770992367,-0.03662109375,-0.13720703125,-0.5947265625,1.3378999999999999
0.8549618320610687,-0.9618320610687023,-1.297709923664122,-0.03564453125,-0.142578125,-0.58349609375,1.3396
0.5190839694656488,-0.5801526717557252,-1.1603053435114503,-0.04052734375,-0.139892578125,-0.58447265625,1.3413
0.9312977099236641,-0.5801526717557252,-1.1908396946564885,-0.036865234375,-0.137451171875,-0.588134765625,1.343
0.8091603053435115,-0.732824427480916,-1.465648854961832,-0.038818359375,-0.136962890625,-0.59033203125,1.3447
0.4580152671755725,-0.6259541984732825,-1.4351145038167938,-0.037841796875,-0.140869140625,-0.591552734375,1.3463999999999998
0.5190839694656488,-0.44274809160305345,-1.5114503816793894,-0.03955078125,-0.138427734375,-0.596435546875,1.3480999999999999
0.4732824427480916,-0.3816793893129771,-1.4809160305343512,-0.04736328125,-0.13671875,-0.602783203125,1.3497999999999999
0.44274809160305345,-0.4122137404580153,-1.5572519083969465,-0.0400390625,-0.134765625,-0.590576171875,1.3515
0.3053435114503817,-0.183206106870229,-1.5572519083969465,-0.034912109375,-0.13525390625,-0.59228515625,1.3532
0.366412213740458,0.030534351145038167,-1.465648854961832,-0.035888671875,-0.135498046875,-0.600341796875,1.3549
0.2900763358778626,0.030534351145038167,-1.6793893129770991,-0.037841796875,-0.14111328125,-0.60009765625,1.3566
0.32061068702290074,0.061068702290076333,-1.6946564885496183,-0.043212890625,-0.13671875,-0.59716796875,1.3582999999999998
0.366412213740458,0.15267175572519084,-1.7709923664122138,-0.03466796875,-0.135986328125,-0.595703125,1.3599999999999999
0.3053435114503817,0.4122137404580153,-1.6488549618320612,-0.03662109375,-0.140625,-0.587890625,1.3617
0.4580152671755725,0.24427480916030533,-1.618320610687023,-0.037109375,-0.13623046875,-0.5830078125,1.3634
0.2900763358778626,0.4580152671755725,-1.633587786259542,-0.04443359375,-0.140625,-0.597412109375,1.3651
0.32061068702290074,0.7175572519083969,-1.5114503816793894,-0.042724609375,-0.13427734375,-0.585205078125,1.3668
0.22900763358778625,0.5954198473282443,-1.6641221374045803,-0.03759765625,-0.135498046875,-0.59716796875,1.3684999999999998
0.2748091603053435,0.7480916030534351,-1.3893129770992367,-0.036865234375,-0.138427734375,-0.599609375,1.3701999999999999
0.366412213740458,0.7938931297709924,-1.6488549618320612,-0.0419921875,-0.134521484375,-0.59228515625,1.3719
0.22900763358778625,0.7938931297709924,-1.5572519083969465,-0.0380859375,-0.138916015625,-0.59912109375,1.3736
0.2900763358778626,0.7480916030534351,-1.3435114503816794,-0.038330078125,-0.140625,-0.595458984375,1.3753
0.183206106870229,0.8396946564885496,-1.450381679389313,-0.0380859375,-0.138427734375,-0.599853515625,1.377
0.2900763358778626,0.9007633587786259,-1.4198473282442747,-0.032470703125,-0.1337890625,-0.60107421875,1.3786999999999998
0.2595419847328244,0.7480916030534351,-1.3282442748091603,-0.04150390625,-0.13818359375,-0.59716796875,1.3803999999999998
0.16793893129770993,1.0534351145038168,-1.5572519083969465,-0.0361328125,-0.140380859375,-0.59326171875,1.3820999999999999
0.549618320610687,0.8854961832061069,-1.5572519083969465,-0.03076171875,-0.1357421875,-0.59619140625,1.3838
0.4580152671755725,1.0076335877862594,-1.5114503816793894,-0.03857421875,-0.139892578125,-0.6015625,1.3855
0.4732824427480916,1.1450381679389312,-1.4809160305343512,-0.031005859375,-0.14111328125,-0.59423828125,1.3872
0.3969465648854962,1.1450381679389312,-1.6946564885496183,-0.0361328125,-0.14013671875,-0.592041015625,1.3889
0.5190839694656488,1.083969465648855,-1.3587786259541985,-0.039306640625,-0.138427734375,-0.589599609375,1.3905999999999998
0.6717557251908397,1.0687022900763359,-1.297709923664122,-0.038330078125,-0.13427734375,-0.58984375,1.3922999999999999
0.7022900763358778,1.1297709923664123,-1.4045801526717556,-0.030029296875,-0.134765625,-0.59375,1.394
0.48854961832061067,1.2213740458015268,-1.3893129770992367,-0.032470703125,-0.134033203125,-0.600341796875,1.3957
0.5954198473282443,0.9923664122137404,-1.3587786259541985,-0.03125,-0.13525390625,-0.5986328125,1.3974
0.5343511450381679,1.2213740458015268,-1.4045801526717556,-0.0302734375,-0.13623046875,-0.600341796875,1.3991
0.5801526717557252,1.1450381679389312,-1.5725190839694656,-0.0322265625,-0.13525390625,-0.595458984375,1.4007999999999998
0.5954198473282443,1.1603053435114503,-1.3129770992366412,-0.037109375,-0.136474609375,-0.601806640625,1.4024999999999999
0.6870229007633588,1.2213740458015268,-1.3435114503816794,-0.033203125,-0.134521484375,-0.6064453125,1.4042
0.3969465648854962,1.099236641221374,-1.3587786259541985,-0.03173828125,-0.1376953125,-0.60107421875,1.4059
0.6564885496183206,1.1450381679389312,-1.1603053435114503,-0.02734375,-0.1318359375,-0.60009765625,1.4076
0.549618320610687,1.2366412213740459,-1.4351145038167938,-0.025390625,-0.13623046875,-0.593994140625,1.4093
0.5343511450381679,1.0076335877862594,-1.1908396946564885,-0.0302734375,-0.134033203125,-0.593505859375,1.411
0.6564885496183206,1.2366412213740459,-1.2366412213740459,-0.024169921875,-0.134765625,-0.59716796875,1.4126999999999998
0.7175572519083969,1.2366412213740459,-1.3282442748091603,-0.02978515625,-0.136474609375,-0.59375,1.4143999999999999
0.5954198473282443,1.1297709923664123,-1.3435114503816794,-0.031005859375,-0.138916015625,-0.596435546875,1.4161
0.5954198473282443,0.8091603053435115,-1.1450381679389312,-0.0263671875,-0.1328125,-0.600341796875,1.4178
0.7175572519083969,0.7786259541984732,-1.4351145038167938,-0.02734375,-0.13623046875,-0.598388671875,1.4195
0.44274809160305345,0.9465648854961832,-1.297709923664122,-0.03271484375,-0.130615234375,-0.5947265625,1.4212
0.3816793893129771,0.9312977099236641,-1.3129770992366412,-0.03125,-0.13134765625,-0.59521484375,1.4228999999999998
0.5954198473282443,0.7480916030534351,-1.3435114503816794,-0.03125,-0.1337890625,-0.59765625,1.4245999999999999
0.4732824427480916,0.6106870229007634,-1.4961832061068703,-0.028076171875,-0.12890625,-0.590576171875,1.4263
0.7786259541984732,0.6564885496183206,-1.465648854961832,-0.02685546875,-0.129150390625,-0.591552734375,1.428
0.5648854961832062,0.5801526717557252,-1.251908396946565,-0.029541015625,-0.12890625,-0.593505859375,1.4297
0.7633587786259542,0.5648854961832062,-1.3129770992366412,-0.0283203125,-0.129150390625,-0.5869140625,1.4314
0.7633587786259542,0.549618320610687,-1.251908396946565,-0.031494140625,-0.130126953125,-0.59375,1.4330999999999998
0.9770992366412213,0.5801526717557252,-1.282442748091603,-0.023681640625,-0.12890625,-0.59521484375,1.4347999999999999
0.7786259541984732,0.5648854961832062,-1.4045801526717556,-0.02294921875,-0.129150390625,-0.58984375,1.4364999999999999
0.9312977099236641,0.2900763358778626,-1.2213740458015268,-0.02978515625,-0.1318359375,-0.59716796875,1.4382
1.1297709923664123,0.48854961832061067,-1.1145038167938932,-0.02734375,-0.12890625,-0.595703125,1.4399
1.1297709923664123,0.32061068702290074,-1.1450381679389312,-0.02587890625,-0.128173828125,-0.58935546875,1.4416
1.2213740458015268,0.3511450381679389,-1.1603053435114503,-0.031982421875,-0.131103515625,-0.588134765625,1.4433
1.4045801526717556,0.21374045801526717,-0.9007633587786259,-0.023681640625,-0.12841796875,-0.6044921875,1.4449999999999998
1.2366412213740459,0.3053435114503817,-1.099236641221374,-0.0263671875,-0.1328125,-0.595947265625,1.4466999999999999
1.1908396946564885,0.183206106870229,-0.9618320610687023,-0.0302734375,-0.13232421875,-0.593505859375,1.4484
1.3129770992366412,0.16793893129770993,-1.2213740458015268,-0.029052734375,-0.12890625,-0.5947265625,1.4501
1.3282442748091603,0.1984732824427481,-1.0534351145038168,-0.02978515625,-0.12890625,-0.5908203125,1.4518
1.251908396946565,0.10687022900763359,-1.0381679389312977,-0.02587890625,-0.129638671875,-0.59375,1.4535
1.4809160305343512,0.1984732824427481,-1.1603053435114503,-0.02587890625,-0.1318359375,-0.597900390625,1.4551999999999998
1.465648854961832,-0.10687022900763359,-1.1145038167938932,-0.029296875,-0.13232421875,-0.59521484375,1.4568999999999999
1.3740458015267176,-0.061068702290076333,-1.0687022900763359,-0.02978515625,-0.136474609375,-0.60009765625,1.4586
1.7099236641221374,-0.015267175572519083,-1.450381679389313,-0.02880859375,-0.13818359375,-0.600830078125,1.4603
1.618320610687023,-0.030534351145038167,-1.2671755725190839,-0.030517578125,-0.1337890625,-0.587158203125,1.462
1.7099236641221374,-0.2748091603053435,-1.3740458015267176,-0.030029296875,-0.135009765625,-0.590087890625,1.4637
1.6946564885496183,-0.3969465648854962,-1.3282442748091603,-0.029296875,-0.125732421875,-0.591796875,1.4653999999999998
1.5725190839694656,-0.0916030534351145,-1.4961832061068703,-0.02734375,-0.1337890625,-0.588623046875,1.4670999999999998
1.6641221374045803,-0.3511450381679389,-1.465648854961832,-0.036376953125,-0.1337890625,-0.58740234375,1.4687999999999999
1.6030534351145038,-0.366412213740458,-1.6488549618320612,-0.031494140625,-0.132568359375,-0.5927734375,1.4705
1.2213740458015268,-0.32061068702290074,-1.7709923664122138,-0.03662109375,-0.12939453125,-0.592041015625,1.4722
1.3129770992366412,-0.3511450381679389,-1.8015267175572518,-0.029296875,-0.133056640625,-0.587646484375,1.4739
1.3435114503816794,-0.4580152671755725,-1.7099236641221374,-0.033203125,-0.1328125,-0.601806640625,1.4756
1.3129770992366412,-0.3053435114503817,-1.8931297709923665,-0.03076171875,-0.131103515625,-0.59521484375,1.4772999999999998
0.9312977099236641,-0.3969465648854962,-1.6641221374045803,-0.03173828125,-0.135986328125,-0.598876953125,1.4789999999999999
1.0229007633587786,-0.6259541984732825,-1.8625954198473282,-0.033203125,-0.138916015625,-0.59326171875,1.4807
0.9770992366412213,-0.5343511450381679,-1.8473282442748091,-0.0302734375,-0.134033203125,-0.599609375,1.4824
0.9465648854961832,-0.549618320610687,-2.030534351145038,-0.03759765625,-0.12939453125,-0.595458984375,1.4841
1.1603053435114503,-0.5190839694656488,-1.8778625954198473,-0.030517578125,-0.131591796875,-0.59814453125,1.4858
0.9312977099236641,-0.5190839694656488,-1.9694656488549618,-0.03515625,-0.131103515625,-0.596923828125,1.4874999999999998
0.7938931297709924,-0.4122137404580153,-1.9389312977099236,-0.0361328125,-0.131591796875,-0.591796875,1.4891999999999999
0.7480916030534351,-0.5343511450381679,-2.122137404580153,-0.03271484375,-0.135009765625,-0.591552734375,1.4909
1.0076335877862594,-0.7480916030534351,-1.8931297709923665,-0.033203125,-0.1318359375,-0.598876953125,1.4926
0.8396946564885496,-0.5038167938931297,-2.2900763358778624,-0.031982421875,-0.125244140625,-0.60107421875,1.4943
0.7633587786259542,-0.6870229007633588,-2.3053435114503817,-0.0322265625,-0.126708984375,-0.592529296875,1.496
0.5801526717557252,-0.7633587786259542,-2.4122137404580153,-0.039306640625,-0.1279296875,-0.598876953125,1.4976999999999998
0.5648854961832062,-0.5801526717557252,-2.2290076335877864,-0.033203125,-0.132568359375,-0.587158203125,1.4993999999999998
0.3969465648854962,-0.6106870229007634,-2.2595419847328246,-0.03271484375,-0.13232421875,-0.5986328125,1.5010999999999999
0.6106870229007634,-0.6564885496183206,-2.2748091603053435,-0.038330078125,-0.1337890625,-0.599853515625,1.5028
0.3816793893129771,-0.7480916030534351,-2.4122137404580153,-0.03662109375,-0.133056640625,-0.59765625,1.5045
0.732824427480916,-0.6870229007633588,-2.2748091603053435,-0.031005859375,-0.124755859375,-0.59716796875,1.5062
0.6412213740458015,-0.8091603053435115,-2.2900763358778624,-0.03564453125,-0.12939453125,-0.601806640625,1.5079
0.3816793893129771,-0.7022900763358778,-2.4580152671755724,-0.03466796875,-0.128662109375,-0.593994140625,1.5095999999999998
0.7786259541984732,-0.7633587786259542,-2.2748091603053435,-0.037353515625,-0.1318359375,-0.599853515625,1.5112999999999999
0.8702290076335878,-1.0534351145038168,-2.366412213740458,-0.03369140625,-0.134033203125,-0.599365234375,1.513
0.916030534351145,-0.9770992366412213,-2.2748091603053435,-0.03759765625,-0.13525390625,-0.598876953125,1.5147
0.9923664122137404,-1.0534351145038168,-2.2290076335877864,-0.035888671875,-0.1337890625,-0.596923828125,1.5164
1.251908396946565,-1.1145038167938932,-2.2595419847328246,-0.0341796875,-0.1337890625,-0.5966796875,1.5181
1.2213740458015268,-1.297709923664122,-2.183206106870229,-0.031982421875,-0.1328125,-0.58935546875,1.5197999999999998
1.2213740458015268,-1.251908396946565,-2.0610687022900764,-0.0361328125,-0.1376953125,-0.600830078125,1.5214999999999999
1.3587786259541985,-1.4351145038167938,-2.3053435114503817,-0.037353515625,-0.13330078125,-0.60205078125,1.5231999999999999
1.3893129770992367,-1.4351145038167938,-2.3053435114503817,-0.036865234375,-0.130859375,-0.592041015625,1.5249
1.5419847328244274,-1.3893129770992367,-1.9083969465648856,-0.03662109375,-0.1357421875,-0.59521484375,1.5266
1.7709923664122138,-1.618320610687023,-2.1374045801526718,-0.036376953125,-0.139404296875,-0.5908203125,1.5283
1.3435114503816794,-1.7099236641221374,-2.1526717557251906,-0.036865234375,-0.136474609375,-0.598876953125,1.5299999999999998
1.2671755725190839,-1.6946564885496183,-2.381679389312977,-0.039306640625,-0.136474609375,-0.597412109375,1.5316999999999998
1.3740458015267176,-1.5267175572519085,-2.1526717557251906,-0.031494140625,-0.13720703125,-0.59814453125,1.5333999999999999
1.297709923664122,-1.633587786259542,-2.3969465648854964,-0.037353515625,-0.1416015625,-0.593994140625,1.5351
1.1603053435114503,-1.7557251908396947,-2.427480916030534,-0.031982421875,-0.13037109375,-0.590087890625,1.5368
1.083969465648855,-1.5572519083969465,-2.4732824427480917,-0.039794921875,-0.134765625,-0.592041015625,1.5385
1.0534351145038168,-1.6641221374045803,-2.381679389312977,-0.037353515625,-0.13427734375,-0.597900390625,1.5402
1.0534351145038168,-1.7404580152671756,-2.519083969465649,-0.0439453125,-0.1318359375,-0.592529296875,1.5418999999999998
0.5954198473282443,-1.633587786259542,-2.7022900763358777,-0.04248046875,-0.130859375,-0.59765625,1.5435999999999999
0.732824427480916,-1.7709923664122138,-2.7786259541984735,-0.040283203125,-0.130615234375,-0.59765625,1.5453
0.549618320610687,-1.633587786259542,-2.7480916030534353,-0.0380859375,-0.13330078125,-0.601318359375,1.547
0.3969465648854962,-1.6641221374045803,-2.9160305343511452,-0.04150390625,-0.13134765625,-0.58984375,1.5487
0.549618320610687,-1.5877862595419847,-2.6717557251908395,-0.0361328125,-0.12841796875,-0.59423828125,1.5504
0.2748091603053435,-1.5877862595419847,-2.8091603053435112,-0.04248046875,-0.127685546875,-0.598876953125,1.5520999999999998
0.3053435114503817,-1.3893129770992367,-2.8702290076335877,-0.0390625,-0.1259765625,-0.5888671875,1.5537999999999998
0.2900763358778626,-1.5114503816793894,-2.763358778625954,-0.041015625,-0.130126953125,-0.603271484375,1.5554999999999999
0.2900763358778626,-1.5267175572519085,-2.9618320610687023,-0.03759765625,-0.1337890625,-0.5986328125,1.5572
0.3511450381679389,-1.297709923664122,-3.145038167938931,-0.040283203125,-0.13427734375,-0.595703125,1.5589
0.4122137404580153,-1.6030534351145038,-2.946564885496183,-0.03759765625,-0.133544921875,-0.597900390625,1.5606
0.4580152671755725,-1.633587786259542,-3.068702290076336,-0.0341796875,-0.12890625,-0.58935546875,1.5623
0.7786259541984732,-1.3129770992366412,-2.9923664122137406,-0.038330078125,-0.126953125,-0.5908203125,1.5639999999999998
0.7175572519083969,-1.450381679389313,-2.9618320610687023,-0.03857421875,-0.129638671875,-0.59130859375,1.5656999999999999
0.8549618320610687,-1.465648854961832,-3.0381679389312977,-0.038330078125,-0.127197265625,-0.598876953125,1.5674
0.7786259541984732,-1.5877862595419847,-3.1908396946564888,-0.032958984375,-0.126708984375,-0.592529296875,1.5691
0.9770992366412213,-1.5267175572519085,-2.9770992366412212,-0.0419921875,-0.12890625,-0.592529296875,1.5708
0.9618320610687023,-1.4198473282442747,-3.1603053435114505,-0.036376953125,-0.130859375,-0.603759765625,1.5725
1.297709923664122,-1.4045801526717556,-3.145038167938931,-0.03955078125,-0.125732421875,-0.595703125,1.5741999999999998
1.1450381679389312,-1.3740458015267176,-3.145038167938931,-0.03369140625,-0.128173828125,-0.596435546875,1.5758999999999999
1.2671755725190839,-1.3740458015267176,-3.1908396946564888,-0.037109375,-0.137939453125,-0.5908203125,1.5776
1.2213740458015268,-1.297709923664122,-3.114503816793893,-0.034912109375,-0.12646484375,-0.594970703125,1.5793
1.3893129770992367,-1.2061068702290076,-3.0229007633587788,-0.03857421875,-0.12744140625,-0.599365234375,1.581
1.8015267175572518,-1.3435114503816794,-2.9923664122137406,-0.0390625,-0.131591796875,-0.594970703125,1.5827
1.6946564885496183,-1.4045801526717556,-2.9160305343511452,-0.0341796875,-0.1318359375,-0.592041015625,1.5843999999999998
1.984732824427481,-1.3129770992366412,-2.9160305343511452,-0.03857421875,-0.129638671875,-0.60595703125,1.5860999999999998
1.816793893129771,-1.083969465648855,-2.8702290076335877,-0.040283203125,-0.134033203125,-0.607666015625,1.5877999999999999
1.8778625954198473,-0.9770992366412213,-2.763358778625954,-0.0419921875,-0.13037109375,-0.595458984375,1.5895
2.0,-0.9923664122137404,-2.9160305343511452,-0.03857421875,-0.136962890625,-0.5966796875,1.5912
1.6793893129770991,-1.099236641221374,-3.0076335877862594,-0.03515625,-0.12646484375,-0.60205078125,1.5929
1.8625954198473282,-0.9007633587786259,-2.931297709923664,-0.035400390625,-0.125732421875,-0.600341796875,1.5946
1.7099236641221374,-0.7175572519083969,-2.9618320610687023,-0.032470703125,-0.1337890625,-0.596923828125,1.5962999999999998
1.4961832061068703,-0.8244274809160306,-2.7480916030534353,-0.031982421875,-0.131591796875,-0.59814453125,1.5979999999999999
1.5572519083969465,-0.7175572519083969,-2.931297709923664,-0.038330078125,-0.126953125,-0.599365234375,1.5997
1.0687022900763359,-0.6412213740458015,-2.946564885496183,-0.040283203125,-0.12890625,-0.602783203125,1.6014
1.1755725190839694,-0.48854961832061067,-2.9770992366412212,-0.03857421875,-0.132080078125,-0.604248046875,1.6031
0.9770992366412213,-0.42748091603053434,-2.763358778625954,-0.041748046875,-0.131591796875,-0.597412109375,1.6048
0.9770992366412213,-0.33587786259541985,-2.6259541984732824,-0.037841796875,-0.1298828125,-0.598876953125,1.6064999999999998
0.7938931297709924,-0.3511450381679389,-2.7022900763358777,-0.032470703125,-0.133056640625,-0.596923828125,1.6081999999999999
0.7786259541984732,-0.3816793893129771,-2.7938931297709924,-0.03759765625,-0.12744140625,-0.601318359375,1.6098999999999999
0.7633587786259542,-0.1984732824427481,-2.7480916030534353,-0.033447265625,-0.13037109375,-0.598876953125,1.6116
0.8091603053435115,-0.15267175572519084,-2.8244274809160306,-0.03369140625,-0.13134765625,-0.59765625,1.6133
0.8702290076335878,-0.24427480916030533,-2.7022900763358777,-0.03125,-0.13134765625,-0.598876953125,1.615
0.6870229007633588,-0.2748091603053435,-2.564885496183206,-0.032470703125,-0.12939453125,-0.594970703125,1.6166999999999998
0.6259541984732825,-0.10687022900763359,-2.7022900763358777,-0.034912109375,-0.129150390625,-0.597412109375,1.6183999999999998
0.7022900763358778,0.183206106870229,-2.763358778625954,-0.034423828125,-0.127685546875,-0.593994140625,1.6200999999999999
0.916030534351145,-0.0916030534351145,-2.549618320610687,-0.037109375,-0.132568359375,-0.6005859375,1.6218
0.916030534351145,-0.12213740458015267,-2.366412213740458,-0.034423828125,-0.126953125,-0.599853515625,1.6235
0.9618320610687023,0.030534351145038167,-2.3053435114503817,-0.029296875,-0.13671875,-0.592529296875,1.6252
0.8854961832061069,0.13740458015267176,-2.2442748091603053,-0.030029296875,-0.1376953125,-0.597900390625,1.6269
1.0076335877862594,0.12213740458015267,-2.2442748091603053,-0.03173828125,-0.129638671875,-0.5859375,1.6285999999999998
1.0534351145038168,-0.015267175572519083,-2.1068702290076335,-0.033935546875,-0.12939453125,-0.594482421875,1.6302999999999999
1.1603053435114503,0.04580152671755725,-2.0,-0.031005859375,-0.13427734375,-0.602294921875,1.632
1.3435114503816794,0.04580152671755725,-1.9694656488549618,-0.034912109375,-0.1357421875,-0.611328125,1.6337
1.450381679389313,0.22900763358778625,-1.8015267175572518,-0.037353515625,-0.13330078125,-0.603271484375,1.6354
1.2366412213740459,0.10687022900763359,-1.83206106870229,-0.028076171875,-0.129150390625,-0.603271484375,1.6371
1.282442748091603,0.0916030534351145,-1.7251908396946565,-0.031494140625,-0.125732421875,-0.599609375,1.6387999999999998
1.5877862595419847,0.1984732824427481,-1.6946564885496183,-0.0341796875,-0.1357421875,-0.5947265625,1.6404999999999998
1.4045801526717556,0.183206106870229,-1.6946564885496183,-0.040283203125,-0.129638671875,-0.591064453125,1.6421999999999999
1.5267175572519085,0.2900763358778626,-1.5267175572519085,-0.041015625,-0.1357421875,-0.591796875,1.6439
1.5419847328244274,0.22900763358778625,-1.7251908396946565,-0.035400390625,-0.130126953125,-0.603759765625,1.6456
1.6946564885496183,0.22900763358778625,-1.816793893129771,-0.036376953125,-0.128173828125,-0.59130859375,1.6473
1.4961832061068703,0.3053435114503817,-1.5572519083969465,-0.037841796875,-0.127197265625,-0.5966796875,1.6489999999999998
1.8473282442748091,0.2595419847328244,-1.4809160305343512,-0.0322265625,-0.134033203125,-0.59423828125,1.6506999999999998
1.816793893129771,0.5343511450381679,-1.7709923664122138,-0.037841796875,-0.1337890625,-0.60205078125,1.6523999999999999
1.8015267175572518,0.5343511450381679,-1.7709923664122138,-0.035400390625,-0.12841796875,-0.60205078125,1.6541
1.7404580152671756,0.5190839694656488,-1.6488549618320612,-0.043701171875,-0.12890625,-0.600341796875,1.6558
1.618320610687023,0.4580152671755725,-1.7251908396946565,-0.042724609375,-0.128662109375,-0.6064453125,1.6575
1.8473282442748091,0.4580152671755725,-1.633587786259542,-0.036376953125,-0.131103515625,-0.597900390625,1.6592
2.0,0.5801526717557252,-1.5419847328244274,-0.041259765625,-0.13037109375,-0.60205078125,1.6608999999999998
1.816793893129771,0.5648854961832062,-1.5725190839694656,-0.040283203125,-0.130615234375,-0.600341796875,1.6625999999999999
1.8473282442748091,0.5801526717557252,-1.5267175572519085,-0.03564453125,-0.13623046875,-0.6083984375,1.6643
1.8473282442748091,0.8549618320610687,-1.633587786259542,-0.03271484375,-0.131103515625,-0.60498046875,1.666
2.1068702290076335,0.8244274809160306,-1.3893129770992367,-0.034912109375,-0.1337890625,-0.609619140625,1.6677
2.0610687022900764,0.8091603053435115,-1.5572519083969465,-0.042724609375,-0.134033203125,-0.6015625,1.6694
2.045801526717557,0.7938931297709924,-1.3740458015267176,-0.03662109375,-0.1328125,-0.603759765625,1.6710999999999998
2.213740458015267,0.9007633587786259,-1.450381679389313,-0.038330078125,-0.1298828125,-0.599609375,1.6727999999999998
2.4732824427480917,0.8702290076335878,-1.297709923664122,-0.033203125,-0.129638671875,-0.610107421875,1.6744999999999999
2.5343511450381677,1.1297709923664123,-1.1755725190839694,-0.039794921875,-0.128173828125,-0.60986328125,1.6762
2.3206106870229006,1.0534351145038168,-1.3129770992366412,-0.0361328125,-0.1416015625,-0.603515625,1.6779
2.4122137404580153,1.0381679389312977,-1.3435114503816794,-0.0341796875,-0.135009765625,-0.59814453125,1.6796
2.6259541984732824,0.9007633587786259,-1.083969465648855,-0.0302734375,-0.13623046875,-0.602294921875,1.6813
2.4885496183206106,1.1145038167938932,-0.916030534351145,-0.030029296875,-0.13671875,-0.602294921875,1.6829999999999998
2.6106870229007635,1.1603053435114503,-1.0229007633587786,-0.030517578125,-0.13427734375,-0.6005859375,1.6846999999999999
3.1603053435114505,1.0687022900763359,-1.0229007633587786,-0.033447265625,-0.14013671875,-0.606689453125,1.6864
2.946564885496183,1.0381679389312977,-0.9007633587786259,-0.03564453125,-0.132080078125,-0.603271484375,1.6881
2.854961832061069,0.9923664122137404,-0.9312977099236641,-0.03759765625,-0.13330078125,-0.60498046875,1.6898
2.9923664122137406,1.0534351145038168,-0.8244274809160306,-0.0361328125,-0.140625,-0.601318359375,1.6915
3.053435114503817,1.2061068702290076,-0.8549618320610687,-0.04052734375,-0.139892578125,-0.595947265625,1.6931999999999998
2.946564885496183,1.1450381679389312,-0.9312977099236641,-0.03515625,-0.139892578125,-0.598388671875,1.6948999999999999
2.9770992366412212,1.1755725190839694,-0.9312977099236641,-0.037353515625,-0.135009765625,-0.59716796875,1.6965999999999999
3.053435114503817,1.282442748091603,-0.9465648854961832,-0.036865234375,-0.138427734375,-0.597900390625,1.6983
2.9770992366412212,1.297709923664122,-0.9007633587786259,-0.036865234375,-0.140625,-0.604248046875,1.7
2.8396946564885495,1.2671755725190839,-0.9618320610687023,-0.0361328125,-0.138427734375,-0.59765625,1.7017
2.6412213740458017,1.4351145038167938,-1.099236641221374,-0.037109375,-0.134521484375,-0.60546875,1.7033999999999998
2.5801526717557253,1.5114503816793894,-0.9312977099236641,-0.036865234375,-0.13720703125,-0.6025390625,1.7050999999999998
2.519083969465649,1.5267175572519085,-1.0687022900763359,-0.03662109375,-0.1318359375,-0.6005859375,1.7067999999999999
2.4580152671755724,1.7251908396946565,-1.0534351145038168,-0.03759765625,-0.134033203125,-0.59912109375,1.7085
2.1526717557251906,1.816793893129771,-1.0381679389312977,-0.041015625,-0.137939453125,-0.602294921875,1.7102
2.198473282442748,1.7099236641221374,-1.0076335877862594,-0.036865234375,-0.135498046875,-0.600830078125,1.7119
2.1374045801526718,1.8931297709923665,-1.0229007633587786,-0.037353515625,-0.139892578125,-0.595703125,1.7136
2.0610687022900764,2.045801526717557,-1.1297709923664123,-0.035400390625,-0.138671875,-0.590087890625,1.7152999999999998
1.786259541984733,2.183206106870229,-1.0229007633587786,-0.043701171875,-0.135009765625,-0.594482421875,1.7169999999999999
1.5419847328244274,2.2900763358778624,-0.9770992366412213,-0.03759765625,-0.137451171875,-0.59814453125,1.7187
1.4809160305343512,2.183206106870229,-0.9770992366412213,-0.0390625,-0.13818359375,-0.5986328125,1.7204
1.5267175572519085,2.366412213740458,-1.0229007633587786,-0.040283203125,-0.13623046875,-0.59716796875,1.7221
1.633587786259542,2.4122137404580153,-1.0534351145038168,-0.038330078125,-0.130126953125,-0.595703125,1.7238
1.4809160305343512,2.427480916030534,-0.916030534351145,-0.042236328125,-0.13525390625,-0.593505859375,1.7254999999999998
1.3129770992366412,2.4427480916030535,-0.8702290076335878,-0.04248046875,-0.1376953125,-0.6015625,1.7271999999999998
1.083969465648855,2.5801526717557253,-0.8244274809160306,-0.0361328125,-0.134765625,-0.6025390625,1.7288999999999999
1.1145038167938932,2.6412213740458017,-0.8702290076335878,-0.0400390625,-0.138427734375,-0.605224609375,1.7306
1.1297709923664123,2.7480916030534353,-0.7480916030534351,-0.0400390625,-0.139892578125,-0.594970703125,1.7323
1.1145038167938932,2.8244274809160306,-0.8396946564885496,-0.0380859375,-0.134765625,-0.601806640625,1.734
1.1145038167938932,2.7938931297709924,-0.7480916030534351,-0.03564453125,-0.131591796875,-0.6044921875,1.7356999999999998
1.0534351145038168,2.6564885496183206,-0.8396946564885496,-0.031005859375,-0.13330078125,-0.609375,1.7373999999999998
1.1755725190839694,2.6412213740458017,-0.916030534351145,-0.0390625,-0.1318359375,-0.609130859375,1.7390999999999999
0.916030534351145,2.732824427480916,-0.7633587786259542,-0.034423828125,-0.131591796875,-0.6015625,1.7408
0.8702290076335878,2.854961832061069,-0.732824427480916,-0.036865234375,-0.134033203125,-0.5986328125,1.7425
1.1145038167938932,2.732824427480916,-0.8549618320610687,-0.03466796875,-0.131591796875,-0.602783203125,1.7442
0.732824427480916,2.7480916030534353,-0.7786259541984732,-0.039306640625,-0.133544921875,-0.60205078125,1.7459
0.6106870229007634,2.900763358778626,-0.8244274809160306,-0.031982421875,-0.1318359375,-0.593994140625,1.7475999999999998
0.7480916030534351,2.9923664122137406,-0.732824427480916,-0.03662109375,-0.134033203125,-0.59375,1.7492999999999999
0.6412213740458015,2.946564885496183,-1.0381679389312977,-0.030517578125,-0.128662109375,-0.599609375,1.751
0.7633587786259542,3.0076335877862594,-0.9770992366412213,-0.033935546875,-0.1298828125,-0.593017578125,1.7527
0.8396946564885496,2.9160305343511452,-1.0229007633587786,-0.03564453125,-0.1357421875,-0.596923828125,1.7544
0.6870229007633588,2.7480916030534353,-0.9618320610687023,-0.037353515625,-0.131591796875,-0.604736328125,1.7561
0.916030534351145,2.717557251908397,-1.0076335877862594,-0.036865234375,-0.13037109375,-0.60205078125,1.7577999999999998
0.9618320610687023,2.8091603053435112,-1.0076335877862594,-0.031005859375,-0.130615234375,-0.59619140625,1.7594999999999998
1.0381679389312977,2.8091603053435112,-1.099236641221374,-0.035400390625,-0.131591796875,-0.5947265625,1.7611999999999999
1.1145038167938932,2.7022900763358777,-0.8854961832061069,-0.03173828125,-0.132080078125,-0.59423828125,1.7629
1.2366412213740459,2.5801526717557253,-1.0687022900763359,-0.033203125,-0.134521484375,-0.598388671875,1.7646
1.251908396946565,2.6259541984732824,-0.8244274809160306,-0.032958984375,-0.12841796875,-0.59326171875,1.7663
1.3740458015267176,2.4885496183206106,-0.7938931297709924,-0.03564453125,-0.125244140625,-0.586181640625,1.7679999999999998
1.5572519083969465,2.4885496183206106,-0.8091603053435115,-0.031005859375,-0.130615234375,-0.601318359375,1.7696999999999998
1.4809160305343512,2.6259541984732824,-0.6259541984732825,-0.03271484375,-0.135986328125,-0.5947265625,1.7713999999999999
1.5114503816793894,2.4580152671755724,-0.732824427480916,-0.038330078125,-0.13720703125,-0.600341796875,1.7731
1.6793893129770991,2.4885496183206106,-0.7480916030534351,-0.033203125,-0.1318359375,-0.603759765625,1.7748
1.633587786259542,2.4427480916030535,-0.6870229007633588,-0.03125,-0.13671875,-0.603515625,1.7765
1.4351145038167938,2.2595419847328246,-0.8244274809160306,-0.030517578125,-0.133544921875,-0.599609375,1.7782
1.4045801526717556,2.1374045801526718,-0.4580152671755725,-0.02392578125,-0.133056640625,-0.595703125,1.7798999999999998
1.4809160305343512,2.2442748091603053,-0.5343511450381679,-0.03369140625,-0.13330078125,-0.60400390625,1.7815999999999999
1.6793893129770991,2.2748091603053435,-0.44274809160305345,-0.033935546875,-0.1357421875,-0.6015625,1.7832999999999999
1.4961832061068703,2.045801526717557,-0.7175572519083969,-0.03125,-0.131591796875,-0.5947265625,1.785
1.465648854961832,1.9694656488549618,-0.549618320610687,-0.036376953125,-0.13232421875,-0.60498046875,1.7867
