gyrox1,gyroy1,gyroz1,accelx1,accely1,accelz1,Time
4.534351145038168,4.519083969465649,-2.549618320610687,-0.4423828125,0.00634765625,-0.256103515625,0.0
4.473282442748092,4.442748091603053,-2.595419847328244,-0.446533203125,0.00830078125,-0.264892578125,0.0017
4.67175572519084,4.458015267175573,-2.595419847328244,-0.444580078125,0.005859375,-0.267333984375,0.0034
4.412213740458015,4.549618320610687,-2.519083969465649,-0.443603515625,0.00341796875,-0.269775390625,0.0050999999999999995
4.580152671755725,4.595419847328245,-2.5801526717557253,-0.440673828125,0.003662109375,-0.26806640625,0.0068
4.641221374045801,4.549618320610687,-2.4732824427480917,-0.43994140625,-0.0009765625,-0.256591796875,0.008499999999999999
4.549618320610687,4.519083969465649,-2.5343511450381677,-0.447998046875,0.004150390625,-0.26123046875,0.010199999999999999
4.6106870229007635,4.488549618320611,-2.4885496183206106,-0.44384765625,0.007080078125,-0.26708984375,0.011899999999999999
4.534351145038168,4.412213740458015,-2.6259541984732824,-0.435302734375,0.0029296875,-0.264892578125,0.0136
4.732824427480916,4.6106870229007635,-2.595419847328244,-0.444580078125,0.00390625,-0.262451171875,0.0153
4.824427480916031,4.442748091603053,-2.4732824427480917,-0.438720703125,-0.001708984375,-0.261474609375,0.016999999999999998
4.519083969465649,4.488549618320611,-2.6412213740458017,-0.44189453125,0.001708984375,-0.254150390625,0.018699999999999998
4.458015267175573,4.488549618320611,-2.885496183206107,-0.437744140625,0.003662109375,-0.261962890625,0.020399999999999998
4.366412213740458,4.580152671755725,-2.717557251908397,-0.436279296875,0.004638671875,-0.25341796875,0.022099999999999998
4.488549618320611,4.641221374045801,-2.717557251908397,-0.44775390625,0.001220703125,-0.2607421875,0.023799999999999998
4.67175572519084,4.6106870229007635,-2.687022900763359,-0.445068359375,0.00341796875,-0.26416015625,0.0255
4.519083969465649,4.488549618320611,-2.8396946564885495,-0.445068359375,-0.004638671875,-0.271728515625,0.0272
4.5038167938931295,4.809160305343512,-2.763358778625954,-0.4443359375,-0.002685546875,-0.271240234375,0.0289
4.5038167938931295,4.702290076335878,-2.7938931297709924,-0.4443359375,-0.000244140625,-0.257080078125,0.0306
4.458015267175573,4.549618320610687,-2.7480916030534353,-0.440673828125,0.005126953125,-0.26123046875,0.032299999999999995
4.488549618320611,4.641221374045801,-2.7480916030534353,-0.4384765625,0.000732421875,-0.26171875,0.033999999999999996
4.427480916030534,4.778625954198473,-2.900763358778626,-0.4404296875,-0.00048828125,-0.26611328125,0.035699999999999996
4.473282442748092,4.6106870229007635,-2.7938931297709924,-0.44091796875,0.00244140625,-0.2626953125,0.037399999999999996
4.442748091603053,4.625954198473282,-2.7786259541984735,-0.44287109375,0.0048828125,-0.260498046875,0.039099999999999996
4.549618320610687,4.732824427480916,-3.0229007633587788,-0.44189453125,0.0048828125,-0.267822265625,0.040799999999999996
4.427480916030534,4.687022900763359,-2.885496183206107,-0.441650390625,0.003662109375,-0.265625,0.042499999999999996
4.458015267175573,4.748091603053435,-3.099236641221374,-0.4423828125,0.00390625,-0.248046875,0.044199999999999996
4.33587786259542,4.854961832061068,-3.053435114503817,-0.439697265625,0.003173828125,-0.260498046875,0.045899999999999996
4.442748091603053,4.564885496183206,-2.8702290076335877,-0.444091796875,0.00244140625,-0.25927734375,0.047599999999999996
4.366412213740458,4.763358778625954,-2.9618320610687023,-0.44091796875,-0.003173828125,-0.267333984375,0.0493
4.33587786259542,4.625954198473282,-3.1297709923664123,-0.439208984375,-0.003662109375,-0.25830078125,0.051
4.396946564885496,4.580152671755725,-3.068702290076336,-0.444091796875,-0.001220703125,-0.260009765625,0.0527
4.564885496183206,4.519083969465649,-3.1603053435114505,-0.438720703125,-0.005859375,-0.264404296875,0.0544
4.290076335877862,4.519083969465649,-3.1908396946564888,-0.444580078125,0.00390625,-0.263671875,0.0561
4.320610687022901,4.885496183206107,-3.0229007633587788,-0.442626953125,0.0,-0.2666015625,0.0578
4.5038167938931295,4.854961832061068,-3.236641221374046,-0.4462890625,0.000732421875,-0.265625,0.0595
4.427480916030534,4.900763358778626,-3.236641221374046,-0.443603515625,0.00634765625,-0.258056640625,0.0612
4.427480916030534,5.022900763358779,-3.1297709923664123,-0.44287109375,0.0,-0.265869140625,0.0629
4.519083969465649,5.038167938931298,-3.3587786259541983,-0.44189453125,0.004150390625,-0.268310546875,0.06459999999999999
4.412213740458015,4.885496183206107,-3.1297709923664123,-0.44482421875,0.0,-0.260986328125,0.0663
4.549618320610687,4.977099236641221,-3.1908396946564888,-0.445068359375,-0.004150390625,-0.255859375,0.06799999999999999
4.564885496183206,4.961832061068702,-3.2519083969465647,-0.43994140625,0.001220703125,-0.2587890625,0.0697
4.5038167938931295,4.916030534351145,-3.2519083969465647,-0.438720703125,0.0,-0.27001953125,0.07139999999999999
4.656488549618321,4.916030534351145,-3.1297709923664123,-0.443115234375,0.005126953125,-0.266845703125,0.0731
4.6106870229007635,4.961832061068702,-3.267175572519084,-0.439453125,0.003662109375,-0.26025390625,0.07479999999999999
4.748091603053435,4.809160305343512,-3.068702290076336,-0.435302734375,-0.001708984375,-0.2705078125,0.0765
4.625954198473282,4.931297709923665,-3.1755725190839694,-0.4384765625,-0.001953125,-0.262939453125,0.07819999999999999
4.534351145038168,4.824427480916031,-3.2061068702290076,-0.439208984375,-0.00390625,-0.25830078125,0.0799
4.687022900763359,4.824427480916031,-3.0839694656488548,-0.4423828125,-0.00048828125,-0.265625,0.08159999999999999
4.870229007633588,4.870229007633588,-2.9770992366412212,-0.4375,0.004638671875,-0.26416015625,0.0833
4.854961832061068,4.977099236641221,-3.404580152671756,-0.434814453125,0.00390625,-0.268310546875,0.08499999999999999
4.625954198473282,4.9465648854961835,-3.1603053435114505,-0.441650390625,0.002197265625,-0.2626953125,0.0867
4.778625954198473,4.870229007633588,-3.267175572519084,-0.441650390625,0.00341796875,-0.26806640625,0.08839999999999999
4.580152671755725,4.824427480916031,-3.0076335877862594,-0.439208984375,0.00634765625,-0.274658203125,0.0901
4.854961832061068,4.778625954198473,-2.8702290076335877,-0.443115234375,-0.001708984375,-0.26806640625,0.09179999999999999
4.8396946564885495,5.038167938931298,-2.7938931297709924,-0.4404296875,0.0029296875,-0.2724609375,0.0935
4.916030534351145,5.190839694656488,-2.8396946564885495,-0.44140625,-0.0009765625,-0.2607421875,0.09519999999999999
4.6106870229007635,5.022900763358779,-2.8396946564885495,-0.440185546875,0.004150390625,-0.265625,0.0969
4.961832061068702,4.99236641221374,-3.0229007633587788,-0.43603515625,-0.00048828125,-0.2626953125,0.0986
5.022900763358779,5.0534351145038165,-2.732824427480916,-0.441162109375,0.00146484375,-0.26708984375,0.1003
4.9465648854961835,5.175572519083969,-2.717557251908397,-0.443115234375,0.0,-0.266357421875,0.102
4.809160305343512,5.083969465648855,-2.7938931297709924,-0.440185546875,-0.005615234375,-0.263916015625,0.1037
5.0534351145038165,5.206106870229007,-2.8702290076335877,-0.44140625,0.001708984375,-0.260498046875,0.1054
4.732824427480916,5.129770992366412,-2.564885496183206,-0.44482421875,0.00439453125,-0.268310546875,0.1071
4.900763358778626,5.190839694656488,-2.8091603053435112,-0.43994140625,0.00244140625,-0.2626953125,0.1088
4.977099236641221,5.145038167938932,-2.519083969465649,-0.4404296875,-0.001220703125,-0.26513671875,0.11049999999999999
4.916030534351145,5.190839694656488,-2.519083969465649,-0.4375,-0.00146484375,-0.2626953125,0.1122
5.068702290076335,4.977099236641221,-2.4732824427480917,-0.434326171875,-0.000244140625,-0.261474609375,0.11389999999999999
4.885496183206107,5.1603053435114505,-2.595419847328244,-0.440185546875,0.00048828125,-0.270263671875,0.1156
5.022900763358779,5.236641221374046,-2.3206106870229006,-0.4384765625,0.001220703125,-0.263671875,0.11729999999999999
5.099236641221374,5.175572519083969,-2.4427480916030535,-0.431640625,-0.00146484375,-0.278076171875,0.119
5.114503816793893,5.099236641221374,-2.183206106870229,-0.4375,-0.003173828125,-0.267578125,0.12069999999999999
4.931297709923665,5.099236641221374,-2.50381679389313,-0.441650390625,0.0,-0.262939453125,0.1224
5.00763358778626,5.038167938931298,-2.3969465648854964,-0.439453125,0.0,-0.25927734375,0.12409999999999999
5.083969465648855,5.312977099236641,-2.3206106870229006,-0.44677734375,-0.0029296875,-0.262451171875,0.1258
5.175572519083969,5.175572519083969,-2.2442748091603053,-0.440185546875,0.000244140625,-0.2626953125,0.1275
5.251908396946565,5.068702290076335,-2.183206106870229,-0.444580078125,-0.002685546875,-0.2646484375,0.12919999999999998
5.114503816793893,5.190839694656488,-2.045801526717557,-0.439208984375,-0.004150390625,-0.265869140625,0.1309
5.1603053435114505,5.267175572519084,-2.16793893129771,-0.441650390625,0.005615234375,-0.266845703125,0.1326
5.038167938931298,5.145038167938932,-1.9236641221374047,-0.4384765625,0.00244140625,-0.269775390625,0.1343
4.99236641221374,5.0534351145038165,-2.2748091603053435,-0.442626953125,0.001220703125,-0.25927734375,0.13599999999999998
5.114503816793893,5.1603053435114505,-2.015267175572519,-0.441650390625,-0.001220703125,-0.268798828125,0.1377
5.190839694656488,5.1603053435114505,-2.2900763358778624,-0.44091796875,-0.001708984375,-0.266357421875,0.1394
5.083969465648855,4.977099236641221,-2.1068702290076335,-0.441650390625,-0.002197265625,-0.267333984375,0.1411
4.977099236641221,5.236641221374046,-2.0610687022900764,-0.4365234375,-0.004638671875,-0.260498046875,0.14279999999999998
5.00763358778626,5.190839694656488,-2.0763358778625953,-0.4404296875,-0.00048828125,-0.26513671875,0.1445
5.038167938931298,5.083969465648855,-2.0763358778625953,-0.4384765625,-0.00341796875,-0.2685546875,0.1462
5.00763358778626,5.114503816793893,-1.9236641221374047,-0.439453125,0.002685546875,-0.269775390625,0.1479
4.9465648854961835,5.068702290076335,-2.0610687022900764,-0.43798828125,-0.004150390625,-0.261474609375,0.14959999999999998
4.8396946564885495,4.885496183206107,-2.045801526717557,-0.43994140625,-0.001220703125,-0.267822265625,0.1513
4.977099236641221,4.977099236641221,-1.984732824427481,-0.439208984375,-0.005859375,-0.2646484375,0.153
4.793893129770993,4.748091603053435,-2.1526717557251906,-0.436767578125,-0.007568359375,-0.254638671875,0.1547
4.778625954198473,4.824427480916031,-2.3206106870229006,-0.436767578125,-0.00244140625,-0.266845703125,0.15639999999999998
4.702290076335878,4.961832061068702,-1.8778625954198473,-0.4365234375,0.000244140625,-0.26611328125,0.1581
4.748091603053435,4.793893129770993,-1.984732824427481,-0.441650390625,0.0,-0.273193359375,0.1598
4.763358778625954,4.99236641221374,-1.9541984732824427,-0.435546875,-0.00048828125,-0.27392578125,0.1615
4.732824427480916,4.5038167938931295,-2.1526717557251906,-0.439453125,0.0,-0.27685546875,0.16319999999999998
4.687022900763359,4.412213740458015,-1.786259541984733,-0.438232421875,-0.002197265625,-0.2666015625,0.1649
4.732824427480916,4.656488549618321,-2.198473282442748,-0.438720703125,-0.00390625,-0.2666015625,0.1666
4.6106870229007635,4.641221374045801,-1.984732824427481,-0.435302734375,-0.00341796875,-0.2685546875,0.16829999999999998
4.641221374045801,4.6106870229007635,-2.183206106870229,-0.4365234375,-0.004150390625,-0.263671875,0.16999999999999998
4.427480916030534,4.366412213740458,-2.015267175572519,-0.437744140625,-0.000732421875,-0.2626953125,0.1717
4.473282442748092,4.1679389312977095,-2.122137404580153,-0.43603515625,0.001220703125,-0.26123046875,0.1734
4.244274809160306,4.396946564885496,-2.122137404580153,-0.43310546875,-0.00390625,-0.267333984375,0.17509999999999998
4.305343511450381,4.259541984732825,-2.2595419847328246,-0.43212890625,-0.001708984375,-0.260009765625,0.17679999999999998
4.3816793893129775,4.0,-1.9236641221374047,-0.43603515625,-0.001708984375,-0.261962890625,0.1785
4.198473282442748,4.0458015267175576,-2.0763358778625953,-0.439208984375,0.0,-0.268310546875,0.1802
4.152671755725191,4.0458015267175576,-2.015267175572519,-0.438232421875,-0.00390625,-0.2578125,0.18189999999999998
4.137404580152672,3.984732824427481,-2.122137404580153,-0.4345703125,-0.001708984375,-0.259765625,0.18359999999999999
4.0458015267175576,3.618320610687023,-2.1068702290076335,-0.432861328125,-0.000732421875,-0.259521484375,0.1853
3.9389312977099236,3.8473282442748094,-2.0763358778625953,-0.44287109375,-0.00439453125,-0.26953125,0.187
3.9236641221374047,3.5572519083969465,-2.1068702290076335,-0.43505859375,-0.003173828125,-0.27734375,0.18869999999999998
4.1679389312977095,3.7099236641221376,-2.1526717557251906,-0.432373046875,0.001708984375,-0.26416015625,0.19039999999999999
3.9389312977099236,3.572519083969466,-2.16793893129771,-0.43701171875,0.000244140625,-0.26708984375,0.1921
3.9236641221374047,3.49618320610687,-2.3969465648854964,-0.43798828125,-0.001953125,-0.269775390625,0.1938
3.6946564885496183,3.5572519083969465,-2.2442748091603053,-0.43896484375,-0.002685546875,-0.2724609375,0.19549999999999998
3.801526717557252,3.3587786259541983,-2.2442748091603053,-0.435791015625,-0.006103515625,-0.271728515625,0.1972
3.8931297709923665,3.480916030534351,-2.2290076335877864,-0.43994140625,-0.00439453125,-0.271728515625,0.1989
3.6030534351145036,3.4656488549618323,-2.2748091603053435,-0.43896484375,-0.003662109375,-0.268798828125,0.2006
3.618320610687023,3.450381679389313,-2.2900763358778624,-0.4365234375,-0.005126953125,-0.26611328125,0.20229999999999998
3.572519083969466,3.3587786259541983,-2.427480916030534,-0.4345703125,0.000244140625,-0.25634765625,0.204
3.312977099236641,3.3435114503816794,-2.16793893129771,-0.435546875,-0.00537109375,-0.26953125,0.2057
3.5419847328244276,3.480916030534351,-2.4427480916030535,-0.433349609375,-0.00390625,-0.2734375,0.2074
3.480916030534351,3.4656488549618323,-2.549618320610687,-0.437255859375,-0.00048828125,-0.266357421875,0.20909999999999998
3.3893129770992365,3.3282442748091605,-2.2595419847328246,-0.438232421875,0.0009765625,-0.27099609375,0.2108
3.3587786259541983,3.2977099236641223,-2.3206106870229006,-0.439697265625,-0.002685546875,-0.26806640625,0.2125
3.3282442748091605,3.3282442748091605,-2.4580152671755724,-0.436767578125,-0.002197265625,-0.2744140625,0.2142
3.145038167938931,3.236641221374046,-2.3206106870229006,-0.434814453125,-0.00439453125,-0.260986328125,0.21589999999999998
3.236641221374046,3.312977099236641,-2.519083969465649,-0.4423828125,-0.009765625,-0.27001953125,0.2176
3.1908396946564888,3.267175572519084,-2.33587786259542,-0.4375,-0.003662109375,-0.271240234375,0.2193
2.854961832061069,3.3435114503816794,-2.427480916030534,-0.435791015625,-0.005615234375,-0.263427734375,0.22099999999999997
2.9923664122137406,3.2977099236641223,-2.3969465648854964,-0.443115234375,-0.00634765625,-0.258056640625,0.22269999999999998
3.099236641221374,3.404580152671756,-2.33587786259542,-0.44091796875,-0.007568359375,-0.267578125,0.2244
3.0381679389312977,3.282442748091603,-2.2900763358778624,-0.4365234375,-0.001953125,-0.269775390625,0.2261
2.900763358778626,3.312977099236641,-2.366412213740458,-0.441650390625,-0.004150390625,-0.269775390625,0.22779999999999997
2.8091603053435112,3.2519083969465647,-2.3206106870229006,-0.44091796875,-0.0068359375,-0.266357421875,0.22949999999999998
2.687022900763359,3.4198473282442747,-2.4427480916030535,-0.439208984375,-0.006103515625,-0.269287109375,0.2312
2.519083969465649,3.3740458015267176,-2.366412213740458,-0.438232421875,0.0,-0.27197265625,0.2329
2.687022900763359,3.5419847328244276,-2.4885496183206106,-0.43994140625,-0.0068359375,-0.270751953125,0.23459999999999998
2.717557251908397,3.5419847328244276,-2.2900763358778624,-0.4365234375,-0.002197265625,-0.270263671875,0.23629999999999998
2.6564885496183206,3.572519083969466,-2.3206106870229006,-0.43701171875,-0.007568359375,-0.267822265625,0.238
2.564885496183206,3.5419847328244276,-2.1526717557251906,-0.440185546875,-0.00634765625,-0.267333984375,0.2397
2.564885496183206,3.49618320610687,-2.33587786259542,-0.436279296875,-0.00732421875,-0.265380859375,0.24139999999999998
2.595419847328244,3.480916030534351,-2.3206106870229006,-0.43701171875,-0.00439453125,-0.26025390625,0.24309999999999998
2.2900763358778624,3.3740458015267176,-2.0916030534351147,-0.443603515625,-0.003662109375,-0.265625,0.2448
2.3969465648854964,3.4198473282442747,-2.198473282442748,-0.44091796875,-0.0029296875,-0.270263671875,0.2465
2.549618320610687,3.2213740458015265,-2.2290076335877864,-0.435546875,-0.0078125,-0.262939453125,0.24819999999999998
2.366412213740458,3.2213740458015265,-2.2442748091603053,-0.433349609375,-0.00634765625,-0.27197265625,0.24989999999999998
2.2595419847328246,3.2519083969465647,-2.0,-0.438720703125,-0.00341796875,-0.26416015625,0.2516
2.366412213740458,3.099236641221374,-2.1374045801526718,-0.43701171875,-0.00146484375,-0.261474609375,0.25329999999999997
2.2595419847328246,3.282442748091603,-2.2290076335877864,-0.43798828125,-0.00439453125,-0.27099609375,0.255
2.1068702290076335,3.114503816793893,-2.1374045801526718,-0.438232421875,-0.0009765625,-0.265380859375,0.2567
2.351145038167939,3.2061068702290076,-2.1526717557251906,-0.44189453125,-0.00390625,-0.26708984375,0.25839999999999996
2.381679389312977,3.053435114503817,-2.122137404580153,-0.441650390625,-0.0009765625,-0.267822265625,0.2601
2.122137404580153,3.053435114503817,-2.0763358778625953,-0.4404296875,0.0,-0.275634765625,0.2618
2.1526717557251906,3.1297709923664123,-2.030534351145038,-0.438720703125,0.00439453125,-0.28173828125,0.2635
2.3206106870229006,3.099236641221374,-2.16793893129771,-0.439697265625,0.000732421875,-0.266845703125,0.2652
2.0763358778625953,3.145038167938931,-1.9236641221374047,-0.43896484375,-0.004150390625,-0.26953125,0.26689999999999997
2.015267175572519,3.0076335877862594,-1.816793893129771,-0.4384765625,-0.00048828125,-0.263671875,0.2686
2.183206106870229,3.0229007633587788,-1.9389312977099236,-0.442626953125,-0.0009765625,-0.264404296875,0.2703
2.16793893129771,2.9923664122137406,-2.0,-0.4423828125,-0.003173828125,-0.263671875,0.27199999999999996
2.045801526717557,3.1755725190839694,-2.0610687022900764,-0.4365234375,-0.00341796875,-0.271728515625,0.2737
1.9541984732824427,2.946564885496183,-2.0763358778625953,-0.4365234375,0.001708984375,-0.268310546875,0.2754
2.213740458015267,2.9618320610687023,-2.015267175572519,-0.4404296875,0.003173828125,-0.26904296875,0.27709999999999996
2.1374045801526718,2.9618320610687023,-2.0610687022900764,-0.4462890625,-0.00341796875,-0.27001953125,0.2788
2.16793893129771,3.0839694656488548,-1.8778625954198473,-0.441162109375,-0.004150390625,-0.267822265625,0.28049999999999997
2.122137404580153,3.145038167938931,-2.045801526717557,-0.439697265625,-0.004638671875,-0.272216796875,0.2822
2.045801526717557,3.0381679389312977,-2.015267175572519,-0.439453125,0.001220703125,-0.269287109375,0.2839
2.4427480916030535,3.068702290076336,-1.9541984732824427,-0.439697265625,-0.0009765625,-0.27001953125,0.28559999999999997
2.2595419847328246,2.9923664122137406,-2.0,-0.440185546875,-0.0029296875,-0.271728515625,0.2873
2.2442748091603053,2.9160305343511452,-2.183206106870229,-0.439453125,-0.003173828125,-0.2705078125,0.289
2.2748091603053435,2.946564885496183,-2.122137404580153,-0.439208984375,-0.00048828125,-0.262451171875,0.29069999999999996
2.198473282442748,2.900763358778626,-2.0610687022900764,-0.434326171875,0.00048828125,-0.26416015625,0.2924
2.198473282442748,2.7938931297709924,-2.213740458015267,-0.43798828125,-0.00146484375,-0.2646484375,0.2941
2.4122137404580153,2.732824427480916,-2.2290076335877864,-0.438232421875,0.001220703125,-0.271484375,0.2958
2.3053435114503817,2.6412213740458017,-2.0763358778625953,-0.436767578125,-0.001953125,-0.270751953125,0.2975
2.3969465648854964,2.6259541984732824,-2.045801526717557,-0.43994140625,0.0,-0.267333984375,0.29919999999999997
2.381679389312977,2.5343511450381677,-2.213740458015267,-0.440185546875,-0.000732421875,-0.2705078125,0.3009
2.4427480916030535,2.381679389312977,-2.122137404580153,-0.440673828125,-0.005615234375,-0.270263671875,0.3026
2.549618320610687,2.4122137404580153,-2.0916030534351147,-0.439697265625,-0.002685546875,-0.27197265625,0.30429999999999996
2.366412213740458,2.2442748091603053,-2.015267175572519,-0.441650390625,0.00439453125,-0.269775390625,0.306
2.213740458015267,2.198473282442748,-2.030534351145038,-0.44091796875,-0.006103515625,-0.279541015625,0.3077
2.3969465648854964,2.213740458015267,-1.8931297709923665,-0.44189453125,-0.00634765625,-0.270263671875,0.3094
2.549618320610687,2.2900763358778624,-2.015267175572519,-0.43994140625,0.000244140625,-0.265869140625,0.3111
2.50381679389313,2.015267175572519,-1.9389312977099236,-0.444580078125,0.0,-0.2724609375,0.31279999999999997
2.351145038167939,1.9694656488549618,-2.213740458015267,-0.43701171875,-0.003173828125,-0.265869140625,0.3145
2.3969465648854964,2.183206106870229,-2.0610687022900764,-0.4375,-0.0009765625,-0.263916015625,0.3162
2.427480916030534,2.0610687022900764,-1.9236641221374047,-0.436767578125,-0.004150390625,-0.260498046875,0.31789999999999996
2.4580152671755724,1.9541984732824427,-1.9541984732824427,-0.43603515625,-0.007080078125,-0.266357421875,0.3196
2.2290076335877864,1.8625954198473282,-1.9236641221374047,-0.43603515625,-0.00390625,-0.265625,0.3213
2.198473282442748,1.9541984732824427,-1.8931297709923665,-0.4384765625,-0.00341796875,-0.27099609375,0.323
2.381679389312977,1.8625954198473282,-1.9083969465648856,-0.43896484375,-0.003173828125,-0.270263671875,0.3247
2.351145038167939,1.8625954198473282,-1.6946564885496183,-0.443359375,0.000244140625,-0.277099609375,0.32639999999999997
2.2290076335877864,1.7557251908396947,-1.5725190839694656,-0.438720703125,-0.001220703125,-0.268798828125,0.3281
2.0610687022900764,1.6946564885496183,-1.6946564885496183,-0.439208984375,-0.007080078125,-0.2734375,0.3298
2.3969465648854964,1.6946564885496183,-1.8931297709923665,-0.439697265625,-0.00634765625,-0.277587890625,0.33149999999999996
2.33587786259542,1.7251908396946565,-1.6641221374045803,-0.43701171875,-0.006591796875,-0.266357421875,0.3332
2.183206106870229,1.465648854961832,-1.6488549618320612,-0.43994140625,0.00048828125,-0.27294921875,0.3349
1.9694656488549618,1.5877862595419847,-1.633587786259542,-0.43603515625,-0.00146484375,-0.27197265625,0.33659999999999995
2.2900763358778624,1.4809160305343512,-1.7709923664122138,-0.435791015625,-0.0009765625,-0.265380859375,0.3383
2.3053435114503817,1.5877862595419847,-1.633587786259542,-0.43310546875,0.002197265625,-0.26904296875,0.33999999999999997
2.3053435114503817,1.450381679389313,-1.6793893129770991,-0.43701171875,-0.0029296875,-0.2685546875,0.3417
2.381679389312977,1.4045801526717556,-1.4809160305343512,-0.43115234375,-0.001953125,-0.269775390625,0.3434
2.0,1.3587786259541985,-1.7404580152671756,-0.4365234375,-0.000732421875,-0.271484375,0.34509999999999996
2.1526717557251906,1.3740458015267176,-1.6030534351145038,-0.438720703125,0.001220703125,-0.267822265625,0.3468
2.2290076335877864,1.3587786259541985,-1.5877862595419847,-0.43359375,-0.001953125,-0.275390625,0.3485
2.0763358778625953,1.3129770992366412,-1.7557251908396947,-0.439697265625,0.000732421875,-0.264892578125,0.35019999999999996
2.351145038167939,1.2671755725190839,-1.786259541984733,-0.436767578125,-0.00537109375,-0.260009765625,0.3519
2.2748091603053435,1.297709923664122,-1.7251908396946565,-0.437744140625,-0.0048828125,-0.259033203125,0.35359999999999997
2.2748091603053435,1.282442748091603,-1.5419847328244274,-0.438232421875,-0.005126953125,-0.2685546875,0.3553
2.33587786259542,1.0687022900763359,-1.6488549618320612,-0.438232421875,-0.000732421875,-0.270751953125,0.357
2.198473282442748,1.1145038167938932,-1.6793893129770991,-0.436767578125,-0.001220703125,-0.26220703125,0.35869999999999996
2.564885496183206,1.083969465648855,-1.8015267175572518,-0.442626953125,-0.002197265625,-0.265380859375,0.3604
2.366412213740458,1.0076335877862594,-1.816793893129771,-0.437255859375,0.000732421875,-0.27294921875,0.3621
2.0916030534351147,1.0229007633587786,-1.7557251908396947,-0.436767578125,-0.00048828125,-0.2646484375,0.36379999999999996
2.3206106870229006,1.083969465648855,-1.786259541984733,-0.444580078125,-0.002685546875,-0.26416015625,0.3655
2.2748091603053435,1.0687022900763359,-1.7251908396946565,-0.435302734375,-0.00537109375,-0.265625,0.36719999999999997
2.33587786259542,1.099236641221374,-1.816793893129771,-0.436767578125,-0.003173828125,-0.2724609375,0.3689
2.198473282442748,0.9007633587786259,-1.5877862595419847,-0.4384765625,-0.004638671875,-0.267822265625,0.3706
2.183206106870229,0.9465648854961832,-1.7557251908396947,-0.438720703125,-0.003173828125,-0.267578125,0.37229999999999996
2.183206106870229,1.1297709923664123,-1.7099236641221374,-0.437744140625,-0.004150390625,-0.26318359375,0.374
2.16793893129771,0.9312977099236641,-1.8015267175572518,-0.440185546875,-0.0048828125,-0.266357421875,0.3757
2.198473282442748,0.8396946564885496,-1.7099236641221374,-0.439453125,-0.005126953125,-0.262939453125,0.37739999999999996
2.16793893129771,0.8549618320610687,-1.8015267175572518,-0.440185546875,-0.002685546875,-0.257568359375,0.3791
2.198473282442748,0.916030534351145,-1.7251908396946565,-0.43896484375,-0.003662109375,-0.262939453125,0.38079999999999997
2.183206106870229,0.7022900763358778,-1.7709923664122138,-0.439697265625,-0.004150390625,-0.272705078125,0.38249999999999995
2.198473282442748,0.7480916030534351,-1.7404580152671756,-0.4384765625,0.001708984375,-0.257568359375,0.3842
2.1374045801526718,0.8854961832061069,-1.83206106870229,-0.43359375,-0.005126953125,-0.271484375,0.38589999999999997
1.9694656488549618,0.5801526717557252,-1.6793893129770991,-0.437255859375,0.00048828125,-0.26904296875,0.3876
1.8931297709923665,0.8396946564885496,-1.633587786259542,-0.438720703125,-0.00830078125,-0.266845703125,0.3893
2.1374045801526718,0.6564885496183206,-1.7251908396946565,-0.44287109375,-0.00390625,-0.27099609375,0.39099999999999996
2.1526717557251906,0.6717557251908397,-1.5572519083969465,-0.443603515625,-0.004150390625,-0.2685546875,0.3927
2.122137404580153,0.7022900763358778,-1.3740458015267176,-0.44189453125,-0.00390625,-0.270751953125,0.3944
1.8015267175572518,0.6870229007633588,-1.6488549618320612,-0.442138671875,-0.003173828125,-0.26171875,0.39609999999999995
1.816793893129771,0.8244274809160306,-1.3893129770992367,-0.437744140625,-0.00927734375,-0.265869140625,0.3978
1.9541984732824427,0.5801526717557252,-1.4045801526717556,-0.435546875,-0.003662109375,-0.267333984375,0.39949999999999997
1.9083969465648856,0.6564885496183206,-1.1755725190839694,-0.441650390625,-0.00634765625,-0.2626953125,0.4012
1.8625954198473282,0.6106870229007634,-1.2671755725190839,-0.4375,-0.0048828125,-0.2705078125,0.4029
1.7709923664122138,0.732824427480916,-1.297709923664122,-0.442138671875,0.00048828125,-0.26513671875,0.40459999999999996
1.618320610687023,0.6564885496183206,-1.3893129770992367,-0.441650390625,-0.007080078125,-0.266357421875,0.4063
1.7557251908396947,0.549618320610687,-1.0381679389312977,-0.44189453125,-0.0029296875,-0.2626953125,0.408
1.83206106870229,0.6717557251908397,-1.2671755725190839,-0.43603515625,-0.007568359375,-0.270263671875,0.40969999999999995
1.5725190839694656,0.6259541984732825,-1.1450381679389312,-0.436767578125,-0.005615234375,-0.269775390625,0.4114
1.5572519083969465,0.5648854961832062,-1.3282442748091603,-0.44189453125,-0.0009765625,-0.26025390625,0.41309999999999997
1.450381679389313,0.5343511450381679,-1.0229007633587786,-0.44091796875,0.0,-0.26953125,0.4148
1.5267175572519085,1.0076335877862594,-1.0076335877862594,-0.445556640625,-0.00048828125,-0.262939453125,0.4165
1.618320610687023,0.7022900763358778,-0.916030534351145,-0.4365234375,-0.007568359375,-0.27099609375,0.41819999999999996
1.4045801526717556,0.7175572519083969,-1.0076335877862594,-0.43701171875,-0.007568359375,-0.274658203125,0.4199
1.2213740458015268,0.8549618320610687,-0.9007633587786259,-0.44091796875,-0.004150390625,-0.27001953125,0.4216
1.4351145038167938,0.732824427480916,-0.8244274809160306,-0.436767578125,-0.006103515625,-0.27392578125,0.42329999999999995
1.1603053435114503,0.7786259541984732,-0.9923664122137404,-0.44091796875,-0.004150390625,-0.26220703125,0.425
1.251908396946565,0.7633587786259542,-0.9007633587786259,-0.44580078125,-0.0029296875,-0.27099609375,0.42669999999999997
1.297709923664122,0.7175572519083969,-0.6870229007633588,-0.441650390625,-0.00146484375,-0.272216796875,0.4284
1.3282442748091603,0.8091603053435115,-0.7175572519083969,-0.4384765625,0.0,-0.2734375,0.4301
0.9923664122137404,0.7175572519083969,-0.7175572519083969,-0.443603515625,-0.00048828125,-0.268798828125,0.43179999999999996
1.099236641221374,0.7786259541984732,-0.7786259541984732,-0.44287109375,-0.00146484375,-0.276611328125,0.4335
1.0076335877862594,0.8854961832061069,-0.4732824427480916,-0.445556640625,-0.001708984375,-0.26904296875,0.4352
1.0381679389312977,0.7633587786259542,-0.6717557251908397,-0.442626953125,-0.001220703125,-0.2734375,0.43689999999999996
0.916030534351145,0.8702290076335878,-0.5343511450381679,-0.4375,-0.006591796875,-0.2705078125,0.4386
0.8702290076335878,0.8549618320610687,-0.6412213740458015,-0.4423828125,-0.003662109375,-0.2724609375,0.44029999999999997
0.9618320610687023,0.8854961832061069,-0.4122137404580153,-0.443115234375,-0.001708984375,-0.263427734375,0.44199999999999995
0.8244274809160306,0.8549618320610687,-0.6412213740458015,-0.4365234375,-0.00244140625,-0.272216796875,0.4437
0.8549618320610687,0.8396946564885496,-0.4732824427480916,-0.438720703125,-0.00732421875,-0.267578125,0.44539999999999996
1.0687022900763359,0.8702290076335878,-0.549618320610687,-0.443115234375,-0.004150390625,-0.275146484375,0.4471
0.8854961832061069,0.8396946564885496,-0.42748091603053434,-0.443603515625,-0.005859375,-0.259521484375,0.4488
1.0534351145038168,0.9007633587786259,-0.44274809160305345,-0.43994140625,-0.0087890625,-0.27001953125,0.45049999999999996
0.6870229007633588,0.8549618320610687,-0.4732824427480916,-0.439208984375,-0.001220703125,-0.27392578125,0.4522
0.916030534351145,0.7786259541984732,-0.5954198473282443,-0.4453125,-0.003662109375,-0.269775390625,0.45389999999999997
0.8854961832061069,0.7633587786259542,-0.3969465648854962,-0.44091796875,-0.003173828125,-0.2666015625,0.45559999999999995
0.7175572519083969,0.9465648854961832,-0.3816793893129771,-0.444091796875,-0.004150390625,-0.26806640625,0.4573
0.7938931297709924,0.8396946564885496,-0.21374045801526717,-0.44287109375,-0.00439453125,-0.266845703125,0.45899999999999996
0.916030534351145,0.7633587786259542,-0.5343511450381679,-0.43994140625,0.003662109375,-0.275146484375,0.4607
0.8244274809160306,0.8244274809160306,-0.33587786259541985,-0.447265625,-0.0048828125,-0.2646484375,0.4624
0.6259541984732825,0.8702290076335878,-0.3816793893129771,-0.443359375,-0.0009765625,-0.27099609375,0.46409999999999996
0.5190839694656488,0.7633587786259542,-0.15267175572519084,-0.443115234375,-0.006591796875,-0.26123046875,0.4658
0.5954198473282443,0.7022900763358778,-0.5190839694656488,-0.4404296875,-0.002685546875,-0.260986328125,0.46749999999999997
0.6106870229007634,0.6870229007633588,-0.3816793893129771,-0.439697265625,0.0,-0.272216796875,0.46919999999999995
0.9007633587786259,0.5954198473282443,-0.4732824427480916,-0.44140625,-0.0078125,-0.2734375,0.4709
0.7633587786259542,0.7633587786259542,-0.5190839694656488,-0.442138671875,-0.001708984375,-0.266357421875,0.47259999999999996
0.6106870229007634,0.7480916030534351,-0.33587786259541985,-0.44287109375,-0.002685546875,-0.2587890625,0.4743
0.6870229007633588,0.7633587786259542,-0.48854961832061067,-0.446044921875,0.002197265625,-0.261474609375,0.476
0.549618320610687,0.5954198473282443,-0.7480916030534351,-0.438720703125,-0.004150390625,-0.2734375,0.47769999999999996
0.4732824427480916,0.7022900763358778,-0.5648854961832062,-0.441162109375,-0.001953125,-0.26611328125,0.4794
0.44274809160305345,0.5343511450381679,-0.5954198473282443,-0.441162109375,0.004638671875,-0.27099609375,0.48109999999999997
0.5801526717557252,0.5648854961832062,-0.3969465648854962,-0.443115234375,-0.001220703125,-0.26220703125,0.48279999999999995
0.6717557251908397,0.6259541984732825,-0.42748091603053434,-0.4404296875,-0.002685546875,-0.269287109375,0.4845
0.366412213740458,0.6259541984732825,-0.4122137404580153,-0.44091796875,-0.006103515625,-0.26708984375,0.48619999999999997
0.44274809160305345,0.7938931297709924,-0.5343511450381679,-0.4453125,0.003662109375,-0.2705078125,0.4879
0.5801526717557252,0.5190839694656488,-0.5038167938931297,-0.437744140625,-0.0048828125,-0.264404296875,0.4896
0.32061068702290074,0.549618320610687,-0.549618320610687,-0.4375,0.003662109375,-0.2666015625,0.49129999999999996
0.3969465648854962,0.6412213740458015,-0.6106870229007634,-0.439208984375,0.001220703125,-0.274169921875,0.493
0.22900763358778625,0.5954198473282443,-0.4732824427480916,-0.437744140625,-0.00048828125,-0.268798828125,0.4947
0.5190839694656488,0.42748091603053434,-0.4580152671755725,-0.432373046875,-0.001220703125,-0.265380859375,0.49639999999999995
0.2748091603053435,0.24427480916030533,-0.5190839694656488,-0.439697265625,-0.00146484375,-0.267578125,0.4981
0.3816793893129771,0.2748091603053435,-0.5343511450381679,-0.439697265625,-0.002197265625,-0.264404296875,0.49979999999999997
0.32061068702290074,0.2595419847328244,-0.5801526717557252,-0.435791015625,-0.002197265625,-0.270751953125,0.5015
0.1984732824427481,0.4122137404580153,-0.366412213740458,-0.439453125,-0.00439453125,-0.27197265625,0.5032
0.3969465648854962,0.21374045801526717,-0.5801526717557252,-0.435302734375,-0.00048828125,-0.271728515625,0.5049
0.22900763358778625,0.12213740458015267,-0.44274809160305345,-0.4423828125,-0.000732421875,-0.26953125,0.5065999999999999
0.13740458015267176,0.015267175572519083,-0.4732824427480916,-0.447509765625,-0.00439453125,-0.269287109375,0.5083
0.22900763358778625,0.015267175572519083,-0.4580152671755725,-0.44189453125,-0.004150390625,-0.2783203125,0.51
0.10687022900763359,0.1984732824427481,-0.33587786259541985,-0.437744140625,0.0,-0.267333984375,0.5116999999999999
-0.10687022900763359,0.5038167938931297,-0.33587786259541985,-0.439453125,-0.005859375,-0.265869140625,0.5134
-0.15267175572519084,0.33587786259541985,-0.3053435114503817,-0.43994140625,0.00146484375,-0.26806640625,0.5151
-0.2595419847328244,0.1984732824427481,-0.183206106870229,-0.4404296875,0.0009765625,-0.26806640625,0.5167999999999999
-0.2595419847328244,0.42748091603053434,-0.2900763358778626,-0.443115234375,-0.002197265625,-0.268310546875,0.5185
-0.015267175572519083,0.2900763358778626,-0.2900763358778626,-0.444091796875,-0.005615234375,-0.264892578125,0.5202
-0.24427480916030533,0.3511450381679389,-0.33587786259541985,-0.437744140625,-0.002685546875,-0.2744140625,0.5218999999999999
-0.42748091603053434,0.3816793893129771,-0.1984732824427481,-0.4404296875,-0.0048828125,-0.26953125,0.5236
-0.44274809160305345,0.5648854961832062,-0.22900763358778625,-0.4384765625,-0.002685546875,-0.269775390625,0.5253
-0.33587786259541985,0.5343511450381679,-0.183206106870229,-0.44287109375,-0.0029296875,-0.2705078125,0.527
-0.32061068702290074,0.5954198473282443,-0.1984732824427481,-0.442138671875,0.000732421875,-0.2666015625,0.5287
-0.24427480916030533,0.7480916030534351,-0.2900763358778626,-0.441650390625,0.007080078125,-0.271728515625,0.5304
-0.3511450381679389,0.9007633587786259,-0.4580152671755725,-0.443603515625,0.00390625,-0.26513671875,0.5321
-0.48854961832061067,0.6717557251908397,-0.22900763358778625,-0.442626953125,0.001953125,-0.266357421875,0.5337999999999999
-0.4122137404580153,0.8244274809160306,-0.32061068702290074,-0.4384765625,0.002685546875,-0.273681640625,0.5355
-0.2748091603053435,0.9465648854961832,-0.4580152671755725,-0.434814453125,0.00390625,-0.271484375,0.5372
-0.24427480916030533,0.9312977099236641,-0.5954198473282443,-0.443115234375,0.0029296875,-0.264892578125,0.5388999999999999
-0.32061068702290074,0.8091603053435115,-0.48854961832061067,-0.4404296875,0.005859375,-0.260986328125,0.5406
0.0,0.8702290076335878,-0.5190839694656488,-0.435791015625,0.00537109375,-0.25439453125,0.5423
-0.24427480916030533,1.0076335877862594,-0.6259541984732825,-0.435791015625,0.000244140625,-0.2744140625,0.5439999999999999
-0.2595419847328244,1.083969465648855,-0.7633587786259542,-0.44140625,0.003173828125,-0.259521484375,0.5457
-0.2595419847328244,0.9923664122137404,-0.9007633587786259,-0.4443359375,0.001708984375,-0.26513671875,0.5474
-0.04580152671755725,1.0381679389312977,-0.6259541984732825,-0.445556640625,0.0068359375,-0.26611328125,0.5490999999999999
0.061068702290076333,0.9770992366412213,-0.8854961832061069,-0.4423828125,0.006103515625,-0.27587890625,0.5508
-0.015267175572519083,1.2366412213740459,-0.9007633587786259,-0.4375,0.01220703125,-0.269287109375,0.5525
0.22900763358778625,1.1603053435114503,-1.0229007633587786,-0.43994140625,0.009033203125,-0.27099609375,0.5541999999999999
0.15267175572519084,1.2213740458015268,-1.1297709923664123,-0.434814453125,0.006103515625,-0.27001953125,0.5559
0.0916030534351145,1.2671755725190839,-0.9007633587786259,-0.439208984375,0.00927734375,-0.2626953125,0.5576
0.15267175572519084,1.450381679389313,-1.1145038167938932,-0.44384765625,0.00390625,-0.269775390625,0.5593
0.3969465648854962,1.3893129770992367,-1.1755725190839694,-0.445068359375,0.00244140625,-0.27001953125,0.5609999999999999
0.3816793893129771,1.5419847328244274,-1.0381679389312977,-0.445556640625,0.00830078125,-0.27001953125,0.5627
0.2748091603053435,1.633587786259542,-0.7786259541984732,-0.4453125,0.0048828125,-0.266845703125,0.5644
0.13740458015267176,1.5419847328244274,-0.9465648854961832,-0.44140625,0.009521484375,-0.2705078125,0.5660999999999999
0.183206106870229,1.5267175572519085,-1.1145038167938932,-0.440185546875,0.00244140625,-0.2626953125,0.5678
0.33587786259541985,1.618320610687023,-0.9465648854961832,-0.441162109375,0.001708984375,-0.272216796875,0.5695
0.183206106870229,1.7709923664122138,-0.8396946564885496,-0.441162109375,0.00048828125,-0.266357421875,0.5711999999999999
0.21374045801526717,1.6030534351145038,-0.9007633587786259,-0.440673828125,0.004150390625,-0.265869140625,0.5729
0.5343511450381679,1.618320610687023,-0.9007633587786259,-0.440185546875,0.0048828125,-0.26513671875,0.5746
0.44274809160305345,1.7557251908396947,-0.9007633587786259,-0.438232421875,0.005615234375,-0.2626953125,0.5762999999999999
0.1984732824427481,1.6030534351145038,-0.8244274809160306,-0.436279296875,0.002685546875,-0.269287109375,0.578
0.3053435114503817,1.5572519083969465,-0.6412213740458015,-0.44384765625,0.00390625,-0.269287109375,0.5797
0.24427480916030533,1.6488549618320612,-0.8244274809160306,-0.4423828125,0.00341796875,-0.27783203125,0.5813999999999999
0.549618320610687,1.6641221374045803,-0.7175572519083969,-0.43505859375,0.005615234375,-0.2685546875,0.5831
0.4732824427480916,1.465648854961832,-0.6564885496183206,-0.435302734375,0.004150390625,-0.26708984375,0.5848
0.4122137404580153,1.4809160305343512,-0.4732824427480916,-0.43603515625,0.006591796875,-0.26513671875,0.5865
0.33587786259541985,1.5267175572519085,-0.6564885496183206,-0.4375,0.00244140625,-0.267333984375,0.5882
0.5190839694656488,1.3893129770992367,-0.7022900763358778,-0.435302734375,0.00146484375,-0.276123046875,0.5899
0.2900763358778626,1.2671755725190839,-0.7175572519083969,-0.439208984375,0.006591796875,-0.26953125,0.5916
0.3053435114503817,1.3282442748091603,-0.5648854961832062,-0.43896484375,0.0029296875,-0.272216796875,0.5932999999999999
0.2748091603053435,1.3893129770992367,-0.732824427480916,-0.440185546875,0.001953125,-0.2587890625,0.595
0.4732824427480916,1.3435114503816794,-0.6412213740458015,-0.438232421875,0.003662109375,-0.26953125,0.5967
0.2748091603053435,1.3435114503816794,-0.5343511450381679,-0.4365234375,0.0,-0.269287109375,0.5983999999999999
0.4732824427480916,1.2671755725190839,-0.4732824427480916,-0.437744140625,0.0048828125,-0.2685546875,0.6001
0.3969465648854962,1.2366412213740459,-0.5648854961832062,-0.4384765625,0.0078125,-0.259033203125,0.6018
0.5954198473282443,1.2061068702290076,-0.366412213740458,-0.439208984375,0.007568359375,-0.269287109375,0.6034999999999999
0.6870229007633588,1.1297709923664123,-0.3969465648854962,-0.43896484375,0.00341796875,-0.271240234375,0.6052
0.5343511450381679,1.099236641221374,-0.3969465648854962,-0.443115234375,0.002197265625,-0.267333984375,0.6069
0.4732824427480916,1.1297709923664123,-0.6412213740458015,-0.441162109375,0.00390625,-0.27001953125,0.6085999999999999
0.4122137404580153,1.0229007633587786,-0.4122137404580153,-0.4365234375,0.00732421875,-0.269287109375,0.6103
0.5190839694656488,1.0229007633587786,-0.4580152671755725,-0.43798828125,0.005126953125,-0.264892578125,0.612
0.6870229007633588,0.9923664122137404,-0.6106870229007634,-0.43994140625,0.0009765625,-0.27001953125,0.6136999999999999
0.6106870229007634,0.9923664122137404,-0.5190839694656488,-0.435302734375,0.00732421875,-0.2724609375,0.6154
0.7022900763358778,0.8396946564885496,-0.42748091603053434,-0.43603515625,0.00390625,-0.271240234375,0.6171
0.6259541984732825,0.7633587786259542,-0.8396946564885496,-0.43701171875,0.003173828125,-0.275390625,0.6188
0.5954198473282443,0.8244274809160306,-0.5038167938931297,-0.4384765625,0.005615234375,-0.27587890625,0.6204999999999999
0.7022900763358778,0.7786259541984732,-0.4732824427480916,-0.435791015625,0.00439453125,-0.269287109375,0.6222
0.5038167938931297,0.8396946564885496,-0.549618320610687,-0.444580078125,0.005859375,-0.27490234375,0.6239
0.7175572519083969,0.7786259541984732,-0.6564885496183206,-0.43505859375,0.005859375,-0.261962890625,0.6255999999999999
0.5801526717557252,0.6259541984732825,-0.7480916030534351,-0.435791015625,0.00390625,-0.26416015625,0.6273
0.732824427480916,0.6717557251908397,-0.8549618320610687,-0.43701171875,0.0068359375,-0.261474609375,0.629
0.5648854961832062,0.6106870229007634,-0.9007633587786259,-0.43896484375,-0.00048828125,-0.272705078125,0.6306999999999999
0.3969465648854962,0.33587786259541985,-0.7633587786259542,-0.4345703125,0.007080078125,-0.279541015625,0.6324
0.3969465648854962,0.4580152671755725,-0.8396946564885496,-0.440185546875,-0.00048828125,-0.270751953125,0.6341
0.7786259541984732,0.6412213740458015,-0.8396946564885496,-0.439208984375,-0.00244140625,-0.272705078125,0.6357999999999999
0.7022900763358778,0.3511450381679389,-0.8396946564885496,-0.43359375,0.0068359375,-0.2705078125,0.6375
0.6717557251908397,0.4580152671755725,-1.0687022900763359,-0.435791015625,0.0087890625,-0.273681640625,0.6392
0.5343511450381679,0.3511450381679389,-0.6870229007633588,-0.431396484375,0.00390625,-0.265625,0.6408999999999999
0.3511450381679389,0.4580152671755725,-0.9312977099236641,-0.43408203125,0.0029296875,-0.271728515625,0.6426
0.4732824427480916,0.3816793893129771,-0.9770992366412213,-0.43505859375,0.006103515625,-0.266357421875,0.6443
0.5343511450381679,0.22900763358778625,-0.916030534351145,-0.4384765625,0.0009765625,-0.26318359375,0.646
0.4122137404580153,0.366412213740458,-0.9312977099236641,-0.435302734375,0.000244140625,-0.270751953125,0.6476999999999999
0.2900763358778626,0.21374045801526717,-1.1603053435114503,-0.43359375,0.0029296875,-0.26416015625,0.6494
0.6259541984732825,0.15267175572519084,-0.8854961832061069,-0.4326171875,0.00341796875,-0.26708984375,0.6511
0.4580152671755725,0.0916030534351145,-0.7938931297709924,-0.43603515625,0.006103515625,-0.26953125,0.6527999999999999
0.4580152671755725,0.030534351145038167,-1.1908396946564885,-0.44091796875,0.00341796875,-0.2705078125,0.6545
0.32061068702290074,0.0916030534351145,-1.2366412213740459,-0.435302734375,0.00390625,-0.2724609375,0.6562
0.366412213740458,-0.0916030534351145,-0.9770992366412213,-0.43505859375,-0.001708984375,-0.267822265625,0.6578999999999999
0.183206106870229,-0.030534351145038167,-1.099236641221374,-0.4365234375,-0.00146484375,-0.265380859375,0.6596
0.16793893129770993,0.10687022900763359,-1.0687022900763359,-0.436279296875,0.001220703125,-0.265380859375,0.6613
0.24427480916030533,-0.12213740458015267,-1.3893129770992367,-0.436767578125,0.001708984375,-0.26904296875,0.6629999999999999
0.2748091603053435,-0.04580152671755725,-1.1755725190839694,-0.436279296875,-0.00146484375,-0.277099609375,0.6647
0.16793893129770993,0.0,-1.2213740458015268,-0.43798828125,0.00390625,-0.27294921875,0.6664
0.10687022900763359,0.0,-1.3282442748091603,-0.4375,-0.001953125,-0.2685546875,0.6680999999999999
0.16793893129770993,0.0916030534351145,-1.3435114503816794,-0.44091796875,0.003662109375,-0.27294921875,0.6698
0.030534351145038167,-0.0916030534351145,-1.1297709923664123,-0.441162109375,0.0068359375,-0.269287109375,0.6715
-0.07633587786259542,-0.0916030534351145,-1.1755725190839694,-0.4375,0.001708984375,-0.27001953125,0.6731999999999999
-0.15267175572519084,-0.07633587786259542,-1.450381679389313,-0.43798828125,-0.00146484375,-0.266845703125,0.6748999999999999
0.10687022900763359,-0.12213740458015267,-1.3587786259541985,-0.441650390625,0.000732421875,-0.271728515625,0.6766
-0.04580152671755725,-0.21374045801526717,-1.1908396946564885,-0.43408203125,0.00048828125,-0.266845703125,0.6783
-0.12213740458015267,-0.183206106870229,-1.4198473282442747,-0.43896484375,-0.00537109375,-0.27490234375,0.6799999999999999
-0.07633587786259542,0.07633587786259542,-1.3587786259541985,-0.43359375,0.00732421875,-0.274169921875,0.6817
0.015267175572519083,-0.183206106870229,-1.4351145038167938,-0.428466796875,0.0029296875,-0.26904296875,0.6834
-0.04580152671755725,-0.3053435114503817,-1.3282442748091603,-0.435791015625,0.001708984375,-0.260009765625,0.6850999999999999
-0.1984732824427481,-0.4732824427480916,-1.633587786259542,-0.435791015625,-0.002197265625,-0.26953125,0.6868
-0.10687022900763359,-0.2748091603053435,-1.4198473282442747,-0.438720703125,-0.000732421875,-0.27294921875,0.6885
-0.16793893129770993,-0.16793893129770993,-1.5267175572519085,-0.43798828125,-0.00048828125,-0.2666015625,0.6901999999999999
-0.549618320610687,-0.3969465648854962,-1.450381679389313,-0.43408203125,-0.001953125,-0.267822265625,0.6919
-0.32061068702290074,-0.4580152671755725,-1.5114503816793894,-0.432861328125,0.0,-0.274169921875,0.6936
-0.1984732824427481,-0.5343511450381679,-1.2213740458015268,-0.434326171875,0.00537109375,-0.2685546875,0.6952999999999999
-0.2748091603053435,-0.5038167938931297,-1.4809160305343512,-0.43896484375,0.000732421875,-0.262451171875,0.697
-0.4122137404580153,-0.5190839694656488,-1.4809160305343512,-0.4345703125,-0.001220703125,-0.263427734375,0.6987
-0.4122137404580153,-0.44274809160305345,-1.4961832061068703,-0.442138671875,0.001708984375,-0.267333984375,0.7003999999999999
-0.3969465648854962,-0.4732824427480916,-1.5572519083969465,-0.4404296875,-0.002685546875,-0.26611328125,0.7021
-0.48854961832061067,-0.48854961832061067,-1.633587786259542,-0.43994140625,0.00732421875,-0.278564453125,0.7038
-0.6259541984732825,-0.5190839694656488,-1.5572519083969465,-0.44189453125,0.00390625,-0.27734375,0.7055
-0.3816793893129771,-0.5801526717557252,-1.4045801526717556,-0.442626953125,-0.0009765625,-0.276611328125,0.7071999999999999
-0.42748091603053434,-0.7022900763358778,-1.3435114503816794,-0.442138671875,-0.00048828125,-0.267333984375,0.7089
-0.3511450381679389,-0.5801526717557252,-1.465648854961832,-0.43701171875,0.004638671875,-0.2626953125,0.7106
-0.42748091603053434,-0.549618320610687,-1.3587786259541985,-0.436279296875,-0.00048828125,-0.259765625,0.7122999999999999
-0.4580152671755725,-0.5954198473282443,-1.5419847328244274,-0.438720703125,-0.00048828125,-0.26318359375,0.714
-0.549618320610687,-0.5038167938931297,-1.3740458015267176,-0.44140625,0.00146484375,-0.27099609375,0.7157
-0.549618320610687,-0.6259541984732825,-1.4045801526717556,-0.44091796875,0.000732421875,-0.2666015625,0.7173999999999999
-0.4580152671755725,-0.5954198473282443,-1.3129770992366412,-0.43798828125,0.002197265625,-0.26708984375,0.7191
-0.42748091603053434,-0.6412213740458015,-1.450381679389313,-0.443115234375,0.00244140625,-0.2734375,0.7208
-0.5038167938931297,-0.7480916030534351,-1.1450381679389312,-0.440185546875,-0.000244140625,-0.2734375,0.7224999999999999
-0.6564885496183206,-0.8702290076335878,-1.4198473282442747,-0.4443359375,0.007568359375,-0.26904296875,0.7242
-0.44274809160305345,-0.7175572519083969,-1.3282442748091603,-0.446044921875,-0.004150390625,-0.27197265625,0.7259
-0.48854961832061067,-0.8244274809160306,-1.3435114503816794,-0.442626953125,0.00439453125,-0.271484375,0.7275999999999999
-0.4732824427480916,-0.6564885496183206,-1.0076335877862594,-0.440185546875,0.0,-0.26904296875,0.7293
-0.4122137404580153,-0.7022900763358778,-1.1603053435114503,-0.4453125,0.00146484375,-0.274169921875,0.731
-0.6717557251908397,-0.7938931297709924,-1.282442748091603,-0.441650390625,-0.002197265625,-0.273681640625,0.7326999999999999
-0.6106870229007634,-0.732824427480916,-1.2671755725190839,-0.436279296875,0.002685546875,-0.268310546875,0.7343999999999999
-0.48854961832061067,-0.7938931297709924,-1.1603053435114503,-0.4404296875,-0.002685546875,-0.266357421875,0.7361
-0.366412213740458,-0.549618320610687,-1.0534351145038168,-0.4443359375,0.00048828125,-0.27001953125,0.7378
-0.549618320610687,-0.732824427480916,-1.1603053435114503,-0.4443359375,-0.00048828125,-0.271484375,0.7394999999999999
-0.3511450381679389,-0.7633587786259542,-1.1908396946564885,-0.4404296875,0.001708984375,-0.266845703125,0.7412
-0.2900763358778626,-0.6717557251908397,-1.1908396946564885,-0.432861328125,0.0009765625,-0.273681640625,0.7429
-0.4122137404580153,-0.7633587786259542,-1.0076335877862594,-0.439697265625,0.001220703125,-0.26806640625,0.7445999999999999
-0.366412213740458,-0.6412213740458015,-1.0381679389312977,-0.44189453125,-0.00244140625,-0.264404296875,0.7463
-0.4732824427480916,-0.8549618320610687,-1.1145038167938932,-0.443359375,0.00390625,-0.2685546875,0.748
-0.22900763358778625,-0.8396946564885496,-0.8702290076335878,-0.4384765625,0.00244140625,-0.266357421875,0.7496999999999999
-0.3969465648854962,-0.6259541984732825,-1.0076335877862594,-0.440185546875,0.001953125,-0.263916015625,0.7514
-0.3511450381679389,-0.6412213740458015,-0.9312977099236641,-0.434326171875,0.001708984375,-0.26708984375,0.7531
-0.3969465648854962,-0.6717557251908397,-1.099236641221374,-0.444091796875,0.0029296875,-0.26318359375,0.7547999999999999
-0.3053435114503817,-0.6717557251908397,-0.9618320610687023,-0.44140625,0.005126953125,-0.26611328125,0.7565
-0.32061068702290074,-0.6717557251908397,-0.9312977099236641,-0.442626953125,0.000732421875,-0.260009765625,0.7582
-0.3969465648854962,-0.8244274809160306,-0.8244274809160306,-0.4384765625,0.0078125,-0.264404296875,0.7598999999999999
-0.2595419847328244,-0.7480916030534351,-0.9465648854961832,-0.445556640625,0.00537109375,-0.271240234375,0.7615999999999999
-0.22900763358778625,-0.5801526717557252,-0.7480916030534351,-0.441650390625,0.004638671875,-0.263916015625,0.7633
-0.3816793893129771,-0.7633587786259542,-0.8396946564885496,-0.44091796875,0.001220703125,-0.268798828125,0.7649999999999999
-0.366412213740458,-0.6717557251908397,-0.8549618320610687,-0.437744140625,0.001220703125,-0.27490234375,0.7666999999999999
-0.24427480916030533,-0.5801526717557252,-0.8549618320610687,-0.442626953125,-0.005859375,-0.258056640625,0.7684
-0.0916030534351145,-0.5648854961832062,-0.732824427480916,-0.4404296875,-0.002197265625,-0.26708984375,0.7701
-0.0916030534351145,-0.8091603053435115,-0.7938931297709924,-0.44287109375,0.0078125,-0.259033203125,0.7717999999999999
-0.16793893129770993,-0.6259541984732825,-0.8702290076335878,-0.444091796875,0.00341796875,-0.2744140625,0.7735
-0.15267175572519084,-0.6259541984732825,-0.732824427480916,-0.442626953125,0.003662109375,-0.262451171875,0.7752
0.030534351145038167,-0.7786259541984732,-0.7480916030534351,-0.44189453125,-0.000244140625,-0.270751953125,0.7768999999999999
-0.183206106870229,-0.5801526717557252,-0.8854961832061069,-0.444580078125,0.0029296875,-0.2685546875,0.7786
-0.061068702290076333,-0.5648854961832062,-0.5648854961832062,-0.4423828125,0.00439453125,-0.268798828125,0.7803
-0.07633587786259542,-0.6106870229007634,-0.7022900763358778,-0.441162109375,0.009033203125,-0.261474609375,0.7819999999999999
-0.3053435114503817,-0.5038167938931297,-0.7938931297709924,-0.441162109375,0.008544921875,-0.255126953125,0.7837
-0.10687022900763359,-0.4732824427480916,-0.6106870229007634,-0.444580078125,0.000732421875,-0.266845703125,0.7854
-0.030534351145038167,-0.6564885496183206,-0.5343511450381679,-0.443115234375,0.0029296875,-0.265869140625,0.7870999999999999
-0.15267175572519084,-0.5038167938931297,-0.5801526717557252,-0.440185546875,0.00341796875,-0.2646484375,0.7888
-0.015267175572519083,-0.7175572519083969,-0.6106870229007634,-0.4423828125,-0.004150390625,-0.270263671875,0.7905
-0.07633587786259542,-0.5190839694656488,-0.7480916030534351,-0.442626953125,0.00439453125,-0.2666015625,0.7921999999999999
0.061068702290076333,-0.48854961832061067,-0.48854961832061067,-0.440673828125,0.003662109375,-0.261474609375,0.7938999999999999
-0.030534351145038167,-0.7480916030534351,-0.6564885496183206,-0.44482421875,0.007568359375,-0.266357421875,0.7956
-0.10687022900763359,-0.6717557251908397,-0.6870229007633588,-0.447998046875,0.005615234375,-0.2685546875,0.7973
0.0,-0.5801526717557252,-0.6717557251908397,-0.446044921875,0.001953125,-0.270263671875,0.7989999999999999
0.04580152671755725,-0.6412213740458015,-0.6259541984732825,-0.442626953125,0.002685546875,-0.263427734375,0.8007
0.12213740458015267,-0.6870229007633588,-0.5038167938931297,-0.439453125,0.00341796875,-0.26953125,0.8024
-0.07633587786259542,-0.5343511450381679,-0.4732824427480916,-0.44384765625,0.005859375,-0.2666015625,0.8040999999999999
-0.33587786259541985,-0.549618320610687,-0.7938931297709924,-0.445068359375,0.001220703125,-0.26611328125,0.8058
-0.2595419847328244,-0.5038167938931297,-0.4122137404580153,-0.4423828125,0.005859375,-0.27294921875,0.8075
0.15267175572519084,-0.5190839694656488,-0.549618320610687,-0.442626953125,0.0078125,-0.260498046875,0.8091999999999999
0.07633587786259542,-0.3816793893129771,-0.5801526717557252,-0.4423828125,0.007568359375,-0.266357421875,0.8109
0.030534351145038167,-0.2595419847328244,-0.44274809160305345,-0.438720703125,0.005126953125,-0.261474609375,0.8126
-0.0916030534351145,-0.48854961832061067,-0.44274809160305345,-0.44189453125,0.0029296875,-0.260986328125,0.8142999999999999
0.015267175572519083,-0.5343511450381679,-0.5954198473282443,-0.443359375,0.00244140625,-0.259521484375,0.816
-0.04580152671755725,-0.32061068702290074,-0.4732824427480916,-0.448486328125,0.004638671875,-0.259033203125,0.8177
-0.015267175572519083,-0.2748091603053435,-0.366412213740458,-0.4404296875,0.007568359375,-0.26904296875,0.8193999999999999
0.12213740458015267,-0.22900763358778625,-0.4580152671755725,-0.439453125,0.003662109375,-0.26708984375,0.8210999999999999
0.04580152671755725,-0.1984732824427481,-0.6870229007633588,-0.443603515625,0.00439453125,-0.260009765625,0.8228
0.10687022900763359,-0.24427480916030533,-0.5954198473282443,-0.44482421875,0.007080078125,-0.265869140625,0.8244999999999999
-0.061068702290076333,-0.2748091603053435,-0.549618320610687,-0.44140625,0.005126953125,-0.262451171875,0.8261999999999999
0.07633587786259542,-0.21374045801526717,-0.4580152671755725,-0.445068359375,0.007568359375,-0.26708984375,0.8279
-0.2900763358778626,-0.10687022900763359,-0.549618320610687,-0.437744140625,0.0048828125,-0.267333984375,0.8296
0.10687022900763359,-0.22900763358778625,-0.5801526717557252,-0.438720703125,0.009033203125,-0.260009765625,0.8312999999999999
0.183206106870229,-0.22900763358778625,-0.6106870229007634,-0.441162109375,0.0048828125,-0.257080078125,0.833
-0.13740458015267176,-0.21374045801526717,-0.7022900763358778,-0.4443359375,0.004638671875,-0.265380859375,0.8347
0.183206106870229,-0.15267175572519084,-0.7633587786259542,-0.4443359375,0.0078125,-0.270751953125,0.8363999999999999
0.061068702290076333,-0.21374045801526717,-0.6870229007633588,-0.4453125,0.00439453125,-0.26123046875,0.8381
-0.030534351145038167,-0.13740458015267176,-0.8549618320610687,-0.44384765625,0.001220703125,-0.259765625,0.8398
0.10687022900763359,0.0,-0.8549618320610687,-0.440185546875,0.006591796875,-0.262939453125,0.8414999999999999
0.13740458015267176,-0.07633587786259542,-0.7175572519083969,-0.4423828125,0.00048828125,-0.2578125,0.8432
0.2595419847328244,-0.15267175572519084,-0.8091603053435115,-0.445068359375,0.002197265625,-0.25927734375,0.8449
0.015267175572519083,-0.21374045801526717,-0.7480916030534351,-0.441162109375,0.00341796875,-0.2646484375,0.8465999999999999
0.1984732824427481,0.16793893129770993,-0.7786259541984732,-0.444091796875,0.005859375,-0.2568359375,0.8482999999999999
0.24427480916030533,-0.0916030534351145,-0.8244274809160306,-0.444091796875,0.00341796875,-0.257568359375,0.85
0.0,-0.0916030534351145,-0.7786259541984732,-0.44189453125,-0.001708984375,-0.257568359375,0.8516999999999999
0.061068702290076333,0.07633587786259542,-0.7633587786259542,-0.44384765625,0.001708984375,-0.255126953125,0.8533999999999999
-0.015267175572519083,-0.12213740458015267,-0.5190839694656488,-0.44091796875,-0.001953125,-0.2587890625,0.8551
0.061068702290076333,-0.0916030534351145,-1.0076335877862594,-0.442138671875,0.00341796875,-0.260009765625,0.8568
-0.061068702290076333,0.030534351145038167,-1.1145038167938932,-0.442626953125,0.000244140625,-0.261474609375,0.8584999999999999
-0.15267175572519084,0.04580152671755725,-0.8091603053435115,-0.44091796875,0.004150390625,-0.2568359375,0.8602
0.0,0.0,-1.0076335877862594,-0.441650390625,0.0009765625,-0.2646484375,0.8619
0.030534351145038167,-0.061068702290076333,-0.8091603053435115,-0.43994140625,0.005126953125,-0.254638671875,0.8635999999999999
0.24427480916030533,0.12213740458015267,-0.7938931297709924,-0.43994140625,0.00439453125,-0.26953125,0.8653
0.061068702290076333,0.0,-1.0381679389312977,-0.439697265625,0.002685546875,-0.260498046875,0.867
0.061068702290076333,0.13740458015267176,-1.0076335877862594,-0.446044921875,0.003173828125,-0.262939453125,0.8686999999999999
-0.10687022900763359,0.12213740458015267,-0.9465648854961832,-0.438720703125,0.005859375,-0.2666015625,0.8704
-0.0916030534351145,0.0916030534351145,-1.0076335877862594,-0.446533203125,0.000732421875,-0.26025390625,0.8721
0.0,0.16793893129770993,-1.1450381679389312,-0.444091796875,0.003662109375,-0.25927734375,0.8737999999999999
0.22900763358778625,0.16793893129770993,-1.1450381679389312,-0.440673828125,0.0029296875,-0.2705078125,0.8755
0.030534351145038167,0.10687022900763359,-1.1145038167938932,-0.441650390625,0.0048828125,-0.26416015625,0.8772
-0.04580152671755725,0.10687022900763359,-0.9770992366412213,-0.441650390625,0.001220703125,-0.268310546875,0.8788999999999999
0.07633587786259542,0.0916030534351145,-1.083969465648855,-0.442138671875,0.004638671875,-0.26513671875,0.8805999999999999
-0.15267175572519084,0.2748091603053435,-0.9618320610687023,-0.442138671875,0.003173828125,-0.265625,0.8823
0.04580152671755725,0.22900763358778625,-1.1145038167938932,-0.444580078125,0.0068359375,-0.26318359375,0.8839999999999999
0.10687022900763359,0.21374045801526717,-1.1297709923664123,-0.443359375,0.0009765625,-0.266357421875,0.8856999999999999
0.0916030534351145,0.2748091603053435,-1.1450381679389312,-0.4423828125,0.00390625,-0.2587890625,0.8874
-0.030534351145038167,0.366412213740458,-1.2366412213740459,-0.442626953125,0.003173828125,-0.259521484375,0.8891
0.0,0.24427480916030533,-1.251908396946565,-0.441650390625,0.00390625,-0.2568359375,0.8907999999999999
0.015267175572519083,0.2595419847328244,-1.1603053435114503,-0.445556640625,0.00390625,-0.258056640625,0.8925
0.0,0.48854961832061067,-1.0687022900763359,-0.439697265625,0.009033203125,-0.261962890625,0.8942
-0.061068702290076333,0.4580152671755725,-1.3129770992366412,-0.4453125,0.005126953125,-0.26806640625,0.8958999999999999
0.04580152671755725,0.4580152671755725,-1.251908396946565,-0.44482421875,0.0029296875,-0.261962890625,0.8976
0.16793893129770993,0.5038167938931297,-1.1908396946564885,-0.44287109375,0.001220703125,-0.260498046875,0.8993
-0.07633587786259542,0.5801526717557252,-1.0229007633587786,-0.44921875,0.00244140625,-0.266357421875,0.9009999999999999
-0.12213740458015267,0.4732824427480916,-1.1603053435114503,-0.443359375,-0.00146484375,-0.26318359375,0.9027
0.16793893129770993,0.5648854961832062,-1.2061068702290076,-0.445068359375,0.004638671875,-0.262451171875,0.9044
0.0916030534351145,0.5648854961832062,-1.1145038167938932,-0.445556640625,0.00390625,-0.261962890625,0.9060999999999999
-0.04580152671755725,0.5801526717557252,-1.1755725190839694,-0.441650390625,0.003173828125,-0.263427734375,0.9077999999999999
0.0916030534351145,0.7480916030534351,-1.3893129770992367,-0.44384765625,-0.002685546875,-0.263916015625,0.9095
0.21374045801526717,0.6412213740458015,-1.2061068702290076,-0.444091796875,-0.002197265625,-0.260498046875,0.9111999999999999
0.1984732824427481,0.7175572519083969,-1.1908396946564885,-0.44189453125,0.005126953125,-0.263671875,0.9128999999999999
0.13740458015267176,0.8854961832061069,-1.0076335877862594,-0.441162109375,0.0029296875,-0.25439453125,0.9146
-0.1984732824427481,0.7022900763358778,-1.297709923664122,-0.441162109375,0.000244140625,-0.261474609375,0.9163
0.07633587786259542,0.549618320610687,-1.1908396946564885,-0.44189453125,0.00732421875,-0.257080078125,0.9179999999999999
0.183206106870229,0.5954198473282443,-1.1297709923664123,-0.4443359375,0.00341796875,-0.266357421875,0.9197
0.183206106870229,0.8702290076335878,-1.2366412213740459,-0.445556640625,0.008544921875,-0.26220703125,0.9214
0.16793893129770993,0.9312977099236641,-1.282442748091603,-0.44091796875,0.003662109375,-0.265869140625,0.9230999999999999
0.24427480916030533,0.8549618320610687,-1.2061068702290076,-0.4423828125,0.0,-0.265869140625,0.9248
0.3053435114503817,0.9618320610687023,-1.1908396946564885,-0.441650390625,0.003173828125,-0.262451171875,0.9265
0.42748091603053434,0.9007633587786259,-1.1450381679389312,-0.447509765625,0.007568359375,-0.269287109375,0.9281999999999999
0.2900763358778626,1.0076335877862594,-1.0076335877862594,-0.441162109375,0.003173828125,-0.264404296875,0.9299
0.2900763358778626,0.8702290076335878,-0.9923664122137404,-0.439453125,0.00341796875,-0.264404296875,0.9316
0.48854961832061067,0.8854961832061069,-1.0687022900763359,-0.441650390625,0.00732421875,-0.263427734375,0.9332999999999999
0.42748091603053434,1.0076335877862594,-0.8396946564885496,-0.442626953125,-0.000732421875,-0.263671875,0.9349999999999999
0.3969465648854962,0.9007633587786259,-1.1603053435114503,-0.4423828125,0.00439453125,-0.25830078125,0.9367
0.5954198473282443,1.0229007633587786,-1.1755725190839694,-0.448486328125,0.006591796875,-0.259033203125,0.9383999999999999
0.7633587786259542,1.0381679389312977,-0.8854961832061069,-0.4404296875,0.00732421875,-0.26220703125,0.9400999999999999
0.5190839694656488,1.0229007633587786,-1.0381679389312977,-0.4404296875,0.00146484375,-0.263916015625,0.9418
0.5190839694656488,0.916030534351145,-1.1450381679389312,-0.439208984375,0.00732421875,-0.251708984375,0.9434999999999999
0.549618320610687,0.8549618320610687,-0.916030534351145,-0.441650390625,0.00390625,-0.2578125,0.9451999999999999
0.6412213740458015,1.1145038167938932,-1.2366412213740459,-0.443359375,0.009033203125,-0.269775390625,0.9469
0.732824427480916,1.099236641221374,-0.9923664122137404,-0.443603515625,0.007080078125,-0.26318359375,0.9486
0.6106870229007634,0.9923664122137404,-0.9923664122137404,-0.445556640625,0.00634765625,-0.260498046875,0.9502999999999999
0.7175572519083969,0.9770992366412213,-0.9007633587786259,-0.442138671875,0.005859375,-0.263671875,0.952
0.6564885496183206,0.8854961832061069,-1.1145038167938932,-0.4443359375,0.00341796875,-0.27001953125,0.9537
0.5648854961832062,1.1145038167938932,-0.8702290076335878,-0.44140625,0.001953125,-0.261962890625,0.9553999999999999
0.732824427480916,0.9923664122137404,-1.0381679389312977,-0.442138671875,0.003173828125,-0.262451171875,0.9571
0.7938931297709924,1.0229007633587786,-0.7938931297709924,-0.444580078125,0.0078125,-0.266845703125,0.9588
0.9007633587786259,1.1755725190839694,-0.9312977099236641,-0.443115234375,0.00244140625,-0.2607421875,0.9604999999999999
0.8549618320610687,1.099236641221374,-0.9770992366412213,-0.440185546875,0.00341796875,-0.260009765625,0.9621999999999999
0.9618320610687023,1.2213740458015268,-0.8854961832061069,-0.4384765625,0.005615234375,-0.255126953125,0.9639
0.9770992366412213,1.083969465648855,-0.732824427480916,-0.440673828125,0.006591796875,-0.267822265625,0.9655999999999999
0.7480916030534351,1.083969465648855,-0.7022900763358778,-0.439453125,0.00634765625,-0.269775390625,0.9672999999999999
1.0687022900763359,1.2061068702290076,-0.7786259541984732,-0.439697265625,0.004150390625,-0.2705078125,0.969
1.2061068702290076,1.0687022900763359,-0.9770992366412213,-0.444580078125,0.00439453125,-0.26513671875,0.9706999999999999
1.1145038167938932,1.3129770992366412,-0.8091603053435115,-0.44287109375,0.00830078125,-0.26025390625,0.9723999999999999
0.8549618320610687,1.3587786259541985,-0.7022900763358778,-0.44287109375,0.003173828125,-0.267822265625,0.9741
0.9770992366412213,1.2061068702290076,-0.6259541984732825,-0.441650390625,0.00634765625,-0.264892578125,0.9758
1.2671755725190839,1.0687022900763359,-0.8702290076335878,-0.43603515625,0.006103515625,-0.2578125,0.9774999999999999
0.9923664122137404,1.1908396946564885,-0.5648854961832062,-0.438720703125,0.004638671875,-0.260498046875,0.9792
1.4198473282442747,1.1908396946564885,-0.7786259541984732,-0.437255859375,0.005615234375,-0.259765625,0.9809
1.2213740458015268,1.1603053435114503,-0.6412213740458015,-0.440185546875,0.002685546875,-0.259765625,0.9825999999999999
1.1603053435114503,1.1450381679389312,-0.7022900763358778,-0.443603515625,0.004638671875,-0.259033203125,0.9843
1.282442748091603,1.251908396946565,-0.7938931297709924,-0.443359375,0.003173828125,-0.263671875,0.986
1.297709923664122,1.2061068702290076,-0.8396946564885496,-0.445068359375,0.0048828125,-0.258544921875,0.9876999999999999
1.5877862595419847,1.2366412213740459,-0.6564885496183206,-0.43994140625,0.0048828125,-0.260009765625,0.9894
1.2671755725190839,1.1603053435114503,-0.8549618320610687,-0.441162109375,0.000732421875,-0.26025390625,0.9911
1.0381679389312977,1.2671755725190839,-0.7633587786259542,-0.44580078125,0.005126953125,-0.26904296875,0.9927999999999999
1.3282442748091603,1.3435114503816794,-0.732824427480916,-0.443603515625,0.005126953125,-0.262939453125,0.9944999999999999
1.5572519083969465,1.251908396946565,-0.6717557251908397,-0.445556640625,0.00341796875,-0.267333984375,0.9962
1.4045801526717556,1.1908396946564885,-0.7022900763358778,-0.440185546875,0.0029296875,-0.2666015625,0.9978999999999999
1.3893129770992367,1.1603053435114503,-0.5343511450381679,-0.44580078125,0.00537109375,-0.263427734375,0.9995999999999999
1.4961832061068703,1.2061068702290076,-0.9007633587786259,-0.445068359375,0.00830078125,-0.265380859375,1.0012999999999999
1.3282442748091603,1.1908396946564885,-0.7480916030534351,-0.437744140625,0.0,-0.262939453125,1.003
1.450381679389313,1.2213740458015268,-0.7022900763358778,-0.444580078125,0.007568359375,-0.264892578125,1.0047
1.3740458015267176,1.1755725190839694,-0.7175572519083969,-0.43505859375,0.00537109375,-0.2607421875,1.0064
1.2671755725190839,1.3435114503816794,-0.8854961832061069,-0.43994140625,-0.00244140625,-0.261962890625,1.0081
1.4045801526717556,1.1603053435114503,-0.7480916030534351,-0.443115234375,0.0029296875,-0.267333984375,1.0098
1.3435114503816794,1.1297709923664123,-1.0076335877862594,-0.44189453125,0.00390625,-0.271728515625,1.0114999999999998
1.5114503816793894,1.251908396946565,-0.7175572519083969,-0.443603515625,0.004638671875,-0.268310546875,1.0131999999999999
1.3129770992366412,1.2213740458015268,-0.7480916030534351,-0.43505859375,0.00341796875,-0.261962890625,1.0149
1.297709923664122,1.0381679389312977,-0.8702290076335878,-0.43798828125,0.0029296875,-0.262939453125,1.0166
1.2213740458015268,1.251908396946565,-0.9923664122137404,-0.44091796875,-0.000732421875,-0.267578125,1.0183
1.251908396946565,1.1755725190839694,-0.7633587786259542,-0.442138671875,0.004638671875,-0.258544921875,1.02
1.1297709923664123,0.7786259541984732,-0.9312977099236641,-0.439697265625,0.00390625,-0.267822265625,1.0217
1.2061068702290076,0.9465648854961832,-0.8854961832061069,-0.4384765625,0.002197265625,-0.26513671875,1.0233999999999999
1.2061068702290076,1.0534351145038168,-0.9618320610687023,-0.440673828125,0.006591796875,-0.269287109375,1.0251
0.9770992366412213,1.0381679389312977,-0.9618320610687023,-0.439453125,0.001708984375,-0.267822265625,1.0268
0.9312977099236641,0.8854961832061069,-0.9770992366412213,-0.4384765625,0.00439453125,-0.26416015625,1.0285
0.9465648854961832,0.9770992366412213,-0.8549618320610687,-0.4375,0.00341796875,-0.26953125,1.0302
0.916030534351145,0.916030534351145,-0.8091603053435115,-0.43994140625,0.00390625,-0.26708984375,1.0319
0.8702290076335878,1.1755725190839694,-0.7938931297709924,-0.441162109375,0.0,-0.266357421875,1.0335999999999999
0.7633587786259542,1.1145038167938932,-0.8549618320610687,-0.437744140625,-0.0029296875,-0.265380859375,1.0352999999999999
0.7633587786259542,1.0229007633587786,-0.8549618320610687,-0.44091796875,0.002685546875,-0.274169921875,1.037
0.6106870229007634,0.7175572519083969,-0.8854961832061069,-0.43896484375,0.001708984375,-0.260498046875,1.0387
0.6259541984732825,0.9312977099236641,-0.8549618320610687,-0.441650390625,0.00048828125,-0.260498046875,1.0404
0.4580152671755725,0.9923664122137404,-0.9770992366412213,-0.43896484375,0.00048828125,-0.26123046875,1.0421
0.4580152671755725,0.8396946564885496,-0.7633587786259542,-0.43603515625,0.001708984375,-0.26904296875,1.0437999999999998
0.5954198473282443,1.0229007633587786,-0.7938931297709924,-0.4375,0.001953125,-0.26123046875,1.0454999999999999
0.4122137404580153,0.9007633587786259,-0.8854961832061069,-0.43701171875,0.00341796875,-0.257080078125,1.0472
0.3969465648854962,0.7480916030534351,-0.8396946564885496,-0.436279296875,-0.00244140625,-0.256103515625,1.0489
0.183206106870229,0.4732824427480916,-0.7633587786259542,-0.434326171875,-0.002197265625,-0.25927734375,1.0506
0.15267175572519084,0.6412213740458015,-0.8854961832061069,-0.43994140625,-0.002685546875,-0.27294921875,1.0523
0.10687022900763359,0.549618320610687,-0.8702290076335878,-0.4462890625,0.00390625,-0.26611328125,1.054
-0.10687022900763359,0.7022900763358778,-1.0229007633587786,-0.44140625,0.00439453125,-0.27294921875,1.0556999999999999
0.13740458015267176,0.7786259541984732,-0.7175572519083969,-0.437744140625,0.00048828125,-0.27099609375,1.0574
-0.12213740458015267,0.6870229007633588,-0.9007633587786259,-0.44580078125,-0.0009765625,-0.271484375,1.0591
-0.015267175572519083,0.7175572519083969,-0.8396946564885496,-0.44189453125,0.0,-0.2587890625,1.0608
-0.3053435114503817,0.9618320610687023,-0.9007633587786259,-0.447998046875,-0.00146484375,-0.264404296875,1.0625
-0.16793893129770993,0.9312977099236641,-0.9618320610687023,-0.442138671875,-0.004638671875,-0.26123046875,1.0642
-0.3511450381679389,0.6870229007633588,-0.916030534351145,-0.43994140625,0.00146484375,-0.263671875,1.0658999999999998
-0.3511450381679389,0.732824427480916,-0.916030534351145,-0.43701171875,0.005859375,-0.2568359375,1.0675999999999999
-0.2595419847328244,0.8702290076335878,-1.0687022900763359,-0.442626953125,0.0009765625,-0.263427734375,1.0693
-0.44274809160305345,0.8396946564885496,-0.8091603053435115,-0.444091796875,0.000244140625,-0.261962890625,1.071
-0.6412213740458015,0.9465648854961832,-0.8244274809160306,-0.444091796875,0.00927734375,-0.2685546875,1.0727
-0.5648854961832062,0.9923664122137404,-0.8091603053435115,-0.448486328125,0.010009765625,-0.27294921875,1.0744
-0.5954198473282443,1.099236641221374,-1.0076335877862594,-0.44677734375,0.0068359375,-0.261962890625,1.0760999999999998
-0.6717557251908397,1.2061068702290076,-1.0381679389312977,-0.44091796875,0.001953125,-0.270751953125,1.0777999999999999
-0.5801526717557252,1.3435114503816794,-1.083969465648855,-0.44384765625,0.00244140625,-0.26416015625,1.0795
-0.44274809160305345,1.2671755725190839,-0.8702290076335878,-0.441650390625,0.00146484375,-0.264404296875,1.0812
-0.5038167938931297,1.282442748091603,-1.0229007633587786,-0.44091796875,0.0048828125,-0.277099609375,1.0829
-0.6717557251908397,1.4045801526717556,-1.0229007633587786,-0.44140625,0.003662109375,-0.2685546875,1.0846
-0.6717557251908397,1.4961832061068703,-1.2213740458015268,-0.4462890625,0.003173828125,-0.264892578125,1.0863
-0.6259541984732825,1.5572519083969465,-1.083969465648855,-0.447265625,0.00537109375,-0.267333984375,1.0879999999999999
-0.5190839694656488,1.5877862595419847,-1.1297709923664123,-0.4443359375,0.00537109375,-0.265869140625,1.0897
-0.5343511450381679,1.6030534351145038,-1.2366412213740459,-0.44140625,0.00341796875,-0.27392578125,1.0914
-0.732824427480916,1.6946564885496183,-1.1755725190839694,-0.446044921875,0.00146484375,-0.262451171875,1.0931
-0.6259541984732825,1.6641221374045803,-1.4045801526717556,-0.4443359375,0.009521484375,-0.263427734375,1.0948
-0.5648854961832062,1.786259541984733,-1.3282442748091603,-0.443359375,0.004150390625,-0.271240234375,1.0965
-0.5190839694656488,1.6793893129770991,-1.3740458015267176,-0.447265625,0.0048828125,-0.261474609375,1.0981999999999998
-0.6259541984732825,1.6946564885496183,-1.3129770992366412,-0.4375,0.003173828125,-0.263671875,1.0998999999999999
-0.6106870229007634,1.6030534351145038,-1.5114503816793894,-0.435791015625,0.007568359375,-0.26416015625,1.1016
-0.5801526717557252,1.7251908396946565,-1.465648854961832,-0.445556640625,0.0087890625,-0.265869140625,1.1033
-0.5648854961832062,1.6793893129770991,-1.297709923664122,-0.436279296875,0.0078125,-0.263916015625,1.105
-0.5954198473282443,1.6488549618320612,-1.3129770992366412,-0.43994140625,0.004638671875,-0.266357421875,1.1067
-0.48854961832061067,1.7099236641221374,-1.3435114503816794,-0.438720703125,0.00732421875,-0.265869140625,1.1083999999999998
-0.6717557251908397,1.7099236641221374,-1.4351145038167938,-0.443115234375,0.005126953125,-0.26708984375,1.1100999999999999
-0.6106870229007634,1.633587786259542,-1.4045801526717556,-0.439208984375,0.001708984375,-0.254150390625,1.1118
-0.6106870229007634,1.7557251908396947,-1.3129770992366412,-0.441650390625,0.001220703125,-0.25830078125,1.1135
-0.7022900763358778,1.5572519083969465,-1.4045801526717556,-0.442626953125,0.00048828125,-0.260986328125,1.1152
-0.9770992366412213,1.6641221374045803,-1.2671755725190839,-0.4423828125,0.00341796875,-0.26953125,1.1169
-0.7938931297709924,1.4045801526717556,-1.083969465648855,-0.438720703125,0.001953125,-0.26171875,1.1186
-0.549618320610687,1.4961832061068703,-1.2213740458015268,-0.44287109375,0.003662109375,-0.27685546875,1.1202999999999999
-0.7480916030534351,1.3893129770992367,-1.083969465648855,-0.442138671875,0.007568359375,-0.2626953125,1.1219999999999999
-0.7480916030534351,1.4961832061068703,-1.2366412213740459,-0.444580078125,0.005615234375,-0.271484375,1.1237
-0.7022900763358778,1.3740458015267176,-1.1755725190839694,-0.438232421875,0.002685546875,-0.266357421875,1.1254
-0.8091603053435115,1.2213740458015268,-1.282442748091603,-0.441162109375,0.004638671875,-0.260986328125,1.1271
-0.9465648854961832,1.251908396946565,-1.1297709923664123,-0.4384765625,0.003662109375,-0.26171875,1.1288
-0.9923664122137404,1.3740458015267176,-1.1603053435114503,-0.437744140625,0.001953125,-0.260498046875,1.1304999999999998
-0.8549618320610687,1.3435114503816794,-1.2213740458015268,-0.447998046875,0.00244140625,-0.266845703125,1.1321999999999999
-0.7022900763358778,1.3893129770992367,-1.2213740458015268,-0.441650390625,0.002197265625,-0.265625,1.1339
-1.0229007633587786,1.4045801526717556,-1.297709923664122,-0.443603515625,0.002685546875,-0.267333984375,1.1356
-0.6717557251908397,1.450381679389313,-1.1145038167938932,-0.444091796875,0.0048828125,-0.266357421875,1.1373
-0.6259541984732825,1.2671755725190839,-1.0076335877862594,-0.4453125,0.005615234375,-0.267822265625,1.139
-0.6717557251908397,1.297709923664122,-1.1908396946564885,-0.43994140625,0.001708984375,-0.269775390625,1.1407
-0.916030534351145,1.251908396946565,-1.1755725190839694,-0.443359375,0.005859375,-0.26416015625,1.1423999999999999
-0.8244274809160306,1.251908396946565,-0.9923664122137404,-0.4404296875,0.0068359375,-0.266845703125,1.1441
-0.8244274809160306,1.251908396946565,-1.099236641221374,-0.4384765625,0.0068359375,-0.273193359375,1.1458
-0.916030534351145,1.2366412213740459,-1.0534351145038168,-0.4375,0.00341796875,-0.2666015625,1.1475
-0.7786259541984732,1.1145038167938932,-1.282442748091603,-0.445068359375,0.00341796875,-0.26708984375,1.1492
-0.6106870229007634,1.2366412213740459,-1.0229007633587786,-0.43701171875,0.00048828125,-0.258056640625,1.1509
-0.7022900763358778,1.083969465648855,-1.0534351145038168,-0.437744140625,0.00830078125,-0.2626953125,1.1525999999999998
-0.7175572519083969,1.2213740458015268,-1.1145038167938932,-0.442138671875,0.000244140625,-0.26806640625,1.1542999999999999
-0.5954198473282443,1.1908396946564885,-1.3282442748091603,-0.44287109375,0.00341796875,-0.26806640625,1.156
-0.7022900763358778,1.3282442748091603,-1.1145038167938932,-0.442626953125,0.008544921875,-0.267578125,1.1577
-0.5954198473282443,1.3129770992366412,-0.9465648854961832,-0.43701171875,0.010009765625,-0.2666015625,1.1594
-0.5038167938931297,1.1908396946564885,-1.0076335877862594,-0.44287109375,0.00927734375,-0.25927734375,1.1611
-0.3816793893129771,1.1450381679389312,-0.9923664122137404,-0.440673828125,0.0029296875,-0.259521484375,1.1627999999999998
-0.3969465648854962,1.2061068702290076,-0.9312977099236641,-0.44384765625,0.003662109375,-0.26220703125,1.1644999999999999
-0.549618320610687,1.3129770992366412,-1.083969465648855,-0.443603515625,0.005615234375,-0.258544921875,1.1662
-0.22900763358778625,1.3893129770992367,-0.9465648854961832,-0.448974609375,0.012939453125,-0.26953125,1.1679
-0.5038167938931297,1.5572519083969465,-1.0534351145038168,-0.442138671875,0.006591796875,-0.26904296875,1.1696
-0.3511450381679389,1.4045801526717556,-1.1450381679389312,-0.447509765625,0.005859375,-0.27587890625,1.1713
-0.21374045801526717,1.7099236641221374,-0.9465648854961832,-0.44482421875,0.00341796875,-0.267822265625,1.173
-0.366412213740458,1.6030534351145038,-0.8396946564885496,-0.440673828125,0.002197265625,-0.267578125,1.1746999999999999
-0.4122137404580153,1.465648854961832,-0.916030534351145,-0.44140625,0.006591796875,-0.26513671875,1.1764
-0.3053435114503817,1.786259541984733,-0.9007633587786259,-0.44384765625,0.005126953125,-0.265380859375,1.1781
-0.24427480916030533,1.633587786259542,-0.8396946564885496,-0.443603515625,0.00390625,-0.266357421875,1.1798
-0.44274809160305345,1.7709923664122138,-0.7633587786259542,-0.441162109375,0.0078125,-0.2685546875,1.1815
0.015267175572519083,1.8931297709923665,-0.732824427480916,-0.441162109375,0.007080078125,-0.25634765625,1.1832
-0.061068702290076333,1.7404580152671756,-0.7786259541984732,-0.443115234375,0.003662109375,-0.260009765625,1.1848999999999998
-0.04580152671755725,1.8625954198473282,-0.6717557251908397,-0.44482421875,0.013427734375,-0.266845703125,1.1865999999999999
-0.030534351145038167,1.984732824427481,-0.3816793893129771,-0.442138671875,0.004150390625,-0.2646484375,1.1883
0.0916030534351145,1.9236641221374047,-0.6259541984732825,-0.439208984375,0.00390625,-0.27294921875,1.19
0.15267175572519084,2.015267175572519,-0.48854961832061067,-0.439208984375,0.00390625,-0.27001953125,1.1917
0.015267175572519083,2.2442748091603053,-0.44274809160305345,-0.441650390625,0.009033203125,-0.26220703125,1.1934
0.12213740458015267,2.1068702290076335,-0.5343511450381679,-0.444091796875,0.011474609375,-0.27197265625,1.1950999999999998
0.1984732824427481,2.213740458015267,-0.44274809160305345,-0.443115234375,0.00830078125,-0.27099609375,1.1967999999999999
0.030534351145038167,2.122137404580153,-0.4580152671755725,-0.447998046875,0.003173828125,-0.265625,1.1985
0.12213740458015267,2.1526717557251906,-0.2900763358778626,-0.440185546875,0.0068359375,-0.263916015625,1.2002
0.366412213740458,2.1526717557251906,-0.33587786259541985,-0.439208984375,0.00634765625,-0.2685546875,1.2019
0.2595419847328244,2.198473282442748,-0.3053435114503817,-0.4443359375,0.007568359375,-0.265625,1.2036
0.0916030534351145,2.2748091603053435,-0.42748091603053434,-0.4375,0.00244140625,-0.259521484375,1.2053
0.549618320610687,2.381679389312977,-0.4580152671755725,-0.438720703125,0.00830078125,-0.263671875,1.2069999999999999
0.3969465648854962,2.2900763358778624,-0.1984732824427481,-0.4423828125,0.012451171875,-0.269287109375,1.2086999999999999
0.366412213740458,2.33587786259542,-0.21374045801526717,-0.436279296875,0.008544921875,-0.265869140625,1.2104
0.42748091603053434,2.33587786259542,-0.183206106870229,-0.44384765625,0.01025390625,-0.27001953125,1.2121
0.6870229007633588,2.3206106870229006,-0.24427480916030533,-0.439208984375,0.005126953125,-0.26708984375,1.2138
0.4580152671755725,2.3969465648854964,-0.13740458015267176,-0.43994140625,0.0087890625,-0.268798828125,1.2155
0.549618320610687,2.4732824427480917,-0.16793893129770993,-0.443359375,0.002685546875,-0.2626953125,1.2171999999999998
0.5954198473282443,2.2900763358778624,0.030534351145038167,-0.44677734375,0.005126953125,-0.263671875,1.2188999999999999
0.6412213740458015,2.2900763358778624,-0.1984732824427481,-0.437255859375,0.006103515625,-0.266845703125,1.2206
0.8549618320610687,2.4122137404580153,0.04580152671755725,-0.441650390625,0.009033203125,-0.260009765625,1.2223
0.7480916030534351,2.33587786259542,-0.1984732824427481,-0.442626953125,0.01171875,-0.26220703125,1.224
0.8549618320610687,2.4122137404580153,0.10687022900763359,-0.441162109375,0.011474609375,-0.26904296875,1.2257
0.8854961832061069,2.183206106870229,-0.15267175572519084,-0.436279296875,0.0078125,-0.265625,1.2273999999999998
0.8396946564885496,2.3206106870229006,0.061068702290076333,-0.44091796875,0.009521484375,-0.2548828125,1.2290999999999999
1.0076335877862594,2.3053435114503817,0.061068702290076333,-0.443359375,0.008544921875,-0.250732421875,1.2308
0.9770992366412213,2.2900763358778624,-0.015267175572519083,-0.43994140625,0.006103515625,-0.264892578125,1.2325
0.916030534351145,2.3053435114503817,-0.13740458015267176,-0.44189453125,0.00390625,-0.267578125,1.2342
1.2213740458015268,2.213740458015267,-0.030534351145038167,-0.443603515625,0.0068359375,-0.2646484375,1.2359
1.3740458015267176,2.1374045801526718,0.10687022900763359,-0.4384765625,0.01416015625,-0.261474609375,1.2376
1.282442748091603,2.1374045801526718,0.16793893129770993,-0.4375,0.006103515625,-0.255859375,1.2392999999999998
1.1145038167938932,2.045801526717557,-0.10687022900763359,-0.44140625,0.005615234375,-0.26513671875,1.2409999999999999
1.1145038167938932,2.2442748091603053,0.16793893129770993,-0.437255859375,0.010498046875,-0.2666015625,1.2427
1.450381679389313,1.9694656488549618,0.183206106870229,-0.439208984375,0.005126953125,-0.266357421875,1.2444
1.3435114503816794,1.9389312977099236,0.07633587786259542,-0.43994140625,0.00634765625,-0.2646484375,1.2461
1.2366412213740459,2.015267175572519,0.12213740458015267,-0.439208984375,0.012939453125,-0.268310546875,1.2478
1.3587786259541985,1.9694656488549618,0.12213740458015267,-0.44091796875,0.007080078125,-0.2646484375,1.2494999999999998
1.5419847328244274,1.9694656488549618,0.15267175572519084,-0.439453125,0.01318359375,-0.26953125,1.2511999999999999
1.2366412213740459,1.816793893129771,0.061068702290076333,-0.442138671875,0.009033203125,-0.263427734375,1.2529
1.465648854961832,1.786259541984733,-0.07633587786259542,-0.445556640625,0.01025390625,-0.259521484375,1.2546
1.7099236641221374,1.7251908396946565,0.16793893129770993,-0.43896484375,0.008056640625,-0.2705078125,1.2563
1.6793893129770991,1.7251908396946565,-0.10687022900763359,-0.4404296875,0.005615234375,-0.2705078125,1.258
1.6030534351145038,1.83206106870229,0.030534351145038167,-0.44140625,0.009765625,-0.264892578125,1.2596999999999998
1.5725190839694656,1.8931297709923665,0.030534351145038167,-0.43603515625,0.00244140625,-0.260986328125,1.2613999999999999
1.6030534351145038,1.6030534351145038,0.030534351145038167,-0.44140625,0.006591796875,-0.260009765625,1.2631
1.816793893129771,1.8473282442748091,-0.12213740458015267,-0.445068359375,0.010009765625,-0.265380859375,1.2648
1.7251908396946565,1.6641221374045803,-0.015267175572519083,-0.436767578125,0.00634765625,-0.263671875,1.2665
1.6946564885496183,1.6030534351145038,-0.12213740458015267,-0.436767578125,0.013427734375,-0.26513671875,1.2682
1.9083969465648856,1.6030534351145038,0.030534351145038167,-0.4375,0.012451171875,-0.267822265625,1.2699
2.030534351145038,1.4961832061068703,-0.21374045801526717,-0.437744140625,0.009521484375,-0.2626953125,1.2715999999999998
1.7404580152671756,1.5267175572519085,-0.061068702290076333,-0.445556640625,0.01025390625,-0.258056640625,1.2732999999999999
1.8473282442748091,1.618320610687023,-0.2900763358778626,-0.4462890625,0.00830078125,-0.25927734375,1.275
1.9236641221374047,1.633587786259542,-0.10687022900763359,-0.443115234375,0.010498046875,-0.27197265625,1.2767
1.8931297709923665,1.5114503816793894,-0.3053435114503817,-0.436767578125,0.0078125,-0.26806640625,1.2784
2.0,1.4351145038167938,-0.2595419847328244,-0.438232421875,0.00634765625,-0.270263671875,1.2801
1.7251908396946565,1.4045801526717556,-0.48854961832061067,-0.443603515625,0.003662109375,-0.26123046875,1.2817999999999998
1.8625954198473282,1.450381679389313,-0.32061068702290074,-0.4404296875,0.0078125,-0.27392578125,1.2834999999999999
2.045801526717557,1.5419847328244274,-0.4122137404580153,-0.439453125,0.006103515625,-0.27783203125,1.2852
2.015267175572519,1.5114503816793894,-0.21374045801526717,-0.43896484375,0.009033203125,-0.279052734375,1.2869
1.9389312977099236,1.633587786259542,-0.2900763358778626,-0.4404296875,0.011474609375,-0.26953125,1.2886
1.984732824427481,1.4961832061068703,-0.4122137404580153,-0.442138671875,0.006103515625,-0.25927734375,1.2903
2.16793893129771,1.7099236641221374,-0.3511450381679389,-0.443359375,0.00537109375,-0.26416015625,1.292
1.8931297709923665,1.6946564885496183,-0.3511450381679389,-0.439697265625,0.004638671875,-0.265869140625,1.2936999999999999
1.8778625954198473,1.6793893129770991,-0.5343511450381679,-0.438720703125,0.004150390625,-0.26220703125,1.2953999999999999
1.9694656488549618,1.7099236641221374,-0.33587786259541985,-0.436767578125,0.004638671875,-0.264892578125,1.2971
1.9236641221374047,1.465648854961832,-0.4732824427480916,-0.433349609375,0.00830078125,-0.267822265625,1.2988
1.9236641221374047,1.5114503816793894,-0.4732824427480916,-0.433349609375,0.001708984375,-0.26171875,1.3005
2.045801526717557,1.465648854961832,-0.5190839694656488,-0.430908203125,0.001708984375,-0.260498046875,1.3022
1.8931297709923665,1.282442748091603,-0.549618320610687,-0.436767578125,0.006591796875,-0.26904296875,1.3038999999999998
1.816793893129771,1.1603053435114503,-0.549618320610687,-0.43505859375,0.007080078125,-0.26416015625,1.3055999999999999
1.6488549618320612,1.0687022900763359,-0.366412213740458,-0.443115234375,0.008056640625,-0.267822265625,1.3073
1.7557251908396947,1.1145038167938932,-0.366412213740458,-0.4423828125,0.00537109375,-0.26806640625,1.309
1.4045801526717556,1.083969465648855,-0.2900763358778626,-0.4365234375,0.0107421875,-0.27001953125,1.3107
1.5725190839694656,1.1450381679389312,-0.48854961832061067,-0.439453125,0.00390625,-0.2685546875,1.3124
1.465648854961832,0.8396946564885496,-0.4732824427480916,-0.441650390625,0.0029296875,-0.259765625,1.3140999999999998
1.5267175572519085,1.0076335877862594,-0.5343511450381679,-0.439697265625,0.01123046875,-0.26171875,1.3157999999999999
1.4351145038167938,0.916030534351145,-0.5190839694656488,-0.443359375,0.005615234375,-0.27099609375,1.3175
1.2366412213740459,0.9618320610687023,-0.6717557251908397,-0.440673828125,0.005615234375,-0.264404296875,1.3192
1.450381679389313,1.0381679389312977,-0.32061068702290074,-0.44287109375,0.00146484375,-0.26953125,1.3209
1.4961832061068703,1.1297709923664123,-0.3969465648854962,-0.4375,0.002197265625,-0.2666015625,1.3226
1.450381679389313,1.2213740458015268,-0.5343511450381679,-0.44140625,0.00830078125,-0.264404296875,1.3243
1.3282442748091603,1.297709923664122,-0.5648854961832062,-0.435791015625,0.004150390625,-0.265380859375,1.3259999999999998
1.083969465648855,1.1145038167938932,-0.42748091603053434,-0.44287109375,0.00830078125,-0.2685546875,1.3276999999999999
1.2366412213740459,1.1145038167938932,-0.5648854961832062,-0.439208984375,0.00537109375,-0.2607421875,1.3294
1.1145038167938932,1.2061068702290076,-0.6717557251908397,-0.44287109375,0.00732421875,-0.258056640625,1.3311
1.1450381679389312,1.251908396946565,-0.549618320610687,-0.44091796875,0.00341796875,-0.2646484375,1.3328
1.1908396946564885,1.297709923664122,-0.5190839694656488,-0.441162109375,0.010009765625,-0.260986328125,1.3345
1.3282442748091603,1.282442748091603,-0.7633587786259542,-0.439453125,0.006591796875,-0.265869140625,1.3361999999999998
1.1145038167938932,1.4045801526717556,-0.7175572519083969,-0.44384765625,0.012451171875,-0.2685546875,1.3378999999999999
1.083969465648855,1.465648854961832,-0.8702290076335878,-0.441162109375,0.006591796875,-0.257568359375,1.3396
1.297709923664122,1.3129770992366412,-0.8549618320610687,-0.44189453125,0.007568359375,-0.255859375,1.3413
1.2671755725190839,1.4961832061068703,-0.8396946564885496,-0.4384765625,0.010986328125,-0.261962890625,1.343
1.2671755725190839,1.4045801526717556,-1.083969465648855,-0.4404296875,0.010009765625,-0.26123046875,1.3447
1.2366412213740459,1.450381679389313,-0.9770992366412213,-0.43701171875,0.0068359375,-0.2626953125,1.3463999999999998
1.2366412213740459,1.5572519083969465,-1.0687022900763359,-0.435791015625,0.00927734375,-0.2607421875,1.3480999999999999
1.282442748091603,1.4045801526717556,-1.1297709923664123,-0.4384765625,0.003662109375,-0.266845703125,1.3497999999999999
1.3129770992366412,1.3587786259541985,-1.083969465648855,-0.43798828125,0.0107421875,-0.256103515625,1.3515
1.3587786259541985,1.3129770992366412,-1.0687022900763359,-0.437744140625,0.008544921875,-0.256103515625,1.3532
1.4351145038167938,1.3740458015267176,-1.1450381679389312,-0.44189453125,0.0087890625,-0.265625,1.3549
1.3740458015267176,1.3129770992366412,-1.0687022900763359,-0.43896484375,0.00537109375,-0.26416015625,1.3566
1.5267175572519085,1.4198473282442747,-1.083969465648855,-0.439208984375,0.01171875,-0.261962890625,1.3582999999999998
1.2366412213740459,1.3435114503816794,-1.2061068702290076,-0.445556640625,0.005859375,-0.26708984375,1.3599999999999999
1.3435114503816794,1.465648854961832,-1.1450381679389312,-0.443115234375,0.01220703125,-0.263427734375,1.3617
1.3893129770992367,1.5114503816793894,-1.2213740458015268,-0.4404296875,0.007568359375,-0.271240234375,1.3634
1.3740458015267176,1.7251908396946565,-1.1450381679389312,-0.43798828125,0.00634765625,-0.26904296875,1.3651
1.4045801526717556,1.6946564885496183,-1.2366412213740459,-0.4423828125,0.001708984375,-0.27197265625,1.3668
1.0229007633587786,1.633587786259542,-1.0534351145038168,-0.438720703125,0.010009765625,-0.263916015625,1.3684999999999998
1.5114503816793894,1.633587786259542,-1.297709923664122,-0.44189453125,0.0068359375,-0.269287109375,1.3701999999999999
1.4351145038167938,1.633587786259542,-1.1908396946564885,-0.441650390625,0.004638671875,-0.25927734375,1.3719
1.1297709923664123,1.4961832061068703,-1.1908396946564885,-0.444580078125,0.005615234375,-0.261962890625,1.3736
1.099236641221374,1.4961832061068703,-1.099236641221374,-0.441162109375,0.009033203125,-0.2626953125,1.3753
1.2061068702290076,1.5419847328244274,-1.1908396946564885,-0.44580078125,0.00732421875,-0.2734375,1.377
1.3282442748091603,1.6793893129770991,-1.297709923664122,-0.44482421875,0.0068359375,-0.271728515625,1.3786999999999998
1.282442748091603,1.633587786259542,-1.3740458015267176,-0.44091796875,0.009521484375,-0.270263671875,1.3803999999999998
1.2213740458015268,1.5877862595419847,-1.2213740458015268,-0.442138671875,0.004150390625,-0.27490234375,1.3820999999999999
1.3282442748091603,1.633587786259542,-1.1145038167938932,-0.44140625,0.004638671875,-0.258056640625,1.3838
1.1297709923664123,1.5725190839694656,-1.1603053435114503,-0.439453125,0.015625,-0.266357421875,1.3855
1.099236641221374,1.465648854961832,-1.099236641221374,-0.443359375,0.00732421875,-0.26708984375,1.3872
1.2213740458015268,1.7099236641221374,-1.1908396946564885,-0.442626953125,0.009521484375,-0.253662109375,1.3889
1.0381679389312977,1.633587786259542,-1.1603053435114503,-0.439208984375,0.01025390625,-0.265869140625,1.3905999999999998
1.2671755725190839,1.618320610687023,-1.297709923664122,-0.438720703125,0.004638671875,-0.2646484375,1.3922999999999999
1.1603053435114503,1.6946564885496183,-1.1450381679389312,-0.447265625,0.003662109375,-0.268310546875,1.394
1.2671755725190839,1.5114503816793894,-1.1755725190839694,-0.439697265625,0.009033203125,-0.2607421875,1.3957
1.1755725190839694,1.5572519083969465,-1.2061068702290076,-0.4404296875,0.009521484375,-0.262939453125,1.3974
1.1908396946564885,1.7404580152671756,-1.3587786259541985,-0.44482421875,0.005126953125,-0.265380859375,1.3991
1.1450381679389312,1.5419847328244274,-1.1297709923664123,-0.43505859375,0.00341796875,-0.26806640625,1.4007999999999998
1.2671755725190839,1.4809160305343512,-1.099236641221374,-0.441162109375,0.006103515625,-0.26611328125,1.4024999999999999
1.251908396946565,1.4045801526717556,-1.4961832061068703,-0.442138671875,0.002685546875,-0.26318359375,1.4042
1.0687022900763359,1.5267175572519085,-1.3282442748091603,-0.438720703125,0.009765625,-0.26220703125,1.4059
1.2671755725190839,1.7709923664122138,-1.2671755725190839,-0.4423828125,0.001953125,-0.26318359375,1.4076
1.2671755725190839,1.5114503816793894,-1.1908396946564885,-0.442138671875,0.005859375,-0.26318359375,1.4093
1.2671755725190839,1.3282442748091603,-1.2366412213740459,-0.447265625,0.0078125,-0.255859375,1.411
1.3129770992366412,1.5877862595419847,-1.3282442748091603,-0.445068359375,0.009033203125,-0.270263671875,1.4126999999999998
1.3740458015267176,1.786259541984733,-1.282442748091603,-0.44091796875,0.012451171875,-0.258056640625,1.4143999999999999
1.3129770992366412,1.7404580152671756,-1.251908396946565,-0.44580078125,0.0087890625,-0.27001953125,1.4161
1.1450381679389312,1.5114503816793894,-1.282442748091603,-0.442138671875,0.01025390625,-0.26513671875,1.4178
1.2366412213740459,1.4045801526717556,-1.2061068702290076,-0.44189453125,0.01513671875,-0.270263671875,1.4195
1.2061068702290076,1.633587786259542,-1.251908396946565,-0.435546875,0.009033203125,-0.270263671875,1.4212
1.4045801526717556,1.5419847328244274,-1.251908396946565,-0.44140625,0.006103515625,-0.26123046875,1.4228999999999998
1.4045801526717556,1.633587786259542,-1.2061068702290076,-0.440673828125,0.010009765625,-0.261962890625,1.4245999999999999
1.099236641221374,1.5725190839694656,-1.2366412213740459,-0.439453125,0.009521484375,-0.2666015625,1.4263
1.3129770992366412,1.5114503816793894,-1.297709923664122,-0.441650390625,0.00537109375,-0.272216796875,1.428
1.4198473282442747,1.618320610687023,-1.2671755725190839,-0.4384765625,0.01025390625,-0.27197265625,1.4297
1.4809160305343512,1.4961832061068703,-1.282442748091603,-0.4404296875,0.00927734375,-0.2685546875,1.4314
1.5114503816793894,1.5877862595419847,-1.3893129770992367,-0.4423828125,0.0078125,-0.272216796875,1.4330999999999998
1.2671755725190839,1.633587786259542,-1.3740458015267176,-0.43701171875,0.009765625,-0.267578125,1.4347999999999999
1.3435114503816794,1.6488549618320612,-1.1145038167938932,-0.435546875,0.009033203125,-0.26513671875,1.4364999999999999
1.4045801526717556,1.6641221374045803,-1.2366412213740459,-0.439208984375,0.011474609375,-0.264892578125,1.4382
1.6793893129770991,1.618320610687023,-1.3129770992366412,-0.435302734375,0.0048828125,-0.26904296875,1.4399
1.4045801526717556,1.5725190839694656,-1.3587786259541985,-0.437744140625,0.006591796875,-0.264404296875,1.4416
1.4198473282442747,1.618320610687023,-1.251908396946565,-0.438720703125,0.00341796875,-0.265625,1.4433
1.3740458015267176,1.5419847328244274,-1.1450381679389312,-0.440673828125,0.009521484375,-0.2626953125,1.4449999999999998
1.4961832061068703,1.5725190839694656,-1.2671755725190839,-0.435546875,0.01220703125,-0.262451171875,1.4466999999999999
1.5267175572519085,1.633587786259542,-1.1908396946564885,-0.438232421875,0.006591796875,-0.26318359375,1.4484
1.618320610687023,1.618320610687023,-1.083969465648855,-0.4404296875,0.0068359375,-0.26611328125,1.4501
1.6793893129770991,1.618320610687023,-1.099236641221374,-0.44140625,0.009521484375,-0.263916015625,1.4518
1.7404580152671756,1.618320610687023,-1.1908396946564885,-0.441162109375,0.012451171875,-0.25927734375,1.4535
1.5877862595419847,1.7557251908396947,-1.3587786259541985,-0.4423828125,0.009033203125,-0.265869140625,1.4551999999999998
1.618320610687023,1.633587786259542,-1.1603053435114503,-0.439208984375,0.007568359375,-0.260498046875,1.4568999999999999
1.7709923664122138,1.618320610687023,-1.2366412213740459,-0.440673828125,0.0078125,-0.2646484375,1.4586
1.6030534351145038,1.83206106870229,-1.1603053435114503,-0.444580078125,0.010498046875,-0.25927734375,1.4603
1.6488549618320612,1.984732824427481,-0.9770992366412213,-0.440185546875,0.004638671875,-0.2705078125,1.462
1.618320610687023,1.6641221374045803,-1.1908396946564885,-0.439208984375,0.011962890625,-0.26171875,1.4637
1.6793893129770991,1.9694656488549618,-1.083969465648855,-0.440673828125,0.009033203125,-0.261962890625,1.4653999999999998
1.7404580152671756,1.9236641221374047,-1.3129770992366412,-0.4443359375,0.014892578125,-0.269287109375,1.4670999999999998
1.8015267175572518,1.8931297709923665,-0.9923664122137404,-0.440673828125,0.010986328125,-0.263671875,1.4687999999999999
1.8015267175572518,2.1526717557251906,-0.8396946564885496,-0.43798828125,0.01025390625,-0.270751953125,1.4705
1.816793893129771,2.045801526717557,-1.0381679389312977,-0.441650390625,0.00146484375,-0.257080078125,1.4722
1.8778625954198473,1.9694656488549618,-1.083969465648855,-0.4384765625,0.006103515625,-0.267822265625,1.4739
1.9083969465648856,2.045801526717557,-0.9465648854961832,-0.435546875,0.0087890625,-0.26904296875,1.4756
2.0763358778625953,2.122137404580153,-0.9312977099236641,-0.43994140625,0.00927734375,-0.26513671875,1.4772999999999998
2.1068702290076335,1.984732824427481,-0.9312977099236641,-0.43994140625,0.01123046875,-0.271484375,1.4789999999999999
1.9541984732824427,2.213740458015267,-1.0381679389312977,-0.441650390625,0.0126953125,-0.2705078125,1.4807
2.1068702290076335,2.16793893129771,-0.916030534351145,-0.441650390625,0.010498046875,-0.268310546875,1.4824
2.1068702290076335,2.213740458015267,-0.8854961832061069,-0.445068359375,0.01025390625,-0.265380859375,1.4841
2.045801526717557,2.122137404580153,-0.9618320610687023,-0.44091796875,0.00537109375,-0.259033203125,1.4858
2.2595419847328246,2.213740458015267,-0.9007633587786259,-0.44189453125,0.005615234375,-0.267578125,1.4874999999999998
2.2442748091603053,2.4885496183206106,-0.6870229007633588,-0.44287109375,0.006103515625,-0.27001953125,1.4891999999999999
2.2595419847328246,2.183206106870229,-0.9618320610687023,-0.438232421875,0.00830078125,-0.263427734375,1.4909
2.0610687022900764,2.50381679389313,-0.9618320610687023,-0.439208984375,0.0126953125,-0.26513671875,1.4926
2.381679389312977,2.4885496183206106,-0.7786259541984732,-0.43896484375,0.006591796875,-0.265380859375,1.4943
2.2595419847328246,2.6564885496183206,-0.6259541984732825,-0.445556640625,0.005615234375,-0.26611328125,1.496
2.366412213740458,2.6564885496183206,-0.7175572519083969,-0.44091796875,0.013427734375,-0.26123046875,1.4976999999999998
2.3206106870229006,2.6106870229007635,-0.6412213740458015,-0.44091796875,0.008544921875,-0.267822265625,1.4993999999999998
2.213740458015267,2.6106870229007635,-0.549618320610687,-0.442626953125,0.005126953125,-0.267578125,1.5010999999999999
2.381679389312977,2.7938931297709924,-0.7022900763358778,-0.440185546875,0.01220703125,-0.267333984375,1.5028
2.2290076335877864,2.8244274809160306,-0.8091603053435115,-0.442138671875,0.007080078125,-0.2724609375,1.5045
2.4732824427480917,2.7938931297709924,-0.6259541984732825,-0.44287109375,0.0078125,-0.268310546875,1.5062
2.6106870229007635,2.885496183206107,-0.6106870229007634,-0.43896484375,0.0078125,-0.261474609375,1.5079
2.381679389312977,2.885496183206107,-0.366412213740458,-0.439697265625,0.00537109375,-0.263671875,1.5095999999999998
2.3206106870229006,2.7786259541984735,-0.7786259541984732,-0.443603515625,0.015380859375,-0.26708984375,1.5112999999999999
2.381679389312977,2.8244274809160306,-0.5954198473282443,-0.43994140625,0.013427734375,-0.2666015625,1.513
2.4122137404580153,2.885496183206107,-0.6564885496183206,-0.445068359375,0.010986328125,-0.2734375,1.5147
2.687022900763359,2.854961832061069,-0.549618320610687,-0.4375,0.00732421875,-0.268310546875,1.5164
2.4580152671755724,2.900763358778626,-0.5801526717557252,-0.441650390625,0.009765625,-0.261474609375,1.5181
2.4580152671755724,3.0076335877862594,-0.5190839694656488,-0.4443359375,0.007080078125,-0.27099609375,1.5197999999999998
2.4580152671755724,3.0229007633587788,-0.5954198473282443,-0.4384765625,0.0107421875,-0.266845703125,1.5214999999999999
2.4580152671755724,2.7480916030534353,-0.4122137404580153,-0.44140625,0.0087890625,-0.2666015625,1.5231999999999999
2.427480916030534,2.8091603053435112,-0.5343511450381679,-0.442138671875,0.013916015625,-0.2705078125,1.5249
2.5801526717557253,2.763358778625954,-0.5343511450381679,-0.43603515625,0.011962890625,-0.27392578125,1.5266
2.4122137404580153,2.8702290076335877,-0.549618320610687,-0.439453125,0.009521484375,-0.267822265625,1.5283
2.351145038167939,2.9618320610687023,-0.44274809160305345,-0.4384765625,0.0048828125,-0.2607421875,1.5299999999999998
2.50381679389313,2.900763358778626,-0.6412213740458015,-0.439208984375,0.011962890625,-0.261962890625,1.5316999999999998
2.7480916030534353,2.7480916030534353,-0.3816793893129771,-0.438232421875,0.0087890625,-0.267822265625,1.5333999999999999
2.6564885496183206,2.946564885496183,-0.5648854961832062,-0.4365234375,0.0068359375,-0.270751953125,1.5351
2.4122137404580153,2.854961832061069,-0.4732824427480916,-0.433837890625,0.00634765625,-0.26953125,1.5368
2.5343511450381677,2.885496183206107,-0.7786259541984732,-0.43994140625,0.010009765625,-0.27197265625,1.5385
2.6564885496183206,2.8091603053435112,-0.5648854961832062,-0.434326171875,0.007080078125,-0.26611328125,1.5402
2.6259541984732824,2.687022900763359,-0.6717557251908397,-0.441162109375,0.006591796875,-0.26806640625,1.5418999999999998
2.427480916030534,2.763358778625954,-0.5801526717557252,-0.435302734375,0.00537109375,-0.269287109375,1.5435999999999999
2.4427480916030535,2.687022900763359,-0.6106870229007634,-0.439208984375,0.00634765625,-0.265869140625,1.5453
2.427480916030534,2.7480916030534353,-0.6564885496183206,-0.4365234375,0.00830078125,-0.268798828125,1.547
2.6106870229007635,2.7938931297709924,-0.8091603053435115,-0.431640625,0.00634765625,-0.2685546875,1.5487
2.5801526717557253,2.5343511450381677,-0.6564885496183206,-0.43701171875,0.00927734375,-0.26953125,1.5504
2.5343511450381677,2.6259541984732824,-0.8702290076335878,-0.44091796875,0.009033203125,-0.2646484375,1.5520999999999998
2.6412213740458017,2.6564885496183206,-0.5954198473282443,-0.44189453125,0.006103515625,-0.27001953125,1.5537999999999998
2.6564885496183206,2.564885496183206,-0.6717557251908397,-0.439208984375,0.0087890625,-0.263916015625,1.5554999999999999
2.50381679389313,2.6412213740458017,-0.6870229007633588,-0.44091796875,0.00830078125,-0.26904296875,1.5572
2.5343511450381677,2.50381679389313,-0.7175572519083969,-0.44287109375,0.00830078125,-0.27001953125,1.5589
2.5801526717557253,2.549618320610687,-0.6564885496183206,-0.4384765625,0.01220703125,-0.2734375,1.5606
2.717557251908397,2.2748091603053435,-0.9465648854961832,-0.432861328125,0.0078125,-0.26123046875,1.5623
2.732824427480916,2.4427480916030535,-0.8244274809160306,-0.439453125,0.005615234375,-0.265380859375,1.5639999999999998
2.3969465648854964,2.4122137404580153,-0.9312977099236641,-0.436279296875,0.0009765625,-0.2705078125,1.5656999999999999
2.687022900763359,2.3206106870229006,-0.9007633587786259,-0.439208984375,0.007568359375,-0.2646484375,1.5674
2.3206106870229006,2.3053435114503817,-1.1450381679389312,-0.44091796875,0.005615234375,-0.2578125,1.5691
2.5343511450381677,2.381679389312977,-1.0534351145038168,-0.433349609375,0.007568359375,-0.256103515625,1.5708
2.6564885496183206,2.0763358778625953,-1.1755725190839694,-0.44189453125,0.00732421875,-0.2724609375,1.5725
2.2748091603053435,1.984732824427481,-1.0076335877862594,-0.438232421875,0.010986328125,-0.2666015625,1.5741999999999998
2.564885496183206,2.030534351145038,-1.1908396946564885,-0.4375,0.006591796875,-0.26953125,1.5758999999999999
2.519083969465649,1.9389312977099236,-1.2213740458015268,-0.437255859375,0.010009765625,-0.28076171875,1.5776
2.3969465648854964,1.984732824427481,-1.297709923664122,-0.43896484375,0.00341796875,-0.263427734375,1.5793
2.4122137404580153,1.9236641221374047,-1.2061068702290076,-0.4384765625,0.011474609375,-0.264404296875,1.581
2.4580152671755724,1.7709923664122138,-1.1145038167938932,-0.43994140625,0.009033203125,-0.2646484375,1.5827
2.564885496183206,1.8473282442748091,-1.1145038167938932,-0.435546875,0.006103515625,-0.2666015625,1.5843999999999998
2.030534351145038,1.9389312977099236,-1.3282442748091603,-0.437744140625,0.009521484375,-0.26806640625,1.5860999999999998
2.2595419847328246,1.8625954198473282,-1.1603053435114503,-0.436767578125,0.009033203125,-0.26318359375,1.5877999999999999
2.3053435114503817,1.7099236641221374,-1.3740458015267176,-0.437744140625,0.008544921875,-0.26806640625,1.5895
2.2900763358778624,1.6641221374045803,-1.1755725190839694,-0.4384765625,0.003173828125,-0.278076171875,1.5912
2.0916030534351147,1.5419847328244274,-1.3893129770992367,-0.439697265625,0.007080078125,-0.2724609375,1.5929
2.0916030534351147,1.5572519083969465,-1.3587786259541985,-0.439208984375,0.005126953125,-0.267822265625,1.5946
2.213740458015267,1.633587786259542,-1.3435114503816794,-0.439697265625,0.00830078125,-0.27099609375,1.5962999999999998
2.015267175572519,1.618320610687023,-1.2213740458015268,-0.436279296875,0.006591796875,-0.27099609375,1.5979999999999999
2.2595419847328246,1.7099236641221374,-1.2213740458015268,-0.43603515625,0.00732421875,-0.268310546875,1.5997
1.984732824427481,1.5114503816793894,-1.3435114503816794,-0.436279296875,0.0078125,-0.276123046875,1.6014
2.0916030534351147,1.4198473282442747,-1.297709923664122,-0.435302734375,0.003662109375,-0.27392578125,1.6031
2.122137404580153,1.465648854961832,-1.2366412213740459,-0.436279296875,0.00341796875,-0.263671875,1.6048
2.1068702290076335,1.282442748091603,-1.4809160305343512,-0.438720703125,0.009765625,-0.268798828125,1.6064999999999998
1.9694656488549618,1.297709923664122,-1.6488549618320612,-0.436279296875,0.011962890625,-0.265625,1.6081999999999999
1.9541984732824427,1.282442748091603,-1.4198473282442747,-0.43603515625,0.00634765625,-0.27294921875,1.6098999999999999
1.9083969465648856,1.3435114503816794,-1.4198473282442747,-0.436279296875,0.006103515625,-0.27099609375,1.6116
1.786259541984733,1.3740458015267176,-1.5725190839694656,-0.437744140625,0.003662109375,-0.26171875,1.6133
1.5877862595419847,1.251908396946565,-1.450381679389313,-0.436767578125,0.007080078125,-0.26513671875,1.615
1.7709923664122138,1.2213740458015268,-1.5725190839694656,-0.43701171875,0.00927734375,-0.269287109375,1.6166999999999998
1.7404580152671756,1.297709923664122,-1.5877862595419847,-0.43994140625,0.00439453125,-0.2666015625,1.6183999999999998
1.5877862595419847,1.1450381679389312,-1.5114503816793894,-0.437255859375,0.005859375,-0.275634765625,1.6200999999999999
1.6793893129770991,1.1908396946564885,-1.4809160305343512,-0.43701171875,0.005615234375,-0.272216796875,1.6218
1.9236641221374047,1.297709923664122,-1.5725190839694656,-0.43603515625,0.006103515625,-0.265380859375,1.6235
1.7099236641221374,1.2213740458015268,-1.465648854961832,-0.4345703125,0.0087890625,-0.265625,1.6252
1.7709923664122138,1.282442748091603,-1.618320610687023,-0.43798828125,0.003662109375,-0.26953125,1.6269
1.5114503816793894,1.3893129770992367,-1.633587786259542,-0.43603515625,0.00537109375,-0.26025390625,1.6285999999999998
1.8015267175572518,1.1908396946564885,-1.633587786259542,-0.44384765625,0.009033203125,-0.26513671875,1.6302999999999999
1.4961832061068703,1.282442748091603,-1.6488549618320612,-0.441650390625,0.0078125,-0.266357421875,1.632
1.4961832061068703,1.4809160305343512,-1.5877862595419847,-0.436279296875,0.010498046875,-0.267333984375,1.6337
1.7251908396946565,1.3282442748091603,-1.5419847328244274,-0.43408203125,0.01318359375,-0.266357421875,1.6354
1.7404580152671756,1.465648854961832,-1.7404580152671756,-0.43115234375,0.00927734375,-0.27001953125,1.6371
1.5419847328244274,1.4198473282442747,-1.5725190839694656,-0.439453125,0.006591796875,-0.26123046875,1.6387999999999998
1.3587786259541985,1.251908396946565,-1.6488549618320612,-0.43603515625,0.005126953125,-0.270263671875,1.6404999999999998
1.633587786259542,1.3129770992366412,-1.5572519083969465,-0.434326171875,0.006103515625,-0.273681640625,1.6421999999999999
1.7099236641221374,1.297709923664122,-1.6946564885496183,-0.437744140625,0.00537109375,-0.27392578125,1.6439
1.4809160305343512,1.3129770992366412,-1.5114503816793894,-0.4365234375,0.006103515625,-0.274169921875,1.6456
1.6641221374045803,1.4045801526717556,-1.4961832061068703,-0.436767578125,0.009033203125,-0.271728515625,1.6473
1.5877862595419847,1.3129770992366412,-1.7099236641221374,-0.435546875,0.007568359375,-0.267822265625,1.6489999999999998
1.5267175572519085,1.4045801526717556,-1.9083969465648856,-0.43701171875,0.010986328125,-0.263427734375,1.6506999999999998
1.465648854961832,1.282442748091603,-1.6946564885496183,-0.435546875,0.009765625,-0.267578125,1.6523999999999999
1.6488549618320612,1.3893129770992367,-1.7557251908396947,-0.435302734375,0.00537109375,-0.277099609375,1.6541
1.465648854961832,1.3587786259541985,-1.7099236641221374,-0.43359375,0.007080078125,-0.271484375,1.6558
1.6488549618320612,1.465648854961832,-1.8625954198473282,-0.44287109375,0.006591796875,-0.27001953125,1.6575
1.450381679389313,1.5877862595419847,-1.8473282442748091,-0.440185546875,0.006591796875,-0.266845703125,1.6592
1.465648854961832,1.4045801526717556,-1.8931297709923665,-0.437744140625,0.005859375,-0.266357421875,1.6608999999999998
1.4198473282442747,1.3435114503816794,-1.8473282442748091,-0.440673828125,0.007080078125,-0.27294921875,1.6625999999999999
1.5114503816793894,1.6488549618320612,-1.7557251908396947,-0.43994140625,0.0078125,-0.268310546875,1.6643
1.450381679389313,1.5419847328244274,-1.83206106870229,-0.438720703125,0.011474609375,-0.264404296875,1.666
1.618320610687023,1.6488549618320612,-1.9236641221374047,-0.4423828125,0.009521484375,-0.267578125,1.6677
1.6793893129770991,1.7404580152671756,-1.6793893129770991,-0.435791015625,0.0068359375,-0.267822265625,1.6694
1.3740458015267176,1.465648854961832,-1.816793893129771,-0.443115234375,0.0068359375,-0.27197265625,1.6710999999999998
1.5877862595419847,1.618320610687023,-1.8473282442748091,-0.438232421875,0.00830078125,-0.265869140625,1.6727999999999998
1.465648854961832,1.5725190839694656,-1.9083969465648856,-0.44189453125,0.005615234375,-0.274169921875,1.6744999999999999
1.7251908396946565,1.4961832061068703,-1.9541984732824427,-0.443603515625,0.009765625,-0.27587890625,1.6762
1.6030534351145038,1.5572519083969465,-1.816793893129771,-0.43701171875,0.009033203125,-0.265869140625,1.6779
1.6793893129770991,1.4809160305343512,-1.8931297709923665,-0.434814453125,0.00537109375,-0.274658203125,1.6796
1.4351145038167938,1.4961832061068703,-1.8778625954198473,-0.43798828125,0.0078125,-0.271484375,1.6813
1.4351145038167938,1.7099236641221374,-1.7099236641221374,-0.43896484375,0.008544921875,-0.275634765625,1.6829999999999998
1.4961832061068703,1.4809160305343512,-1.9541984732824427,-0.44287109375,0.010986328125,-0.271728515625,1.6846999999999999
1.5572519083969465,1.465648854961832,-1.816793893129771,-0.437255859375,0.0048828125,-0.275634765625,1.6864
1.6641221374045803,1.4351145038167938,-1.8625954198473282,-0.4384765625,0.007568359375,-0.270263671875,1.6881
1.465648854961832,1.3129770992366412,-1.9083969465648856,-0.43017578125,0.007568359375,-0.272705078125,1.6898
1.618320610687023,1.4045801526717556,-1.7709923664122138,-0.4375,0.008544921875,-0.25927734375,1.6915
1.465648854961832,1.465648854961832,-1.6641221374045803,-0.4375,0.00439453125,-0.269287109375,1.6931999999999998
1.816793893129771,1.2061068702290076,-1.83206106870229,-0.435791015625,0.008544921875,-0.269775390625,1.6948999999999999
1.618320610687023,1.251908396946565,-2.0,-0.44140625,0.001708984375,-0.27294921875,1.6965999999999999
1.6488549618320612,1.1450381679389312,-1.7099236641221374,-0.433837890625,0.00341796875,-0.272216796875,1.6983
1.8473282442748091,1.2061068702290076,-1.633587786259542,-0.43310546875,0.0048828125,-0.266845703125,1.7
1.5419847328244274,1.1450381679389312,-1.7099236641221374,-0.437255859375,0.003173828125,-0.273193359375,1.7017
1.7251908396946565,0.9923664122137404,-1.83206106870229,-0.4375,0.009765625,-0.275390625,1.7033999999999998
1.5725190839694656,1.1297709923664123,-1.7404580152671756,-0.439697265625,0.0029296875,-0.27685546875,1.7050999999999998
1.5572519083969465,1.1755725190839694,-1.786259541984733,-0.438232421875,0.0078125,-0.268310546875,1.7067999999999999
1.6946564885496183,1.0381679389312977,-1.83206106870229,-0.43701171875,0.006103515625,-0.277587890625,1.7085
1.6030534351145038,0.7633587786259542,-1.7404580152671756,-0.43701171875,0.006591796875,-0.266845703125,1.7102
1.6030534351145038,0.7480916030534351,-1.7709923664122138,-0.43603515625,0.006103515625,-0.265380859375,1.7119
1.6641221374045803,0.8702290076335878,-1.633587786259542,-0.43603515625,0.005615234375,-0.27978515625,1.7136
1.3435114503816794,0.6717557251908397,-1.6488549618320612,-0.4375,0.0107421875,-0.27587890625,1.7152999999999998
1.6946564885496183,0.6412213740458015,-1.5877862595419847,-0.43798828125,0.005615234375,-0.27392578125,1.7169999999999999
1.7251908396946565,0.5954198473282443,-1.5114503816793894,-0.4384765625,0.01025390625,-0.2705078125,1.7187
1.5419847328244274,0.4122137404580153,-1.5267175572519085,-0.43359375,0.003173828125,-0.271240234375,1.7204
1.633587786259542,0.5343511450381679,-1.450381679389313,-0.4365234375,0.005126953125,-0.269775390625,1.7221
1.5419847328244274,0.4732824427480916,-1.450381679389313,-0.438720703125,0.005615234375,-0.266845703125,1.7238
1.6030534351145038,0.3511450381679389,-1.282442748091603,-0.439208984375,0.00146484375,-0.269287109375,1.7254999999999998
1.5419847328244274,0.366412213740458,-1.3587786259541985,-0.440185546875,0.005126953125,-0.2744140625,1.7271999999999998
1.4961832061068703,0.32061068702290074,-1.3282442748091603,-0.4375,-0.001220703125,-0.267333984375,1.7288999999999999
1.633587786259542,0.22900763358778625,-1.282442748091603,-0.4365234375,0.003173828125,-0.2646484375,1.7306
1.465648854961832,0.10687022900763359,-0.9618320610687023,-0.434326171875,0.001220703125,-0.266357421875,1.7323
1.297709923664122,0.04580152671755725,-1.1450381679389312,-0.44140625,0.001220703125,-0.26904296875,1.734
1.4045801526717556,0.030534351145038167,-0.8396946564885496,-0.437255859375,-0.002197265625,-0.27099609375,1.7356999999999998
1.3740458015267176,0.21374045801526717,-1.2061068702290076,-0.438232421875,0.006103515625,-0.268310546875,1.7373999999999998
1.1450381679389312,0.12213740458015267,-1.1297709923664123,-0.44140625,0.006591796875,-0.260498046875,1.7390999999999999
1.2366412213740459,0.15267175572519084,-1.1603053435114503,-0.440185546875,0.00390625,-0.2705078125,1.7408
1.3587786259541985,-0.04580152671755725,-0.8091603053435115,-0.442626953125,0.004638671875,-0.277587890625,1.7425
1.3282442748091603,-0.015267175572519083,-0.8396946564885496,-0.44580078125,0.0078125,-0.268798828125,1.7442
1.3587786259541985,0.061068702290076333,-0.8854961832061069,-0.440673828125,0.006591796875,-0.266357421875,1.7459
1.2213740458015268,0.04580152671755725,-0.7022900763358778,-0.43798828125,0.001953125,-0.269287109375,1.7475999999999998
1.0687022900763359,0.030534351145038167,-0.8091603053435115,-0.4404296875,0.004150390625,-0.27099609375,1.7492999999999999
1.3740458015267176,-0.13740458015267176,-0.6717557251908397,-0.44189453125,0.005615234375,-0.267578125,1.751
1.297709923664122,0.030534351145038167,-0.7480916030534351,-0.444580078125,0.005615234375,-0.267578125,1.7527
1.251908396946565,0.13740458015267176,-0.6870229007633588,-0.4462890625,0.00244140625,-0.267578125,1.7544
1.2366412213740459,-0.0916030534351145,-0.5648854961832062,-0.440673828125,0.006591796875,-0.267333984375,1.7561
0.9312977099236641,0.0916030534351145,-0.5954198473282443,-0.44580078125,0.007080078125,-0.2744140625,1.7577999999999998
1.1908396946564885,0.13740458015267176,-0.5038167938931297,-0.448486328125,0.010986328125,-0.26220703125,1.7594999999999998
0.9923664122137404,-0.061068702290076333,-0.8854961832061069,-0.443603515625,0.008544921875,-0.2744140625,1.7611999999999999
1.3129770992366412,0.04580152671755725,-0.5343511450381679,-0.4443359375,0.012451171875,-0.275634765625,1.7629
1.0076335877862594,0.183206106870229,-0.6717557251908397,-0.44189453125,0.007080078125,-0.275146484375,1.7646
0.9465648854961832,0.13740458015267176,-0.42748091603053434,-0.44140625,0.0078125,-0.271728515625,1.7663
0.9618320610687023,0.10687022900763359,-0.3969465648854962,-0.437255859375,0.01220703125,-0.266357421875,1.7679999999999998
0.916030534351145,0.2748091603053435,-0.5801526717557252,-0.44287109375,0.006591796875,-0.272216796875,1.7696999999999998
0.9312977099236641,0.16793893129770993,-0.549618320610687,-0.43994140625,0.000244140625,-0.275146484375,1.7713999999999999
1.1297709923664123,0.2595419847328244,-0.2900763358778626,-0.43994140625,0.006591796875,-0.273193359375,1.7731
1.099236641221374,0.2595419847328244,-0.4580152671755725,-0.44287109375,0.006103515625,-0.267333984375,1.7748
0.9465648854961832,0.3969465648854962,-0.32061068702290074,-0.44189453125,0.00390625,-0.263916015625,1.7765
0.8702290076335878,0.3511450381679389,-0.3511450381679389,-0.44482421875,0.00048828125,-0.26904296875,1.7782
0.7786259541984732,0.44274809160305345,-0.15267175572519084,-0.440185546875,0.010009765625,-0.2685546875,1.7798999999999998
0.7633587786259542,0.2595419847328244,-0.4122137404580153,-0.4384765625,0.005615234375,-0.27490234375,1.7815999999999999
1.0229007633587786,0.3969465648854962,-0.22900763358778625,-0.4375,0.007568359375,-0.26953125,1.7832999999999999
0.8854961832061069,0.7022900763358778,-0.183206106870229,-0.44091796875,0.011962890625,-0.26806640625,1.785
0.732824427480916,0.4122137404580153,-0.21374045801526717,-0.43701171875,0.009521484375,-0.2685546875,1.7867
0.6412213740458015,0.4732824427480916,-0.32061068702290074,-0.438232421875,0.002685546875,-0.266357421875,1.7884
0.5343511450381679,0.42748091603053434,-0.07633587786259542,-0.441650390625,0.005126953125,-0.274169921875,1.7900999999999998
0.6106870229007634,0.3969465648854962,-0.22900763358778625,-0.444580078125,0.012451171875,-0.261474609375,1.7917999999999998
0.8244274809160306,0.5801526717557252,-0.13740458015267176,-0.439208984375,0.009033203125,-0.261474609375,1.7934999999999999
0.916030534351145,0.3511450381679389,-0.21374045801526717,-0.436767578125,0.010498046875,-0.275634765625,1.7952
0.5343511450381679,0.5343511450381679,-0.1984732824427481,-0.440673828125,0.00244140625,-0.260009765625,1.7969
0.7480916030534351,0.6564885496183206,-0.366412213740458,-0.438232421875,0.0087890625,-0.269287109375,1.7986
