gyrox1,gyroy1,gyroz1,accelx1,accely1,accelz1,Time
2.122137404580153,1.4045801526717556,-1.7709923664122138,-0.460693359375,0.013427734375,-0.060791015625,0.0
1.9389312977099236,1.282442748091603,-1.8625954198473282,-0.462158203125,0.0146484375,-0.06884765625,0.0017
2.1068702290076335,1.3893129770992367,-1.8778625954198473,-0.4609375,0.017578125,-0.073974609375,0.0034
1.984732824427481,1.3740458015267176,-1.6488549618320612,-0.458251953125,0.015625,-0.070068359375,0.0050999999999999995
1.9694656488549618,1.3129770992366412,-1.8778625954198473,-0.46044921875,0.01611328125,-0.07568359375,0.0068
1.8931297709923665,1.3282442748091603,-1.6641221374045803,-0.460205078125,0.0126953125,-0.07080078125,0.008499999999999999
1.83206106870229,1.3740458015267176,-1.7557251908396947,-0.46630859375,0.014404296875,-0.073974609375,0.010199999999999999
1.8625954198473282,1.3587786259541985,-1.5419847328244274,-0.46142578125,0.01318359375,-0.0673828125,0.011899999999999999
2.2442748091603053,1.5725190839694656,-1.618320610687023,-0.464599609375,0.014404296875,-0.073486328125,0.0136
1.8931297709923665,1.633587786259542,-1.4961832061068703,-0.464599609375,0.013671875,-0.062744140625,0.0153
2.0,1.4351145038167938,-1.5419847328244274,-0.46484375,0.015625,-0.0751953125,0.016999999999999998
1.9236641221374047,1.3435114503816794,-1.6030534351145038,-0.467041015625,0.01416015625,-0.071533203125,0.018699999999999998
1.9236641221374047,1.4198473282442747,-1.6030534351145038,-0.4658203125,0.01708984375,-0.064453125,0.020399999999999998
1.7709923664122138,1.2366412213740459,-1.5114503816793894,-0.460205078125,0.01708984375,-0.068359375,0.022099999999999998
1.8015267175572518,1.2671755725190839,-1.4961832061068703,-0.463134765625,0.01904296875,-0.06982421875,0.023799999999999998
1.6793893129770991,1.0381679389312977,-1.4198473282442747,-0.457763671875,0.014404296875,-0.07568359375,0.0255
1.6488549618320612,1.1297709923664123,-1.450381679389313,-0.465576171875,0.018798828125,-0.071044921875,0.0272
1.7404580152671756,1.1450381679389312,-1.4198473282442747,-0.462646484375,0.0205078125,-0.06689453125,0.0289
1.8625954198473282,1.1450381679389312,-1.465648854961832,-0.4638671875,0.022705078125,-0.061767578125,0.0306
1.8625954198473282,1.1603053435114503,-1.4045801526717556,-0.45849609375,0.013671875,-0.0634765625,0.032299999999999995
1.7404580152671756,1.2061068702290076,-1.4961832061068703,-0.464599609375,0.015625,-0.064208984375,0.033999999999999996
1.6488549618320612,1.1908396946564885,-1.5114503816793894,-0.464111328125,0.023193359375,-0.069580078125,0.035699999999999996
1.7557251908396947,1.1603053435114503,-1.5114503816793894,-0.460693359375,0.017333984375,-0.05859375,0.037399999999999996
1.8473282442748091,1.1297709923664123,-1.465648854961832,-0.4638671875,0.01220703125,-0.067626953125,0.039099999999999996
1.8931297709923665,1.0687022900763359,-1.618320610687023,-0.462158203125,0.014892578125,-0.0673828125,0.040799999999999996
1.816793893129771,1.1755725190839694,-1.7251908396946565,-0.461669921875,0.01904296875,-0.06640625,0.042499999999999996
1.8625954198473282,0.9007633587786259,-1.4351145038167938,-0.46142578125,0.017333984375,-0.065185546875,0.044199999999999996
2.045801526717557,0.9770992366412213,-1.3740458015267176,-0.460205078125,0.01416015625,-0.072265625,0.045899999999999996
1.7251908396946565,1.0381679389312977,-1.5725190839694656,-0.46044921875,0.011962890625,-0.068115234375,0.047599999999999996
1.8625954198473282,0.7786259541984732,-1.6488549618320612,-0.4609375,0.018310546875,-0.072998046875,0.0493
1.984732824427481,0.916030534351145,-1.5114503816793894,-0.46240234375,0.0224609375,-0.06591796875,0.051
1.8473282442748091,0.7786259541984732,-1.5114503816793894,-0.46337890625,0.01953125,-0.063720703125,0.0527
1.83206106870229,0.6564885496183206,-1.6641221374045803,-0.465087890625,0.019287109375,-0.069580078125,0.0544
2.0,0.7480916030534351,-1.297709923664122,-0.467529296875,0.017822265625,-0.068603515625,0.0561
1.83206106870229,0.7938931297709924,-1.4198473282442747,-0.46435546875,0.018310546875,-0.072509765625,0.0578
1.7709923664122138,0.7938931297709924,-1.465648854961832,-0.461181640625,0.015869140625,-0.05712890625,0.0595
1.8931297709923665,0.48854961832061067,-1.3282442748091603,-0.466552734375,0.01416015625,-0.061767578125,0.0612
2.0,0.549618320610687,-1.5114503816793894,-0.466552734375,0.01611328125,-0.0673828125,0.0629
2.0610687022900764,0.6564885496183206,-1.5877862595419847,-0.464111328125,0.01220703125,-0.07470703125,0.06459999999999999
2.0763358778625953,0.5190839694656488,-1.3282442748091603,-0.4638671875,0.020751953125,-0.0703125,0.0663
1.9083969465648856,0.6717557251908397,-1.4809160305343512,-0.467529296875,0.01708984375,-0.07421875,0.06799999999999999
2.2748091603053435,0.5954198473282443,-1.297709923664122,-0.464599609375,0.0205078125,-0.068603515625,0.0697
2.122137404580153,0.8549618320610687,-1.083969465648855,-0.468994140625,0.019775390625,-0.064208984375,0.07139999999999999
1.9389312977099236,0.7786259541984732,-1.297709923664122,-0.466064453125,0.010009765625,-0.072021484375,0.0731
2.2748091603053435,0.8244274809160306,-1.3740458015267176,-0.47021484375,0.010986328125,-0.069580078125,0.07479999999999999
2.2595419847328246,1.1145038167938932,-1.4045801526717556,-0.467041015625,0.016845703125,-0.064697265625,0.0765
2.1068702290076335,1.0534351145038168,-1.1755725190839694,-0.46826171875,0.02001953125,-0.0712890625,0.07819999999999999
2.4427480916030535,1.1908396946564885,-1.3282442748091603,-0.465087890625,0.017822265625,-0.072509765625,0.0799
2.3053435114503817,1.1145038167938932,-1.297709923664122,-0.466796875,0.021484375,-0.07470703125,0.08159999999999999
2.213740458015267,1.1755725190839694,-1.282442748091603,-0.464111328125,0.02197265625,-0.06005859375,0.0833
2.1374045801526718,1.251908396946565,-1.1908396946564885,-0.463134765625,0.018310546875,-0.064208984375,0.08499999999999999
2.4885496183206106,1.2366412213740459,-1.2366412213740459,-0.466552734375,0.0166015625,-0.07177734375,0.0867
2.2595419847328246,1.2213740458015268,-1.251908396946565,-0.46142578125,0.015625,-0.067626953125,0.08839999999999999
2.213740458015267,1.083969465648855,-1.1755725190839694,-0.463134765625,0.017578125,-0.06298828125,0.0901
2.351145038167939,1.2061068702290076,-0.9312977099236641,-0.466064453125,0.016357421875,-0.0625,0.09179999999999999
2.3206106870229006,1.2061068702290076,-1.099236641221374,-0.465576171875,0.01171875,-0.06396484375,0.0935
2.2290076335877864,1.1603053435114503,-1.0534351145038168,-0.467529296875,0.016845703125,-0.0625,0.09519999999999999
2.3206106870229006,1.2061068702290076,-0.8854961832061069,-0.46337890625,0.013916015625,-0.06982421875,0.0969
2.4885496183206106,1.1297709923664123,-0.8244274809160306,-0.464111328125,0.017822265625,-0.061767578125,0.0986
2.2748091603053435,1.3282442748091603,-0.8396946564885496,-0.4638671875,0.017578125,-0.067138671875,0.1003
2.549618320610687,1.4045801526717556,-0.7022900763358778,-0.464111328125,0.016357421875,-0.071533203125,0.102
2.4580152671755724,1.3129770992366412,-0.5801526717557252,-0.466796875,0.011474609375,-0.069091796875,0.1037
2.2900763358778624,1.4351145038167938,-0.7022900763358778,-0.46533203125,0.01708984375,-0.064453125,0.1054
2.381679389312977,1.3893129770992367,-0.916030534351145,-0.462158203125,0.01806640625,-0.060791015625,0.1071
2.6412213740458017,1.6488549618320612,-0.6564885496183206,-0.4609375,0.0126953125,-0.066650390625,0.1088
2.3206106870229006,1.7251908396946565,-0.6259541984732825,-0.464599609375,0.011474609375,-0.057861328125,0.11049999999999999
2.3206106870229006,1.7404580152671756,-0.7022900763358778,-0.46240234375,0.00927734375,-0.071044921875,0.1122
2.4732824427480917,1.6488549618320612,-0.6106870229007634,-0.464111328125,0.01220703125,-0.070556640625,0.11389999999999999
2.2900763358778624,1.6946564885496183,-0.5343511450381679,-0.466552734375,0.014892578125,-0.070068359375,0.1156
2.427480916030534,1.7709923664122138,-0.5648854961832062,-0.46484375,0.017578125,-0.071044921875,0.11729999999999999
2.3206106870229006,1.7251908396946565,-0.4122137404580153,-0.46142578125,0.01806640625,-0.071044921875,0.119
2.2595419847328246,1.7404580152671756,-0.6106870229007634,-0.46435546875,0.014404296875,-0.064208984375,0.12069999999999999
2.33587786259542,1.83206106870229,-0.4580152671755725,-0.46728515625,0.0205078125,-0.06591796875,0.1224
2.3053435114503817,1.6793893129770991,-0.6412213740458015,-0.4638671875,0.015869140625,-0.064453125,0.12409999999999999
2.2595419847328246,1.9541984732824427,-0.33587786259541985,-0.465576171875,0.014404296875,-0.072265625,0.1258
2.2442748091603053,2.045801526717557,-0.5038167938931297,-0.465576171875,0.01416015625,-0.06591796875,0.1275
2.1526717557251906,2.0916030534351147,-0.4580152671755725,-0.468017578125,0.015380859375,-0.0654296875,0.12919999999999998
2.183206106870229,2.030534351145038,-0.5954198473282443,-0.466552734375,0.021240234375,-0.070068359375,0.1309
2.2290076335877864,2.1526717557251906,-0.42748091603053434,-0.46484375,0.01611328125,-0.077392578125,0.1326
2.1068702290076335,2.0916030534351147,-0.2900763358778626,-0.470458984375,0.014892578125,-0.07177734375,0.1343
1.9694656488549618,2.2595419847328246,-0.12213740458015267,-0.47021484375,0.014404296875,-0.06689453125,0.13599999999999998
2.0610687022900764,2.2748091603053435,-0.2595419847328244,-0.4658203125,0.016357421875,-0.07421875,0.1377
1.8778625954198473,2.381679389312977,-0.3053435114503817,-0.46484375,0.01708984375,-0.067138671875,0.1394
1.984732824427481,2.33587786259542,-0.4122137404580153,-0.46923828125,0.015625,-0.067626953125,0.1411
1.786259541984733,2.4732824427480917,-0.33587786259541985,-0.4619140625,0.014892578125,-0.08349609375,0.14279999999999998
1.6946564885496183,2.351145038167939,-0.33587786259541985,-0.46337890625,0.021484375,-0.064697265625,0.1445
1.7251908396946565,2.4122137404580153,-0.2900763358778626,-0.4619140625,0.02001953125,-0.0703125,0.1462
1.786259541984733,2.427480916030534,-0.44274809160305345,-0.4677734375,0.014892578125,-0.07568359375,0.1479
1.816793893129771,2.4580152671755724,-0.48854961832061067,-0.4619140625,0.013427734375,-0.084228515625,0.14959999999999998
1.4961832061068703,2.3206106870229006,-0.6106870229007634,-0.456787109375,0.013916015625,-0.079345703125,0.1513
1.3740458015267176,2.2442748091603053,-0.48854961832061067,-0.460693359375,0.01513671875,-0.075439453125,0.153
1.618320610687023,2.1374045801526718,-0.6870229007633588,-0.45947265625,0.014404296875,-0.072998046875,0.1547
1.282442748091603,2.0763358778625953,-0.48854961832061067,-0.46142578125,0.017822265625,-0.0751953125,0.15639999999999998
1.4351145038167938,2.16793893129771,-0.7786259541984732,-0.461181640625,0.01318359375,-0.080810546875,0.1581
1.1603053435114503,2.0916030534351147,-0.8396946564885496,-0.458984375,0.010009765625,-0.0693359375,0.1598
1.1603053435114503,1.9541984732824427,-1.1603053435114503,-0.459228515625,0.01708984375,-0.07177734375,0.1615
1.1450381679389312,1.8778625954198473,-1.0687022900763359,-0.45849609375,0.0185546875,-0.068115234375,0.16319999999999998
1.2671755725190839,1.83206106870229,-1.083969465648855,-0.4619140625,0.0185546875,-0.071044921875,0.1649
1.083969465648855,1.786259541984733,-0.9770992366412213,-0.455078125,0.018798828125,-0.07373046875,0.1666
0.9465648854961832,1.6488549618320612,-1.1450381679389312,-0.4560546875,0.015625,-0.07177734375,0.16829999999999998
0.8549618320610687,1.6030534351145038,-1.2213740458015268,-0.4619140625,0.0126953125,-0.0673828125,0.16999999999999998
1.0534351145038168,1.465648854961832,-1.3282442748091603,-0.461669921875,0.01611328125,-0.078369140625,0.1717
0.8549618320610687,1.5419847328244274,-1.1145038167938932,-0.465576171875,0.01708984375,-0.064697265625,0.1734
0.8702290076335878,1.3587786259541985,-1.3587786259541985,-0.46142578125,0.01611328125,-0.0751953125,0.17509999999999998
0.9007633587786259,1.297709923664122,-1.251908396946565,-0.45849609375,0.01904296875,-0.0654296875,0.17679999999999998
0.9007633587786259,1.1297709923664123,-1.3282442748091603,-0.457275390625,0.014892578125,-0.06298828125,0.1785
0.6717557251908397,1.0076335877862594,-1.251908396946565,-0.460205078125,0.017578125,-0.075927734375,0.1802
0.6870229007633588,1.1755725190839694,-1.3282442748091603,-0.455078125,0.015380859375,-0.071533203125,0.18189999999999998
0.7480916030534351,1.0534351145038168,-1.297709923664122,-0.454833984375,0.010498046875,-0.064697265625,0.18359999999999999
0.5801526717557252,0.9923664122137404,-1.2061068702290076,-0.46142578125,0.014892578125,-0.069091796875,0.1853
0.7175572519083969,0.9618320610687023,-1.0229007633587786,-0.464111328125,0.012451171875,-0.06787109375,0.187
0.6564885496183206,0.7480916030534351,-1.2366412213740459,-0.459716796875,0.015380859375,-0.059326171875,0.18869999999999998
0.5801526717557252,0.7175572519083969,-1.2061068702290076,-0.4599609375,0.015869140625,-0.0654296875,0.19039999999999999
0.6106870229007634,0.7938931297709924,-1.2366412213740459,-0.4658203125,0.017333984375,-0.068115234375,0.1921
0.6259541984732825,0.8091603053435115,-1.0229007633587786,-0.45947265625,0.0146484375,-0.0654296875,0.1938
0.5343511450381679,0.6259541984732825,-1.3435114503816794,-0.4599609375,0.02099609375,-0.06982421875,0.19549999999999998
0.7480916030534351,0.48854961832061067,-1.3129770992366412,-0.46142578125,0.0185546875,-0.073486328125,0.1972
0.48854961832061067,0.7175572519083969,-1.0687022900763359,-0.45751953125,0.017333984375,-0.0634765625,0.1989
0.5954198473282443,0.5343511450381679,-1.1297709923664123,-0.4638671875,0.0205078125,-0.06494140625,0.2006
0.6564885496183206,0.32061068702290074,-1.3282442748091603,-0.462890625,0.01904296875,-0.0634765625,0.20229999999999998
0.6717557251908397,0.4580152671755725,-1.2366412213740459,-0.466064453125,0.015380859375,-0.072021484375,0.204
0.732824427480916,0.5648854961832062,-1.2213740458015268,-0.4619140625,0.015380859375,-0.069091796875,0.2057
0.7175572519083969,0.33587786259541985,-1.1755725190839694,-0.46044921875,0.017822265625,-0.0703125,0.2074
0.5801526717557252,0.42748091603053434,-1.3740458015267176,-0.462158203125,0.022705078125,-0.068359375,0.20909999999999998
0.8396946564885496,0.42748091603053434,-1.3282442748091603,-0.458251953125,0.017578125,-0.067138671875,0.2108
0.8244274809160306,0.42748091603053434,-1.1755725190839694,-0.45947265625,0.01611328125,-0.075927734375,0.2125
0.8091603053435115,0.3511450381679389,-1.2671755725190839,-0.46484375,0.025146484375,-0.074462890625,0.2142
0.8091603053435115,0.3969465648854962,-1.282442748091603,-0.462646484375,0.02001953125,-0.065673828125,0.21589999999999998
0.9465648854961832,0.24427480916030533,-1.297709923664122,-0.45703125,0.0166015625,-0.063232421875,0.2176
0.7480916030534351,0.15267175572519084,-1.3587786259541985,-0.45751953125,0.015380859375,-0.060791015625,0.2193
0.8549618320610687,0.3969465648854962,-1.099236641221374,-0.462890625,0.01953125,-0.058837890625,0.22099999999999997
0.9923664122137404,0.2595419847328244,-1.2213740458015268,-0.46484375,0.015869140625,-0.071044921875,0.22269999999999998
0.8702290076335878,0.24427480916030533,-1.2213740458015268,-0.467529296875,0.01416015625,-0.079345703125,0.2244
1.0076335877862594,0.2595419847328244,-1.2061068702290076,-0.458984375,0.018310546875,-0.069580078125,0.2261
1.1297709923664123,0.32061068702290074,-1.2061068702290076,-0.461181640625,0.01416015625,-0.065185546875,0.22779999999999997
0.9770992366412213,0.3816793893129771,-1.1755725190839694,-0.461181640625,0.01806640625,-0.067138671875,0.22949999999999998
1.099236641221374,0.5954198473282443,-1.1145038167938932,-0.462890625,0.02001953125,-0.072265625,0.2312
1.099236641221374,0.5190839694656488,-1.2366412213740459,-0.46728515625,0.020263671875,-0.080322265625,0.2329
1.1450381679389312,0.366412213740458,-1.1603053435114503,-0.464599609375,0.014404296875,-0.0654296875,0.23459999999999998
1.2366412213740459,0.366412213740458,-0.9618320610687023,-0.46533203125,0.017822265625,-0.06103515625,0.23629999999999998
1.099236641221374,0.5038167938931297,-1.0381679389312977,-0.461669921875,0.0166015625,-0.07666015625,0.238
1.099236641221374,0.3816793893129771,-1.2366412213740459,-0.45947265625,0.014404296875,-0.066650390625,0.2397
1.5419847328244274,0.22900763358778625,-0.8702290076335878,-0.466064453125,0.017333984375,-0.06689453125,0.24139999999999998
1.1908396946564885,0.32061068702290074,-0.9618320610687023,-0.464111328125,0.014892578125,-0.071044921875,0.24309999999999998
1.3282442748091603,0.549618320610687,-0.9770992366412213,-0.46337890625,0.0185546875,-0.063720703125,0.2448
1.297709923664122,0.5190839694656488,-0.7938931297709924,-0.46435546875,0.021484375,-0.068115234375,0.2465
1.5572519083969465,0.5343511450381679,-0.9770992366412213,-0.466064453125,0.014404296875,-0.06884765625,0.24819999999999998
1.465648854961832,0.549618320610687,-0.916030534351145,-0.466552734375,0.02197265625,-0.058837890625,0.24989999999999998
1.4961832061068703,0.6259541984732825,-0.916030534351145,-0.4638671875,0.017822265625,-0.06640625,0.2516
1.4809160305343512,0.5648854961832062,-0.9465648854961832,-0.461181640625,0.0244140625,-0.0615234375,0.25329999999999997
1.6641221374045803,0.6259541984732825,-0.7786259541984732,-0.463623046875,0.015869140625,-0.066162109375,0.255
1.5572519083969465,0.549618320610687,-1.0229007633587786,-0.46435546875,0.02294921875,-0.069091796875,0.2567
1.7251908396946565,0.5190839694656488,-1.1145038167938932,-0.462646484375,0.019287109375,-0.064697265625,0.25839999999999996
1.5419847328244274,0.6106870229007634,-0.8854961832061069,-0.46875,0.015869140625,-0.068359375,0.2601
1.618320610687023,0.7633587786259542,-0.8396946564885496,-0.46728515625,0.02001953125,-0.066650390625,0.2618
1.7251908396946565,0.732824427480916,-0.9465648854961832,-0.46337890625,0.019775390625,-0.059326171875,0.2635
1.8625954198473282,0.7022900763358778,-0.9312977099236641,-0.4697265625,0.020751953125,-0.062255859375,0.2652
1.8931297709923665,0.8396946564885496,-0.916030534351145,-0.468994140625,0.022216796875,-0.070068359375,0.26689999999999997
1.8778625954198473,0.6564885496183206,-0.8396946564885496,-0.465087890625,0.018310546875,-0.06884765625,0.2686
2.122137404580153,0.7480916030534351,-0.7480916030534351,-0.46142578125,0.018310546875,-0.070068359375,0.2703
1.9694656488549618,0.7786259541984732,-0.7480916030534351,-0.4619140625,0.011962890625,-0.06689453125,0.27199999999999996
2.0,0.8244274809160306,-0.8549618320610687,-0.463134765625,0.01611328125,-0.072265625,0.2737
2.0916030534351147,0.8549618320610687,-0.8091603053435115,-0.4619140625,0.019287109375,-0.06787109375,0.2754
2.015267175572519,0.8854961832061069,-0.6870229007633588,-0.467041015625,0.017333984375,-0.068603515625,0.27709999999999996
2.0610687022900764,0.9465648854961832,-0.5954198473282443,-0.469970703125,0.015380859375,-0.06201171875,0.2788
2.2442748091603053,0.8244274809160306,-0.7633587786259542,-0.464599609375,0.01220703125,-0.067626953125,0.28049999999999997
2.2290076335877864,1.1297709923664123,-0.7022900763358778,-0.470458984375,0.017333984375,-0.079833984375,0.2822
2.2900763358778624,1.1755725190839694,-0.5954198473282443,-0.46240234375,0.01611328125,-0.0703125,0.2839
2.2442748091603053,1.083969465648855,-0.5954198473282443,-0.46484375,0.01953125,-0.066650390625,0.28559999999999997
2.213740458015267,0.9923664122137404,-0.7633587786259542,-0.465576171875,0.015380859375,-0.061767578125,0.2873
2.183206106870229,1.0076335877862594,-0.6259541984732825,-0.468017578125,0.02001953125,-0.069580078125,0.289
2.3969465648854964,1.2671755725190839,-0.3816793893129771,-0.46923828125,0.015869140625,-0.07275390625,0.29069999999999996
2.0916030534351147,1.2366412213740459,-0.44274809160305345,-0.470458984375,0.015380859375,-0.072509765625,0.2924
2.33587786259542,1.2366412213740459,-0.4732824427480916,-0.461669921875,0.01318359375,-0.067138671875,0.2941
2.2290076335877864,1.0534351145038168,-0.4732824427480916,-0.460693359375,0.01953125,-0.065673828125,0.2958
2.2748091603053435,1.282442748091603,-0.4122137404580153,-0.46728515625,0.011962890625,-0.069091796875,0.2975
2.0916030534351147,1.3893129770992367,-0.4580152671755725,-0.4677734375,0.0185546875,-0.074951171875,0.29919999999999997
2.198473282442748,1.4045801526717556,-0.3053435114503817,-0.46435546875,0.018798828125,-0.06591796875,0.3009
2.33587786259542,1.3129770992366412,-0.5190839694656488,-0.471923828125,0.0146484375,-0.072998046875,0.3026
2.2595419847328246,1.297709923664122,-0.5038167938931297,-0.46533203125,0.0185546875,-0.07177734375,0.30429999999999996
2.3053435114503817,1.4198473282442747,-0.7633587786259542,-0.46533203125,0.017578125,-0.0615234375,0.306
2.183206106870229,1.2671755725190839,-0.5190839694656488,-0.466552734375,0.019287109375,-0.06689453125,0.3077
2.2748091603053435,1.4351145038167938,-0.7480916030534351,-0.464599609375,0.02197265625,-0.066650390625,0.3094
2.0763358778625953,1.4198473282442747,-0.6259541984732825,-0.4677734375,0.01123046875,-0.0712890625,0.3111
2.0763358778625953,1.5114503816793894,-0.7022900763358778,-0.4658203125,0.0205078125,-0.068359375,0.31279999999999997
2.16793893129771,1.450381679389313,-0.8244274809160306,-0.466064453125,0.025390625,-0.063232421875,0.3145
2.1526717557251906,1.3893129770992367,-0.7022900763358778,-0.46435546875,0.021484375,-0.06689453125,0.3162
2.1068702290076335,1.5114503816793894,-0.5190839694656488,-0.46484375,0.0185546875,-0.06591796875,0.31789999999999996
2.198473282442748,1.4961832061068703,-0.732824427480916,-0.45849609375,0.016357421875,-0.07080078125,0.3196
2.33587786259542,1.450381679389313,-0.6870229007633588,-0.4638671875,0.015625,-0.06591796875,0.3213
2.030534351145038,1.4809160305343512,-0.5190839694656488,-0.467041015625,0.015869140625,-0.06689453125,0.323
1.984732824427481,1.5725190839694656,-0.8091603053435115,-0.468994140625,0.0166015625,-0.0654296875,0.3247
1.9541984732824427,1.3740458015267176,-1.0687022900763359,-0.4638671875,0.013916015625,-0.06396484375,0.32639999999999997
1.7404580152671756,1.4351145038167938,-0.7938931297709924,-0.46875,0.01318359375,-0.071044921875,0.3281
1.8473282442748091,1.450381679389313,-0.9465648854961832,-0.464599609375,0.018798828125,-0.073486328125,0.3298
2.030534351145038,1.4809160305343512,-0.7786259541984732,-0.462158203125,0.0166015625,-0.068359375,0.33149999999999996
1.9541984732824427,1.5419847328244274,-0.9923664122137404,-0.462646484375,0.018310546875,-0.074951171875,0.3332
2.0763358778625953,1.4809160305343512,-1.099236641221374,-0.46240234375,0.017333984375,-0.060546875,0.3349
1.9083969465648856,1.5267175572519085,-0.9312977099236641,-0.4658203125,0.019287109375,-0.06005859375,0.33659999999999995
1.6793893129770991,1.6488549618320612,-1.1145038167938932,-0.462646484375,0.015869140625,-0.069580078125,0.3383
1.8473282442748091,1.618320610687023,-1.1755725190839694,-0.468994140625,0.013916015625,-0.072509765625,0.33999999999999997
1.9236641221374047,1.6641221374045803,-1.0534351145038168,-0.46728515625,0.017333984375,-0.06787109375,0.3417
1.6946564885496183,1.7404580152671756,-1.3282442748091603,-0.466552734375,0.0146484375,-0.069091796875,0.3434
1.8625954198473282,1.6641221374045803,-1.282442748091603,-0.462890625,0.015625,-0.065185546875,0.34509999999999996
1.7251908396946565,1.6488549618320612,-1.0534351145038168,-0.4697265625,0.024169921875,-0.067138671875,0.3468
1.9694656488549618,1.5267175572519085,-1.2671755725190839,-0.465087890625,0.013916015625,-0.068603515625,0.3485
1.786259541984733,1.4961832061068703,-1.3893129770992367,-0.46435546875,0.013427734375,-0.0693359375,0.35019999999999996
1.7404580152671756,1.5572519083969465,-1.0381679389312977,-0.46484375,0.0126953125,-0.077392578125,0.3519
1.5114503816793894,1.633587786259542,-1.1603053435114503,-0.461181640625,0.015380859375,-0.072265625,0.35359999999999997
1.5267175572519085,1.5267175572519085,-0.9007633587786259,-0.463623046875,0.015380859375,-0.072265625,0.3553
1.6793893129770991,1.618320610687023,-0.8549618320610687,-0.46435546875,0.017578125,-0.072021484375,0.357
1.5877862595419847,1.816793893129771,-0.7938931297709924,-0.462646484375,0.01708984375,-0.06884765625,0.35869999999999996
1.5114503816793894,1.7099236641221374,-0.7938931297709924,-0.47021484375,0.011474609375,-0.080078125,0.3604
1.5572519083969465,1.6030534351145038,-0.7480916030534351,-0.458984375,0.016845703125,-0.072265625,0.3621
1.4961832061068703,1.7251908396946565,-0.7480916030534351,-0.462890625,0.015380859375,-0.072998046875,0.36379999999999996
1.4351145038167938,1.7251908396946565,-0.732824427480916,-0.463623046875,0.018798828125,-0.069580078125,0.3655
1.282442748091603,1.7099236641221374,-0.6106870229007634,-0.468017578125,0.017822265625,-0.071044921875,0.36719999999999997
1.3893129770992367,1.7099236641221374,-0.6259541984732825,-0.463623046875,0.01220703125,-0.072021484375,0.3689
1.3893129770992367,1.8473282442748091,-0.6717557251908397,-0.46484375,0.013916015625,-0.06640625,0.3706
1.4198473282442747,1.8778625954198473,-0.6106870229007634,-0.471435546875,0.016357421875,-0.078125,0.37229999999999996
1.1755725190839694,1.83206106870229,-0.8244274809160306,-0.467529296875,0.010986328125,-0.066650390625,0.374
1.3435114503816794,1.9541984732824427,-0.6564885496183206,-0.469482421875,0.012939453125,-0.06982421875,0.3757
1.2061068702290076,2.0763358778625953,-0.6259541984732825,-0.462890625,0.01416015625,-0.0751953125,0.37739999999999996
1.1297709923664123,2.0763358778625953,-0.4732824427480916,-0.465576171875,0.021484375,-0.065185546875,0.3791
1.1145038167938932,1.9541984732824427,-0.549618320610687,-0.46484375,0.015625,-0.072265625,0.38079999999999997
1.083969465648855,2.1526717557251906,-0.4122137404580153,-0.46630859375,0.014404296875,-0.071044921875,0.38249999999999995
1.1908396946564885,2.045801526717557,-0.6259541984732825,-0.465576171875,0.012451171875,-0.0703125,0.3842
0.8396946564885496,2.213740458015267,-0.4122137404580153,-0.459716796875,0.013427734375,-0.06689453125,0.38589999999999997
0.9312977099236641,2.1526717557251906,-0.4580152671755725,-0.459716796875,0.015380859375,-0.07568359375,0.3876
1.083969465648855,1.984732824427481,-0.5190839694656488,-0.4599609375,0.018310546875,-0.0732421875,0.3893
1.1145038167938932,1.8931297709923665,-0.6717557251908397,-0.46826171875,0.01513671875,-0.074462890625,0.39099999999999996
0.8091603053435115,2.0,-0.3969465648854962,-0.4658203125,0.015380859375,-0.07177734375,0.3927
0.8549618320610687,1.7251908396946565,-0.5190839694656488,-0.46630859375,0.015380859375,-0.0654296875,0.3944
1.0229007633587786,1.8778625954198473,-0.5038167938931297,-0.4619140625,0.016357421875,-0.064453125,0.39609999999999995
0.8396946564885496,2.0,-0.5801526717557252,-0.4619140625,0.01806640625,-0.06640625,0.3978
0.9465648854961832,1.8015267175572518,-0.7175572519083969,-0.463134765625,0.017578125,-0.06591796875,0.39949999999999997
0.6717557251908397,1.7099236641221374,-0.6106870229007634,-0.4619140625,0.013916015625,-0.07666015625,0.4012
0.7633587786259542,1.83206106870229,-0.5343511450381679,-0.46484375,0.01513671875,-0.072509765625,0.4029
0.9007633587786259,1.7557251908396947,-0.7175572519083969,-0.463134765625,0.010498046875,-0.06884765625,0.40459999999999996
0.732824427480916,1.7099236641221374,-0.6259541984732825,-0.465087890625,0.013671875,-0.071533203125,0.4063
0.6870229007633588,1.6030534351145038,-0.7786259541984732,-0.46435546875,0.01513671875,-0.066162109375,0.408
0.7633587786259542,1.7557251908396947,-0.5954198473282443,-0.463134765625,0.016845703125,-0.0703125,0.40969999999999995
0.8854961832061069,1.6793893129770991,-0.7633587786259542,-0.46484375,0.017822265625,-0.0751953125,0.4114
0.5954198473282443,1.7404580152671756,-0.7938931297709924,-0.46240234375,0.016357421875,-0.072509765625,0.41309999999999997
0.5648854961832062,1.7709923664122138,-0.6717557251908397,-0.46044921875,0.015380859375,-0.076416015625,0.4148
0.6259541984732825,1.5725190839694656,-0.5801526717557252,-0.463134765625,0.018310546875,-0.072998046875,0.4165
0.6106870229007634,1.7251908396946565,-0.732824427480916,-0.464111328125,0.01708984375,-0.069580078125,0.41819999999999996
0.5343511450381679,1.6946564885496183,-0.6106870229007634,-0.46533203125,0.015380859375,-0.07763671875,0.4199
0.5343511450381679,1.786259541984733,-0.7480916030534351,-0.46142578125,0.022216796875,-0.0712890625,0.4216
0.549618320610687,1.6793893129770991,-0.6412213740458015,-0.456298828125,0.013427734375,-0.06494140625,0.42329999999999995
0.6106870229007634,1.6488549618320612,-0.8702290076335878,-0.462646484375,0.01513671875,-0.075439453125,0.425
0.7633587786259542,1.5419847328244274,-0.732824427480916,-0.4638671875,0.019287109375,-0.071533203125,0.42669999999999997
0.6717557251908397,1.7099236641221374,-0.8702290076335878,-0.46142578125,0.01611328125,-0.07568359375,0.4284
0.7480916030534351,1.83206106870229,-0.8854961832061069,-0.45849609375,0.02001953125,-0.068115234375,0.4301
0.549618320610687,1.6946564885496183,-0.8854961832061069,-0.457275390625,0.01953125,-0.068603515625,0.43179999999999996
0.7786259541984732,1.5419847328244274,-0.8396946564885496,-0.460693359375,0.019775390625,-0.07470703125,0.4335
0.6106870229007634,1.450381679389313,-0.7633587786259542,-0.460205078125,0.019775390625,-0.068359375,0.4352
0.6106870229007634,1.3740458015267176,-0.9312977099236641,-0.454345703125,0.0234375,-0.067138671875,0.43689999999999996
0.9465648854961832,1.2366412213740459,-0.9465648854961832,-0.466064453125,0.017333984375,-0.08251953125,0.4386
0.8854961832061069,1.297709923664122,-0.9465648854961832,-0.4541015625,0.0224609375,-0.071044921875,0.44029999999999997
0.7175572519083969,1.1908396946564885,-0.9465648854961832,-0.45703125,0.021484375,-0.0712890625,0.44199999999999995
0.7786259541984732,1.2213740458015268,-0.8396946564885496,-0.4599609375,0.01611328125,-0.066162109375,0.4437
0.8702290076335878,1.0687022900763359,-0.7938931297709924,-0.46142578125,0.014404296875,-0.077880859375,0.44539999999999996
0.8702290076335878,1.1908396946564885,-0.8091603053435115,-0.46630859375,0.01904296875,-0.0673828125,0.4471
0.9618320610687023,1.0687022900763359,-0.7938931297709924,-0.460693359375,0.021484375,-0.067626953125,0.4488
0.7786259541984732,1.0229007633587786,-0.9618320610687023,-0.46240234375,0.0244140625,-0.07177734375,0.45049999999999996
0.7938931297709924,0.9465648854961832,-0.9312977099236641,-0.459228515625,0.025634765625,-0.067138671875,0.4522
0.9465648854961832,0.8396946564885496,-0.7786259541984732,-0.456787109375,0.020751953125,-0.06640625,0.45389999999999997
0.9618320610687023,0.7633587786259542,-0.9618320610687023,-0.46142578125,0.0126953125,-0.0654296875,0.45559999999999995
0.9007633587786259,0.8396946564885496,-0.8854961832061069,-0.4609375,0.022705078125,-0.0673828125,0.4573
1.1297709923664123,0.6870229007633588,-0.9007633587786259,-0.464111328125,0.026123046875,-0.07470703125,0.45899999999999996
0.9007633587786259,0.5343511450381679,-0.7786259541984732,-0.4619140625,0.0205078125,-0.07177734375,0.4607
1.0229007633587786,0.549618320610687,-0.8396946564885496,-0.46044921875,0.0205078125,-0.0703125,0.4624
1.2366412213740459,0.6870229007633588,-0.8549618320610687,-0.4638671875,0.017578125,-0.069091796875,0.46409999999999996
1.1450381679389312,0.5190839694656488,-0.8244274809160306,-0.463623046875,0.021240234375,-0.07421875,0.4658
1.1450381679389312,0.6870229007633588,-0.7480916030534351,-0.462890625,0.020751953125,-0.067626953125,0.46749999999999997
1.3740458015267176,0.5343511450381679,-0.7938931297709924,-0.463623046875,0.0166015625,-0.06982421875,0.46919999999999995
1.3893129770992367,0.6259541984732825,-0.7022900763358778,-0.466552734375,0.019775390625,-0.070556640625,0.4709
1.1908396946564885,0.5343511450381679,-0.732824427480916,-0.46533203125,0.019287109375,-0.07470703125,0.47259999999999996
1.2061068702290076,0.5190839694656488,-0.7786259541984732,-0.4658203125,0.022705078125,-0.0673828125,0.4743
1.282442748091603,0.3969465648854962,-0.7633587786259542,-0.460693359375,0.026611328125,-0.0693359375,0.476
1.2061068702290076,0.5190839694656488,-0.7175572519083969,-0.465576171875,0.018798828125,-0.072509765625,0.47769999999999996
1.3740458015267176,0.7022900763358778,-0.8549618320610687,-0.46533203125,0.021728515625,-0.06103515625,0.4794
1.1297709923664123,0.3816793893129771,-0.7938931297709924,-0.464111328125,0.017822265625,-0.068603515625,0.48109999999999997
1.2671755725190839,0.44274809160305345,-0.7786259541984732,-0.4677734375,0.01708984375,-0.071533203125,0.48279999999999995
1.3740458015267176,0.5343511450381679,-0.8549618320610687,-0.46337890625,0.018798828125,-0.0703125,0.4845
1.3893129770992367,0.48854961832061067,-0.8854961832061069,-0.465576171875,0.02001953125,-0.068115234375,0.48619999999999997
1.5267175572519085,0.4122137404580153,-0.7938931297709924,-0.46435546875,0.017822265625,-0.06005859375,0.4879
1.4198473282442747,0.5190839694656488,-0.9923664122137404,-0.46337890625,0.017333984375,-0.070068359375,0.4896
1.450381679389313,0.5190839694656488,-0.8396946564885496,-0.46142578125,0.021484375,-0.07373046875,0.49129999999999996
1.465648854961832,0.33587786259541985,-0.5801526717557252,-0.461181640625,0.021484375,-0.07177734375,0.493
1.4045801526717556,0.2900763358778626,-0.916030534351145,-0.46435546875,0.01513671875,-0.072998046875,0.4947
1.251908396946565,0.4122137404580153,-0.9312977099236641,-0.462646484375,0.0205078125,-0.07568359375,0.49639999999999995
1.3740458015267176,0.1984732824427481,-0.8702290076335878,-0.465576171875,0.02099609375,-0.064697265625,0.4981
1.3893129770992367,0.24427480916030533,-0.8091603053435115,-0.465576171875,0.0185546875,-0.0576171875,0.49979999999999997
1.4961832061068703,0.4122137404580153,-0.9465648854961832,-0.46875,0.016845703125,-0.067626953125,0.5015
1.5419847328244274,0.13740458015267176,-0.8854961832061069,-0.4658203125,0.021728515625,-0.068603515625,0.5032
1.6488549618320612,0.3511450381679389,-1.0229007633587786,-0.465576171875,0.0205078125,-0.0693359375,0.5049
1.4045801526717556,0.42748091603053434,-1.0076335877862594,-0.467041015625,0.018798828125,-0.072998046875,0.5065999999999999
1.5725190839694656,0.5190839694656488,-1.0381679389312977,-0.466552734375,0.021484375,-0.06982421875,0.5083
1.4961832061068703,0.3969465648854962,-0.9923664122137404,-0.463623046875,0.022705078125,-0.06982421875,0.51
1.5419847328244274,0.5343511450381679,-0.9007633587786259,-0.46533203125,0.019775390625,-0.071533203125,0.5116999999999999
1.4351145038167938,0.7175572519083969,-1.1297709923664123,-0.465576171875,0.0234375,-0.062744140625,0.5134
1.7251908396946565,0.5954198473282443,-0.9312977099236641,-0.46533203125,0.0234375,-0.06640625,0.5151
1.4961832061068703,0.6717557251908397,-0.9770992366412213,-0.46484375,0.01904296875,-0.072265625,0.5167999999999999
1.5267175572519085,0.8244274809160306,-1.0534351145038168,-0.46826171875,0.021484375,-0.072265625,0.5185
1.7099236641221374,0.8091603053435115,-1.1297709923664123,-0.46875,0.02587890625,-0.0615234375,0.5202
1.4961832061068703,0.6717557251908397,-1.0687022900763359,-0.464111328125,0.02099609375,-0.07568359375,0.5218999999999999
1.4045801526717556,0.8396946564885496,-1.099236641221374,-0.473388671875,0.0244140625,-0.07080078125,0.5236
1.5114503816793894,0.8702290076335878,-1.2366412213740459,-0.45947265625,0.023193359375,-0.06640625,0.5253
1.465648854961832,0.8091603053435115,-1.1450381679389312,-0.46044921875,0.0234375,-0.071044921875,0.527
1.7251908396946565,0.7938931297709924,-1.3129770992366412,-0.463134765625,0.019287109375,-0.07373046875,0.5287
1.8015267175572518,0.9312977099236641,-1.2366412213740459,-0.4619140625,0.017822265625,-0.072509765625,0.5304
1.4809160305343512,0.8854961832061069,-1.3435114503816794,-0.45556640625,0.02099609375,-0.073486328125,0.5321
1.3740458015267176,0.8091603053435115,-1.083969465648855,-0.465576171875,0.02294921875,-0.07080078125,0.5337999999999999
1.6488549618320612,0.9770992366412213,-1.3129770992366412,-0.462890625,0.023193359375,-0.0654296875,0.5355
1.7251908396946565,1.0381679389312977,-1.282442748091603,-0.466796875,0.021484375,-0.06396484375,0.5372
1.6946564885496183,0.9923664122137404,-1.3129770992366412,-0.463623046875,0.022216796875,-0.067138671875,0.5388999999999999
1.5114503816793894,0.7786259541984732,-1.3740458015267176,-0.462158203125,0.017578125,-0.072021484375,0.5406
1.7404580152671756,1.0687022900763359,-1.3893129770992367,-0.460693359375,0.019775390625,-0.071533203125,0.5423
1.5267175572519085,0.8244274809160306,-1.3893129770992367,-0.4619140625,0.018798828125,-0.071044921875,0.5439999999999999
1.618320610687023,0.9312977099236641,-1.297709923664122,-0.467529296875,0.021728515625,-0.07177734375,0.5457
1.6946564885496183,1.0076335877862594,-1.465648854961832,-0.4697265625,0.02001953125,-0.06591796875,0.5474
1.5114503816793894,0.916030534351145,-1.450381679389313,-0.464599609375,0.0224609375,-0.06103515625,0.5490999999999999
1.6793893129770991,0.8396946564885496,-1.3435114503816794,-0.4658203125,0.01953125,-0.060302734375,0.5508
1.633587786259542,0.9618320610687023,-1.6488549618320612,-0.462158203125,0.021240234375,-0.071044921875,0.5525
1.5114503816793894,1.0687022900763359,-1.6641221374045803,-0.462890625,0.019287109375,-0.06640625,0.5541999999999999
1.3893129770992367,0.9923664122137404,-1.4351145038167938,-0.466064453125,0.016845703125,-0.06298828125,0.5559
1.3282442748091603,0.9465648854961832,-1.5114503816793894,-0.465576171875,0.022705078125,-0.068603515625,0.5576
1.5267175572519085,1.2061068702290076,-1.5877862595419847,-0.460693359375,0.0234375,-0.070068359375,0.5593
1.7404580152671756,1.1908396946564885,-1.4961832061068703,-0.46923828125,0.0126953125,-0.069091796875,0.5609999999999999
1.6030534351145038,1.0534351145038168,-1.5572519083969465,-0.46484375,0.02490234375,-0.066650390625,0.5627
1.4045801526717556,1.1755725190839694,-1.5877862595419847,-0.466064453125,0.019775390625,-0.066650390625,0.5644
1.5267175572519085,1.1450381679389312,-1.6946564885496183,-0.467041015625,0.02099609375,-0.071533203125,0.5660999999999999
1.633587786259542,1.0076335877862594,-1.5572519083969465,-0.463134765625,0.022705078125,-0.077880859375,0.5678
1.4961832061068703,1.0076335877862594,-1.7404580152671756,-0.460693359375,0.01904296875,-0.065185546875,0.5695
1.3129770992366412,0.9465648854961832,-1.5725190839694656,-0.46728515625,0.026123046875,-0.065185546875,0.5711999999999999
1.465648854961832,1.2213740458015268,-1.633587786259542,-0.4638671875,0.01611328125,-0.071533203125,0.5729
1.633587786259542,1.083969465648855,-1.4961832061068703,-0.45947265625,0.020263671875,-0.0615234375,0.5746
1.4961832061068703,0.9923664122137404,-1.8015267175572518,-0.458740234375,0.0244140625,-0.062744140625,0.5762999999999999
1.450381679389313,0.8244274809160306,-1.6946564885496183,-0.4658203125,0.023681640625,-0.06884765625,0.578
1.450381679389313,1.1603053435114503,-1.816793893129771,-0.46044921875,0.01806640625,-0.067626953125,0.5797
1.3893129770992367,1.1603053435114503,-1.7557251908396947,-0.468017578125,0.023193359375,-0.065185546875,0.5813999999999999
1.2366412213740459,1.2366412213740459,-1.9236641221374047,-0.4638671875,0.024169921875,-0.067626953125,0.5831
1.2366412213740459,0.9923664122137404,-1.7099236641221374,-0.46435546875,0.012451171875,-0.060302734375,0.5848
1.3740458015267176,0.916030534351145,-1.786259541984733,-0.46875,0.017333984375,-0.0625,0.5865
1.297709923664122,1.083969465648855,-1.7404580152671756,-0.465087890625,0.0166015625,-0.0673828125,0.5882
1.4809160305343512,1.2671755725190839,-1.7557251908396947,-0.468017578125,0.02001953125,-0.0673828125,0.5899
1.3893129770992367,1.3587786259541985,-1.6030534351145038,-0.46826171875,0.01708984375,-0.073974609375,0.5916
1.3435114503816794,1.1450381679389312,-1.7557251908396947,-0.467529296875,0.019287109375,-0.072265625,0.5932999999999999
1.4198473282442747,1.3587786259541985,-1.9236641221374047,-0.4609375,0.018798828125,-0.06787109375,0.595
1.4351145038167938,1.4961832061068703,-1.9389312977099236,-0.464599609375,0.0126953125,-0.065673828125,0.5967
1.3893129770992367,1.3740458015267176,-1.9389312977099236,-0.4658203125,0.01708984375,-0.0732421875,0.5983999999999999
1.450381679389313,1.3740458015267176,-2.0763358778625953,-0.468017578125,0.02294921875,-0.067626953125,0.6001
1.465648854961832,1.6793893129770991,-1.984732824427481,-0.46435546875,0.020751953125,-0.07080078125,0.6018
1.6030534351145038,1.5572519083969465,-2.1068702290076335,-0.466064453125,0.0166015625,-0.070068359375,0.6034999999999999
1.297709923664122,1.5877862595419847,-1.9389312977099236,-0.46240234375,0.0224609375,-0.071533203125,0.6052
1.3740458015267176,1.450381679389313,-2.0916030534351147,-0.462646484375,0.01611328125,-0.077392578125,0.6069
1.4351145038167938,1.5267175572519085,-1.9236641221374047,-0.461669921875,0.0205078125,-0.080322265625,0.6085999999999999
1.251908396946565,1.4809160305343512,-1.9694656488549618,-0.463134765625,0.02001953125,-0.07470703125,0.6103
1.2671755725190839,1.282442748091603,-2.1374045801526718,-0.466552734375,0.020751953125,-0.06787109375,0.612
1.5114503816793894,1.4961832061068703,-2.045801526717557,-0.461669921875,0.01953125,-0.061767578125,0.6136999999999999
1.4961832061068703,1.450381679389313,-1.9694656488549618,-0.463134765625,0.018798828125,-0.064697265625,0.6154
1.4961832061068703,1.4045801526717556,-2.2900763358778624,-0.465576171875,0.02001953125,-0.06787109375,0.6171
1.4351145038167938,1.5419847328244274,-2.198473282442748,-0.46533203125,0.017822265625,-0.064697265625,0.6188
1.282442748091603,1.3435114503816794,-2.33587786259542,-0.460693359375,0.016845703125,-0.062744140625,0.6204999999999999
1.3129770992366412,1.4351145038167938,-2.0610687022900764,-0.4619140625,0.021728515625,-0.0712890625,0.6222
1.450381679389313,1.5419847328244274,-2.2900763358778624,-0.462646484375,0.016357421875,-0.06689453125,0.6239
1.5267175572519085,1.4045801526717556,-2.2442748091603053,-0.4619140625,0.015869140625,-0.07958984375,0.6255999999999999
1.3587786259541985,1.5725190839694656,-2.2595419847328246,-0.458251953125,0.01953125,-0.07568359375,0.6273
1.3435114503816794,1.5419847328244274,-2.351145038167939,-0.462890625,0.02001953125,-0.061279296875,0.629
1.3282442748091603,1.3587786259541985,-2.0763358778625953,-0.46484375,0.01708984375,-0.0751953125,0.6306999999999999
1.5114503816793894,1.5267175572519085,-2.213740458015267,-0.463134765625,0.019775390625,-0.07568359375,0.6324
1.5877862595419847,1.7099236641221374,-2.2595419847328246,-0.46240234375,0.017822265625,-0.079345703125,0.6341
1.3740458015267176,1.5419847328244274,-2.2595419847328246,-0.46484375,0.0205078125,-0.074951171875,0.6357999999999999
1.4961832061068703,1.5877862595419847,-2.50381679389313,-0.46923828125,0.017578125,-0.07275390625,0.6375
1.4961832061068703,1.618320610687023,-2.1374045801526718,-0.471435546875,0.02587890625,-0.0732421875,0.6392
1.7251908396946565,1.5419847328244274,-2.122137404580153,-0.465576171875,0.015869140625,-0.07177734375,0.6408999999999999
1.6488549618320612,1.4961832061068703,-2.0916030534351147,-0.45947265625,0.0224609375,-0.0673828125,0.6426
1.5419847328244274,1.6641221374045803,-2.183206106870229,-0.4619140625,0.022216796875,-0.064453125,0.6443
1.5267175572519085,1.6488549618320612,-2.0763358778625953,-0.4609375,0.01416015625,-0.06787109375,0.646
1.5725190839694656,1.6641221374045803,-2.3969465648854964,-0.461669921875,0.01904296875,-0.067138671875,0.6476999999999999
1.4809160305343512,1.8931297709923665,-2.1374045801526718,-0.4609375,0.021484375,-0.072021484375,0.6494
1.4809160305343512,1.7251908396946565,-2.213740458015267,-0.468017578125,0.015869140625,-0.074462890625,0.6511
1.5572519083969465,1.9236641221374047,-2.030534351145038,-0.462646484375,0.013916015625,-0.072998046875,0.6527999999999999
1.5114503816793894,2.0,-2.213740458015267,-0.46533203125,0.0205078125,-0.073486328125,0.6545
1.4198473282442747,1.9694656488549618,-2.0763358778625953,-0.462890625,0.020751953125,-0.066650390625,0.6562
1.618320610687023,1.7709923664122138,-2.045801526717557,-0.4638671875,0.01611328125,-0.06689453125,0.6578999999999999
1.6946564885496183,1.8931297709923665,-2.0763358778625953,-0.462646484375,0.01611328125,-0.06591796875,0.6596
1.5725190839694656,1.7709923664122138,-2.1068702290076335,-0.46142578125,0.0166015625,-0.065185546875,0.6613
1.5114503816793894,1.7557251908396947,-2.1374045801526718,-0.461181640625,0.017578125,-0.073486328125,0.6629999999999999
1.6793893129770991,1.6488549618320612,-2.045801526717557,-0.462646484375,0.0166015625,-0.072998046875,0.6647
1.633587786259542,1.7099236641221374,-1.9694656488549618,-0.45947265625,0.018310546875,-0.0712890625,0.6664
1.6488549618320612,1.7709923664122138,-2.0610687022900764,-0.46044921875,0.0166015625,-0.067138671875,0.6680999999999999
1.4045801526717556,1.6030534351145038,-2.045801526717557,-0.466552734375,0.016845703125,-0.080322265625,0.6698
1.4045801526717556,1.5419847328244274,-2.0763358778625953,-0.462890625,0.020751953125,-0.07275390625,0.6715
1.4961832061068703,1.5267175572519085,-2.1374045801526718,-0.45751953125,0.018798828125,-0.062744140625,0.6731999999999999
1.4961832061068703,1.2671755725190839,-2.213740458015267,-0.46240234375,0.01513671875,-0.07421875,0.6748999999999999
1.6793893129770991,1.297709923664122,-1.9083969465648856,-0.4619140625,0.014404296875,-0.068359375,0.6766
1.5572519083969465,1.3893129770992367,-1.9389312977099236,-0.46044921875,0.019775390625,-0.073974609375,0.6783
1.5572519083969465,1.3282442748091603,-2.015267175572519,-0.462158203125,0.017333984375,-0.0732421875,0.6799999999999999
1.5572519083969465,1.1603053435114503,-2.213740458015267,-0.462890625,0.0224609375,-0.0693359375,0.6817
1.6488549618320612,1.2061068702290076,-2.0916030534351147,-0.461669921875,0.02001953125,-0.064697265625,0.6834
1.6641221374045803,1.251908396946565,-2.1526717557251906,-0.46533203125,0.022216796875,-0.074951171875,0.6850999999999999
1.6641221374045803,1.1450381679389312,-2.045801526717557,-0.466552734375,0.02197265625,-0.07763671875,0.6868
1.5877862595419847,0.9923664122137404,-2.198473282442748,-0.465087890625,0.023193359375,-0.0634765625,0.6885
1.5725190839694656,0.9923664122137404,-2.2290076335877864,-0.45947265625,0.016357421875,-0.070556640625,0.6901999999999999
1.8473282442748091,0.9618320610687023,-2.122137404580153,-0.458984375,0.01806640625,-0.068115234375,0.6919
1.3282442748091603,0.916030534351145,-2.33587786259542,-0.464111328125,0.02099609375,-0.072998046875,0.6936
1.6030534351145038,1.0229007633587786,-2.3053435114503817,-0.464111328125,0.017333984375,-0.073974609375,0.6952999999999999
1.7404580152671756,0.8091603053435115,-2.2748091603053435,-0.466796875,0.01953125,-0.068115234375,0.697
1.633587786259542,0.7938931297709924,-2.3206106870229006,-0.46337890625,0.018798828125,-0.06884765625,0.6987
1.6793893129770991,0.9312977099236641,-2.122137404580153,-0.46435546875,0.017822265625,-0.070556640625,0.7003999999999999
1.5572519083969465,1.2213740458015268,-2.1526717557251906,-0.467529296875,0.01708984375,-0.073974609375,0.7021
1.3435114503816794,1.3129770992366412,-2.2290076335877864,-0.463623046875,0.017822265625,-0.0751953125,0.7038
1.618320610687023,1.3129770992366412,-2.351145038167939,-0.465087890625,0.018310546875,-0.071533203125,0.7055
1.5419847328244274,1.099236641221374,-2.3206106870229006,-0.46484375,0.015869140625,-0.073974609375,0.7071999999999999
1.6030534351145038,1.251908396946565,-2.2748091603053435,-0.457763671875,0.02001953125,-0.07275390625,0.7089
1.7251908396946565,1.2213740458015268,-2.2595419847328246,-0.4609375,0.015869140625,-0.075927734375,0.7106
1.5114503816793894,1.1755725190839694,-2.030534351145038,-0.463134765625,0.017333984375,-0.0703125,0.7122999999999999
1.5114503816793894,1.1908396946564885,-2.122137404580153,-0.46044921875,0.01806640625,-0.069580078125,0.714
1.5877862595419847,1.0381679389312977,-2.213740458015267,-0.4599609375,0.021728515625,-0.070068359375,0.7157
1.618320610687023,0.732824427480916,-2.1068702290076335,-0.458251953125,0.017333984375,-0.0673828125,0.7173999999999999
1.5267175572519085,0.8854961832061069,-1.8931297709923665,-0.462646484375,0.013671875,-0.068115234375,0.7191
1.4961832061068703,0.916030534351145,-2.030534351145038,-0.452880859375,0.0146484375,-0.060302734375,0.7208
1.2366412213740459,0.5801526717557252,-2.0916030534351147,-0.457275390625,0.011962890625,-0.069091796875,0.7224999999999999
1.2061068702290076,0.6870229007633588,-2.045801526717557,-0.466796875,0.015625,-0.070068359375,0.7242
1.5419847328244274,0.549618320610687,-1.9694656488549618,-0.4599609375,0.015380859375,-0.07275390625,0.7259
1.4809160305343512,0.5648854961832062,-2.015267175572519,-0.4599609375,0.01806640625,-0.05810546875,0.7275999999999999
1.3435114503816794,0.33587786259541985,-1.9389312977099236,-0.460693359375,0.0146484375,-0.065673828125,0.7293
1.5725190839694656,0.42748091603053434,-2.0,-0.466552734375,0.014404296875,-0.05908203125,0.731
1.618320610687023,0.6259541984732825,-2.1068702290076335,-0.459228515625,0.01513671875,-0.06005859375,0.7326999999999999
1.618320610687023,0.4732824427480916,-2.1068702290076335,-0.461669921875,0.01318359375,-0.07080078125,0.7343999999999999
1.4198473282442747,0.4122137404580153,-2.1526717557251906,-0.464599609375,0.02001953125,-0.070556640625,0.7361
1.2213740458015268,0.44274809160305345,-2.2442748091603053,-0.45947265625,0.0126953125,-0.06884765625,0.7378
1.4045801526717556,0.3969465648854962,-1.9083969465648856,-0.45849609375,0.019775390625,-0.078125,0.7394999999999999
1.5572519083969465,0.4580152671755725,-2.015267175572519,-0.46240234375,0.013916015625,-0.0693359375,0.7412
1.5419847328244274,0.16793893129770993,-2.045801526717557,-0.4599609375,0.010986328125,-0.07080078125,0.7429
1.3282442748091603,0.16793893129770993,-2.0916030534351147,-0.46435546875,0.01708984375,-0.07177734375,0.7445999999999999
1.7404580152671756,0.21374045801526717,-2.0,-0.463134765625,0.01708984375,-0.06982421875,0.7463
1.5267175572519085,0.030534351145038167,-2.0916030534351147,-0.459228515625,0.01318359375,-0.066162109375,0.748
1.5572519083969465,0.12213740458015267,-1.8625954198473282,-0.463134765625,0.019287109375,-0.067138671875,0.7496999999999999
1.6488549618320612,0.04580152671755725,-1.9083969465648856,-0.460205078125,0.0185546875,-0.067626953125,0.7514
1.3893129770992367,0.0,-2.030534351145038,-0.463623046875,0.01318359375,-0.06982421875,0.7531
1.4961832061068703,0.13740458015267176,-1.9236641221374047,-0.46435546875,0.011962890625,-0.077880859375,0.7547999999999999
1.4351145038167938,0.22900763358778625,-1.8625954198473282,-0.463623046875,0.017333984375,-0.0712890625,0.7565
1.3740458015267176,0.1984732824427481,-2.0,-0.468017578125,0.01171875,-0.064453125,0.7582
1.5877862595419847,0.549618320610687,-1.9389312977099236,-0.4619140625,0.010009765625,-0.069091796875,0.7598999999999999
1.618320610687023,0.5648854961832062,-1.83206106870229,-0.465576171875,0.0166015625,-0.07568359375,0.7615999999999999
1.5419847328244274,0.5038167938931297,-1.7557251908396947,-0.4697265625,0.01611328125,-0.068359375,0.7633
1.465648854961832,0.5801526717557252,-1.9083969465648856,-0.46484375,0.01416015625,-0.0751953125,0.7649999999999999
1.3435114503816794,0.6564885496183206,-1.6488549618320612,-0.461669921875,0.014404296875,-0.0751953125,0.7666999999999999
1.4198473282442747,0.549618320610687,-1.7251908396946565,-0.4599609375,0.01416015625,-0.0732421875,0.7684
1.2366412213740459,0.6106870229007634,-1.7557251908396947,-0.46923828125,0.016357421875,-0.0732421875,0.7701
1.3282442748091603,0.6717557251908397,-1.5267175572519085,-0.4677734375,0.017578125,-0.072509765625,0.7717999999999999
1.3129770992366412,0.8396946564885496,-1.4045801526717556,-0.46435546875,0.016845703125,-0.075439453125,0.7735
1.1145038167938932,1.0381679389312977,-1.4045801526717556,-0.46435546875,0.010498046875,-0.0703125,0.7752
1.1755725190839694,1.083969465648855,-1.465648854961832,-0.472900390625,0.012939453125,-0.071533203125,0.7768999999999999
1.3129770992366412,0.8549618320610687,-1.3893129770992367,-0.46875,0.014892578125,-0.074462890625,0.7786
1.2671755725190839,0.8396946564885496,-1.282442748091603,-0.468017578125,0.01220703125,-0.076171875,0.7803
1.3282442748091603,0.7480916030534351,-1.282442748091603,-0.46484375,0.014892578125,-0.069091796875,0.7819999999999999
1.1145038167938932,0.8244274809160306,-1.3435114503816794,-0.462890625,0.0166015625,-0.0732421875,0.7837
1.1145038167938932,0.7022900763358778,-1.282442748091603,-0.46533203125,0.010986328125,-0.06689453125,0.7854
1.1145038167938932,0.5801526717557252,-1.2671755725190839,-0.46044921875,0.017822265625,-0.06787109375,0.7870999999999999
1.1908396946564885,0.6717557251908397,-1.2061068702290076,-0.4638671875,0.0146484375,-0.069580078125,0.7888
1.1908396946564885,0.6870229007633588,-1.2213740458015268,-0.465087890625,0.012939453125,-0.069580078125,0.7905
1.0229007633587786,0.9312977099236641,-1.1755725190839694,-0.46826171875,0.01513671875,-0.073974609375,0.7921999999999999
0.9618320610687023,0.7633587786259542,-1.0381679389312977,-0.465087890625,0.013916015625,-0.06982421875,0.7938999999999999
0.7938931297709924,0.6870229007633588,-1.0381679389312977,-0.4697265625,0.010498046875,-0.069091796875,0.7956
0.6870229007633588,0.549618320610687,-0.732824427480916,-0.465576171875,0.013916015625,-0.066162109375,0.7973
0.7022900763358778,0.6259541984732825,-0.916030534351145,-0.468017578125,0.01220703125,-0.068603515625,0.7989999999999999
0.6870229007633588,0.48854961832061067,-0.7175572519083969,-0.469482421875,0.009521484375,-0.076904296875,0.8007
0.5648854961832062,0.6106870229007634,-0.8549618320610687,-0.468994140625,0.0087890625,-0.0654296875,0.8024
0.3816793893129771,0.5954198473282443,-0.732824427480916,-0.468994140625,0.010009765625,-0.06982421875,0.8040999999999999
0.6870229007633588,0.7786259541984732,-0.6564885496183206,-0.470458984375,0.016357421875,-0.0654296875,0.8058
0.3053435114503817,0.9770992366412213,-0.6412213740458015,-0.468017578125,0.012451171875,-0.064453125,0.8075
0.32061068702290074,1.2366412213740459,-0.9465648854961832,-0.469482421875,0.012939453125,-0.076416015625,0.8091999999999999
0.3053435114503817,1.3435114503816794,-0.9465648854961832,-0.469970703125,0.013427734375,-0.07861328125,0.8109
0.3511450381679389,1.4809160305343512,-0.8396946564885496,-0.466552734375,0.00732421875,-0.0625,0.8126
0.1984732824427481,1.4045801526717556,-0.9923664122137404,-0.468017578125,0.013427734375,-0.06005859375,0.8142999999999999
0.0,1.5267175572519085,-0.9465648854961832,-0.466552734375,0.006103515625,-0.070556640625,0.816
-0.12213740458015267,1.7709923664122138,-0.9618320610687023,-0.469482421875,0.00927734375,-0.07421875,0.8177
-0.061068702290076333,1.8015267175572518,-1.1145038167938932,-0.469970703125,0.00830078125,-0.062744140625,0.8193999999999999
-0.0916030534351145,1.7557251908396947,-0.8854961832061069,-0.463623046875,0.005859375,-0.06591796875,0.8210999999999999
-0.2595419847328244,1.9541984732824427,-1.0229007633587786,-0.46728515625,0.013671875,-0.061767578125,0.8228
-0.2595419847328244,1.7404580152671756,-0.7786259541984732,-0.462646484375,0.011962890625,-0.066650390625,0.8244999999999999
-0.2595419847328244,1.633587786259542,-0.7938931297709924,-0.462646484375,0.014404296875,-0.076416015625,0.8261999999999999
-0.8091603053435115,1.5725190839694656,-0.5954198473282443,-0.466064453125,0.01123046875,-0.071044921875,0.8279
-0.6564885496183206,1.282442748091603,-0.7633587786259542,-0.460205078125,0.01220703125,-0.06591796875,0.8296
-0.5801526717557252,1.297709923664122,-0.5648854961832062,-0.458984375,0.009521484375,-0.0673828125,0.8312999999999999
-0.7022900763358778,1.2213740458015268,-0.732824427480916,-0.462158203125,0.015625,-0.067626953125,0.833
-0.7633587786259542,1.083969465648855,-0.3969465648854962,-0.46240234375,0.012939453125,-0.063232421875,0.8347
-0.8549618320610687,0.8854961832061069,-0.366412213740458,-0.457763671875,0.007080078125,-0.070556640625,0.8363999999999999
-0.9618320610687023,0.6106870229007634,-0.2595419847328244,-0.46240234375,0.01171875,-0.0634765625,0.8381
-1.1603053435114503,0.5648854961832062,-0.2748091603053435,-0.466552734375,0.013671875,-0.06396484375,0.8398
-1.1603053435114503,0.366412213740458,0.061068702290076333,-0.45849609375,0.015380859375,-0.072021484375,0.8414999999999999
-1.0076335877862594,0.1984732824427481,-0.04580152671755725,-0.460205078125,0.015380859375,-0.065673828125,0.8432
-1.0229007633587786,0.16793893129770993,0.2748091603053435,-0.460205078125,0.012451171875,-0.06591796875,0.8449
-1.1297709923664123,0.061068702290076333,0.24427480916030533,-0.462158203125,0.012451171875,-0.062255859375,0.8465999999999999
-1.1755725190839694,-0.13740458015267176,0.3816793893129771,-0.46142578125,0.013427734375,-0.059814453125,0.8482999999999999
-1.1145038167938932,-0.2595419847328244,0.2900763358778626,-0.4609375,0.015380859375,-0.073974609375,0.85
-1.2061068702290076,-0.2900763358778626,0.5190839694656488,-0.467529296875,0.0185546875,-0.064697265625,0.8516999999999999
-1.1908396946564885,-0.13740458015267176,0.44274809160305345,-0.466064453125,0.012451171875,-0.064453125,0.8533999999999999
-1.099236641221374,-0.21374045801526717,0.6870229007633588,-0.46630859375,0.014404296875,-0.06640625,0.8551
-0.9770992366412213,-0.061068702290076333,0.732824427480916,-0.46630859375,0.014892578125,-0.065185546875,0.8568
-1.1603053435114503,-0.3511450381679389,0.7175572519083969,-0.463134765625,0.015625,-0.0634765625,0.8584999999999999
-1.1145038167938932,-0.3053435114503817,0.549618320610687,-0.469970703125,0.013671875,-0.062744140625,0.8602
-1.099236641221374,-0.16793893129770993,0.7480916030534351,-0.469970703125,0.013427734375,-0.062744140625,0.8619
-1.1145038167938932,0.030534351145038167,0.8091603053435115,-0.467041015625,0.02001953125,-0.067138671875,0.8635999999999999
-1.0687022900763359,0.21374045801526717,1.1908396946564885,-0.470458984375,0.01416015625,-0.06494140625,0.8653
-1.099236641221374,0.549618320610687,1.1603053435114503,-0.47509765625,0.01904296875,-0.06005859375,0.867
-1.1908396946564885,0.7175572519083969,1.1908396946564885,-0.469970703125,0.01513671875,-0.065185546875,0.8686999999999999
-0.9465648854961832,1.0381679389312977,1.4045801526717556,-0.475341796875,0.015625,-0.067626953125,0.8704
-0.916030534351145,1.3435114503816794,1.5725190839694656,-0.475830078125,0.01904296875,-0.0654296875,0.8721
-0.9312977099236641,1.5572519083969465,1.6793893129770991,-0.47998046875,0.018310546875,-0.062744140625,0.8737999999999999
-0.8091603053435115,1.7557251908396947,1.8015267175572518,-0.475830078125,0.014892578125,-0.05810546875,0.8755
-0.8549618320610687,2.1068702290076335,1.9236641221374047,-0.47412109375,0.01904296875,-0.064208984375,0.8772
-0.5801526717557252,2.3206106870229006,2.2595419847328246,-0.473876953125,0.019287109375,-0.072021484375,0.8788999999999999
-0.3816793893129771,2.595419847328244,2.213740458015267,-0.473388671875,0.023193359375,-0.062255859375,0.8805999999999999
-0.5954198473282443,2.732824427480916,2.33587786259542,-0.47705078125,0.01318359375,-0.0615234375,0.8823
-0.44274809160305345,2.885496183206107,2.4580152671755724,-0.47314453125,0.022216796875,-0.063232421875,0.8839999999999999
-0.4122137404580153,3.0076335877862594,2.732824427480916,-0.47021484375,0.01904296875,-0.059326171875,0.8856999999999999
-0.3969465648854962,3.3435114503816794,2.6259541984732824,-0.470458984375,0.01806640625,-0.063720703125,0.8874
-0.3053435114503817,3.435114503816794,2.931297709923664,-0.471435546875,0.0166015625,-0.07177734375,0.8891
-0.13740458015267176,3.480916030534351,2.854961832061069,-0.468994140625,0.017822265625,-0.064453125,0.8907999999999999
-0.030534351145038167,3.480916030534351,2.9160305343511452,-0.46826171875,0.023193359375,-0.06787109375,0.8925
-0.061068702290076333,3.633587786259542,2.9618320610687023,-0.470458984375,0.024658203125,-0.0673828125,0.8942
-0.183206106870229,3.786259541984733,2.931297709923664,-0.466552734375,0.020751953125,-0.067138671875,0.8958999999999999
0.10687022900763359,3.7404580152671754,2.946564885496183,-0.467529296875,0.02392578125,-0.06005859375,0.8976
0.366412213740458,3.6030534351145036,2.931297709923664,-0.468994140625,0.0205078125,-0.062744140625,0.8993
0.4732824427480916,3.6793893129770994,2.854961832061069,-0.46875,0.015625,-0.062255859375,0.9009999999999999
0.5954198473282443,3.786259541984733,3.0229007633587788,-0.46875,0.0146484375,-0.0595703125,0.9027
0.5801526717557252,3.633587786259542,3.099236641221374,-0.459716796875,0.02392578125,-0.061767578125,0.9044
0.6259541984732825,3.816793893129771,3.0076335877862594,-0.461181640625,0.022705078125,-0.057861328125,0.9060999999999999
0.9312977099236641,3.83206106870229,2.900763358778626,-0.463623046875,0.030029296875,-0.069091796875,0.9077999999999999
0.7633587786259542,3.572519083969466,3.0076335877862594,-0.466552734375,0.024658203125,-0.05712890625,0.9095
0.9618320610687023,3.480916030534351,3.0229007633587788,-0.462158203125,0.0205078125,-0.0537109375,0.9111999999999999
1.0687022900763359,3.6030534351145036,3.0229007633587788,-0.4619140625,0.023681640625,-0.064208984375,0.9128999999999999
1.1755725190839694,3.572519083969466,2.8702290076335877,-0.46240234375,0.02001953125,-0.069091796875,0.9146
1.0687022900763359,3.480916030534351,2.8091603053435112,-0.462890625,0.02294921875,-0.07275390625,0.9163
1.0229007633587786,3.480916030534351,2.6259541984732824,-0.45947265625,0.02001953125,-0.078857421875,0.9179999999999999
1.3129770992366412,3.480916030534351,2.7480916030534353,-0.4638671875,0.027099609375,-0.07080078125,0.9197
1.297709923664122,3.450381679389313,2.5343511450381677,-0.460205078125,0.018798828125,-0.060546875,0.9214
1.4198473282442747,3.1908396946564888,2.5343511450381677,-0.46240234375,0.02197265625,-0.067626953125,0.9230999999999999
1.5419847328244274,3.1908396946564888,2.6412213740458017,-0.4619140625,0.023193359375,-0.058837890625,0.9248
1.251908396946565,3.267175572519084,2.6106870229007635,-0.4619140625,0.020751953125,-0.063232421875,0.9265
1.3893129770992367,3.099236641221374,2.381679389312977,-0.455322265625,0.020751953125,-0.0634765625,0.9281999999999999
1.4809160305343512,2.9160305343511452,2.427480916030534,-0.458251953125,0.02392578125,-0.06884765625,0.9299
1.5419847328244274,2.9618320610687023,2.213740458015267,-0.463623046875,0.0234375,-0.0595703125,0.9316
1.7251908396946565,2.9923664122137406,2.183206106870229,-0.462158203125,0.02197265625,-0.076171875,0.9332999999999999
1.4961832061068703,2.9618320610687023,2.0,-0.460205078125,0.020263671875,-0.07568359375,0.9349999999999999
1.6641221374045803,3.0381679389312977,1.786259541984733,-0.460205078125,0.02197265625,-0.073486328125,0.9367
1.8015267175572518,2.9618320610687023,1.8778625954198473,-0.46240234375,0.02490234375,-0.071533203125,0.9383999999999999
1.618320610687023,2.885496183206107,1.6641221374045803,-0.466552734375,0.02392578125,-0.06591796875,0.9400999999999999
1.6946564885496183,2.8091603053435112,1.6488549618320612,-0.46435546875,0.0205078125,-0.0625,0.9418
1.6946564885496183,2.7022900763358777,1.5725190839694656,-0.46240234375,0.020263671875,-0.072021484375,0.9434999999999999
1.83206106870229,3.0229007633587788,1.3587786259541985,-0.46484375,0.02197265625,-0.07177734375,0.9451999999999999
1.4045801526717556,2.931297709923664,1.4045801526717556,-0.46533203125,0.028076171875,-0.07763671875,0.9469
1.6030534351145038,2.8244274809160306,1.282442748091603,-0.4697265625,0.01904296875,-0.065185546875,0.9486
1.5725190839694656,2.900763358778626,1.251908396946565,-0.466064453125,0.021728515625,-0.067626953125,0.9502999999999999
1.7404580152671756,2.8702290076335877,1.3129770992366412,-0.463134765625,0.02490234375,-0.065185546875,0.952
1.5572519083969465,2.885496183206107,0.9770992366412213,-0.467529296875,0.024658203125,-0.076171875,0.9537
1.4198473282442747,2.9770992366412212,1.0534351145038168,-0.46435546875,0.017333984375,-0.068359375,0.9553999999999999
1.5114503816793894,3.1908396946564888,1.099236641221374,-0.46142578125,0.023193359375,-0.072509765625,0.9571
1.2213740458015268,3.267175572519084,1.0076335877862594,-0.466796875,0.0205078125,-0.06640625,0.9588
1.251908396946565,3.2519083969465647,0.9923664122137404,-0.468017578125,0.025390625,-0.070556640625,0.9604999999999999
1.4809160305343512,3.450381679389313,1.0229007633587786,-0.468994140625,0.025634765625,-0.08056640625,0.9621999999999999
1.4809160305343512,3.404580152671756,1.083969465648855,-0.468017578125,0.025390625,-0.071533203125,0.9639
1.2061068702290076,3.3587786259541983,1.1755725190839694,-0.466064453125,0.022216796875,-0.069580078125,0.9655999999999999
1.1145038167938932,3.435114503816794,0.9312977099236641,-0.46337890625,0.023681640625,-0.070068359375,0.9672999999999999
1.3129770992366412,3.5572519083969465,0.8549618320610687,-0.464111328125,0.018798828125,-0.0634765625,0.969
1.3282442748091603,3.6946564885496183,0.6412213740458015,-0.468994140625,0.016845703125,-0.068603515625,0.9706999999999999
1.0381679389312977,3.7557251908396947,0.6259541984732825,-0.462646484375,0.022216796875,-0.068359375,0.9723999999999999
1.282442748091603,3.83206106870229,0.6106870229007634,-0.46240234375,0.023681640625,-0.080322265625,0.9741
1.0687022900763359,3.786259541984733,0.48854961832061067,-0.460205078125,0.024169921875,-0.07421875,0.9758
0.9770992366412213,3.786259541984733,0.549618320610687,-0.46728515625,0.02392578125,-0.071044921875,0.9774999999999999
0.7938931297709924,3.66412213740458,0.5801526717557252,-0.460205078125,0.018310546875,-0.073486328125,0.9792
0.8549618320610687,3.6030534351145036,0.33587786259541985,-0.461669921875,0.018798828125,-0.06982421875,0.9809
0.8854961832061069,3.4198473282442747,0.3969465648854962,-0.464599609375,0.025634765625,-0.074462890625,0.9825999999999999
0.732824427480916,3.3282442748091605,0.22900763358778625,-0.46826171875,0.020751953125,-0.07470703125,0.9843
0.5954198473282443,3.5419847328244276,0.3816793893129771,-0.46142578125,0.018310546875,-0.066650390625,0.986
0.7633587786259542,3.3740458015267176,0.16793893129770993,-0.461669921875,0.013916015625,-0.069091796875,0.9876999999999999
0.6412213740458015,3.5114503816793894,0.33587786259541985,-0.45947265625,0.02001953125,-0.07470703125,0.9894
0.5648854961832062,3.3435114503816794,0.12213740458015267,-0.461181640625,0.01904296875,-0.07763671875,0.9911
0.5343511450381679,3.2213740458015265,0.3053435114503817,-0.458984375,0.020263671875,-0.071044921875,0.9927999999999999
0.6259541984732825,3.267175572519084,0.030534351145038167,-0.46435546875,0.02490234375,-0.06982421875,0.9944999999999999
0.5343511450381679,3.1908396946564888,0.183206106870229,-0.462890625,0.0205078125,-0.068115234375,0.9962
0.6259541984732825,3.2061068702290076,0.0916030534351145,-0.46240234375,0.0224609375,-0.069091796875,0.9978999999999999
0.5954198473282443,2.9770992366412212,0.10687022900763359,-0.464599609375,0.024658203125,-0.078369140625,0.9995999999999999
0.44274809160305345,2.900763358778626,-0.15267175572519084,-0.463134765625,0.0234375,-0.0771484375,1.0012999999999999
0.4732824427480916,2.732824427480916,-0.1984732824427481,-0.460205078125,0.0302734375,-0.07470703125,1.003
0.4122137404580153,2.763358778625954,-0.1984732824427481,-0.465576171875,0.0244140625,-0.07177734375,1.0047
0.5954198473282443,2.7786259541984735,-0.10687022900763359,-0.45947265625,0.02587890625,-0.073974609375,1.0064
0.5954198473282443,2.8244274809160306,-0.1984732824427481,-0.45556640625,0.020263671875,-0.074462890625,1.0081
0.44274809160305345,2.6412213740458017,-0.2748091603053435,-0.4619140625,0.0185546875,-0.07080078125,1.0098
0.549618320610687,2.6412213740458017,-0.366412213740458,-0.460693359375,0.025146484375,-0.076904296875,1.0114999999999998
0.5038167938931297,2.4122137404580153,-0.2748091603053435,-0.462646484375,0.022216796875,-0.0712890625,1.0131999999999999
0.6106870229007634,2.5343511450381677,-0.2900763358778626,-0.460205078125,0.02490234375,-0.07421875,1.0149
0.9007633587786259,2.33587786259542,-0.16793893129770993,-0.46435546875,0.026611328125,-0.080810546875,1.0166
0.5801526717557252,2.351145038167939,-0.1984732824427481,-0.462158203125,0.02587890625,-0.074951171875,1.0183
0.7938931297709924,2.381679389312977,-0.2595419847328244,-0.463134765625,0.0234375,-0.078125,1.02
1.099236641221374,2.4732824427480917,-0.366412213740458,-0.46875,0.02880859375,-0.064208984375,1.0217
0.9770992366412213,2.366412213740458,-0.44274809160305345,-0.470703125,0.030029296875,-0.07080078125,1.0233999999999999
0.7938931297709924,2.4885496183206106,-0.6412213740458015,-0.4599609375,0.0244140625,-0.079345703125,1.0251
0.9770992366412213,2.4580152671755724,-0.6564885496183206,-0.46142578125,0.029296875,-0.081787109375,1.0268
0.9465648854961832,2.366412213740458,-0.8244274809160306,-0.46337890625,0.021728515625,-0.073486328125,1.0285
1.1908396946564885,2.50381679389313,-0.9312977099236641,-0.46142578125,0.0205078125,-0.07470703125,1.0302
1.1755725190839694,2.4580152671755724,-1.0534351145038168,-0.45703125,0.023681640625,-0.078369140625,1.0319
1.1450381679389312,2.2900763358778624,-0.9465648854961832,-0.4560546875,0.028564453125,-0.072998046875,1.0335999999999999
1.4045801526717556,2.4427480916030535,-1.251908396946565,-0.454345703125,0.025390625,-0.07666015625,1.0352999999999999
1.2213740458015268,2.351145038167939,-0.9618320610687023,-0.460693359375,0.024658203125,-0.072265625,1.037
1.0381679389312977,2.381679389312977,-1.1145038167938932,-0.461181640625,0.02685546875,-0.07275390625,1.0387
1.297709923664122,2.1374045801526718,-1.1755725190839694,-0.457275390625,0.02587890625,-0.08203125,1.0404
1.3893129770992367,2.2748091603053435,-1.0229007633587786,-0.45458984375,0.023193359375,-0.068115234375,1.0421
1.297709923664122,2.0916030534351147,-1.0687022900763359,-0.46240234375,0.022216796875,-0.0732421875,1.0437999999999998
1.4351145038167938,2.3206106870229006,-1.3435114503816794,-0.460205078125,0.0263671875,-0.076171875,1.0454999999999999
1.297709923664122,2.183206106870229,-0.916030534351145,-0.458251953125,0.024658203125,-0.076171875,1.0472
1.4351145038167938,1.8931297709923665,-1.3740458015267176,-0.465087890625,0.025146484375,-0.074951171875,1.0489
1.4351145038167938,2.030534351145038,-1.3435114503816794,-0.460693359375,0.0224609375,-0.080322265625,1.0506
1.282442748091603,1.7404580152671756,-1.5114503816793894,-0.45458984375,0.023193359375,-0.082275390625,1.0523
1.3129770992366412,1.618320610687023,-1.2671755725190839,-0.45703125,0.023193359375,-0.07763671875,1.054
1.4045801526717556,1.633587786259542,-1.3740458015267176,-0.45458984375,0.021240234375,-0.076171875,1.0556999999999999
1.3282442748091603,1.4809160305343512,-1.5114503816793894,-0.455322265625,0.024169921875,-0.074951171875,1.0574
1.450381679389313,1.2213740458015268,-1.6946564885496183,-0.458984375,0.019775390625,-0.078369140625,1.0591
1.282442748091603,0.9618320610687023,-1.5877862595419847,-0.458740234375,0.02587890625,-0.0810546875,1.0608
1.2213740458015268,1.0076335877862594,-1.6946564885496183,-0.461181640625,0.02197265625,-0.07373046875,1.0625
1.3129770992366412,1.0534351145038168,-1.5114503816793894,-0.451416015625,0.01953125,-0.072509765625,1.0642
1.1603053435114503,0.9312977099236641,-1.83206106870229,-0.456298828125,0.019287109375,-0.080810546875,1.0658999999999998
1.3282442748091603,0.7022900763358778,-1.786259541984733,-0.46142578125,0.02587890625,-0.0771484375,1.0675999999999999
0.8702290076335878,0.6412213740458015,-1.9236641221374047,-0.4599609375,0.0185546875,-0.080078125,1.0693
0.8702290076335878,0.6106870229007634,-1.6793893129770991,-0.46142578125,0.018798828125,-0.074462890625,1.071
0.9007633587786259,0.5190839694656488,-1.9694656488549618,-0.4619140625,0.020751953125,-0.08203125,1.0727
0.6870229007633588,0.6412213740458015,-1.8625954198473282,-0.46435546875,0.025634765625,-0.080322265625,1.0744
1.0381679389312977,0.5190839694656488,-1.8625954198473282,-0.4619140625,0.023193359375,-0.077880859375,1.0760999999999998
1.0534351145038168,0.5801526717557252,-1.8473282442748091,-0.459716796875,0.0224609375,-0.079833984375,1.0777999999999999
0.8549618320610687,0.4580152671755725,-1.9389312977099236,-0.46044921875,0.020751953125,-0.077880859375,1.0795
0.7480916030534351,0.42748091603053434,-1.8625954198473282,-0.461181640625,0.02783203125,-0.073486328125,1.0812
0.8091603053435115,0.32061068702290074,-1.8015267175572518,-0.462158203125,0.0205078125,-0.07421875,1.0829
0.6870229007633588,0.33587786259541985,-1.618320610687023,-0.4599609375,0.02099609375,-0.0693359375,1.0846
0.6106870229007634,0.21374045801526717,-1.9083969465648856,-0.46337890625,0.02197265625,-0.079833984375,1.0863
0.8702290076335878,0.15267175572519084,-1.9083969465648856,-0.4609375,0.02001953125,-0.074462890625,1.0879999999999999
0.7480916030534351,0.0916030534351145,-2.0,-0.457763671875,0.01904296875,-0.067138671875,1.0897
0.7480916030534351,-0.3053435114503817,-1.816793893129771,-0.460205078125,0.022705078125,-0.072021484375,1.0914
0.6870229007633588,-0.13740458015267176,-1.8625954198473282,-0.46044921875,0.01904296875,-0.071533203125,1.0931
0.5954198473282443,-0.3511450381679389,-1.786259541984733,-0.46435546875,0.022216796875,-0.078857421875,1.0948
0.7938931297709924,-0.22900763358778625,-1.8778625954198473,-0.46044921875,0.02099609375,-0.073486328125,1.0965
0.6870229007633588,-0.15267175572519084,-1.786259541984733,-0.4638671875,0.02197265625,-0.0673828125,1.0981999999999998
0.7175572519083969,-0.32061068702290074,-1.9083969465648856,-0.462890625,0.020751953125,-0.077392578125,1.0998999999999999
0.6259541984732825,-0.42748091603053434,-1.7709923664122138,-0.4677734375,0.020263671875,-0.076904296875,1.1016
0.6564885496183206,-0.3969465648854962,-1.8015267175572518,-0.4638671875,0.0205078125,-0.072021484375,1.1033
0.6106870229007634,-0.3969465648854962,-1.786259541984733,-0.4609375,0.027099609375,-0.074462890625,1.105
0.7786259541984732,-0.22900763358778625,-1.7557251908396947,-0.458740234375,0.0244140625,-0.075927734375,1.1067
0.6564885496183206,-0.21374045801526717,-1.8778625954198473,-0.463623046875,0.02001953125,-0.076416015625,1.1083999999999998
0.6412213740458015,-0.15267175572519084,-1.8931297709923665,-0.469482421875,0.017822265625,-0.0712890625,1.1100999999999999
0.9618320610687023,-0.183206106870229,-1.786259541984733,-0.45703125,0.02197265625,-0.077880859375,1.1118
0.8244274809160306,-0.21374045801526717,-2.0,-0.45556640625,0.0244140625,-0.079833984375,1.1135
0.549618320610687,-0.32061068702290074,-1.8931297709923665,-0.463623046875,0.02392578125,-0.068115234375,1.1152
0.5954198473282443,-0.4732824427480916,-2.1374045801526718,-0.462158203125,0.0234375,-0.0703125,1.1169
0.5801526717557252,-0.32061068702290074,-2.045801526717557,-0.46533203125,0.0185546875,-0.0751953125,1.1186
0.732824427480916,-0.5038167938931297,-2.122137404580153,-0.462158203125,0.020263671875,-0.07568359375,1.1202999999999999
0.732824427480916,-0.3969465648854962,-2.33587786259542,-0.46533203125,0.024658203125,-0.0712890625,1.1219999999999999
0.7480916030534351,-0.3511450381679389,-2.2442748091603053,-0.468017578125,0.026123046875,-0.06884765625,1.1237
0.5343511450381679,-0.5648854961832062,-1.9389312977099236,-0.45849609375,0.0205078125,-0.06689453125,1.1254
0.9923664122137404,-0.5343511450381679,-2.2290076335877864,-0.4677734375,0.02392578125,-0.0771484375,1.1271
0.8091603053435115,-0.5190839694656488,-2.2900763358778624,-0.46240234375,0.02197265625,-0.072998046875,1.1288
0.7175572519083969,-0.3969465648854962,-2.3206106870229006,-0.465087890625,0.025146484375,-0.0712890625,1.1304999999999998
0.9923664122137404,-0.32061068702290074,-2.351145038167939,-0.466552734375,0.0263671875,-0.073974609375,1.1321999999999999
0.916030534351145,-0.3969465648854962,-2.198473282442748,-0.460693359375,0.02197265625,-0.084716796875,1.1339
0.7022900763358778,-0.3969465648854962,-2.2900763358778624,-0.464599609375,0.020263671875,-0.079833984375,1.1356
0.8549618320610687,-0.2900763358778626,-2.2900763358778624,-0.46484375,0.024169921875,-0.0732421875,1.1373
0.7480916030534351,-0.42748091603053434,-2.2900763358778624,-0.46435546875,0.02392578125,-0.0615234375,1.139
0.8396946564885496,-0.183206106870229,-2.366412213740458,-0.463134765625,0.019287109375,-0.068115234375,1.1407
0.7480916030534351,-0.07633587786259542,-2.3206106870229006,-0.467041015625,0.024658203125,-0.073486328125,1.1423999999999999
0.7480916030534351,-0.21374045801526717,-2.4122137404580153,-0.466552734375,0.021728515625,-0.065673828125,1.1441
0.8702290076335878,0.0,-2.183206106870229,-0.463623046875,0.02197265625,-0.06298828125,1.1458
0.7175572519083969,0.030534351145038167,-2.2900763358778624,-0.466796875,0.016845703125,-0.064208984375,1.1475
0.732824427480916,-0.030534351145038167,-2.5343511450381677,-0.466552734375,0.02001953125,-0.06982421875,1.1492
0.8396946564885496,-0.04580152671755725,-2.33587786259542,-0.4609375,0.02099609375,-0.069091796875,1.1509
0.7786259541984732,-0.061068702290076333,-2.3206106870229006,-0.461669921875,0.01953125,-0.067138671875,1.1525999999999998
0.6717557251908397,0.07633587786259542,-2.2900763358778624,-0.46240234375,0.01611328125,-0.06201171875,1.1542999999999999
0.5801526717557252,-0.015267175572519083,-2.030534351145038,-0.46240234375,0.01806640625,-0.06884765625,1.156
0.7633587786259542,-0.2748091603053435,-2.0916030534351147,-0.462646484375,0.022216796875,-0.067138671875,1.1577
0.6259541984732825,-0.2595419847328244,-1.984732824427481,-0.458984375,0.018310546875,-0.066650390625,1.1594
0.8244274809160306,-0.24427480916030533,-2.015267175572519,-0.460693359375,0.01806640625,-0.0693359375,1.1611
0.7633587786259542,-0.4732824427480916,-1.7251908396946565,-0.45947265625,0.02197265625,-0.076904296875,1.1627999999999998
0.7022900763358778,-0.6870229007633588,-1.786259541984733,-0.45849609375,0.0224609375,-0.073974609375,1.1644999999999999
0.5038167938931297,-0.5801526717557252,-1.633587786259542,-0.463623046875,0.02001953125,-0.0615234375,1.1662
0.5343511450381679,-0.9007633587786259,-1.5877862595419847,-0.4609375,0.01904296875,-0.06396484375,1.1679
0.6717557251908397,-0.8091603053435115,-1.6641221374045803,-0.46240234375,0.021484375,-0.065673828125,1.1696
0.5190839694656488,-1.0381679389312977,-1.5267175572519085,-0.4677734375,0.02490234375,-0.072021484375,1.1713
0.6106870229007634,-1.2213740458015268,-1.4198473282442747,-0.461669921875,0.02197265625,-0.07958984375,1.173
0.732824427480916,-0.9465648854961832,-1.450381679389313,-0.46142578125,0.02294921875,-0.0712890625,1.1746999999999999
0.732824427480916,-1.1755725190839694,-1.4045801526717556,-0.463623046875,0.022216796875,-0.066650390625,1.1764
0.7480916030534351,-1.1297709923664123,-1.2213740458015268,-0.468017578125,0.014404296875,-0.06591796875,1.1781
0.6259541984732825,-1.099236641221374,-1.282442748091603,-0.4599609375,0.018798828125,-0.06689453125,1.1798
0.5190839694656488,-1.251908396946565,-1.2213740458015268,-0.465576171875,0.01806640625,-0.067138671875,1.1815
0.9007633587786259,-1.1450381679389312,-1.3129770992366412,-0.46533203125,0.0244140625,-0.068603515625,1.1832
0.8091603053435115,-1.3129770992366412,-1.1603053435114503,-0.4658203125,0.024169921875,-0.05859375,1.1848999999999998
0.8396946564885496,-1.450381679389313,-1.2213740458015268,-0.463623046875,0.0263671875,-0.061767578125,1.1865999999999999
0.9007633587786259,-1.2366412213740459,-1.0076335877862594,-0.463134765625,0.022216796875,-0.0654296875,1.1883
0.9465648854961832,-0.9465648854961832,-1.1297709923664123,-0.4619140625,0.0244140625,-0.068603515625,1.19
1.083969465648855,-1.0229007633587786,-1.3129770992366412,-0.46435546875,0.025390625,-0.0693359375,1.1917
0.916030534351145,-1.0076335877862594,-1.297709923664122,-0.4658203125,0.022705078125,-0.0693359375,1.1934
0.8702290076335878,-0.8244274809160306,-1.633587786259542,-0.46533203125,0.02294921875,-0.06982421875,1.1950999999999998
1.1603053435114503,-1.2061068702290076,-1.633587786259542,-0.468505859375,0.02392578125,-0.064453125,1.1967999999999999
1.0687022900763359,-1.1755725190839694,-1.6641221374045803,-0.465576171875,0.02197265625,-0.0654296875,1.1985
1.1297709923664123,-1.099236641221374,-1.8778625954198473,-0.462646484375,0.026123046875,-0.067138671875,1.2002
1.1145038167938932,-1.1145038167938932,-1.9236641221374047,-0.4677734375,0.01708984375,-0.074951171875,1.2019
1.099236641221374,-1.0381679389312977,-2.1068702290076335,-0.4638671875,0.029296875,-0.065185546875,1.2036
0.9770992366412213,-0.9465648854961832,-2.0,-0.465576171875,0.017822265625,-0.071044921875,1.2053
0.9465648854961832,-0.9770992366412213,-2.0610687022900764,-0.466064453125,0.021240234375,-0.070556640625,1.2069999999999999
1.2061068702290076,-0.8702290076335878,-2.3206106870229006,-0.466064453125,0.017822265625,-0.07177734375,1.2086999999999999
1.0381679389312977,-0.6564885496183206,-2.4122137404580153,-0.4716796875,0.025146484375,-0.06494140625,1.2104
0.6870229007633588,-0.6564885496183206,-2.33587786259542,-0.469970703125,0.023681640625,-0.068603515625,1.2121
0.7938931297709924,-0.42748091603053434,-2.5801526717557253,-0.469970703125,0.022705078125,-0.068359375,1.2138
0.7938931297709924,-0.12213740458015267,-2.6717557251908395,-0.471923828125,0.02099609375,-0.065673828125,1.2155
0.8854961832061069,0.030534351145038167,-2.687022900763359,-0.466796875,0.015625,-0.073486328125,1.2171999999999998
0.8091603053435115,0.12213740458015267,-2.7786259541984735,-0.46875,0.017822265625,-0.066162109375,1.2188999999999999
0.6106870229007634,0.5038167938931297,-2.8396946564885495,-0.472900390625,0.02001953125,-0.067626953125,1.2206
0.549618320610687,0.7480916030534351,-2.9770992366412212,-0.473388671875,0.022216796875,-0.0654296875,1.2223
0.549618320610687,1.0229007633587786,-3.1908396946564888,-0.472900390625,0.0185546875,-0.07177734375,1.224
0.3816793893129771,1.2671755725190839,-3.0229007633587788,-0.465576171875,0.019287109375,-0.073486328125,1.2257
0.2595419847328244,1.3129770992366412,-3.3893129770992365,-0.464599609375,0.01904296875,-0.072265625,1.2273999999999998
0.33587786259541985,1.3282442748091603,-3.648854961832061,-0.4658203125,0.021484375,-0.070556640625,1.2290999999999999
0.13740458015267176,1.5877862595419847,-3.6946564885496183,-0.464599609375,0.02001953125,-0.06884765625,1.2308
-0.04580152671755725,1.465648854961832,-3.786259541984733,-0.460205078125,0.018798828125,-0.068603515625,1.2325
-0.07633587786259542,1.618320610687023,-4.259541984732825,-0.4638671875,0.01416015625,-0.06201171875,1.2342
-0.12213740458015267,1.786259541984733,-4.33587786259542,-0.457275390625,0.013916015625,-0.06982421875,1.2359
-0.4732824427480916,1.5572519083969465,-4.3816793893129775,-0.458251953125,0.01220703125,-0.06591796875,1.2376
-0.6106870229007634,1.618320610687023,-4.549618320610687,-0.45703125,0.022705078125,-0.07373046875,1.2392999999999998
-0.7786259541984732,1.3282442748091603,-4.885496183206107,-0.458984375,0.024169921875,-0.075927734375,1.2409999999999999
-1.099236641221374,1.1755725190839694,-5.00763358778626,-0.459716796875,0.013427734375,-0.06103515625,1.2427
-1.099236641221374,0.8549618320610687,-5.129770992366412,-0.456298828125,0.015625,-0.065673828125,1.2444
-1.4045801526717556,0.6412213740458015,-5.068702290076335,-0.450439453125,0.020263671875,-0.068115234375,1.2461
-1.5267175572519085,0.32061068702290074,-5.358778625954199,-0.44970703125,0.018310546875,-0.068359375,1.2478
-1.5114503816793894,0.061068702290076333,-5.099236641221374,-0.45654296875,0.01318359375,-0.061279296875,1.2494999999999998
-1.816793893129771,-0.1984732824427481,-5.32824427480916,-0.45361328125,0.0185546875,-0.075439453125,1.2511999999999999
-2.0,-0.5343511450381679,-5.206106870229007,-0.451904296875,0.01806640625,-0.0693359375,1.2529
-2.198473282442748,-0.7938931297709924,-5.358778625954199,-0.451904296875,0.0146484375,-0.072509765625,1.2546
-2.4427480916030535,-0.9312977099236641,-5.267175572519084,-0.450927734375,0.014404296875,-0.067626953125,1.2563
-2.6259541984732824,-1.0534351145038168,-5.465648854961832,-0.44921875,0.013671875,-0.06884765625,1.258
-2.931297709923664,-1.0687022900763359,-5.312977099236641,-0.45703125,0.01708984375,-0.0771484375,1.2596999999999998
-2.8244274809160306,-1.4961832061068703,-5.358778625954199,-0.4541015625,0.013916015625,-0.072509765625,1.2613999999999999
-3.2061068702290076,-1.6793893129770991,-5.114503816793893,-0.453369140625,0.013671875,-0.07421875,1.2631
-3.4656488549618323,-1.9083969465648856,-5.282442748091603,-0.460205078125,0.014892578125,-0.0673828125,1.2648
-3.4198473282442747,-2.2442748091603053,-4.916030534351145,-0.451416015625,0.021484375,-0.06689453125,1.2665
-3.49618320610687,-2.33587786259542,-5.083969465648855,-0.45947265625,0.013427734375,-0.0732421875,1.2682
-3.6793893129770994,-2.381679389312977,-4.656488549618321,-0.45556640625,0.018310546875,-0.07763671875,1.2699
-3.83206106870229,-2.427480916030534,-4.778625954198473,-0.458984375,0.020751953125,-0.06396484375,1.2715999999999998
-3.6793893129770994,-2.6106870229007635,-4.870229007633588,-0.462158203125,0.02197265625,-0.06884765625,1.2732999999999999
-3.954198473282443,-2.732824427480916,-4.702290076335878,-0.460693359375,0.018310546875,-0.069580078125,1.275
-3.984732824427481,-2.7938931297709924,-4.687022900763359,-0.4658203125,0.014404296875,-0.065185546875,1.2767
-3.7557251908396947,-2.8091603053435112,-4.717557251908397,-0.45849609375,0.020263671875,-0.0595703125,1.2784
-4.091603053435114,-2.6717557251908395,-4.717557251908397,-0.46240234375,0.0166015625,-0.068115234375,1.2801
-3.9236641221374047,-2.6717557251908395,-4.717557251908397,-0.458984375,0.02587890625,-0.07568359375,1.2817999999999998
-3.83206106870229,-2.4732824427480917,-4.564885496183206,-0.46923828125,0.02197265625,-0.072021484375,1.2834999999999999
-3.7709923664122136,-2.4580152671755724,-4.625954198473282,-0.46826171875,0.0263671875,-0.066650390625,1.2852
-3.801526717557252,-2.2900763358778624,-4.366412213740458,-0.4677734375,0.015869140625,-0.068359375,1.2869
-3.7709923664122136,-2.0610687022900764,-4.213740458015267,-0.46923828125,0.020263671875,-0.061767578125,1.2886
-3.5267175572519083,-1.9083969465648856,-4.091603053435114,-0.471435546875,0.020751953125,-0.067138671875,1.2903
-3.5877862595419847,-1.7251908396946565,-3.969465648854962,-0.467041015625,0.0224609375,-0.068115234375,1.292
-3.404580152671756,-1.4961832061068703,-3.633587786259542,-0.476806640625,0.0224609375,-0.07421875,1.2936999999999999
-3.3587786259541983,-1.2366412213740459,-3.5114503816793894,-0.46826171875,0.02392578125,-0.06884765625,1.2953999999999999
-3.1603053435114505,-0.8854961832061069,-3.3587786259541983,-0.467041015625,0.019287109375,-0.067626953125,1.2971
-3.0839694656488548,-0.916030534351145,-3.282442748091603,-0.465576171875,0.021484375,-0.07275390625,1.2988
-2.8396946564885495,-1.0381679389312977,-3.0076335877862594,-0.46240234375,0.02294921875,-0.06005859375,1.3005
-2.7786259541984735,-1.0534351145038168,-2.854961832061069,-0.465576171875,0.0263671875,-0.06298828125,1.3022
-2.4427480916030535,-0.9312977099236641,-2.6106870229007635,-0.464599609375,0.025390625,-0.067138671875,1.3038999999999998
-2.33587786259542,-0.9618320610687023,-2.519083969465649,-0.462890625,0.020263671875,-0.0615234375,1.3055999999999999
-2.2290076335877864,-0.9770992366412213,-2.595419847328244,-0.45751953125,0.026611328125,-0.066162109375,1.3073
-1.9541984732824427,-0.8396946564885496,-2.5801526717557253,-0.458740234375,0.027587890625,-0.06591796875,1.309
-1.9389312977099236,-0.4732824427480916,-2.3053435114503817,-0.460693359375,0.027099609375,-0.0771484375,1.3107
-1.7404580152671756,-0.3511450381679389,-2.381679389312977,-0.46240234375,0.027587890625,-0.071044921875,1.3124
-1.4045801526717556,-0.8854961832061069,-2.2900763358778624,-0.46142578125,0.02685546875,-0.062744140625,1.3140999999999998
-1.282442748091603,-1.450381679389313,-2.4122137404580153,-0.457763671875,0.023193359375,-0.062255859375,1.3157999999999999
-1.0076335877862594,-1.984732824427481,-2.6412213740458017,-0.45849609375,0.025634765625,-0.065673828125,1.3175
-0.732824427480916,-2.122137404580153,-2.564885496183206,-0.46044921875,0.02978515625,-0.06494140625,1.3192
-0.6412213740458015,-2.3053435114503817,-2.4732824427480917,-0.458251953125,0.0244140625,-0.053955078125,1.3209
-0.2900763358778626,-2.2900763358778624,-2.8091603053435112,-0.462158203125,0.02685546875,-0.073486328125,1.3226
0.0,-2.16793893129771,-2.7938931297709924,-0.461181640625,0.0263671875,-0.0654296875,1.3243
0.061068702290076333,-2.015267175572519,-3.1297709923664123,-0.459716796875,0.023681640625,-0.072509765625,1.3259999999999998
0.0,-2.045801526717557,-3.3893129770992365,-0.45849609375,0.023193359375,-0.063232421875,1.3276999999999999
0.32061068702290074,-1.4045801526717556,-3.6030534351145036,-0.4580078125,0.021484375,-0.067138671875,1.3294
0.44274809160305345,-1.0381679389312977,-3.954198473282443,-0.454833984375,0.0244140625,-0.072998046875,1.3311
0.5038167938931297,-1.297709923664122,-4.2748091603053435,-0.45654296875,0.01904296875,-0.075927734375,1.3328
0.6564885496183206,-2.045801526717557,-4.33587786259542,-0.46044921875,0.02294921875,-0.062744140625,1.3345
0.3969465648854962,-2.7480916030534353,-4.290076335877862,-0.4599609375,0.023681640625,-0.069091796875,1.3361999999999998
0.6717557251908397,-3.5267175572519083,-4.030534351145038,-0.46337890625,0.020263671875,-0.057861328125,1.3378999999999999
0.9770992366412213,-3.83206106870229,-4.015267175572519,-0.46044921875,0.02099609375,-0.06201171875,1.3396
0.9312977099236641,-3.6946564885496183,-3.5267175572519083,-0.463623046875,0.024658203125,-0.074951171875,1.3413
1.0229007633587786,-3.4656488549618323,-3.099236641221374,-0.4638671875,0.018310546875,-0.06494140625,1.343
0.7022900763358778,-3.312977099236641,-2.6564885496183206,-0.4658203125,0.0224609375,-0.069091796875,1.3447
0.9007633587786259,-3.2213740458015265,-2.4580152671755724,-0.46142578125,0.024169921875,-0.06396484375,1.3463999999999998
0.9618320610687023,-3.312977099236641,-2.0916030534351147,-0.468505859375,0.025634765625,-0.0546875,1.3480999999999999
0.9007633587786259,-3.1908396946564888,-1.83206106870229,-0.468017578125,0.017578125,-0.06396484375,1.3497999999999999
1.1450381679389312,-3.0229007633587788,-1.5419847328244274,-0.46484375,0.02685546875,-0.06396484375,1.3515
1.2366412213740459,-2.763358778625954,-1.450381679389313,-0.467041015625,0.023193359375,-0.06494140625,1.3532
1.2671755725190839,-2.9160305343511452,-1.4198473282442747,-0.46337890625,0.019775390625,-0.066162109375,1.3549
1.7251908396946565,-2.6564885496183206,-1.1755725190839694,-0.466064453125,0.022216796875,-0.067138671875,1.3566
1.5419847328244274,-2.4732824427480917,-1.1603053435114503,-0.468017578125,0.017333984375,-0.064453125,1.3582999999999998
1.5114503816793894,-2.366412213740458,-1.4351145038167938,-0.4677734375,0.02099609375,-0.06396484375,1.3599999999999999
1.4198473282442747,-2.4580152671755724,-1.5877862595419847,-0.46728515625,0.0234375,-0.064453125,1.3617
1.5877862595419847,-2.4580152671755724,-1.5572519083969465,-0.468017578125,0.0185546875,-0.059814453125,1.3634
1.816793893129771,-2.351145038167939,-1.9694656488549618,-0.465576171875,0.018798828125,-0.0546875,1.3651
1.5572519083969465,-2.1526717557251906,-2.122137404580153,-0.46484375,0.027099609375,-0.067138671875,1.3668
1.6488549618320612,-2.3206106870229006,-2.183206106870229,-0.46484375,0.0205078125,-0.06982421875,1.3684999999999998
1.9694656488549618,-2.4427480916030535,-2.427480916030534,-0.468505859375,0.026611328125,-0.070068359375,1.3701999999999999
2.2290076335877864,-2.183206106870229,-2.1374045801526718,-0.4755859375,0.02490234375,-0.06884765625,1.3719
1.9236641221374047,-2.015267175572519,-2.2290076335877864,-0.47216796875,0.024658203125,-0.064208984375,1.3736
2.0916030534351147,-1.8625954198473282,-2.213740458015267,-0.470703125,0.027099609375,-0.058349609375,1.3753
2.183206106870229,-1.8473282442748091,-2.198473282442748,-0.469482421875,0.023681640625,-0.067626953125,1.377
1.9541984732824427,-1.5114503816793894,-2.015267175572519,-0.472412109375,0.023681640625,-0.06005859375,1.3786999999999998
2.1068702290076335,-1.3435114503816794,-2.0610687022900764,-0.469970703125,0.019775390625,-0.0625,1.3803999999999998
2.198473282442748,-1.1450381679389312,-1.984732824427481,-0.470703125,0.022216796875,-0.06298828125,1.3820999999999999
2.1068702290076335,-1.1908396946564885,-1.83206106870229,-0.472900390625,0.02490234375,-0.059814453125,1.3838
2.122137404580153,-0.8702290076335878,-1.7404580152671756,-0.466064453125,0.019287109375,-0.062255859375,1.3855
2.1374045801526718,-0.8854961832061069,-1.633587786259542,-0.466796875,0.023681640625,-0.05859375,1.3872
2.2290076335877864,-0.9770992366412213,-1.633587786259542,-0.466552734375,0.018798828125,-0.063720703125,1.3889
2.2595419847328246,-1.1908396946564885,-1.4961832061068703,-0.46826171875,0.018310546875,-0.05908203125,1.3905999999999998
2.0610687022900764,-1.0229007633587786,-1.618320610687023,-0.4677734375,0.021728515625,-0.058837890625,1.3922999999999999
2.015267175572519,-1.083969465648855,-1.465648854961832,-0.46923828125,0.0185546875,-0.072265625,1.394
2.1068702290076335,-0.9923664122137404,-1.282442748091603,-0.46240234375,0.015625,-0.06005859375,1.3957
2.2595419847328246,-1.0381679389312977,-1.4809160305343512,-0.467529296875,0.0166015625,-0.05712890625,1.3974
2.1526717557251906,-1.1297709923664123,-1.5114503816793894,-0.4658203125,0.02099609375,-0.059814453125,1.3991
2.015267175572519,-1.0229007633587786,-1.465648854961832,-0.468994140625,0.0166015625,-0.054443359375,1.4007999999999998
2.2595419847328246,-0.9618320610687023,-1.5572519083969465,-0.469482421875,0.017578125,-0.059814453125,1.4024999999999999
2.0610687022900764,-0.9465648854961832,-1.5725190839694656,-0.471923828125,0.02099609375,-0.0625,1.4042
2.0610687022900764,-1.0076335877862594,-1.6793893129770991,-0.468505859375,0.018798828125,-0.07373046875,1.4059
2.045801526717557,-0.732824427480916,-1.618320610687023,-0.466064453125,0.018310546875,-0.070068359375,1.4076
2.015267175572519,-0.7938931297709924,-1.6030534351145038,-0.47412109375,0.021728515625,-0.06787109375,1.4093
2.1068702290076335,-0.6870229007633588,-1.618320610687023,-0.470947265625,0.02197265625,-0.059814453125,1.411
2.1374045801526718,-0.5343511450381679,-1.6488549618320612,-0.469482421875,0.019775390625,-0.066162109375,1.4126999999999998
2.015267175572519,-0.2900763358778626,-1.633587786259542,-0.469970703125,0.01513671875,-0.061279296875,1.4143999999999999
1.7709923664122138,-0.12213740458015267,-1.7099236641221374,-0.4716796875,0.0166015625,-0.065673828125,1.4161
1.8778625954198473,-0.21374045801526717,-1.6946564885496183,-0.47314453125,0.016845703125,-0.059814453125,1.4178
1.9389312977099236,0.183206106870229,-1.7099236641221374,-0.469970703125,0.009765625,-0.059814453125,1.4195
1.6488549618320612,0.3053435114503817,-1.6793893129770991,-0.467041015625,0.013671875,-0.065673828125,1.4212
1.816793893129771,0.24427480916030533,-1.633587786259542,-0.468505859375,0.019775390625,-0.061279296875,1.4228999999999998
1.6030534351145038,0.5343511450381679,-1.6793893129770991,-0.47412109375,0.021240234375,-0.064208984375,1.4245999999999999
2.0,0.7633587786259542,-1.83206106870229,-0.471923828125,0.015869140625,-0.0556640625,1.4263
1.8931297709923665,0.8549618320610687,-1.8931297709923665,-0.47119140625,0.023193359375,-0.067626953125,1.428
1.7251908396946565,1.1297709923664123,-1.9083969465648856,-0.4658203125,0.025634765625,-0.062255859375,1.4297
1.7251908396946565,1.1603053435114503,-1.7709923664122138,-0.469970703125,0.021728515625,-0.0595703125,1.4314
1.7709923664122138,1.1603053435114503,-1.7557251908396947,-0.4736328125,0.021240234375,-0.06494140625,1.4330999999999998
1.6488549618320612,1.2671755725190839,-1.816793893129771,-0.47314453125,0.0205078125,-0.06689453125,1.4347999999999999
1.5267175572519085,1.3893129770992367,-2.030534351145038,-0.471435546875,0.021484375,-0.065673828125,1.4364999999999999
1.6793893129770991,1.4045801526717556,-2.1374045801526718,-0.4736328125,0.01708984375,-0.06884765625,1.4382
1.786259541984733,1.5725190839694656,-1.9541984732824427,-0.470947265625,0.010986328125,-0.0537109375,1.4399
1.7404580152671756,1.7099236641221374,-2.122137404580153,-0.46484375,0.01904296875,-0.068115234375,1.4416
1.7709923664122138,1.6488549618320612,-2.030534351145038,-0.46533203125,0.020263671875,-0.05810546875,1.4433
1.5572519083969465,1.8473282442748091,-2.0610687022900764,-0.46875,0.017578125,-0.064453125,1.4449999999999998
1.8778625954198473,2.1526717557251906,-2.1068702290076335,-0.47265625,0.01416015625,-0.06298828125,1.4466999999999999
1.6488549618320612,2.2442748091603053,-2.030534351145038,-0.466064453125,0.016357421875,-0.06396484375,1.4484
1.5877862595419847,2.1526717557251906,-2.122137404580153,-0.46826171875,0.0146484375,-0.066162109375,1.4501
1.8625954198473282,2.1068702290076335,-1.8931297709923665,-0.46240234375,0.02099609375,-0.061767578125,1.4518
1.5114503816793894,2.3053435114503817,-1.9694656488549618,-0.465576171875,0.01904296875,-0.058349609375,1.4535
1.450381679389313,2.3206106870229006,-1.9083969465648856,-0.468017578125,0.01708984375,-0.0712890625,1.4551999999999998
1.5725190839694656,2.3053435114503817,-2.030534351145038,-0.465576171875,0.01806640625,-0.0693359375,1.4568999999999999
1.7251908396946565,2.549618320610687,-1.8625954198473282,-0.466796875,0.018798828125,-0.06298828125,1.4586
1.5572519083969465,2.519083969465649,-2.045801526717557,-0.46630859375,0.022705078125,-0.060791015625,1.4603
1.633587786259542,2.50381679389313,-2.0916030534351147,-0.465087890625,0.021728515625,-0.0654296875,1.462
1.8473282442748091,2.5343511450381677,-2.0763358778625953,-0.4677734375,0.024169921875,-0.07470703125,1.4637
1.5572519083969465,2.7480916030534353,-2.045801526717557,-0.467041015625,0.017822265625,-0.06005859375,1.4653999999999998
1.5267175572519085,2.717557251908397,-2.1068702290076335,-0.468505859375,0.0205078125,-0.060791015625,1.4670999999999998
1.633587786259542,2.6717557251908395,-2.0610687022900764,-0.4677734375,0.023681640625,-0.061767578125,1.4687999999999999
1.8625954198473282,2.8396946564885495,-2.1068702290076335,-0.46630859375,0.024169921875,-0.0556640625,1.4705
1.8625954198473282,2.8091603053435112,-2.015267175572519,-0.46728515625,0.0224609375,-0.066650390625,1.4722
1.8931297709923665,2.900763358778626,-2.0,-0.473876953125,0.018310546875,-0.06494140625,1.4739
1.9389312977099236,3.053435114503817,-1.9694656488549618,-0.471435546875,0.02099609375,-0.066162109375,1.4756
1.8015267175572518,3.099236641221374,-2.183206106870229,-0.463623046875,0.015380859375,-0.068359375,1.4772999999999998
1.9389312977099236,3.2213740458015265,-1.984732824427481,-0.470703125,0.02880859375,-0.060791015625,1.4789999999999999
1.9694656488549618,3.2213740458015265,-2.1068702290076335,-0.469970703125,0.015869140625,-0.0712890625,1.4807
1.9541984732824427,3.1297709923664123,-1.816793893129771,-0.470703125,0.01953125,-0.07275390625,1.4824
2.030534351145038,3.3282442748091605,-2.0763358778625953,-0.469970703125,0.02197265625,-0.056396484375,1.4841
2.015267175572519,3.3435114503816794,-1.9083969465648856,-0.471435546875,0.0234375,-0.06396484375,1.4858
2.030534351145038,3.618320610687023,-1.8625954198473282,-0.47021484375,0.022705078125,-0.062255859375,1.4874999999999998
2.3206106870229006,3.6793893129770994,-1.83206106870229,-0.469970703125,0.021240234375,-0.06787109375,1.4891999999999999
2.183206106870229,3.7557251908396947,-1.8931297709923665,-0.46728515625,0.0224609375,-0.067626953125,1.4909
2.1526717557251906,3.816793893129771,-1.618320610687023,-0.465576171875,0.019775390625,-0.064208984375,1.4926
2.3053435114503817,4.198473282442748,-1.5725190839694656,-0.468994140625,0.017822265625,-0.05859375,1.4943
2.2290076335877864,4.0458015267175576,-1.6793893129770991,-0.46923828125,0.0205078125,-0.05859375,1.496
2.2290076335877864,4.244274809160306,-1.8015267175572518,-0.4638671875,0.019287109375,-0.07568359375,1.4976999999999998
2.2900763358778624,4.717557251908397,-1.633587786259542,-0.46484375,0.025146484375,-0.06494140625,1.4993999999999998
2.198473282442748,4.6106870229007635,-1.7251908396946565,-0.469970703125,0.0224609375,-0.0693359375,1.5010999999999999
2.4885496183206106,4.824427480916031,-1.465648854961832,-0.46728515625,0.017578125,-0.068115234375,1.5028
2.33587786259542,4.99236641221374,-1.8625954198473282,-0.470458984375,0.021240234375,-0.068359375,1.5045
2.4122137404580153,5.038167938931298,-1.83206106870229,-0.468505859375,0.0234375,-0.059814453125,1.5062
2.3969465648854964,5.114503816793893,-1.83206106870229,-0.467041015625,0.018798828125,-0.060546875,1.5079
2.595419847328244,5.32824427480916,-1.7099236641221374,-0.47021484375,0.015380859375,-0.06494140625,1.5095999999999998
2.564885496183206,5.450381679389313,-1.9083969465648856,-0.464599609375,0.0205078125,-0.067626953125,1.5112999999999999
2.5343511450381677,5.419847328244275,-1.8778625954198473,-0.46435546875,0.020751953125,-0.063720703125,1.513
2.4732824427480917,5.541984732824427,-2.045801526717557,-0.46533203125,0.016357421875,-0.06201171875,1.5147
2.6564885496183206,5.511450381679389,-1.8473282442748091,-0.46435546875,0.018798828125,-0.0693359375,1.5164
2.5801526717557253,5.572519083969466,-1.9694656488549618,-0.463623046875,0.0126953125,-0.060302734375,1.5181
2.4580152671755724,5.66412213740458,-1.9694656488549618,-0.4658203125,0.013916015625,-0.053466796875,1.5197999999999998
2.6412213740458017,5.816793893129771,-2.198473282442748,-0.46435546875,0.01806640625,-0.05615234375,1.5214999999999999
2.381679389312977,5.786259541984733,-2.16793893129771,-0.46826171875,0.012451171875,-0.05908203125,1.5231999999999999
2.50381679389313,5.847328244274809,-2.50381679389313,-0.4609375,0.01318359375,-0.060791015625,1.5249
2.351145038167939,5.694656488549619,-2.198473282442748,-0.458984375,0.014892578125,-0.0595703125,1.5266
2.213740458015267,5.572519083969466,-2.2900763358778624,-0.462646484375,0.01416015625,-0.070068359375,1.5283
2.5343511450381677,5.648854961832061,-2.4122137404580153,-0.45947265625,0.01904296875,-0.060302734375,1.5299999999999998
2.183206106870229,5.633587786259542,-2.5801526717557253,-0.453369140625,0.0166015625,-0.06005859375,1.5316999999999998
2.183206106870229,5.374045801526718,-2.33587786259542,-0.456298828125,0.015869140625,-0.051025390625,1.5333999999999999
2.198473282442748,5.358778625954199,-2.4885496183206106,-0.45458984375,0.015869140625,-0.064697265625,1.5351
1.9389312977099236,5.419847328244275,-2.4427480916030535,-0.45458984375,0.009765625,-0.0595703125,1.5368
1.8778625954198473,5.00763358778626,-2.3969465648854964,-0.455810546875,0.010009765625,-0.061767578125,1.5385
1.786259541984733,4.763358778625954,-2.4580152671755724,-0.458251953125,0.010009765625,-0.0625,1.5402
1.9083969465648856,4.534351145038168,-2.4427480916030535,-0.455078125,0.01123046875,-0.06640625,1.5418999999999998
1.7709923664122138,4.290076335877862,-2.519083969465649,-0.455078125,0.010986328125,-0.060546875,1.5435999999999999
1.5725190839694656,4.0,-2.549618320610687,-0.45263671875,0.00927734375,-0.063720703125,1.5453
1.5114503816793894,3.984732824427481,-2.2748091603053435,-0.452880859375,0.01123046875,-0.060302734375,1.547
1.4198473282442747,3.572519083969466,-2.4122137404580153,-0.448486328125,0.012451171875,-0.063232421875,1.5487
1.3893129770992367,3.145038167938931,-2.3206106870229006,-0.4560546875,0.01318359375,-0.06103515625,1.5504
1.0534351145038168,3.114503816793893,-2.4885496183206106,-0.45751953125,0.013671875,-0.0634765625,1.5520999999999998
1.1908396946564885,2.8396946564885495,-2.3969465648854964,-0.45166015625,0.012939453125,-0.0634765625,1.5537999999999998
1.0229007633587786,2.4122137404580153,-2.3053435114503817,-0.453125,0.010986328125,-0.0634765625,1.5554999999999999
0.7480916030534351,2.198473282442748,-2.4122137404580153,-0.4501953125,0.007568359375,-0.06201171875,1.5572
0.8091603053435115,2.1526717557251906,-2.519083969465649,-0.45556640625,0.011962890625,-0.0595703125,1.5589
1.0534351145038168,1.6488549618320612,-2.1526717557251906,-0.449462890625,0.013916015625,-0.065185546875,1.5606
0.5038167938931297,1.5725190839694656,-2.2900763358778624,-0.45361328125,0.0107421875,-0.0712890625,1.5623
0.44274809160305345,1.4809160305343512,-2.2595419847328246,-0.455810546875,0.012451171875,-0.06787109375,1.5639999999999998
0.4732824427480916,1.5572519083969465,-2.2442748091603053,-0.45751953125,0.009033203125,-0.06884765625,1.5656999999999999
0.22900763358778625,1.3282442748091603,-2.2595419847328246,-0.461181640625,0.01513671875,-0.0712890625,1.5674
0.183206106870229,1.0687022900763359,-2.366412213740458,-0.464599609375,0.014892578125,-0.0595703125,1.5691
0.10687022900763359,1.1297709923664123,-2.122137404580153,-0.4638671875,0.011962890625,-0.05322265625,1.5708
0.10687022900763359,1.0687022900763359,-2.213740458015267,-0.461669921875,0.0078125,-0.069091796875,1.5725
-0.04580152671755725,0.9923664122137404,-2.015267175572519,-0.467529296875,0.011474609375,-0.060546875,1.5741999999999998
-0.2748091603053435,1.1450381679389312,-2.0,-0.464599609375,0.01123046875,-0.056396484375,1.5758999999999999
-0.061068702290076333,1.1297709923664123,-2.045801526717557,-0.4658203125,0.01220703125,-0.06494140625,1.5776
-0.24427480916030533,1.1603053435114503,-1.9389312977099236,-0.4677734375,0.014892578125,-0.06494140625,1.5793
-0.32061068702290074,1.3587786259541985,-1.8473282442748091,-0.468017578125,0.009521484375,-0.068603515625,1.581
-0.4122137404580153,1.5114503816793894,-1.8778625954198473,-0.46728515625,0.01220703125,-0.0673828125,1.5827
-0.6564885496183206,1.4351145038167938,-1.8015267175572518,-0.470458984375,0.0166015625,-0.070068359375,1.5843999999999998
-0.366412213740458,1.5877862595419847,-1.9694656488549618,-0.47216796875,0.01171875,-0.0673828125,1.5860999999999998
-0.32061068702290074,1.9236641221374047,-1.816793893129771,-0.468994140625,0.014892578125,-0.061767578125,1.5877999999999999
-0.5038167938931297,1.9541984732824427,-1.984732824427481,-0.471923828125,0.010009765625,-0.065185546875,1.5895
-0.5038167938931297,2.0,-1.8931297709923665,-0.471435546875,0.011474609375,-0.066162109375,1.5912
-0.6412213740458015,2.015267175572519,-2.045801526717557,-0.467529296875,0.021728515625,-0.06591796875,1.5929
-0.5190839694656488,2.2748091603053435,-2.045801526717557,-0.465576171875,0.013427734375,-0.063232421875,1.5946
-0.732824427480916,2.351145038167939,-2.1374045801526718,-0.46826171875,0.01220703125,-0.067626953125,1.5962999999999998
-0.44274809160305345,2.519083969465649,-2.045801526717557,-0.47119140625,0.01708984375,-0.0693359375,1.5979999999999999
-0.6870229007633588,2.6717557251908395,-2.0610687022900764,-0.46875,0.017333984375,-0.069580078125,1.5997
-0.732824427480916,2.6106870229007635,-1.984732824427481,-0.4677734375,0.010498046875,-0.0625,1.6014
-0.7786259541984732,2.6717557251908395,-1.8931297709923665,-0.466552734375,0.010986328125,-0.0693359375,1.6031
-0.9923664122137404,2.7480916030534353,-1.7557251908396947,-0.461181640625,0.009765625,-0.067138671875,1.6048
-0.9618320610687023,2.717557251908397,-1.8015267175572518,-0.46630859375,0.015625,-0.057861328125,1.6064999999999998
-1.0076335877862594,2.8091603053435112,-1.786259541984733,-0.461669921875,0.019287109375,-0.06201171875,1.6081999999999999
-0.8702290076335878,2.7938931297709924,-1.6030534351145038,-0.4619140625,0.009521484375,-0.063720703125,1.6098999999999999
-0.9312977099236641,2.6412213740458017,-1.6488549618320612,-0.46728515625,0.009521484375,-0.061767578125,1.6116
-1.1450381679389312,2.6106870229007635,-1.4198473282442747,-0.466552734375,0.01416015625,-0.068603515625,1.6133
-1.0229007633587786,2.595419847328244,-1.5114503816793894,-0.45947265625,0.016357421875,-0.072265625,1.615
-1.0076335877862594,2.7938931297709924,-1.1755725190839694,-0.4619140625,0.014892578125,-0.065185546875,1.6166999999999998
-0.8702290076335878,2.549618320610687,-1.083969465648855,-0.4580078125,0.0126953125,-0.0654296875,1.6183999999999998
-0.9312977099236641,2.564885496183206,-1.0076335877862594,-0.46630859375,0.017822265625,-0.069580078125,1.6200999999999999
-0.9770992366412213,2.2900763358778624,-1.083969465648855,-0.466552734375,0.01806640625,-0.0693359375,1.6218
-1.0229007633587786,2.2595419847328246,-1.2061068702290076,-0.462890625,0.01318359375,-0.06884765625,1.6235
-1.0229007633587786,2.2748091603053435,-1.0687022900763359,-0.465087890625,0.021728515625,-0.057861328125,1.6252
-1.0687022900763359,2.16793893129771,-1.083969465648855,-0.465576171875,0.019775390625,-0.068115234375,1.6269
-1.1145038167938932,2.2900763358778624,-0.9465648854961832,-0.466064453125,0.017333984375,-0.066650390625,1.6285999999999998
-0.8702290076335878,2.351145038167939,-0.9923664122137404,-0.466064453125,0.0166015625,-0.061767578125,1.6302999999999999
-1.0534351145038168,2.4122137404580153,-1.0381679389312977,-0.467041015625,0.01318359375,-0.066162109375,1.632
-0.9465648854961832,2.2595419847328246,-0.9312977099236641,-0.4619140625,0.017578125,-0.0654296875,1.6337
-0.8091603053435115,2.1526717557251906,-0.9923664122137404,-0.464111328125,0.01953125,-0.06591796875,1.6354
-0.6106870229007634,2.198473282442748,-0.9618320610687023,-0.468017578125,0.021484375,-0.065185546875,1.6371
-0.8244274809160306,2.519083969465649,-0.7480916030534351,-0.46728515625,0.0185546875,-0.067626953125,1.6387999999999998
-0.8549618320610687,2.4580152671755724,-0.9465648854961832,-0.46484375,0.018798828125,-0.0615234375,1.6404999999999998
-0.8396946564885496,2.16793893129771,-0.9312977099236641,-0.461669921875,0.01513671875,-0.062744140625,1.6421999999999999
-0.8091603053435115,2.3206106870229006,-0.8549618320610687,-0.46923828125,0.018310546875,-0.0595703125,1.6439
-0.5648854961832062,2.381679389312977,-0.916030534351145,-0.4609375,0.025146484375,-0.06884765625,1.6456
-0.549618320610687,2.33587786259542,-0.8091603053435115,-0.462890625,0.01611328125,-0.06494140625,1.6473
-0.4122137404580153,2.2900763358778624,-0.8244274809160306,-0.4658203125,0.017822265625,-0.06494140625,1.6489999999999998
-0.5648854961832062,2.351145038167939,-0.7022900763358778,-0.463134765625,0.020751953125,-0.0712890625,1.6506999999999998
-0.6412213740458015,2.381679389312977,-0.9770992366412213,-0.46142578125,0.022705078125,-0.067626953125,1.6523999999999999
-0.5343511450381679,2.2748091603053435,-0.732824427480916,-0.456787109375,0.020263671875,-0.067138671875,1.6541
-0.21374045801526717,2.3969465648854964,-0.8396946564885496,-0.4638671875,0.01953125,-0.064208984375,1.6558
-0.32061068702290074,2.50381679389313,-0.5954198473282443,-0.4658203125,0.021240234375,-0.073974609375,1.6575
-0.3053435114503817,2.351145038167939,-0.5343511450381679,-0.467529296875,0.019287109375,-0.066650390625,1.6592
-0.4122137404580153,2.366412213740458,-0.7175572519083969,-0.46435546875,0.022705078125,-0.072021484375,1.6608999999999998
-0.1984732824427481,2.4122137404580153,-0.7633587786259542,-0.462158203125,0.01904296875,-0.069580078125,1.6625999999999999
-0.16793893129770993,2.2290076335877864,-0.5954198473282443,-0.464599609375,0.025634765625,-0.06005859375,1.6643
0.030534351145038167,2.2290076335877864,-0.7022900763358778,-0.46435546875,0.02099609375,-0.061279296875,1.666
0.015267175572519083,2.2748091603053435,-0.5343511450381679,-0.459716796875,0.018310546875,-0.0693359375,1.6677
-0.04580152671755725,2.198473282442748,-0.7175572519083969,-0.463623046875,0.015625,-0.067626953125,1.6694
-0.030534351145038167,1.9236641221374047,-0.7022900763358778,-0.465576171875,0.02001953125,-0.06640625,1.6710999999999998
0.061068702290076333,1.984732824427481,-0.7175572519083969,-0.464111328125,0.02001953125,-0.074462890625,1.6727999999999998
0.15267175572519084,2.1526717557251906,-0.6412213740458015,-0.46630859375,0.020751953125,-0.066650390625,1.6744999999999999
0.10687022900763359,2.0610687022900764,-0.7480916030534351,-0.464599609375,0.014892578125,-0.065673828125,1.6762
0.1984732824427481,1.9541984732824427,-0.7022900763358778,-0.469970703125,0.02099609375,-0.069091796875,1.6779
0.32061068702290074,2.16793893129771,-1.0534351145038168,-0.457763671875,0.022705078125,-0.06494140625,1.6796
0.366412213740458,1.984732824427481,-0.7786259541984732,-0.462646484375,0.020263671875,-0.072021484375,1.6813
0.183206106870229,2.2595419847328246,-0.7633587786259542,-0.462646484375,0.01953125,-0.07080078125,1.6829999999999998
0.0916030534351145,2.3053435114503817,-0.6717557251908397,-0.462890625,0.023681640625,-0.064697265625,1.6846999999999999
0.4122137404580153,2.2442748091603053,-1.0076335877862594,-0.46435546875,0.019775390625,-0.074951171875,1.6864
0.2900763358778626,2.33587786259542,-0.732824427480916,-0.466796875,0.01708984375,-0.07177734375,1.6881
0.4580152671755725,2.549618320610687,-0.7938931297709924,-0.469482421875,0.019775390625,-0.071533203125,1.6898
0.6412213740458015,2.3969465648854964,-0.7938931297709924,-0.46728515625,0.0263671875,-0.0732421875,1.6915
0.3816793893129771,2.4122137404580153,-0.9007633587786259,-0.46533203125,0.0234375,-0.07666015625,1.6931999999999998
0.4122137404580153,2.3969465648854964,-0.9923664122137404,-0.463134765625,0.018798828125,-0.07373046875,1.6948999999999999
0.6412213740458015,2.3969465648854964,-1.0687022900763359,-0.467041015625,0.023681640625,-0.067138671875,1.6965999999999999
0.6564885496183206,2.4427480916030535,-0.9618320610687023,-0.4580078125,0.01708984375,-0.0634765625,1.6983
0.6106870229007634,2.0763358778625953,-1.1297709923664123,-0.463134765625,0.02099609375,-0.056884765625,1.7
0.732824427480916,2.2595419847328246,-1.282442748091603,-0.465576171875,0.02392578125,-0.06591796875,1.7017
0.8854961832061069,2.198473282442748,-1.3740458015267176,-0.464111328125,0.025390625,-0.05810546875,1.7033999999999998
0.7938931297709924,2.2290076335877864,-1.3282442748091603,-0.46533203125,0.026611328125,-0.06005859375,1.7050999999999998
0.9618320610687023,2.427480916030534,-1.4961832061068703,-0.467529296875,0.02197265625,-0.069091796875,1.7067999999999999
0.8702290076335878,2.3053435114503817,-1.1297709923664123,-0.468017578125,0.02490234375,-0.0703125,1.7085
0.9465648854961832,2.519083969465649,-1.4809160305343512,-0.467041015625,0.022705078125,-0.06982421875,1.7102
1.2061068702290076,2.6412213740458017,-1.251908396946565,-0.4716796875,0.02734375,-0.06494140625,1.7119
1.1908396946564885,2.8091603053435112,-1.5572519083969465,-0.469482421875,0.0166015625,-0.072998046875,1.7136
1.2061068702290076,2.9618320610687023,-1.5877862595419847,-0.468505859375,0.02880859375,-0.06787109375,1.7152999999999998
1.4198473282442747,3.114503816793893,-1.465648854961832,-0.4677734375,0.02197265625,-0.06640625,1.7169999999999999
1.2366412213740459,3.2977099236641223,-1.5114503816793894,-0.467041015625,0.02490234375,-0.074462890625,1.7187
1.4961832061068703,3.633587786259542,-1.6793893129770991,-0.463134765625,0.020751953125,-0.07177734375,1.7204
1.4351145038167938,3.7709923664122136,-1.6488549618320612,-0.46435546875,0.02197265625,-0.0732421875,1.7221
1.6793893129770991,3.618320610687023,-1.7099236641221374,-0.459716796875,0.022216796875,-0.078125,1.7238
1.7709923664122138,3.6030534351145036,-1.7099236641221374,-0.4609375,0.0244140625,-0.07275390625,1.7254999999999998
1.4351145038167938,3.7099236641221376,-1.7709923664122138,-0.460205078125,0.021240234375,-0.070556640625,1.7271999999999998
1.5572519083969465,3.5267175572519083,-1.6793893129770991,-0.4658203125,0.01904296875,-0.07080078125,1.7288999999999999
1.6946564885496183,3.404580152671756,-2.045801526717557,-0.46484375,0.02197265625,-0.071044921875,1.7306
1.9389312977099236,3.3587786259541983,-1.7404580152671756,-0.463134765625,0.018798828125,-0.068603515625,1.7323
2.0916030534351147,3.236641221374046,-1.816793893129771,-0.460693359375,0.021484375,-0.076171875,1.734
1.984732824427481,3.4198473282442747,-1.8625954198473282,-0.45947265625,0.023193359375,-0.07568359375,1.7356999999999998
1.83206106870229,3.267175572519084,-1.8015267175572518,-0.461669921875,0.02392578125,-0.077392578125,1.7373999999999998
2.030534351145038,3.1755725190839694,-1.83206106870229,-0.4619140625,0.019775390625,-0.067138671875,1.7390999999999999
1.9389312977099236,3.1603053435114505,-1.9083969465648856,-0.46044921875,0.0205078125,-0.068603515625,1.7408
2.1374045801526718,3.282442748091603,-1.7709923664122138,-0.462890625,0.02587890625,-0.072998046875,1.7425
2.16793893129771,3.068702290076336,-1.9389312977099236,-0.464599609375,0.021240234375,-0.08203125,1.7442
2.183206106870229,2.900763358778626,-1.6946564885496183,-0.46630859375,0.021484375,-0.073486328125,1.7459
2.351145038167939,2.717557251908397,-1.8931297709923665,-0.465576171875,0.021240234375,-0.062744140625,1.7475999999999998
2.3206106870229006,2.5801526717557253,-1.8625954198473282,-0.467529296875,0.0205078125,-0.0712890625,1.7492999999999999
2.3053435114503817,2.4732824427480917,-1.9083969465648856,-0.47412109375,0.01806640625,-0.06396484375,1.751
2.6106870229007635,2.4427480916030535,-1.8625954198473282,-0.469482421875,0.020751953125,-0.06884765625,1.7527
2.5801526717557253,2.4580152671755724,-1.9083969465648856,-0.466796875,0.021728515625,-0.07861328125,1.7544
2.687022900763359,3.053435114503817,-2.015267175572519,-0.467041015625,0.01953125,-0.073974609375,1.7561
2.7480916030534353,3.66412213740458,-2.366412213740458,-0.46484375,0.019287109375,-0.07177734375,1.7577999999999998
2.6717557251908395,4.229007633587786,-2.198473282442748,-0.467529296875,0.0185546875,-0.078857421875,1.7594999999999998
2.946564885496183,4.67175572519084,-2.351145038167939,-0.465576171875,0.020263671875,-0.0673828125,1.7611999999999999
3.068702290076336,5.145038167938932,-2.198473282442748,-0.464111328125,0.0263671875,-0.071533203125,1.7629
2.9160305343511452,5.267175572519084,-2.2748091603053435,-0.46533203125,0.019287109375,-0.07275390625,1.7646
3.0381679389312977,5.206106870229007,-2.16793893129771,-0.46337890625,0.0166015625,-0.072998046875,1.7663
2.900763358778626,5.129770992366412,-2.198473282442748,-0.45703125,0.014892578125,-0.07666015625,1.7679999999999998
2.8396946564885495,4.824427480916031,-1.8931297709923665,-0.454833984375,0.021240234375,-0.068603515625,1.7696999999999998
2.9770992366412212,4.244274809160306,-2.0610687022900764,-0.45263671875,0.021728515625,-0.072998046875,1.7713999999999999
3.099236641221374,3.954198473282443,-2.0,-0.4541015625,0.018798828125,-0.07666015625,1.7731
2.9618320610687023,3.5419847328244276,-1.9236641221374047,-0.44873046875,0.013671875,-0.0693359375,1.7748
3.1755725190839694,3.2977099236641223,-1.83206106870229,-0.45361328125,0.015625,-0.072265625,1.7765
2.931297709923664,3.099236641221374,-1.786259541984733,-0.45849609375,0.017822265625,-0.072265625,1.7782
2.946564885496183,3.068702290076336,-1.786259541984733,-0.45361328125,0.01171875,-0.073974609375,1.7798999999999998
2.8396946564885495,2.8702290076335877,-1.8015267175572518,-0.457275390625,0.01611328125,-0.0654296875,1.7815999999999999
2.8396946564885495,2.8702290076335877,-1.6488549618320612,-0.4599609375,0.0146484375,-0.06884765625,1.7832999999999999
2.900763358778626,2.7786259541984735,-1.7709923664122138,-0.456787109375,0.013916015625,-0.07470703125,1.785
2.9770992366412212,2.5801526717557253,-1.8015267175572518,-0.463623046875,0.013916015625,-0.07275390625,1.7867
2.717557251908397,2.564885496183206,-1.8473282442748091,-0.465576171875,0.01611328125,-0.070068359375,1.7884
2.931297709923664,2.4580152671755724,-1.618320610687023,-0.460693359375,0.014892578125,-0.075927734375,1.7900999999999998
2.6259541984732824,2.6412213740458017,-1.633587786259542,-0.46533203125,0.016845703125,-0.067626953125,1.7917999999999998
2.763358778625954,2.4122137404580153,-1.5572519083969465,-0.4619140625,0.01904296875,-0.072265625,1.7934999999999999
2.717557251908397,2.3969465648854964,-1.786259541984733,-0.465087890625,0.01611328125,-0.076416015625,1.7952
2.6717557251908395,2.4732824427480917,-1.6946564885496183,-0.462646484375,0.0166015625,-0.077880859375,1.7969
2.885496183206107,2.549618320610687,-1.6488549618320612,-0.46484375,0.01513671875,-0.070068359375,1.7986
2.7786259541984735,2.4732824427480917,-1.7251908396946565,-0.464599609375,0.01611328125,-0.0732421875,1.8002999999999998
2.732824427480916,2.366412213740458,-1.8931297709923665,-0.469482421875,0.01220703125,-0.060791015625,1.8019999999999998
2.732824427480916,2.122137404580153,-1.786259541984733,-0.4658203125,0.015380859375,-0.078369140625,1.8036999999999999
