gyrox1,gyroy1,gyroz1,accelx1,accely1,accelz1,Time
1.3282442748091603,0.6259541984732825,-1.3282442748091603,-0.45654296875,-0.057373046875,-0.1708984375,0.0
1.7709923664122138,0.7633587786259542,-1.6488549618320612,-0.459716796875,-0.064453125,-0.176025390625,0.0017
1.786259541984733,0.9770992366412213,-1.633587786259542,-0.45849609375,-0.056396484375,-0.175048828125,0.0034
1.8473282442748091,1.1450381679389312,-1.5877862595419847,-0.459716796875,-0.061767578125,-0.179931640625,0.0050999999999999995
2.1526717557251906,1.297709923664122,-1.6030534351145038,-0.46240234375,-0.0595703125,-0.17919921875,0.0068
2.16793893129771,1.297709923664122,-1.6488549618320612,-0.45849609375,-0.063232421875,-0.180419921875,0.008499999999999999
2.4427480916030535,1.4198473282442747,-1.4809160305343512,-0.45361328125,-0.06298828125,-0.176513671875,0.010199999999999999
2.4122137404580153,1.8015267175572518,-1.6641221374045803,-0.455810546875,-0.061279296875,-0.1796875,0.011899999999999999
2.3053435114503817,1.786259541984733,-1.83206106870229,-0.456298828125,-0.0615234375,-0.17529296875,0.0136
2.1374045801526718,1.816793893129771,-1.816793893129771,-0.45703125,-0.059814453125,-0.184326171875,0.0153
1.984732824427481,1.816793893129771,-1.7709923664122138,-0.454345703125,-0.06298828125,-0.179931640625,0.016999999999999998
1.9236641221374047,1.618320610687023,-1.83206106870229,-0.453857421875,-0.060546875,-0.184326171875,0.018699999999999998
1.7557251908396947,1.5725190839694656,-1.7404580152671756,-0.4560546875,-0.059814453125,-0.17236328125,0.020399999999999998
1.4351145038167938,1.6946564885496183,-1.8473282442748091,-0.45361328125,-0.065185546875,-0.17822265625,0.022099999999999998
0.9465648854961832,1.5419847328244274,-1.8931297709923665,-0.456298828125,-0.059814453125,-0.17724609375,0.023799999999999998
0.6259541984732825,1.450381679389313,-2.0610687022900764,-0.45751953125,-0.05908203125,-0.166259765625,0.0255
0.5190839694656488,1.633587786259542,-1.8625954198473282,-0.45263671875,-0.060791015625,-0.182861328125,0.0272
0.3053435114503817,1.2671755725190839,-1.9541984732824427,-0.454833984375,-0.060791015625,-0.181884765625,0.0289
-0.2595419847328244,1.083969465648855,-2.1526717557251906,-0.455322265625,-0.063232421875,-0.1787109375,0.0306
-0.3816793893129771,1.0687022900763359,-2.4580152671755724,-0.450927734375,-0.065185546875,-0.18359375,0.032299999999999995
-0.3053435114503817,0.9923664122137404,-2.4885496183206106,-0.45361328125,-0.06298828125,-0.178955078125,0.033999999999999996
-0.6564885496183206,0.9007633587786259,-2.6259541984732824,-0.44970703125,-0.061279296875,-0.176513671875,0.035699999999999996
-0.7786259541984732,0.8091603053435115,-2.732824427480916,-0.45654296875,-0.064453125,-0.188720703125,0.037399999999999996
-0.9312977099236641,0.7175572519083969,-2.8396946564885495,-0.449951171875,-0.069580078125,-0.1787109375,0.039099999999999996
-1.4045801526717556,0.7022900763358778,-2.9770992366412212,-0.447265625,-0.069580078125,-0.1787109375,0.040799999999999996
-1.465648854961832,0.5038167938931297,-3.1908396946564888,-0.4501953125,-0.064208984375,-0.183349609375,0.042499999999999996
-1.4961832061068703,0.3816793893129771,-3.3435114503816794,-0.4462890625,-0.065673828125,-0.1806640625,0.044199999999999996
-1.7099236641221374,0.33587786259541985,-3.5114503816793894,-0.447998046875,-0.0634765625,-0.179443359375,0.045899999999999996
-1.633587786259542,0.32061068702290074,-3.7251908396946565,-0.45068359375,-0.063720703125,-0.17236328125,0.047599999999999996
-1.7404580152671756,0.1984732824427481,-3.8473282442748094,-0.4482421875,-0.059326171875,-0.179931640625,0.0493
-1.83206106870229,0.04580152671755725,-4.0,-0.447021484375,-0.0625,-0.176025390625,0.051
-1.633587786259542,-0.2748091603053435,-4.152671755725191,-0.4501953125,-0.0634765625,-0.168701171875,0.0527
-1.6946564885496183,-0.24427480916030533,-4.396946564885496,-0.449462890625,-0.059326171875,-0.177490234375,0.0544
-1.4198473282442747,-0.12213740458015267,-4.458015267175573,-0.452392578125,-0.05712890625,-0.173095703125,0.0561
-1.3740458015267176,-0.24427480916030533,-4.473282442748092,-0.451416015625,-0.05615234375,-0.17236328125,0.0578
-1.2366412213740459,-0.3969465648854962,-4.534351145038168,-0.4560546875,-0.055908203125,-0.17626953125,0.0595
-0.9618320610687023,-0.7633587786259542,-4.687022900763359,-0.454833984375,-0.055419921875,-0.175048828125,0.0612
-1.1450381679389312,-0.8396946564885496,-4.961832061068702,-0.452880859375,-0.052978515625,-0.17724609375,0.0629
-1.1908396946564885,-0.7022900763358778,-4.656488549618321,-0.45361328125,-0.047607421875,-0.168212890625,0.06459999999999999
-1.0076335877862594,-0.8244274809160306,-4.885496183206107,-0.462646484375,-0.046875,-0.170654296875,0.0663
-0.8702290076335878,-0.9465648854961832,-4.824427480916031,-0.452880859375,-0.05126953125,-0.166015625,0.06799999999999999
-0.6717557251908397,-1.251908396946565,-4.717557251908397,-0.453125,-0.046630859375,-0.171142578125,0.0697
-0.7175572519083969,-1.2213740458015268,-4.656488549618321,-0.462158203125,-0.05078125,-0.16943359375,0.07139999999999999
-0.4122137404580153,-1.1145038167938932,-4.442748091603053,-0.457763671875,-0.044921875,-0.173583984375,0.0731
-0.3053435114503817,-1.099236641221374,-4.3816793893129775,-0.45947265625,-0.0458984375,-0.170166015625,0.07479999999999999
-0.3053435114503817,-1.0076335877862594,-4.015267175572519,-0.4560546875,-0.04052734375,-0.1787109375,0.0765
0.22900763358778625,-0.8702290076335878,-3.954198473282443,-0.462158203125,-0.0439453125,-0.168212890625,0.07819999999999999
0.4580152671755725,-0.7022900763358778,-3.786259541984733,-0.461181640625,-0.041748046875,-0.169189453125,0.0799
0.732824427480916,-0.7480916030534351,-3.8473282442748094,-0.462890625,-0.043212890625,-0.171875,0.08159999999999999
1.2366412213740459,-0.32061068702290074,-3.6030534351145036,-0.466796875,-0.04833984375,-0.179931640625,0.0833
1.618320610687023,0.030534351145038167,-3.66412213740458,-0.465576171875,-0.051025390625,-0.1640625,0.08499999999999999
2.1374045801526718,0.183206106870229,-3.480916030534351,-0.46728515625,-0.0439453125,-0.170654296875,0.0867
2.427480916030534,0.5801526717557252,-3.480916030534351,-0.46533203125,-0.0439453125,-0.169921875,0.08839999999999999
2.7938931297709924,0.8854961832061069,-3.312977099236641,-0.467041015625,-0.045654296875,-0.178955078125,0.0901
3.267175572519084,1.3282442748091603,-3.3740458015267176,-0.465087890625,-0.04296875,-0.177001953125,0.09179999999999999
3.6946564885496183,1.7404580152671756,-3.236641221374046,-0.465087890625,-0.044677734375,-0.1748046875,0.0935
4.137404580152672,2.045801526717557,-3.236641221374046,-0.4658203125,-0.042236328125,-0.16748046875,0.09519999999999999
4.595419847328245,2.1526717557251906,-3.099236641221374,-0.46728515625,-0.046142578125,-0.160400390625,0.0969
4.793893129770993,2.3206106870229006,-3.236641221374046,-0.464111328125,-0.0517578125,-0.16845703125,0.0986
5.190839694656488,2.595419847328244,-2.931297709923664,-0.4677734375,-0.046630859375,-0.166748046875,0.1003
5.480916030534351,2.8091603053435112,-2.9160305343511452,-0.469482421875,-0.04931640625,-0.17041015625,0.102
5.511450381679389,2.763358778625954,-2.8396946564885495,-0.46484375,-0.048828125,-0.17529296875,0.1037
5.908396946564886,3.114503816793893,-3.099236641221374,-0.463623046875,-0.0537109375,-0.171630859375,0.1054
6.213740458015267,3.0381679389312977,-3.068702290076336,-0.46875,-0.05419921875,-0.172119140625,0.1071
6.259541984732825,2.885496183206107,-2.9770992366412212,-0.4658203125,-0.056396484375,-0.1669921875,0.1088
6.152671755725191,2.9160305343511452,-2.900763358778626,-0.46435546875,-0.057373046875,-0.171630859375,0.11049999999999999
6.534351145038168,2.732824427480916,-2.900763358778626,-0.463623046875,-0.058837890625,-0.166259765625,0.1122
6.442748091603053,2.6412213740458017,-2.732824427480916,-0.4658203125,-0.06005859375,-0.171630859375,0.11389999999999999
6.458015267175573,2.595419847328244,-2.946564885496183,-0.463623046875,-0.05908203125,-0.1640625,0.1156
6.427480916030534,2.3969465648854964,-2.7938931297709924,-0.46826171875,-0.063232421875,-0.170166015625,0.11729999999999999
6.3816793893129775,2.0916030534351147,-2.9770992366412212,-0.46728515625,-0.05908203125,-0.17626953125,0.119
6.427480916030534,1.816793893129771,-2.7786259541984735,-0.46240234375,-0.06201171875,-0.177490234375,0.12069999999999999
6.3816793893129775,1.618320610687023,-3.114503816793893,-0.4638671875,-0.05810546875,-0.176025390625,0.1224
6.198473282442748,1.465648854961832,-2.9618320610687023,-0.460205078125,-0.063232421875,-0.17236328125,0.12409999999999999
6.122137404580153,1.5114503816793894,-3.2213740458015265,-0.463623046875,-0.0654296875,-0.16552734375,0.1258
5.8320610687022905,1.3129770992366412,-3.0076335877862594,-0.464111328125,-0.06494140625,-0.177490234375,0.1275
5.908396946564886,1.0687022900763359,-3.1297709923664123,-0.460693359375,-0.06494140625,-0.1708984375,0.12919999999999998
5.862595419847328,0.9465648854961832,-3.053435114503817,-0.4658203125,-0.0634765625,-0.173095703125,0.1309
5.7251908396946565,0.9312977099236641,-2.9923664122137406,-0.4658203125,-0.064453125,-0.172119140625,0.1326
5.480916030534351,0.7480916030534351,-3.053435114503817,-0.468017578125,-0.065673828125,-0.16748046875,0.1343
5.450381679389313,0.8091603053435115,-3.068702290076336,-0.46484375,-0.069580078125,-0.172119140625,0.13599999999999998
5.129770992366412,0.6106870229007634,-3.0229007633587788,-0.462890625,-0.064697265625,-0.179931640625,0.1377
4.977099236641221,0.6564885496183206,-3.0229007633587788,-0.466064453125,-0.06591796875,-0.181640625,0.1394
4.67175572519084,0.9465648854961832,-3.0229007633587788,-0.46484375,-0.063232421875,-0.177490234375,0.1411
4.549618320610687,1.0076335877862594,-3.0381679389312977,-0.465087890625,-0.06103515625,-0.17724609375,0.14279999999999998
4.259541984732825,0.9007633587786259,-2.9770992366412212,-0.4638671875,-0.06494140625,-0.18896484375,0.1445
3.984732824427481,1.1755725190839694,-3.1755725190839694,-0.46875,-0.061279296875,-0.1845703125,0.1462
3.8931297709923665,1.3129770992366412,-2.9770992366412212,-0.465087890625,-0.060791015625,-0.18212890625,0.1479
3.5877862595419847,1.5572519083969465,-3.1297709923664123,-0.471435546875,-0.064208984375,-0.180419921875,0.14959999999999998
3.49618320610687,1.5725190839694656,-2.9770992366412212,-0.467041015625,-0.064697265625,-0.173095703125,0.1513
3.450381679389313,1.7099236641221374,-3.099236641221374,-0.46728515625,-0.06103515625,-0.1748046875,0.153
3.0839694656488548,2.122137404580153,-3.0839694656488548,-0.460693359375,-0.06298828125,-0.188232421875,0.1547
3.1297709923664123,2.122137404580153,-2.9923664122137406,-0.463134765625,-0.065185546875,-0.177001953125,0.15639999999999998
2.946564885496183,2.366412213740458,-2.9770992366412212,-0.46337890625,-0.066650390625,-0.18212890625,0.1581
2.7938931297709924,2.6259541984732824,-3.0076335877862594,-0.46630859375,-0.063720703125,-0.172119140625,0.1598
2.717557251908397,2.7022900763358777,-3.145038167938931,-0.462646484375,-0.061279296875,-0.17626953125,0.1615
2.50381679389313,2.854961832061069,-3.1297709923664123,-0.463623046875,-0.06298828125,-0.178955078125,0.16319999999999998
2.7022900763358777,2.931297709923664,-2.9923664122137406,-0.46533203125,-0.065673828125,-0.173828125,0.1649
2.6412213740458017,3.068702290076336,-3.145038167938931,-0.464599609375,-0.0595703125,-0.176025390625,0.1666
2.351145038167939,3.0076335877862594,-2.8244274809160306,-0.4638671875,-0.0625,-0.18017578125,0.16829999999999998
2.366412213740458,3.0076335877862594,-3.1297709923664123,-0.4638671875,-0.06201171875,-0.179443359375,0.16999999999999998
2.5343511450381677,3.236641221374046,-2.8702290076335877,-0.46435546875,-0.057861328125,-0.168701171875,0.1717
2.5343511450381677,3.1297709923664123,-3.0076335877862594,-0.454833984375,-0.0595703125,-0.177734375,0.1734
2.4580152671755724,3.0839694656488548,-2.6106870229007635,-0.45849609375,-0.064697265625,-0.169921875,0.17509999999999998
2.6412213740458017,2.931297709923664,-2.7022900763358777,-0.456787109375,-0.0634765625,-0.166259765625,0.17679999999999998
2.7022900763358777,2.885496183206107,-2.549618320610687,-0.458740234375,-0.056884765625,-0.17041015625,0.1785
2.732824427480916,2.885496183206107,-2.6106870229007635,-0.460693359375,-0.0634765625,-0.174560546875,0.1802
2.687022900763359,2.9770992366412212,-2.4732824427480917,-0.461669921875,-0.061767578125,-0.171142578125,0.18189999999999998
2.8244274809160306,2.732824427480916,-2.4122137404580153,-0.46337890625,-0.060302734375,-0.165283203125,0.18359999999999999
3.1297709923664123,2.4580152671755724,-2.3969465648854964,-0.46240234375,-0.05712890625,-0.165771484375,0.1853
3.1297709923664123,2.519083969465649,-2.2748091603053435,-0.458984375,-0.05810546875,-0.17236328125,0.187
3.145038167938931,2.2748091603053435,-2.1526717557251906,-0.455322265625,-0.060791015625,-0.1669921875,0.18869999999999998
3.2061068702290076,2.2442748091603053,-1.9694656488549618,-0.463623046875,-0.0634765625,-0.16650390625,0.19039999999999999
3.1755725190839694,2.0763358778625953,-2.015267175572519,-0.45947265625,-0.064453125,-0.175048828125,0.1921
3.5267175572519083,2.2595419847328246,-1.9541984732824427,-0.45458984375,-0.062744140625,-0.16748046875,0.1938
3.7099236641221376,2.198473282442748,-1.9083969465648856,-0.458740234375,-0.06591796875,-0.171875,0.19549999999999998
3.9389312977099236,2.122137404580153,-1.9694656488549618,-0.462158203125,-0.063720703125,-0.16845703125,0.1972
4.030534351145038,2.1374045801526718,-1.5267175572519085,-0.455810546875,-0.0625,-0.164794921875,0.1989
4.183206106870229,2.3053435114503817,-1.465648854961832,-0.458740234375,-0.06201171875,-0.168701171875,0.2006
4.396946564885496,2.183206106870229,-1.4198473282442747,-0.465087890625,-0.0615234375,-0.1689453125,0.20229999999999998
4.656488549618321,2.2290076335877864,-1.3435114503816794,-0.46044921875,-0.064697265625,-0.169189453125,0.204
4.656488549618321,2.5801526717557253,-1.2213740458015268,-0.4580078125,-0.06298828125,-0.17236328125,0.2057
4.625954198473282,2.687022900763359,-1.1603053435114503,-0.456298828125,-0.063720703125,-0.1728515625,0.2074
4.9465648854961835,2.7022900763358777,-1.083969465648855,-0.4580078125,-0.067138671875,-0.167724609375,0.20909999999999998
5.0534351145038165,2.7938931297709924,-0.9007633587786259,-0.45849609375,-0.064697265625,-0.175537109375,0.2108
4.854961832061068,2.931297709923664,-0.6717557251908397,-0.456298828125,-0.058349609375,-0.170166015625,0.2125
4.9465648854961835,2.9770992366412212,-0.549618320610687,-0.4580078125,-0.064697265625,-0.164794921875,0.2142
4.870229007633588,2.946564885496183,-0.7175572519083969,-0.46435546875,-0.063232421875,-0.168212890625,0.21589999999999998
5.022900763358779,3.2061068702290076,-0.3053435114503817,-0.46435546875,-0.065673828125,-0.1748046875,0.2176
4.824427480916031,3.2061068702290076,-0.21374045801526717,-0.46484375,-0.067138671875,-0.17333984375,0.2193
5.038167938931298,3.404580152671756,-0.015267175572519083,-0.465576171875,-0.07080078125,-0.167236328125,0.22099999999999997
4.778625954198473,3.5114503816793894,-0.183206106870229,-0.458740234375,-0.06689453125,-0.18603515625,0.22269999999999998
4.656488549618321,3.5572519083969465,-0.42748091603053434,-0.457275390625,-0.069580078125,-0.177734375,0.2244
4.427480916030534,3.5419847328244276,-0.12213740458015267,-0.453857421875,-0.072265625,-0.177734375,0.2261
4.320610687022901,3.83206106870229,-0.13740458015267176,-0.455078125,-0.068115234375,-0.166748046875,0.22779999999999997
4.137404580152672,3.7251908396946565,0.015267175572519083,-0.457763671875,-0.07080078125,-0.18115234375,0.22949999999999998
4.122137404580153,3.9083969465648853,-0.3511450381679389,-0.4560546875,-0.069580078125,-0.185546875,0.2312
3.5114503816793894,3.801526717557252,-0.366412213740458,-0.456787109375,-0.07763671875,-0.17919921875,0.2329
3.267175572519084,3.8625954198473282,-0.13740458015267176,-0.453369140625,-0.0751953125,-0.179443359375,0.23459999999999998
3.267175572519084,4.091603053435114,-0.2900763358778626,-0.453125,-0.082275390625,-0.180908203125,0.23629999999999998
2.9770992366412212,3.9389312977099236,-0.22900763358778625,-0.448486328125,-0.068359375,-0.168212890625,0.238
2.8702290076335877,3.480916030534351,-0.42748091603053434,-0.453125,-0.07470703125,-0.170166015625,0.2397
2.8244274809160306,3.236641221374046,-0.3969465648854962,-0.45166015625,-0.07666015625,-0.175537109375,0.24139999999999998
2.6564885496183206,3.2061068702290076,-0.4122137404580153,-0.454833984375,-0.07861328125,-0.167236328125,0.24309999999999998
2.2748091603053435,2.931297709923664,-0.5648854961832062,-0.452392578125,-0.07763671875,-0.1748046875,0.2448
1.9694656488549618,2.6259541984732824,-0.5190839694656488,-0.45458984375,-0.0771484375,-0.17041015625,0.2465
2.1068702290076335,2.2442748091603053,-0.4580152671755725,-0.456787109375,-0.080810546875,-0.165771484375,0.24819999999999998
1.9389312977099236,2.2290076335877864,-0.5801526717557252,-0.45458984375,-0.084716796875,-0.1728515625,0.24989999999999998
1.7099236641221374,2.0,-0.6412213740458015,-0.45263671875,-0.071533203125,-0.1728515625,0.2516
1.7557251908396947,1.6488549618320612,-0.5954198473282443,-0.45458984375,-0.078125,-0.17236328125,0.25329999999999997
1.4809160305343512,1.2671755725190839,-0.549618320610687,-0.453369140625,-0.0771484375,-0.172119140625,0.255
1.2213740458015268,1.083969465648855,-0.7175572519083969,-0.44873046875,-0.078369140625,-0.173095703125,0.2567
0.9312977099236641,0.8702290076335878,-0.7938931297709924,-0.4560546875,-0.078857421875,-0.170166015625,0.25839999999999996
0.8244274809160306,0.7633587786259542,-0.9465648854961832,-0.45361328125,-0.080322265625,-0.177734375,0.2601
0.8091603053435115,0.7022900763358778,-0.7022900763358778,-0.45263671875,-0.076904296875,-0.17236328125,0.2618
0.44274809160305345,0.22900763358778625,-0.8854961832061069,-0.459228515625,-0.077392578125,-0.171630859375,0.2635
0.4732824427480916,0.2595419847328244,-0.732824427480916,-0.462890625,-0.07421875,-0.175537109375,0.2652
0.15267175572519084,0.3053435114503817,-0.9007633587786259,-0.458740234375,-0.072021484375,-0.17333984375,0.26689999999999997
-0.16793893129770993,0.22900763358778625,-0.9618320610687023,-0.462890625,-0.08056640625,-0.174072265625,0.2686
0.030534351145038167,0.2595419847328244,-0.7938931297709924,-0.459716796875,-0.071533203125,-0.177734375,0.2703
-0.3511450381679389,0.24427480916030533,-0.9007633587786259,-0.459716796875,-0.075439453125,-0.17578125,0.27199999999999996
-0.2900763358778626,0.15267175572519084,-0.916030534351145,-0.457763671875,-0.073486328125,-0.175048828125,0.2737
-0.2900763358778626,0.4580152671755725,-0.6870229007633588,-0.45849609375,-0.07421875,-0.18212890625,0.2754
-0.7175572519083969,0.3969465648854962,-0.8702290076335878,-0.46435546875,-0.0693359375,-0.17724609375,0.27709999999999996
-0.549618320610687,0.4732824427480916,-0.7022900763358778,-0.46533203125,-0.072998046875,-0.166259765625,0.2788
-0.2595419847328244,0.7022900763358778,-0.9618320610687023,-0.459228515625,-0.0673828125,-0.176513671875,0.28049999999999997
-0.4580152671755725,0.8091603053435115,-0.7633587786259542,-0.460205078125,-0.071533203125,-0.181640625,0.2822
-0.6564885496183206,0.8396946564885496,-0.6412213740458015,-0.458984375,-0.0693359375,-0.174560546875,0.2839
-0.3816793893129771,1.0229007633587786,-0.6259541984732825,-0.46337890625,-0.069091796875,-0.174072265625,0.28559999999999997
-0.22900763358778625,1.1755725190839694,-0.6106870229007634,-0.46337890625,-0.0673828125,-0.167236328125,0.2873
-0.4122137404580153,1.3893129770992367,-0.5954198473282443,-0.462890625,-0.068115234375,-0.16357421875,0.289
-0.21374045801526717,1.6488549618320612,-0.7480916030534351,-0.46484375,-0.06298828125,-0.177001953125,0.29069999999999996
-0.16793893129770993,1.8015267175572518,-0.1984732824427481,-0.463623046875,-0.066650390625,-0.169189453125,0.2924
-0.04580152671755725,1.9389312977099236,-0.33587786259541985,-0.47021484375,-0.06689453125,-0.17626953125,0.2941
0.13740458015267176,2.0,-0.33587786259541985,-0.460693359375,-0.068359375,-0.183837890625,0.2958
0.24427480916030533,1.9236641221374047,-0.2748091603053435,-0.46240234375,-0.066162109375,-0.17236328125,0.2975
0.4580152671755725,2.0916030534351147,0.16793893129770993,-0.461181640625,-0.065185546875,-0.17236328125,0.29919999999999997
0.7938931297709924,2.2290076335877864,0.04580152671755725,-0.465087890625,-0.06689453125,-0.18310546875,0.3009
0.7786259541984732,2.198473282442748,0.21374045801526717,-0.460205078125,-0.063720703125,-0.16748046875,0.3026
1.083969465648855,2.2900763358778624,0.3511450381679389,-0.462646484375,-0.06640625,-0.166015625,0.30429999999999996
1.2671755725190839,2.4732824427480917,0.48854961832061067,-0.45703125,-0.062744140625,-0.171630859375,0.306
1.4198473282442747,2.549618320610687,0.5954198473282443,-0.458740234375,-0.06298828125,-0.170654296875,0.3077
1.7557251908396947,2.2290076335877864,0.8549618320610687,-0.459228515625,-0.065673828125,-0.1748046875,0.3094
2.0916030534351147,2.3053435114503817,0.6870229007633588,-0.46240234375,-0.059814453125,-0.177734375,0.3111
1.9389312977099236,2.2595419847328246,0.9618320610687023,-0.462646484375,-0.068603515625,-0.169677734375,0.31279999999999997
2.045801526717557,2.183206106870229,0.9618320610687023,-0.459716796875,-0.066650390625,-0.17236328125,0.3145
2.4732824427480917,2.3053435114503817,1.1908396946564885,-0.461181640625,-0.061279296875,-0.176513671875,0.3162
2.2748091603053435,2.5343511450381677,1.1603053435114503,-0.456298828125,-0.067626953125,-0.170166015625,0.31789999999999996
2.2900763358778624,2.3053435114503817,1.3893129770992367,-0.459228515625,-0.064208984375,-0.179443359375,0.3196
2.045801526717557,2.3206106870229006,1.3435114503816794,-0.456787109375,-0.0615234375,-0.178466796875,0.3213
2.213740458015267,2.4885496183206106,1.5267175572519085,-0.45361328125,-0.0654296875,-0.172607421875,0.323
2.2900763358778624,2.3053435114503817,1.5725190839694656,-0.46240234375,-0.070556640625,-0.182373046875,0.3247
2.183206106870229,2.351145038167939,1.8625954198473282,-0.460205078125,-0.065185546875,-0.1767578125,0.32639999999999997
1.9083969465648856,2.595419847328244,1.7557251908396947,-0.456787109375,-0.06494140625,-0.17626953125,0.3281
1.7709923664122138,2.6259541984732824,1.9236641221374047,-0.458740234375,-0.0703125,-0.18310546875,0.3298
1.816793893129771,2.687022900763359,1.6793893129770991,-0.46240234375,-0.07373046875,-0.1787109375,0.33149999999999996
1.5725190839694656,2.427480916030534,1.633587786259542,-0.454833984375,-0.076416015625,-0.18017578125,0.3332
1.465648854961832,2.885496183206107,1.6030534351145038,-0.45654296875,-0.07861328125,-0.181884765625,0.3349
1.3587786259541985,2.885496183206107,1.4961832061068703,-0.454345703125,-0.0771484375,-0.17578125,0.33659999999999995
1.2213740458015268,2.900763358778626,1.3587786259541985,-0.45068359375,-0.0771484375,-0.181396484375,0.3383
1.0687022900763359,2.687022900763359,1.2213740458015268,-0.459228515625,-0.073486328125,-0.18798828125,0.33999999999999997
0.8396946564885496,2.885496183206107,1.2213740458015268,-0.45458984375,-0.07958984375,-0.183349609375,0.3417
0.6259541984732825,3.099236641221374,1.1603053435114503,-0.4521484375,-0.075927734375,-0.18408203125,0.3434
0.183206106870229,2.687022900763359,0.8244274809160306,-0.451904296875,-0.076416015625,-0.176025390625,0.34509999999999996
-0.10687022900763359,2.4427480916030535,0.8702290076335878,-0.456298828125,-0.0771484375,-0.1787109375,0.3468
-0.5954198473282443,2.6106870229007635,0.5954198473282443,-0.458251953125,-0.080322265625,-0.183837890625,0.3485
-0.9770992366412213,2.4885496183206106,0.5801526717557252,-0.44775390625,-0.0810546875,-0.18115234375,0.35019999999999996
-1.465648854961832,2.381679389312977,0.2900763358778626,-0.453125,-0.08056640625,-0.18896484375,0.3519
-1.7709923664122138,2.2595419847328246,0.12213740458015267,-0.454833984375,-0.081298828125,-0.184326171875,0.35359999999999997
-2.0,2.198473282442748,-0.15267175572519084,-0.454833984375,-0.080810546875,-0.181396484375,0.3553
-2.16793893129771,2.1526717557251906,-0.030534351145038167,-0.451416015625,-0.0751953125,-0.18017578125,0.357
-2.2595419847328246,2.3206106870229006,-0.44274809160305345,-0.45166015625,-0.077880859375,-0.1826171875,0.35869999999999996
-2.3969465648854964,2.122137404580153,-0.6106870229007634,-0.44970703125,-0.083251953125,-0.181396484375,0.3604
-2.6106870229007635,2.1068702290076335,-0.916030534351145,-0.446533203125,-0.081787109375,-0.173095703125,0.3621
-2.8244274809160306,1.9083969465648856,-0.732824427480916,-0.447998046875,-0.0771484375,-0.1787109375,0.36379999999999996
-2.900763358778626,1.8473282442748091,-1.2671755725190839,-0.45263671875,-0.0693359375,-0.176025390625,0.3655
-3.1603053435114505,1.7099236641221374,-1.450381679389313,-0.44677734375,-0.076904296875,-0.181396484375,0.36719999999999997
-3.2061068702290076,1.5572519083969465,-1.5572519083969465,-0.4501953125,-0.077392578125,-0.173583984375,0.3689
-3.404580152671756,1.4198473282442747,-1.6641221374045803,-0.448486328125,-0.076904296875,-0.178955078125,0.3706
-3.312977099236641,1.4198473282442747,-1.984732824427481,-0.44873046875,-0.0751953125,-0.174072265625,0.37229999999999996
-3.1603053435114505,1.2671755725190839,-1.9083969465648856,-0.451416015625,-0.066162109375,-0.18310546875,0.374
-3.5419847328244276,0.7938931297709924,-2.0610687022900764,-0.4482421875,-0.068115234375,-0.17822265625,0.3757
-3.5267175572519083,0.9312977099236641,-2.1374045801526718,-0.44873046875,-0.06396484375,-0.179931640625,0.37739999999999996
-3.2519083969465647,0.9465648854961832,-2.2900763358778624,-0.450439453125,-0.06640625,-0.184326171875,0.3791
-3.3435114503816794,0.7175572519083969,-2.1374045801526718,-0.44873046875,-0.0673828125,-0.170654296875,0.38079999999999997
-3.0381679389312977,0.4122137404580153,-2.33587786259542,-0.447021484375,-0.07177734375,-0.17529296875,0.38249999999999995
-3.2061068702290076,0.4122137404580153,-2.33587786259542,-0.445556640625,-0.065673828125,-0.1787109375,0.3842
-3.267175572519084,0.3969465648854962,-2.4580152671755724,-0.455078125,-0.06201171875,-0.176025390625,0.38589999999999997
-3.0076335877862594,0.16793893129770993,-2.213740458015267,-0.449951171875,-0.062255859375,-0.177978515625,0.3876
-2.885496183206107,0.07633587786259542,-2.3053435114503817,-0.44873046875,-0.0654296875,-0.176513671875,0.3893
-2.8396946564885495,0.16793893129770993,-2.50381679389313,-0.45361328125,-0.061279296875,-0.174560546875,0.39099999999999996
-2.5801526717557253,0.015267175572519083,-2.183206106870229,-0.452392578125,-0.0595703125,-0.182861328125,0.3927
-2.2595419847328246,0.015267175572519083,-2.2900763358778624,-0.448486328125,-0.057861328125,-0.179931640625,0.3944
-1.9541984732824427,0.07633587786259542,-2.4580152671755724,-0.453125,-0.06005859375,-0.177001953125,0.39609999999999995
-1.6946564885496183,0.0,-2.1526717557251906,-0.45361328125,-0.05908203125,-0.17431640625,0.3978
-1.7404580152671756,0.07633587786259542,-2.2290076335877864,-0.455810546875,-0.05908203125,-0.17578125,0.39949999999999997
-1.450381679389313,0.21374045801526717,-2.198473282442748,-0.451416015625,-0.052490234375,-0.189208984375,0.4012
-1.1297709923664123,0.3511450381679389,-1.9389312977099236,-0.453857421875,-0.05322265625,-0.1826171875,0.4029
-1.2366412213740459,0.3969465648854962,-1.9083969465648856,-0.45703125,-0.052001953125,-0.182373046875,0.40459999999999996
-0.916030534351145,0.549618320610687,-1.7404580152671756,-0.454345703125,-0.051513671875,-0.18896484375,0.4063
-0.9923664122137404,0.6412213740458015,-1.8473282442748091,-0.455078125,-0.05517578125,-0.19189453125,0.408
-1.0229007633587786,0.8091603053435115,-1.816793893129771,-0.457763671875,-0.056884765625,-0.1923828125,0.40969999999999995
-0.9923664122137404,1.083969465648855,-1.618320610687023,-0.462158203125,-0.056884765625,-0.187255859375,0.4114
-0.9465648854961832,1.297709923664122,-1.5877862595419847,-0.4580078125,-0.052734375,-0.18603515625,0.41309999999999997
-1.2061068702290076,1.4351145038167938,-1.465648854961832,-0.45751953125,-0.05859375,-0.186767578125,0.4148
-1.1908396946564885,1.4045801526717556,-1.450381679389313,-0.454833984375,-0.05859375,-0.1806640625,0.4165
-1.2213740458015268,1.7557251908396947,-1.3740458015267176,-0.45654296875,-0.05810546875,-0.184326171875,0.41819999999999996
-1.450381679389313,1.8778625954198473,-1.3129770992366412,-0.45263671875,-0.060546875,-0.1865234375,0.4199
-1.4961832061068703,1.786259541984733,-1.4045801526717556,-0.452880859375,-0.056884765625,-0.1865234375,0.4216
-1.6946564885496183,2.015267175572519,-1.5114503816793894,-0.458984375,-0.056640625,-0.183837890625,0.42329999999999995
-1.5572519083969465,2.045801526717557,-1.633587786259542,-0.449951171875,-0.0634765625,-0.18310546875,0.425
-1.7557251908396947,2.2290076335877864,-1.7404580152671756,-0.449951171875,-0.068603515625,-0.18310546875,0.42669999999999997
-1.6641221374045803,2.3053435114503817,-1.7099236641221374,-0.45703125,-0.06005859375,-0.185302734375,0.4284
-1.8015267175572518,2.4427480916030535,-1.6488549618320612,-0.456298828125,-0.0654296875,-0.186279296875,0.4301
-2.045801526717557,2.50381679389313,-1.9083969465648856,-0.456298828125,-0.06787109375,-0.186767578125,0.43179999999999996
-1.9236641221374047,2.549618320610687,-1.9389312977099236,-0.450439453125,-0.062255859375,-0.18310546875,0.4335
-1.8625954198473282,2.3969465648854964,-2.1068702290076335,-0.448974609375,-0.0634765625,-0.176025390625,0.4352
-2.1374045801526718,2.50381679389313,-2.2900763358778624,-0.44873046875,-0.063232421875,-0.17822265625,0.43689999999999996
-1.9083969465648856,2.2748091603053435,-2.4122137404580153,-0.450927734375,-0.0615234375,-0.182861328125,0.4386
-2.030534351145038,2.0610687022900764,-2.3969465648854964,-0.448974609375,-0.063720703125,-0.182373046875,0.44029999999999997
-2.2442748091603053,2.1526717557251906,-2.6717557251908395,-0.449462890625,-0.066162109375,-0.184814453125,0.44199999999999995
-2.366412213740458,2.0916030534351147,-2.7938931297709924,-0.450927734375,-0.060791015625,-0.187255859375,0.4437
-2.16793893129771,1.7404580152671756,-3.114503816793893,-0.4501953125,-0.061767578125,-0.185791015625,0.44539999999999996
-2.6564885496183206,1.6030534351145038,-3.053435114503817,-0.442626953125,-0.063232421875,-0.181396484375,0.4471
-2.8091603053435112,1.1908396946564885,-3.2061068702290076,-0.443603515625,-0.060546875,-0.18212890625,0.4488
-2.8244274809160306,1.1908396946564885,-3.282442748091603,-0.446044921875,-0.0556640625,-0.174072265625,0.45049999999999996
-2.595419847328244,0.8854961832061069,-3.5114503816793894,-0.443115234375,-0.06298828125,-0.1826171875,0.4522
-2.854961832061069,0.8091603053435115,-3.618320610687023,-0.443359375,-0.057373046875,-0.184814453125,0.45389999999999997
-2.8396946564885495,0.3511450381679389,-3.8473282442748094,-0.44287109375,-0.057373046875,-0.1748046875,0.45559999999999995
-2.8091603053435112,0.12213740458015267,-3.9389312977099236,-0.445556640625,-0.0546875,-0.188720703125,0.4573
-3.0381679389312977,-0.0916030534351145,-4.213740458015267,-0.444091796875,-0.05712890625,-0.1796875,0.45899999999999996
-3.1297709923664123,-0.5038167938931297,-4.320610687022901,-0.443359375,-0.05078125,-0.173583984375,0.4607
-2.7786259541984735,-0.7175572519083969,-4.427480916030534,-0.443359375,-0.051513671875,-0.182373046875,0.4624
-2.763358778625954,-1.0076335877862594,-4.366412213740458,-0.446533203125,-0.053955078125,-0.1826171875,0.46409999999999996
-3.0076335877862594,-0.8091603053435115,-4.717557251908397,-0.448486328125,-0.05322265625,-0.17724609375,0.4658
-2.9923664122137406,-1.0381679389312977,-4.702290076335878,-0.441650390625,-0.052734375,-0.177001953125,0.46749999999999997
-2.427480916030534,-1.2213740458015268,-4.732824427480916,-0.447021484375,-0.04443359375,-0.175537109375,0.46919999999999995
-2.1374045801526718,-1.282442748091603,-4.900763358778626,-0.44580078125,-0.046142578125,-0.175048828125,0.4709
-2.0763358778625953,-1.282442748091603,-5.206106870229007,-0.44873046875,-0.050048828125,-0.177001953125,0.47259999999999996
-1.618320610687023,-1.3893129770992367,-4.900763358778626,-0.44921875,-0.04833984375,-0.176513671875,0.4743
-1.5267175572519085,-1.282442748091603,-5.145038167938932,-0.44677734375,-0.046630859375,-0.177490234375,0.476
-1.0687022900763359,-1.083969465648855,-5.175572519083969,-0.450439453125,-0.04736328125,-0.171875,0.47769999999999996
-0.7022900763358778,-1.1603053435114503,-5.435114503816794,-0.450439453125,-0.045166015625,-0.17431640625,0.4794
-0.48854961832061067,-1.1755725190839694,-5.374045801526718,-0.448974609375,-0.044677734375,-0.179443359375,0.48109999999999997
-0.21374045801526717,-0.732824427480916,-5.6183206106870225,-0.449462890625,-0.0419921875,-0.187255859375,0.48279999999999995
0.16793893129770993,-0.6412213740458015,-5.587786259541985,-0.456787109375,-0.046142578125,-0.179931640625,0.4845
0.5801526717557252,-0.7175572519083969,-5.526717557251908,-0.458740234375,-0.04248046875,-0.176025390625,0.48619999999999997
0.8244274809160306,-0.7633587786259542,-5.465648854961832,-0.451416015625,-0.039306640625,-0.177001953125,0.4879
1.1755725190839694,-0.4580152671755725,-5.801526717557252,-0.4580078125,-0.043212890625,-0.177490234375,0.4896
1.7099236641221374,-0.7175572519083969,-5.603053435114504,-0.456787109375,-0.040771484375,-0.1767578125,0.49129999999999996
1.9083969465648856,-0.3053435114503817,-5.419847328244275,-0.458740234375,-0.044189453125,-0.183349609375,0.493
2.198473282442748,-0.22900763358778625,-5.435114503816794,-0.460693359375,-0.04638671875,-0.1728515625,0.4947
2.7480916030534353,-0.12213740458015267,-5.374045801526718,-0.458251953125,-0.044677734375,-0.1806640625,0.49639999999999995
3.068702290076336,-0.04580152671755725,-5.282442748091603,-0.4609375,-0.0439453125,-0.181884765625,0.4981
3.480916030534351,0.0916030534351145,-5.694656488549619,-0.461181640625,-0.048095703125,-0.173828125,0.49979999999999997
3.801526717557252,0.061068702290076333,-5.221374045801527,-0.462646484375,-0.049560546875,-0.183837890625,0.5015
3.877862595419847,0.22900763358778625,-5.145038167938932,-0.46484375,-0.044189453125,-0.1796875,0.5032
4.320610687022901,0.366412213740458,-5.038167938931298,-0.45947265625,-0.045654296875,-0.177978515625,0.5049
4.778625954198473,0.4122137404580153,-4.99236641221374,-0.462890625,-0.04541015625,-0.180419921875,0.5065999999999999
5.00763358778626,0.42748091603053434,-4.717557251908397,-0.46142578125,-0.05078125,-0.1728515625,0.5083
5.282442748091603,0.42748091603053434,-4.763358778625954,-0.46435546875,-0.043701171875,-0.17333984375,0.51
5.450381679389313,0.6412213740458015,-4.641221374045801,-0.465576171875,-0.0458984375,-0.1767578125,0.5116999999999999
5.648854961832061,0.6870229007633588,-4.6106870229007635,-0.465087890625,-0.052001953125,-0.17529296875,0.5134
5.709923664122138,0.8549618320610687,-4.3816793893129775,-0.46630859375,-0.04345703125,-0.176025390625,0.5151
6.0,0.916030534351145,-4.396946564885496,-0.46630859375,-0.048095703125,-0.174560546875,0.5167999999999999
6.244274809160306,0.7938931297709924,-4.137404580152672,-0.46484375,-0.04833984375,-0.181884765625,0.5185
6.183206106870229,0.9770992366412213,-4.198473282442748,-0.462890625,-0.0517578125,-0.1728515625,0.5202
6.244274809160306,1.1603053435114503,-4.152671755725191,-0.463623046875,-0.0546875,-0.177001953125,0.5218999999999999
6.152671755725191,1.2213740458015268,-4.213740458015267,-0.471435546875,-0.05517578125,-0.182373046875,0.5236
6.5038167938931295,1.4198473282442747,-4.0,-0.47216796875,-0.05224609375,-0.18017578125,0.5253
6.33587786259542,1.450381679389313,-4.076335877862595,-0.466796875,-0.049560546875,-0.170654296875,0.527
6.366412213740458,1.4351145038167938,-4.198473282442748,-0.468994140625,-0.0546875,-0.183349609375,0.5287
6.320610687022901,1.6793893129770991,-3.969465648854962,-0.470458984375,-0.0576171875,-0.17138671875,0.5304
6.290076335877862,1.5267175572519085,-3.954198473282443,-0.470458984375,-0.06396484375,-0.178955078125,0.5321
6.198473282442748,1.7099236641221374,-4.198473282442748,-0.466064453125,-0.05859375,-0.18310546875,0.5337999999999999
6.320610687022901,1.6946564885496183,-4.0458015267175576,-0.466552734375,-0.06494140625,-0.17138671875,0.5355
6.015267175572519,1.4351145038167938,-4.137404580152672,-0.465576171875,-0.061767578125,-0.185546875,0.5372
5.709923664122138,1.3129770992366412,-3.984732824427481,-0.46435546875,-0.062744140625,-0.177490234375,0.5388999999999999
5.694656488549619,1.251908396946565,-4.106870229007634,-0.470458984375,-0.061767578125,-0.17333984375,0.5406
5.587786259541985,1.1297709923664123,-3.877862595419847,-0.472900390625,-0.05908203125,-0.1787109375,0.5423
5.358778625954199,1.0076335877862594,-3.969465648854962,-0.4677734375,-0.064208984375,-0.173583984375,0.5439999999999999
5.206106870229007,0.8396946564885496,-3.83206106870229,-0.464599609375,-0.060546875,-0.182373046875,0.5457
5.083969465648855,0.6870229007633588,-3.7709923664122136,-0.46533203125,-0.064453125,-0.177978515625,0.5474
4.99236641221374,0.6870229007633588,-3.9083969465648853,-0.4658203125,-0.061279296875,-0.178466796875,0.5490999999999999
4.534351145038168,0.6870229007633588,-3.801526717557252,-0.470458984375,-0.061767578125,-0.1767578125,0.5508
4.549618320610687,0.3969465648854962,-3.66412213740458,-0.46875,-0.062744140625,-0.176513671875,0.5525
4.412213740458015,0.3511450381679389,-3.969465648854962,-0.4697265625,-0.064697265625,-0.175537109375,0.5541999999999999
4.396946564885496,0.48854961832061067,-3.5877862595419847,-0.46435546875,-0.064453125,-0.18115234375,0.5559
4.442748091603053,0.6717557251908397,-3.83206106870229,-0.468505859375,-0.065673828125,-0.18505859375,0.5576
4.259541984732825,0.4732824427480916,-3.66412213740458,-0.465576171875,-0.066650390625,-0.18115234375,0.5593
4.33587786259542,0.5648854961832062,-3.7404580152671754,-0.46435546875,-0.06591796875,-0.183349609375,0.5609999999999999
4.519083969465649,0.732824427480916,-3.7709923664122136,-0.473876953125,-0.072021484375,-0.18408203125,0.5627
4.33587786259542,1.1450381679389312,-3.7251908396946565,-0.4697265625,-0.06298828125,-0.18505859375,0.5644
4.152671755725191,1.083969465648855,-3.6030534351145036,-0.4677734375,-0.060546875,-0.184326171875,0.5660999999999999
4.152671755725191,1.1755725190839694,-3.6946564885496183,-0.472412109375,-0.061767578125,-0.181396484375,0.5678
3.8473282442748094,1.4045801526717556,-3.572519083969466,-0.474609375,-0.059814453125,-0.184326171875,0.5695
3.618320610687023,1.3740458015267176,-3.3282442748091605,-0.476806640625,-0.060302734375,-0.17529296875,0.5711999999999999
3.450381679389313,1.6641221374045803,-3.0839694656488548,-0.469482421875,-0.060546875,-0.1787109375,0.5729
3.3587786259541983,1.7557251908396947,-3.099236641221374,-0.469970703125,-0.063232421875,-0.180419921875,0.5746
3.114503816793893,1.786259541984733,-3.053435114503817,-0.468505859375,-0.065185546875,-0.185791015625,0.5762999999999999
2.9618320610687023,2.1374045801526718,-3.1297709923664123,-0.47021484375,-0.063232421875,-0.1806640625,0.578
2.6259541984732824,2.2442748091603053,-2.900763358778626,-0.473876953125,-0.06591796875,-0.180419921875,0.5797
2.6106870229007635,2.854961832061069,-2.7786259541984735,-0.47119140625,-0.0654296875,-0.181884765625,0.5813999999999999
2.717557251908397,2.9160305343511452,-2.6259541984732824,-0.470703125,-0.0634765625,-0.187255859375,0.5831
2.564885496183206,2.9923664122137406,-2.6717557251908395,-0.474609375,-0.058837890625,-0.177001953125,0.5848
2.7480916030534353,3.236641221374046,-2.564885496183206,-0.468994140625,-0.0625,-0.178466796875,0.5865
2.732824427480916,3.5267175572519083,-2.366412213740458,-0.467041015625,-0.062744140625,-0.181884765625,0.5882
2.4122137404580153,3.572519083969466,-2.4580152671755724,-0.468017578125,-0.06201171875,-0.1728515625,0.5899
2.687022900763359,3.9389312977099236,-2.4427480916030535,-0.4677734375,-0.062255859375,-0.17431640625,0.5916
2.6412213740458017,4.030534351145038,-2.2290076335877864,-0.47216796875,-0.06640625,-0.1748046875,0.5932999999999999
2.7022900763358777,4.229007633587786,-2.045801526717557,-0.4677734375,-0.068603515625,-0.177490234375,0.595
2.931297709923664,4.67175572519084,-2.0,-0.463134765625,-0.06494140625,-0.172119140625,0.5967
3.0229007633587788,4.656488549618321,-1.83206106870229,-0.46875,-0.06884765625,-0.169677734375,0.5983999999999999
3.4198473282442747,4.793893129770993,-1.9236641221374047,-0.46630859375,-0.068603515625,-0.17431640625,0.6001
3.4198473282442747,4.778625954198473,-1.8931297709923665,-0.46484375,-0.06591796875,-0.181396484375,0.6018
3.4656488549618323,4.67175572519084,-1.7709923664122138,-0.467529296875,-0.072021484375,-0.17578125,0.6034999999999999
3.5877862595419847,4.625954198473282,-1.5419847328244274,-0.466796875,-0.067138671875,-0.173828125,0.6052
3.5267175572519083,4.717557251908397,-1.6946564885496183,-0.461669921875,-0.065673828125,-0.171142578125,0.6069
4.0,4.564885496183206,-1.6030534351145038,-0.466064453125,-0.072509765625,-0.17138671875,0.6085999999999999
4.015267175572519,4.519083969465649,-1.5877862595419847,-0.466552734375,-0.0654296875,-0.171875,0.6103
3.83206106870229,4.2748091603053435,-1.7404580152671756,-0.456298828125,-0.070068359375,-0.16259765625,0.612
3.9083969465648853,4.305343511450381,-1.7099236641221374,-0.4599609375,-0.06591796875,-0.163330078125,0.6136999999999999
3.9389312977099236,3.9083969465648853,-1.4045801526717556,-0.464599609375,-0.067626953125,-0.166259765625,0.6154
4.015267175572519,3.5877862595419847,-1.465648854961832,-0.457763671875,-0.0654296875,-0.169921875,0.6171
4.015267175572519,3.3435114503816794,-1.2671755725190839,-0.4560546875,-0.071044921875,-0.171142578125,0.6188
4.122137404580153,3.2061068702290076,-1.4045801526717556,-0.4609375,-0.07177734375,-0.170654296875,0.6204999999999999
4.152671755725191,3.0381679389312977,-1.251908396946565,-0.4619140625,-0.071533203125,-0.1796875,0.6222
3.9236641221374047,2.946564885496183,-1.1755725190839694,-0.457275390625,-0.07421875,-0.165771484375,0.6239
3.5572519083969465,2.9618320610687023,-0.8549618320610687,-0.460205078125,-0.067138671875,-0.16943359375,0.6255999999999999
3.6030534351145036,2.5343511450381677,-0.7480916030534351,-0.460693359375,-0.070068359375,-0.168701171875,0.6273
3.7099236641221376,2.381679389312977,-0.6106870229007634,-0.45654296875,-0.066162109375,-0.1689453125,0.629
3.5114503816793894,2.427480916030534,-0.3969465648854962,-0.459228515625,-0.064208984375,-0.17138671875,0.6306999999999999
3.5419847328244276,2.213740458015267,-0.07633587786259542,-0.45849609375,-0.06787109375,-0.17626953125,0.6324
3.6030534351145036,1.9694656488549618,-0.030534351145038167,-0.45947265625,-0.067626953125,-0.17041015625,0.6341
3.450381679389313,2.030534351145038,-0.061068702290076333,-0.457763671875,-0.070068359375,-0.17236328125,0.6357999999999999
3.3893129770992365,2.015267175572519,0.10687022900763359,-0.458984375,-0.0703125,-0.168212890625,0.6375
3.267175572519084,2.045801526717557,0.5190839694656488,-0.458740234375,-0.07080078125,-0.171875,0.6392
3.5419847328244276,2.030534351145038,0.3816793893129771,-0.461181640625,-0.06884765625,-0.171142578125,0.6408999999999999
3.435114503816794,2.1374045801526718,0.366412213740458,-0.460205078125,-0.075927734375,-0.171142578125,0.6426
3.282442748091603,2.213740458015267,0.7786259541984732,-0.459716796875,-0.072265625,-0.174560546875,0.6443
3.0229007633587788,2.50381679389313,0.732824427480916,-0.45703125,-0.078369140625,-0.171630859375,0.646
3.0076335877862594,2.6259541984732824,0.7175572519083969,-0.46142578125,-0.07177734375,-0.170166015625,0.6476999999999999
2.6564885496183206,2.7938931297709924,1.1297709923664123,-0.46142578125,-0.074462890625,-0.173583984375,0.6494
2.366412213740458,2.564885496183206,1.1145038167938932,-0.454345703125,-0.078369140625,-0.171142578125,0.6511
2.2748091603053435,2.7786259541984735,1.3740458015267176,-0.45751953125,-0.0810546875,-0.1748046875,0.6527999999999999
2.351145038167939,2.946564885496183,1.3740458015267176,-0.44921875,-0.074462890625,-0.1650390625,0.6545
1.8015267175572518,3.1297709923664123,1.465648854961832,-0.456787109375,-0.08056640625,-0.17236328125,0.6562
1.5877862595419847,3.1603053435114505,1.1755725190839694,-0.45556640625,-0.07958984375,-0.170654296875,0.6578999999999999
1.099236641221374,3.2213740458015265,1.7404580152671756,-0.455078125,-0.07177734375,-0.1806640625,0.6596
0.8854961832061069,3.5419847328244276,1.618320610687023,-0.45703125,-0.07666015625,-0.181396484375,0.6613
0.7022900763358778,3.3893129770992365,1.786259541984733,-0.45947265625,-0.07958984375,-0.187744140625,0.6629999999999999
0.4580152671755725,3.5114503816793894,1.6793893129770991,-0.454833984375,-0.076904296875,-0.17236328125,0.6647
0.21374045801526717,3.49618320610687,2.015267175572519,-0.451904296875,-0.08349609375,-0.17138671875,0.6664
-0.061068702290076333,3.5114503816793894,1.8015267175572518,-0.45263671875,-0.078125,-0.16943359375,0.6680999999999999
-0.32061068702290074,3.49618320610687,2.0916030534351147,-0.458740234375,-0.08349609375,-0.178955078125,0.6698
-0.732824427480916,3.5114503816793894,1.984732824427481,-0.455322265625,-0.082763671875,-0.1787109375,0.6715
-0.8549618320610687,3.450381679389313,2.045801526717557,-0.45654296875,-0.072998046875,-0.175048828125,0.6731999999999999
-1.0076335877862594,3.3282442748091605,1.9694656488549618,-0.45068359375,-0.0771484375,-0.167724609375,0.6748999999999999
-1.1450381679389312,3.2213740458015265,2.0916030534351147,-0.453369140625,-0.074462890625,-0.1787109375,0.6766
-1.4961832061068703,3.053435114503817,2.0916030534351147,-0.45751953125,-0.07958984375,-0.17236328125,0.6783
-1.3893129770992367,3.0381679389312977,2.198473282442748,-0.4521484375,-0.081787109375,-0.18701171875,0.6799999999999999
-1.4198473282442747,2.946564885496183,1.9236641221374047,-0.450927734375,-0.081787109375,-0.17724609375,0.6817
-1.465648854961832,2.7480916030534353,2.2595419847328246,-0.452392578125,-0.07568359375,-0.18017578125,0.6834
-1.5267175572519085,2.8091603053435112,1.9389312977099236,-0.459716796875,-0.078857421875,-0.16845703125,0.6850999999999999
-1.3893129770992367,2.7022900763358777,2.122137404580153,-0.4501953125,-0.080810546875,-0.173828125,0.6868
-1.450381679389313,2.6717557251908395,2.16793893129771,-0.451171875,-0.079833984375,-0.17236328125,0.6885
-1.297709923664122,2.4580152671755724,1.9083969465648856,-0.453857421875,-0.077880859375,-0.167236328125,0.6901999999999999
-1.282442748091603,2.549618320610687,1.7251908396946565,-0.45068359375,-0.08251953125,-0.16455078125,0.6919
-1.251908396946565,2.16793893129771,1.8778625954198473,-0.4462890625,-0.083251953125,-0.17724609375,0.6936
-1.0381679389312977,1.984732824427481,1.5267175572519085,-0.451904296875,-0.0771484375,-0.17578125,0.6952999999999999
-0.7633587786259542,2.381679389312977,1.633587786259542,-0.44970703125,-0.074951171875,-0.17431640625,0.697
-1.083969465648855,1.984732824427481,1.282442748091603,-0.455322265625,-0.072021484375,-0.17138671875,0.6987
-1.2213740458015268,2.030534351145038,1.465648854961832,-0.45263671875,-0.07470703125,-0.17041015625,0.7003999999999999
-0.9923664122137404,1.9541984732824427,1.3129770992366412,-0.456298828125,-0.082275390625,-0.165283203125,0.7021
-1.2366412213740459,2.045801526717557,1.3282442748091603,-0.44921875,-0.07763671875,-0.171142578125,0.7038
-1.465648854961832,2.015267175572519,1.282442748091603,-0.453125,-0.071044921875,-0.175048828125,0.7055
-1.1145038167938932,1.9236641221374047,1.4961832061068703,-0.4541015625,-0.078125,-0.1748046875,0.7071999999999999
-1.3129770992366412,2.0916030534351147,1.1603053435114503,-0.453125,-0.073974609375,-0.15966796875,0.7089
-1.3282442748091603,1.9694656488549618,1.2061068702290076,-0.45166015625,-0.078369140625,-0.1689453125,0.7106
-1.3129770992366412,1.6946564885496183,1.0687022900763359,-0.44970703125,-0.07421875,-0.171630859375,0.7122999999999999
-1.4961832061068703,1.5114503816793894,1.0534351145038168,-0.449951171875,-0.06787109375,-0.165771484375,0.714
-1.6946564885496183,1.5572519083969465,1.2213740458015268,-0.44873046875,-0.0732421875,-0.175537109375,0.7157
-1.7557251908396947,1.282442748091603,1.297709923664122,-0.44580078125,-0.074462890625,-0.1728515625,0.7173999999999999
-2.2900763358778624,1.3282442748091603,0.9312977099236641,-0.45654296875,-0.075927734375,-0.17138671875,0.7191
-1.8473282442748091,1.450381679389313,1.083969465648855,-0.448974609375,-0.071044921875,-0.176513671875,0.7208
-1.9389312977099236,1.2213740458015268,0.916030534351145,-0.44873046875,-0.072021484375,-0.17626953125,0.7224999999999999
-2.4122137404580153,1.1755725190839694,0.8091603053435115,-0.45166015625,-0.07177734375,-0.17529296875,0.7242
-2.351145038167939,1.251908396946565,0.8244274809160306,-0.450927734375,-0.073974609375,-0.1728515625,0.7259
-2.50381679389313,1.3129770992366412,0.8854961832061069,-0.45361328125,-0.068603515625,-0.164306640625,0.7275999999999999
-2.6106870229007635,1.3740458015267176,0.6412213740458015,-0.453125,-0.0703125,-0.173095703125,0.7293
-2.5343511450381677,1.1450381679389312,0.5343511450381679,-0.45166015625,-0.06787109375,-0.173583984375,0.731
-2.595419847328244,1.1603053435114503,0.4732824427480916,-0.453125,-0.068603515625,-0.1708984375,0.7326999999999999
-2.7938931297709924,1.2061068702290076,0.5648854961832062,-0.450927734375,-0.07568359375,-0.169677734375,0.7343999999999999
-2.7786259541984735,1.3129770992366412,0.3053435114503817,-0.4501953125,-0.072509765625,-0.1748046875,0.7361
-2.854961832061069,1.3587786259541985,0.2595419847328244,-0.453125,-0.06640625,-0.173095703125,0.7378
-2.7786259541984735,1.1755725190839694,0.1984732824427481,-0.45703125,-0.071533203125,-0.1826171875,0.7394999999999999
-2.8702290076335877,1.083969465648855,0.16793893129770993,-0.4482421875,-0.072265625,-0.18212890625,0.7412
-2.854961832061069,1.1603053435114503,0.33587786259541985,-0.447265625,-0.06787109375,-0.17333984375,0.7429
-2.9923664122137406,0.9312977099236641,0.061068702290076333,-0.446533203125,-0.06689453125,-0.169677734375,0.7445999999999999
-3.053435114503817,0.7175572519083969,0.10687022900763359,-0.44775390625,-0.068115234375,-0.185302734375,0.7463
-3.1297709923664123,0.5343511450381679,-0.030534351145038167,-0.447021484375,-0.063720703125,-0.177734375,0.748
-2.8091603053435112,0.3511450381679389,-0.015267175572519083,-0.4501953125,-0.06298828125,-0.1806640625,0.7496999999999999
-3.0839694656488548,0.22900763358778625,0.16793893129770993,-0.4482421875,-0.06640625,-0.169921875,0.7514
-3.0381679389312977,0.16793893129770993,0.061068702290076333,-0.453857421875,-0.063720703125,-0.175048828125,0.7531
-3.068702290076336,0.22900763358778625,0.33587786259541985,-0.451904296875,-0.0625,-0.170654296875,0.7547999999999999
-3.1297709923664123,-0.10687022900763359,0.12213740458015267,-0.450927734375,-0.063720703125,-0.1640625,0.7565
-3.068702290076336,-0.015267175572519083,0.183206106870229,-0.455810546875,-0.058837890625,-0.177001953125,0.7582
-2.6717557251908395,-0.07633587786259542,0.183206106870229,-0.4521484375,-0.064208984375,-0.175537109375,0.7598999999999999
-2.6106870229007635,-0.13740458015267176,0.0916030534351145,-0.45458984375,-0.062744140625,-0.171630859375,0.7615999999999999
-2.50381679389313,-0.030534351145038167,0.1984732824427481,-0.458251953125,-0.06396484375,-0.181396484375,0.7633
-2.5343511450381677,0.0,0.366412213740458,-0.45703125,-0.06689453125,-0.176513671875,0.7649999999999999
-2.1374045801526718,0.10687022900763359,0.2748091603053435,-0.457275390625,-0.06201171875,-0.1806640625,0.7666999999999999
-2.2595419847328246,0.3053435114503817,0.07633587786259542,-0.45654296875,-0.05810546875,-0.1767578125,0.7684
-2.2748091603053435,0.5801526717557252,-0.12213740458015267,-0.448974609375,-0.06396484375,-0.17578125,0.7701
-1.9694656488549618,0.48854961832061067,0.061068702290076333,-0.452392578125,-0.0625,-0.18017578125,0.7717999999999999
-1.6793893129770991,0.5648854961832062,0.12213740458015267,-0.45751953125,-0.0634765625,-0.181884765625,0.7735
-1.8015267175572518,0.7786259541984732,0.0,-0.45361328125,-0.06884765625,-0.185791015625,0.7752
-1.618320610687023,1.083969465648855,0.04580152671755725,-0.453857421875,-0.062255859375,-0.1630859375,0.7768999999999999
-1.3435114503816794,0.7938931297709924,-0.07633587786259542,-0.453857421875,-0.060546875,-0.173095703125,0.7786
-1.4198473282442747,1.1755725190839694,-0.16793893129770993,-0.453125,-0.065185546875,-0.181396484375,0.7803
-1.3435114503816794,1.1603053435114503,-0.16793893129770993,-0.458740234375,-0.06103515625,-0.18603515625,0.7819999999999999
-1.3282442748091603,1.1755725190839694,-0.1984732824427481,-0.45361328125,-0.0576171875,-0.186279296875,0.7837
-1.2213740458015268,1.1755725190839694,-0.32061068702290074,-0.4541015625,-0.056640625,-0.17578125,0.7854
-1.083969465648855,0.9312977099236641,-0.33587786259541985,-0.447021484375,-0.060302734375,-0.1787109375,0.7870999999999999
-1.0076335877862594,0.8854961832061069,-0.24427480916030533,-0.44921875,-0.06689453125,-0.173828125,0.7888
-1.0381679389312977,0.9465648854961832,-0.22900763358778625,-0.451904296875,-0.06494140625,-0.16845703125,0.7905
-0.8854961832061069,0.8244274809160306,-0.183206106870229,-0.44580078125,-0.065673828125,-0.182861328125,0.7921999999999999
-0.8702290076335878,0.6106870229007634,-0.2595419847328244,-0.447265625,-0.060546875,-0.17822265625,0.7938999999999999
-0.8091603053435115,0.5343511450381679,-0.3816793893129771,-0.448974609375,-0.060791015625,-0.183349609375,0.7956
-0.9770992366412213,0.42748091603053434,-0.3816793893129771,-0.4482421875,-0.065185546875,-0.1748046875,0.7973
-1.0687022900763359,0.5038167938931297,-0.22900763358778625,-0.449462890625,-0.06689453125,-0.173828125,0.7989999999999999
-1.465648854961832,0.10687022900763359,-0.549618320610687,-0.44677734375,-0.0595703125,-0.180908203125,0.8007
-1.3893129770992367,-0.061068702290076333,-0.6870229007633588,-0.447265625,-0.061279296875,-0.17333984375,0.8024
-1.4045801526717556,-0.2900763358778626,-0.16793893129770993,-0.44580078125,-0.06494140625,-0.1826171875,0.8040999999999999
-1.8015267175572518,-0.4732824427480916,-0.5801526717557252,-0.4482421875,-0.065185546875,-0.18408203125,0.8058
-2.0,-0.4732824427480916,-0.6564885496183206,-0.4501953125,-0.0595703125,-0.185546875,0.8075
-2.0763358778625953,-0.6717557251908397,-0.6259541984732825,-0.447021484375,-0.0625,-0.177001953125,0.8091999999999999
-2.0610687022900764,-0.6564885496183206,-0.6870229007633588,-0.447265625,-0.06591796875,-0.180419921875,0.8109
-2.1374045801526718,-0.8549618320610687,-0.8549618320610687,-0.448974609375,-0.064453125,-0.183349609375,0.8126
-2.2442748091603053,-1.0381679389312977,-0.9618320610687023,-0.44580078125,-0.06689453125,-0.182373046875,0.8142999999999999
-2.4122137404580153,-0.9618320610687023,-1.0076335877862594,-0.44580078125,-0.06591796875,-0.175048828125,0.816
-2.549618320610687,-1.1603053435114503,-0.7938931297709924,-0.44482421875,-0.0693359375,-0.179931640625,0.8177
-2.7786259541984735,-1.4045801526717556,-1.1755725190839694,-0.44921875,-0.0634765625,-0.175537109375,0.8193999999999999
-2.732824427480916,-1.3740458015267176,-1.2366412213740459,-0.4501953125,-0.0712890625,-0.181640625,0.8210999999999999
-2.2900763358778624,-1.4809160305343512,-1.4045801526717556,-0.4443359375,-0.065185546875,-0.181884765625,0.8228
-2.6106870229007635,-1.465648854961832,-1.3587786259541985,-0.447998046875,-0.06298828125,-0.183837890625,0.8244999999999999
-2.427480916030534,-1.5572519083969465,-1.3893129770992367,-0.4453125,-0.065185546875,-0.178466796875,0.8261999999999999
-2.0,-1.5419847328244274,-1.5572519083969465,-0.44677734375,-0.062255859375,-0.18212890625,0.8279
-2.2900763358778624,-1.4198473282442747,-1.8625954198473282,-0.4462890625,-0.066650390625,-0.189453125,0.8296
-2.122137404580153,-1.4045801526717556,-1.8778625954198473,-0.44921875,-0.06396484375,-0.178466796875,0.8312999999999999
-1.8778625954198473,-1.5267175572519085,-2.1068702290076335,-0.44970703125,-0.063720703125,-0.185791015625,0.833
-2.3206106870229006,-1.5419847328244274,-2.1374045801526718,-0.44677734375,-0.0673828125,-0.179931640625,0.8347
-1.8931297709923665,-1.465648854961832,-2.3969465648854964,-0.445556640625,-0.06298828125,-0.18115234375,0.8363999999999999
-2.030534351145038,-1.6946564885496183,-2.3969465648854964,-0.4501953125,-0.058349609375,-0.187255859375,0.8381
-2.030534351145038,-1.3740458015267176,-2.595419847328244,-0.45361328125,-0.0625,-0.185546875,0.8398
-1.83206106870229,-1.6641221374045803,-2.4732824427480917,-0.447509765625,-0.05810546875,-0.179931640625,0.8414999999999999
-2.213740458015267,-1.6946564885496183,-2.6717557251908395,-0.4482421875,-0.064208984375,-0.180908203125,0.8432
-2.2595419847328246,-1.8015267175572518,-2.5343511450381677,-0.450927734375,-0.063720703125,-0.1787109375,0.8449
-2.1374045801526718,-1.7251908396946565,-2.7938931297709924,-0.451416015625,-0.056884765625,-0.1787109375,0.8465999999999999
-2.198473282442748,-1.9541984732824427,-2.9160305343511452,-0.44775390625,-0.05810546875,-0.17724609375,0.8482999999999999
-2.213740458015267,-1.9236641221374047,-2.854961832061069,-0.451904296875,-0.05712890625,-0.170654296875,0.85
-2.3053435114503817,-2.0610687022900764,-2.8702290076335877,-0.454833984375,-0.05712890625,-0.1767578125,0.8516999999999999
-2.3053435114503817,-2.16793893129771,-3.1603053435114505,-0.45458984375,-0.052734375,-0.17724609375,0.8533999999999999
-2.2290076335877864,-2.030534351145038,-2.9618320610687023,-0.45458984375,-0.056640625,-0.177001953125,0.8551
-2.0916030534351147,-1.9694656488549618,-3.0839694656488548,-0.454833984375,-0.057373046875,-0.1787109375,0.8568
-2.122137404580153,-1.786259541984733,-3.1755725190839694,-0.457275390625,-0.057373046875,-0.181640625,0.8584999999999999
-2.0916030534351147,-1.8625954198473282,-3.3435114503816794,-0.45849609375,-0.064208984375,-0.17578125,0.8602
-1.816793893129771,-2.0,-3.3435114503816794,-0.45556640625,-0.059326171875,-0.178955078125,0.8619
-1.7709923664122138,-1.9694656488549618,-3.312977099236641,-0.459228515625,-0.054443359375,-0.18603515625,0.8635999999999999
-1.8931297709923665,-1.7404580152671756,-3.2061068702290076,-0.456298828125,-0.05615234375,-0.1806640625,0.8653
-1.465648854961832,-1.8015267175572518,-3.3282442748091605,-0.45458984375,-0.05029296875,-0.1806640625,0.867
-1.4351145038167938,-1.786259541984733,-3.450381679389313,-0.4541015625,-0.053955078125,-0.17578125,0.8686999999999999
-1.5267175572519085,-1.7099236641221374,-3.3435114503816794,-0.457275390625,-0.055419921875,-0.184326171875,0.8704
-1.4351145038167938,-1.618320610687023,-3.236641221374046,-0.460693359375,-0.052978515625,-0.181884765625,0.8721
-1.297709923664122,-1.5572519083969465,-3.3435114503816794,-0.454833984375,-0.052978515625,-0.1875,0.8737999999999999
-1.1908396946564885,-1.3587786259541985,-3.3587786259541983,-0.4638671875,-0.045166015625,-0.1875,0.8755
-1.3740458015267176,-1.450381679389313,-3.5267175572519083,-0.461181640625,-0.0537109375,-0.187255859375,0.8772
-1.2366412213740459,-1.4198473282442747,-3.4198473282442747,-0.46142578125,-0.05224609375,-0.18505859375,0.8788999999999999
-1.1450381679389312,-1.1908396946564885,-3.282442748091603,-0.458984375,-0.055419921875,-0.182373046875,0.8805999999999999
-0.7938931297709924,-1.2213740458015268,-3.1297709923664123,-0.46142578125,-0.051025390625,-0.185546875,0.8823
-0.8396946564885496,-1.251908396946565,-3.114503816793893,-0.46240234375,-0.05078125,-0.193115234375,0.8839999999999999
-0.5038167938931297,-0.6106870229007634,-2.9618320610687023,-0.461669921875,-0.049072265625,-0.186279296875,0.8856999999999999
-0.3053435114503817,-0.5343511450381679,-3.1908396946564888,-0.463623046875,-0.045654296875,-0.1796875,0.8874
-0.3053435114503817,-0.4580152671755725,-2.931297709923664,-0.46240234375,-0.052978515625,-0.1865234375,0.8891
-0.22900763358778625,-0.42748091603053434,-2.9618320610687023,-0.460693359375,-0.048583984375,-0.181396484375,0.8907999999999999
-0.15267175572519084,-0.15267175572519084,-3.1603053435114505,-0.46240234375,-0.05029296875,-0.182373046875,0.8925
-0.0916030534351145,0.061068702290076333,-3.0839694656488548,-0.4619140625,-0.052734375,-0.1845703125,0.8942
0.22900763358778625,0.10687022900763359,-3.145038167938931,-0.4619140625,-0.051513671875,-0.183349609375,0.8958999999999999
0.0916030534351145,0.10687022900763359,-3.2213740458015265,-0.463623046875,-0.056396484375,-0.174072265625,0.8976
0.3053435114503817,0.3969465648854962,-3.2213740458015265,-0.463134765625,-0.0537109375,-0.18408203125,0.8993
0.24427480916030533,0.7480916030534351,-3.3740458015267176,-0.46484375,-0.056884765625,-0.1806640625,0.9009999999999999
0.10687022900763359,0.732824427480916,-3.404580152671756,-0.461181640625,-0.0498046875,-0.190185546875,0.9027
0.16793893129770993,0.9923664122137404,-3.450381679389313,-0.4697265625,-0.060302734375,-0.183349609375,0.9044
0.10687022900763359,0.9465648854961832,-3.4198473282442747,-0.465087890625,-0.058837890625,-0.181396484375,0.9060999999999999
-0.0916030534351145,0.8091603053435115,-3.450381679389313,-0.4599609375,-0.05419921875,-0.17333984375,0.9077999999999999
0.061068702290076333,0.6564885496183206,-3.5114503816793894,-0.4599609375,-0.052001953125,-0.177490234375,0.9095
-0.030534351145038167,0.5343511450381679,-3.5267175572519083,-0.462890625,-0.051513671875,-0.17919921875,0.9111999999999999
0.0,0.7022900763358778,-3.4656488549618323,-0.46337890625,-0.053955078125,-0.177490234375,0.9128999999999999
0.15267175572519084,0.44274809160305345,-3.3435114503816794,-0.458740234375,-0.05859375,-0.1767578125,0.9146
0.21374045801526717,0.22900763358778625,-3.236641221374046,-0.46337890625,-0.058349609375,-0.177001953125,0.9163
0.2748091603053435,0.183206106870229,-3.435114503816794,-0.463623046875,-0.0517578125,-0.180419921875,0.9179999999999999
0.5343511450381679,-0.030534351145038167,-3.633587786259542,-0.460693359375,-0.060791015625,-0.18359375,0.9197
0.7938931297709924,-0.16793893129770993,-3.572519083969466,-0.45068359375,-0.056884765625,-0.175048828125,0.9214
0.9312977099236641,0.04580152671755725,-3.3893129770992365,-0.45556640625,-0.0498046875,-0.1767578125,0.9230999999999999
1.1450381679389312,-0.2900763358778626,-3.5877862595419847,-0.454833984375,-0.048095703125,-0.19189453125,0.9248
1.3435114503816794,-0.4732824427480916,-3.3893129770992365,-0.45947265625,-0.055419921875,-0.17822265625,0.9265
1.3129770992366412,-0.4732824427480916,-3.3282442748091605,-0.45947265625,-0.055419921875,-0.182373046875,0.9281999999999999
1.5114503816793894,-0.5648854961832062,-3.282442748091603,-0.459716796875,-0.0537109375,-0.183837890625,0.9299
1.6030534351145038,-0.5038167938931297,-3.1603053435114505,-0.463623046875,-0.043701171875,-0.174072265625,0.9316
1.8473282442748091,-0.6412213740458015,-3.099236641221374,-0.46630859375,-0.052490234375,-0.178955078125,0.9332999999999999
2.030534351145038,-0.9312977099236641,-3.0839694656488548,-0.461669921875,-0.0517578125,-0.17919921875,0.9349999999999999
2.0763358778625953,-0.7938931297709924,-3.099236641221374,-0.45947265625,-0.055419921875,-0.188232421875,0.9367
2.351145038167939,-0.6106870229007634,-3.0076335877862594,-0.46533203125,-0.048828125,-0.1708984375,0.9383999999999999
2.564885496183206,-0.7480916030534351,-2.717557251908397,-0.46875,-0.051513671875,-0.1806640625,0.9400999999999999
2.5343511450381677,-0.5343511450381679,-2.8244274809160306,-0.46533203125,-0.051513671875,-0.186279296875,0.9418
2.946564885496183,-0.2748091603053435,-2.5343511450381677,-0.468505859375,-0.047607421875,-0.183349609375,0.9434999999999999
3.282442748091603,-0.22900763358778625,-2.717557251908397,-0.4697265625,-0.05029296875,-0.178955078125,0.9451999999999999
3.312977099236641,0.0916030534351145,-2.687022900763359,-0.46533203125,-0.053466796875,-0.1826171875,0.9469
3.145038167938931,0.32061068702290074,-2.564885496183206,-0.471435546875,-0.050537109375,-0.1845703125,0.9486
3.3587786259541983,0.6259541984732825,-2.3969465648854964,-0.46728515625,-0.05615234375,-0.175537109375,0.9502999999999999
3.816793893129771,0.7786259541984732,-2.3969465648854964,-0.470703125,-0.0537109375,-0.173095703125,0.952
3.9083969465648853,1.2366412213740459,-2.33587786259542,-0.46630859375,-0.052734375,-0.183837890625,0.9537
3.9236641221374047,1.4961832061068703,-2.351145038167939,-0.46875,-0.058349609375,-0.181396484375,0.9553999999999999
4.137404580152672,1.7404580152671756,-2.4122137404580153,-0.466552734375,-0.05615234375,-0.1796875,0.9571
4.061068702290076,2.045801526717557,-2.4732824427480917,-0.467041015625,-0.061279296875,-0.18603515625,0.9588
3.984732824427481,2.045801526717557,-2.50381679389313,-0.46533203125,-0.06201171875,-0.173583984375,0.9604999999999999
4.244274809160306,2.3053435114503817,-2.5343511450381677,-0.467041015625,-0.055908203125,-0.168701171875,0.9621999999999999
4.244274809160306,2.3053435114503817,-2.4580152671755724,-0.464599609375,-0.055419921875,-0.172119140625,0.9639
4.076335877862595,2.50381679389313,-2.366412213740458,-0.465576171875,-0.060302734375,-0.184326171875,0.9655999999999999
3.8625954198473282,2.687022900763359,-2.50381679389313,-0.468994140625,-0.0595703125,-0.177978515625,0.9672999999999999
3.9389312977099236,2.6412213740458017,-2.2748091603053435,-0.468017578125,-0.060302734375,-0.172607421875,0.969
3.83206106870229,2.564885496183206,-2.5801526717557253,-0.468994140625,-0.065673828125,-0.16259765625,0.9706999999999999
3.648854961832061,2.4427480916030535,-2.366412213740458,-0.466796875,-0.059326171875,-0.171142578125,0.9723999999999999
3.2977099236641223,2.3053435114503817,-2.4122137404580153,-0.46826171875,-0.061279296875,-0.174560546875,0.9741
3.2213740458015265,2.122137404580153,-2.549618320610687,-0.465576171875,-0.066162109375,-0.17138671875,0.9758
3.1297709923664123,2.122137404580153,-2.4580152671755724,-0.468017578125,-0.064208984375,-0.171142578125,0.9774999999999999
2.931297709923664,1.9083969465648856,-2.381679389312977,-0.462890625,-0.064208984375,-0.172607421875,0.9792
2.6259541984732824,1.618320610687023,-2.687022900763359,-0.46484375,-0.05859375,-0.16943359375,0.9809
2.3206106870229006,1.5877862595419847,-2.50381679389313,-0.4599609375,-0.06298828125,-0.169677734375,0.9825999999999999
2.4122137404580153,1.450381679389313,-2.6412213740458017,-0.46435546875,-0.064697265625,-0.172119140625,0.9843
2.366412213740458,1.4809160305343512,-2.6717557251908395,-0.462646484375,-0.060791015625,-0.169189453125,0.986
2.3206106870229006,1.297709923664122,-2.4885496183206106,-0.46826171875,-0.060791015625,-0.1806640625,0.9876999999999999
2.519083969465649,1.2366412213740459,-2.3969465648854964,-0.464599609375,-0.063720703125,-0.17822265625,0.9894
2.6259541984732824,1.3893129770992367,-2.5801526717557253,-0.46728515625,-0.065185546875,-0.173095703125,0.9911
2.4885496183206106,1.3435114503816794,-2.7022900763358777,-0.4697265625,-0.064697265625,-0.1845703125,0.9927999999999999
2.595419847328244,1.3893129770992367,-2.2748091603053435,-0.463134765625,-0.059814453125,-0.17431640625,0.9944999999999999
2.732824427480916,1.450381679389313,-2.3206106870229006,-0.466552734375,-0.061279296875,-0.175048828125,0.9962
2.7938931297709924,1.5877862595419847,-2.3053435114503817,-0.466064453125,-0.065673828125,-0.17578125,0.9978999999999999
2.8702290076335877,1.6641221374045803,-2.0,-0.470703125,-0.062255859375,-0.176025390625,0.9995999999999999
2.8091603053435112,1.9236641221374047,-2.1526717557251906,-0.470458984375,-0.058349609375,-0.176513671875,1.0012999999999999
2.717557251908397,2.0916030534351147,-2.2748091603053435,-0.465576171875,-0.05712890625,-0.174560546875,1.003
2.763358778625954,2.33587786259542,-2.3206106870229006,-0.46826171875,-0.06201171875,-0.185546875,1.0047
2.8244274809160306,2.549618320610687,-1.9541984732824427,-0.46630859375,-0.060546875,-0.18603515625,1.0064
2.8244274809160306,2.717557251908397,-2.2900763358778624,-0.46923828125,-0.064208984375,-0.179931640625,1.0081
2.717557251908397,2.9618320610687023,-2.1068702290076335,-0.47216796875,-0.062255859375,-0.1728515625,1.0098
2.7786259541984735,2.885496183206107,-2.1374045801526718,-0.467529296875,-0.06103515625,-0.17041015625,1.0114999999999998
2.732824427480916,3.1908396946564888,-1.984732824427481,-0.46533203125,-0.062255859375,-0.172607421875,1.0131999999999999
2.7022900763358777,3.099236641221374,-1.8625954198473282,-0.467041015625,-0.0654296875,-0.17822265625,1.0149
2.4732824427480917,3.099236641221374,-1.5572519083969465,-0.468505859375,-0.0615234375,-0.177001953125,1.0166
2.381679389312977,3.2977099236641223,-1.5877862595419847,-0.466064453125,-0.060791015625,-0.175537109375,1.0183
2.2290076335877864,3.2977099236641223,-1.6030534351145038,-0.46435546875,-0.05712890625,-0.174560546875,1.02
2.0916030534351147,3.3282442748091605,-1.3435114503816794,-0.462158203125,-0.063720703125,-0.166015625,1.0217
2.1526717557251906,3.3282442748091605,-1.3435114503816794,-0.46435546875,-0.061279296875,-0.165283203125,1.0233999999999999
2.1068702290076335,3.3587786259541983,-1.3740458015267176,-0.46240234375,-0.0654296875,-0.1748046875,1.0251
1.9541984732824427,3.5572519083969465,-1.0229007633587786,-0.46484375,-0.0625,-0.175048828125,1.0268
1.83206106870229,3.5419847328244276,-1.0381679389312977,-0.46484375,-0.0615234375,-0.167724609375,1.0285
1.8778625954198473,3.5877862595419847,-0.8702290076335878,-0.46484375,-0.06396484375,-0.163818359375,1.0302
2.2595419847328246,3.633587786259542,-0.8091603053435115,-0.46142578125,-0.063720703125,-0.158203125,1.0319
2.1374045801526718,3.5877862595419847,-0.7175572519083969,-0.463134765625,-0.063232421875,-0.1650390625,1.0335999999999999
2.2290076335877864,3.648854961832061,-0.8091603053435115,-0.464599609375,-0.07080078125,-0.1630859375,1.0352999999999999
2.2595419847328246,3.6793893129770994,-0.8854961832061069,-0.466064453125,-0.064453125,-0.17236328125,1.037
2.366412213740458,3.648854961832061,-0.7786259541984732,-0.4599609375,-0.069091796875,-0.16845703125,1.0387
2.2900763358778624,3.6946564885496183,-0.6259541984732825,-0.462646484375,-0.064453125,-0.168701171875,1.0404
2.3969465648854964,3.572519083969466,-0.7938931297709924,-0.467041015625,-0.06396484375,-0.171142578125,1.0421
2.2442748091603053,3.49618320610687,-0.6412213740458015,-0.45947265625,-0.06298828125,-0.1728515625,1.0437999999999998
2.351145038167939,3.648854961832061,-1.0076335877862594,-0.461181640625,-0.072265625,-0.174072265625,1.0454999999999999
2.183206106870229,3.648854961832061,-0.7786259541984732,-0.461181640625,-0.072998046875,-0.165283203125,1.0472
2.2900763358778624,3.5877862595419847,-1.0076335877862594,-0.4580078125,-0.069091796875,-0.173828125,1.0489
2.0763358778625953,3.4656488549618323,-0.9618320610687023,-0.453369140625,-0.07568359375,-0.174072265625,1.0506
2.0763358778625953,3.49618320610687,-1.1145038167938932,-0.454833984375,-0.072998046875,-0.171630859375,1.0523
2.183206106870229,3.3740458015267176,-1.0229007633587786,-0.455078125,-0.0673828125,-0.172119140625,1.054
2.030534351145038,3.450381679389313,-1.3740458015267176,-0.45849609375,-0.069580078125,-0.170166015625,1.0556999999999999
2.030534351145038,3.3893129770992365,-0.9618320610687023,-0.45458984375,-0.06689453125,-0.167236328125,1.0574
2.0610687022900764,3.450381679389313,-1.297709923664122,-0.454833984375,-0.072021484375,-0.169189453125,1.0591
1.9083969465648856,3.2213740458015265,-0.9770992366412213,-0.453125,-0.0732421875,-0.169189453125,1.0608
1.7404580152671756,3.114503816793893,-1.282442748091603,-0.457763671875,-0.06884765625,-0.177490234375,1.0625
1.83206106870229,2.9160305343511452,-1.2671755725190839,-0.4560546875,-0.06884765625,-0.171142578125,1.0642
1.8625954198473282,2.6564885496183206,-1.4351145038167938,-0.461181640625,-0.0703125,-0.169189453125,1.0658999999999998
1.6793893129770991,2.946564885496183,-1.2366412213740459,-0.46142578125,-0.068603515625,-0.181884765625,1.0675999999999999
1.7099236641221374,2.946564885496183,-1.3893129770992367,-0.46044921875,-0.072265625,-0.172607421875,1.0693
1.633587786259542,2.7480916030534353,-1.4809160305343512,-0.458251953125,-0.06640625,-0.17822265625,1.071
1.9389312977099236,2.8396946564885495,-1.4961832061068703,-0.45361328125,-0.068603515625,-0.180419921875,1.0727
2.16793893129771,2.8702290076335877,-1.4045801526717556,-0.456298828125,-0.0673828125,-0.16796875,1.0744
1.8931297709923665,2.7938931297709924,-1.618320610687023,-0.455810546875,-0.072509765625,-0.165283203125,1.0760999999999998
2.015267175572519,2.717557251908397,-1.3587786259541985,-0.450439453125,-0.0712890625,-0.17724609375,1.0777999999999999
1.8625954198473282,2.7022900763358777,-1.5572519083969465,-0.453125,-0.06640625,-0.173583984375,1.0795
1.9236641221374047,2.5801526717557253,-1.5877862595419847,-0.45703125,-0.0673828125,-0.1708984375,1.0812
1.9541984732824427,2.7786259541984735,-1.5419847328244274,-0.454833984375,-0.068603515625,-0.172607421875,1.0829
1.6488549618320612,2.717557251908397,-1.5114503816793894,-0.453125,-0.065185546875,-0.1708984375,1.0846
1.618320610687023,3.053435114503817,-1.4351145038167938,-0.456787109375,-0.06884765625,-0.175537109375,1.0863
1.5725190839694656,3.053435114503817,-1.3282442748091603,-0.462158203125,-0.072509765625,-0.164306640625,1.0879999999999999
1.3282442748091603,2.9770992366412212,-1.4961832061068703,-0.45556640625,-0.073486328125,-0.178955078125,1.0897
1.3740458015267176,2.9770992366412212,-1.3740458015267176,-0.45361328125,-0.072509765625,-0.1689453125,1.0914
1.4961832061068703,3.267175572519084,-1.4198473282442747,-0.451171875,-0.0712890625,-0.1708984375,1.0931
1.3740458015267176,3.267175572519084,-1.5419847328244274,-0.45751953125,-0.068115234375,-0.171142578125,1.0948
1.083969465648855,3.435114503816794,-1.1145038167938932,-0.45556640625,-0.070068359375,-0.170166015625,1.0965
1.099236641221374,3.3740458015267176,-1.1145038167938932,-0.451904296875,-0.073486328125,-0.169921875,1.0981999999999998
1.2213740458015268,3.312977099236641,-1.0534351145038168,-0.449951171875,-0.06640625,-0.177734375,1.0998999999999999
1.2671755725190839,3.435114503816794,-0.7786259541984732,-0.451416015625,-0.0673828125,-0.173095703125,1.1016
1.3587786259541985,3.6030534351145036,-0.9465648854961832,-0.452880859375,-0.060546875,-0.17529296875,1.1033
1.3282442748091603,3.7404580152671754,-0.7938931297709924,-0.448974609375,-0.063720703125,-0.180419921875,1.105
1.3587786259541985,3.7099236641221376,-1.0076335877862594,-0.4501953125,-0.06689453125,-0.174560546875,1.1067
1.4809160305343512,3.6793893129770994,-0.7938931297709924,-0.451416015625,-0.07080078125,-0.171630859375,1.1083999999999998
1.5267175572519085,3.572519083969466,-0.8244274809160306,-0.452392578125,-0.065673828125,-0.172607421875,1.1100999999999999
1.8778625954198473,3.5114503816793894,-0.8244274809160306,-0.4501953125,-0.0732421875,-0.171142578125,1.1118
1.7709923664122138,3.5267175572519083,-0.916030534351145,-0.450439453125,-0.0673828125,-0.17138671875,1.1135
1.9236641221374047,3.49618320610687,-0.6412213740458015,-0.44775390625,-0.075439453125,-0.173828125,1.1152
1.9694656488549618,3.3282442748091605,-0.7786259541984732,-0.449951171875,-0.0703125,-0.169189453125,1.1169
1.7709923664122138,2.9160305343511452,-0.8244274809160306,-0.456298828125,-0.074462890625,-0.17041015625,1.1186
2.1374045801526718,2.8702290076335877,-0.8549618320610687,-0.448974609375,-0.07080078125,-0.1650390625,1.1202999999999999
2.16793893129771,2.885496183206107,-0.7480916030534351,-0.453369140625,-0.06884765625,-0.170654296875,1.1219999999999999
1.984732824427481,2.7480916030534353,-0.6106870229007634,-0.449462890625,-0.072021484375,-0.172119140625,1.1237
1.8931297709923665,2.366412213740458,-0.8244274809160306,-0.444091796875,-0.07470703125,-0.1669921875,1.1254
1.9236641221374047,2.183206106870229,-0.8244274809160306,-0.451904296875,-0.067626953125,-0.17333984375,1.1271
1.9694656488549618,2.122137404580153,-0.916030534351145,-0.447509765625,-0.072998046875,-0.16748046875,1.1288
1.5877862595419847,2.0,-0.8854961832061069,-0.4501953125,-0.07275390625,-0.165283203125,1.1304999999999998
1.7251908396946565,1.9694656488549618,-0.6106870229007634,-0.450927734375,-0.069580078125,-0.16796875,1.1321999999999999
1.5572519083969465,1.7404580152671756,-0.6106870229007634,-0.450439453125,-0.072265625,-0.17431640625,1.1339
1.816793893129771,1.6030534351145038,-0.6259541984732825,-0.448486328125,-0.072265625,-0.17529296875,1.1356
1.6030534351145038,1.8625954198473282,-0.5190839694656488,-0.452392578125,-0.0693359375,-0.18408203125,1.1373
1.4961832061068703,1.5267175572519085,-0.6564885496183206,-0.449462890625,-0.07373046875,-0.176513671875,1.139
1.7251908396946565,1.7404580152671756,-0.5648854961832062,-0.44677734375,-0.073486328125,-0.1787109375,1.1407
1.7404580152671756,1.9083969465648856,-0.366412213740458,-0.45068359375,-0.0732421875,-0.177490234375,1.1423999999999999
1.4198473282442747,1.9389312977099236,-0.2748091603053435,-0.453125,-0.0751953125,-0.181884765625,1.1441
1.3740458015267176,2.0610687022900764,-0.6870229007633588,-0.449462890625,-0.075927734375,-0.17431640625,1.1458
1.7251908396946565,2.2442748091603053,-0.4732824427480916,-0.453369140625,-0.077880859375,-0.175537109375,1.1475
1.297709923664122,2.1374045801526718,-0.6564885496183206,-0.44970703125,-0.076416015625,-0.171142578125,1.1492
1.3282442748091603,2.2290076335877864,-0.5954198473282443,-0.44921875,-0.075927734375,-0.170166015625,1.1509
1.6641221374045803,2.50381679389313,-0.6412213740458015,-0.4541015625,-0.07568359375,-0.173583984375,1.1525999999999998
1.3740458015267176,2.6412213740458017,-0.6259541984732825,-0.453369140625,-0.076171875,-0.172607421875,1.1542999999999999
1.3282442748091603,2.6564885496183206,-0.5801526717557252,-0.4521484375,-0.07861328125,-0.1669921875,1.156
1.282442748091603,2.6259541984732824,-0.5801526717557252,-0.4560546875,-0.07763671875,-0.16796875,1.1577
1.282442748091603,2.8091603053435112,-0.6717557251908397,-0.451904296875,-0.0751953125,-0.17431640625,1.1594
1.083969465648855,2.549618320610687,-0.6564885496183206,-0.454345703125,-0.07568359375,-0.16748046875,1.1611
0.8244274809160306,2.4732824427480917,-0.8549618320610687,-0.44677734375,-0.0849609375,-0.166748046875,1.1627999999999998
0.6259541984732825,2.4885496183206106,-0.6717557251908397,-0.45166015625,-0.076416015625,-0.1728515625,1.1644999999999999
0.6259541984732825,2.4885496183206106,-0.8549618320610687,-0.451904296875,-0.0732421875,-0.169189453125,1.1662
0.4580152671755725,2.2290076335877864,-0.7938931297709924,-0.447998046875,-0.074951171875,-0.17333984375,1.1679
0.04580152671755725,1.9694656488549618,-0.732824427480916,-0.451171875,-0.072998046875,-0.1728515625,1.1696
0.0,1.8015267175572518,-1.0076335877862594,-0.450439453125,-0.083251953125,-0.17431640625,1.1713
-0.2748091603053435,1.4351145038167938,-1.099236641221374,-0.45263671875,-0.071533203125,-0.179931640625,1.173
-0.3511450381679389,1.2366412213740459,-1.0076335877862594,-0.453857421875,-0.07373046875,-0.16845703125,1.1746999999999999
-0.732824427480916,0.9770992366412213,-1.0381679389312977,-0.4541015625,-0.075439453125,-0.171875,1.1764
-1.1908396946564885,0.6870229007633588,-0.9770992366412213,-0.457275390625,-0.07958984375,-0.171630859375,1.1781
-1.0076335877862594,0.21374045801526717,-1.0534351145038168,-0.458251953125,-0.073974609375,-0.169677734375,1.1798
-1.2671755725190839,0.015267175572519083,-1.1755725190839694,-0.45751953125,-0.0712890625,-0.177734375,1.1815
-1.5572519083969465,-0.15267175572519084,-1.1908396946564885,-0.451171875,-0.076171875,-0.16845703125,1.1832
-1.6030534351145038,-0.1984732824427481,-0.9618320610687023,-0.4560546875,-0.06884765625,-0.16748046875,1.1848999999999998
-1.9083969465648856,-0.12213740458015267,-1.1297709923664123,-0.45703125,-0.069091796875,-0.17333984375,1.1865999999999999
-1.7557251908396947,-0.061068702290076333,-1.251908396946565,-0.457275390625,-0.074951171875,-0.179443359375,1.1883
-1.7557251908396947,-0.061068702290076333,-1.282442748091603,-0.458740234375,-0.0751953125,-0.171142578125,1.19
-1.9389312977099236,0.07633587786259542,-0.8702290076335878,-0.456787109375,-0.0751953125,-0.175537109375,1.1917
-1.633587786259542,0.0916030534351145,-1.0381679389312977,-0.45361328125,-0.072265625,-0.177978515625,1.1934
-1.5419847328244274,0.3511450381679389,-1.099236641221374,-0.457763671875,-0.07080078125,-0.176025390625,1.1950999999999998
-1.6946564885496183,0.42748091603053434,-1.0687022900763359,-0.45849609375,-0.0712890625,-0.1748046875,1.1967999999999999
-1.7099236641221374,0.5648854961832062,-1.1603053435114503,-0.4619140625,-0.069580078125,-0.173583984375,1.1985
-1.5725190839694656,0.7480916030534351,-1.1603053435114503,-0.45458984375,-0.070068359375,-0.181640625,1.2002
-1.7099236641221374,0.9770992366412213,-1.1145038167938932,-0.455810546875,-0.069580078125,-0.172607421875,1.2019
-1.8015267175572518,0.9007633587786259,-1.4198473282442747,-0.457763671875,-0.070068359375,-0.1796875,1.2036
-1.7557251908396947,1.0534351145038168,-1.3129770992366412,-0.45654296875,-0.072509765625,-0.176025390625,1.2053
-1.984732824427481,1.0534351145038168,-1.6793893129770991,-0.45703125,-0.06787109375,-0.180419921875,1.2069999999999999
-2.015267175572519,1.0381679389312977,-1.4961832061068703,-0.452392578125,-0.070556640625,-0.177734375,1.2086999999999999
-2.015267175572519,1.0687022900763359,-1.465648854961832,-0.45556640625,-0.065185546875,-0.169677734375,1.2104
-2.351145038167939,0.916030534351145,-1.5572519083969465,-0.453369140625,-0.06884765625,-0.168701171875,1.2121
-2.33587786259542,1.083969465648855,-1.5419847328244274,-0.4560546875,-0.06787109375,-0.16650390625,1.2138
-2.6564885496183206,0.8396946564885496,-1.6793893129770991,-0.45654296875,-0.065673828125,-0.17138671875,1.2155
-2.564885496183206,0.7022900763358778,-1.8015267175572518,-0.453857421875,-0.06396484375,-0.17626953125,1.2171999999999998
-2.3206106870229006,0.916030534351145,-1.5419847328244274,-0.45263671875,-0.065185546875,-0.173828125,1.2188999999999999
-2.50381679389313,0.6717557251908397,-1.7557251908396947,-0.454833984375,-0.061279296875,-0.175537109375,1.2206
-2.7480916030534353,0.3511450381679389,-1.8778625954198473,-0.456787109375,-0.06591796875,-0.17431640625,1.2223
-2.4122137404580153,0.2900763358778626,-1.83206106870229,-0.452880859375,-0.058837890625,-0.171875,1.224
-2.549618320610687,0.13740458015267176,-1.5267175572519085,-0.4541015625,-0.063720703125,-0.17333984375,1.2257
-2.564885496183206,-0.04580152671755725,-1.7404580152671756,-0.4482421875,-0.06396484375,-0.169189453125,1.2273999999999998
-2.519083969465649,0.030534351145038167,-1.4809160305343512,-0.449462890625,-0.063720703125,-0.17236328125,1.2290999999999999
-2.2900763358778624,-0.10687022900763359,-1.6488549618320612,-0.452392578125,-0.064208984375,-0.17626953125,1.2308
-2.183206106870229,-0.030534351145038167,-1.816793893129771,-0.4541015625,-0.064208984375,-0.176513671875,1.2325
-2.122137404580153,-0.3816793893129771,-1.9694656488549618,-0.45361328125,-0.057373046875,-0.176513671875,1.2342
-1.8778625954198473,-0.4122137404580153,-1.786259541984733,-0.454833984375,-0.060302734375,-0.170166015625,1.2359
-1.5267175572519085,-0.2748091603053435,-2.0763358778625953,-0.453125,-0.05712890625,-0.173583984375,1.2376
-1.1603053435114503,-0.3816793893129771,-1.7557251908396947,-0.45556640625,-0.062744140625,-0.175048828125,1.2392999999999998
-1.3435114503816794,-0.3053435114503817,-2.030534351145038,-0.454833984375,-0.0615234375,-0.171875,1.2409999999999999
-1.0381679389312977,-0.13740458015267176,-1.7709923664122138,-0.447265625,-0.064697265625,-0.17333984375,1.2427
-0.8244274809160306,-0.2748091603053435,-1.9541984732824427,-0.45654296875,-0.054931640625,-0.176025390625,1.2444
-0.5038167938931297,-0.12213740458015267,-2.045801526717557,-0.4609375,-0.062255859375,-0.1728515625,1.2461
-0.22900763358778625,-0.030534351145038167,-2.1374045801526718,-0.45654296875,-0.061279296875,-0.181396484375,1.2478
-0.15267175572519084,0.015267175572519083,-2.0,-0.453369140625,-0.05908203125,-0.17236328125,1.2494999999999998
0.015267175572519083,0.07633587786259542,-2.1374045801526718,-0.458984375,-0.05712890625,-0.17822265625,1.2511999999999999
0.07633587786259542,0.04580152671755725,-2.0,-0.458251953125,-0.062255859375,-0.177001953125,1.2529
0.22900763358778625,0.13740458015267176,-2.2290076335877864,-0.451904296875,-0.060302734375,-0.18310546875,1.2546
0.3511450381679389,0.33587786259541985,-2.198473282442748,-0.4541015625,-0.055908203125,-0.175048828125,1.2563
0.42748091603053434,0.24427480916030533,-2.16793893129771,-0.4541015625,-0.05908203125,-0.181640625,1.258
0.5954198473282443,0.2595419847328244,-2.0916030534351147,-0.45703125,-0.0625,-0.18017578125,1.2596999999999998
0.6259541984732825,0.3053435114503817,-2.045801526717557,-0.454833984375,-0.061279296875,-0.17578125,1.2613999999999999
0.6412213740458015,0.48854961832061067,-2.183206106870229,-0.4560546875,-0.059814453125,-0.166259765625,1.2631
0.7938931297709924,0.549618320610687,-2.198473282442748,-0.456298828125,-0.052734375,-0.16455078125,1.2648
1.2061068702290076,0.5343511450381679,-2.2442748091603053,-0.462158203125,-0.056640625,-0.180908203125,1.2665
1.0687022900763359,0.5038167938931297,-1.9694656488549618,-0.459716796875,-0.05517578125,-0.177734375,1.2682
1.083969465648855,0.2900763358778626,-1.9389312977099236,-0.45947265625,-0.05517578125,-0.175048828125,1.2699
1.0534351145038168,0.7022900763358778,-1.9694656488549618,-0.4599609375,-0.05908203125,-0.17138671875,1.2715999999999998
0.916030534351145,0.6259541984732825,-1.5267175572519085,-0.465576171875,-0.054443359375,-0.182861328125,1.2732999999999999
0.6412213740458015,0.4580152671755725,-1.8473282442748091,-0.4638671875,-0.058837890625,-0.185546875,1.275
0.7175572519083969,0.5343511450381679,-1.6946564885496183,-0.460205078125,-0.056640625,-0.18115234375,1.2767
0.8549618320610687,0.6106870229007634,-1.465648854961832,-0.462646484375,-0.059326171875,-0.1787109375,1.2784
0.6259541984732825,0.7480916030534351,-1.4809160305343512,-0.46337890625,-0.06005859375,-0.181396484375,1.2801
0.8396946564885496,0.4732824427480916,-1.3740458015267176,-0.46044921875,-0.060546875,-0.1875,1.2817999999999998
0.9618320610687023,0.5343511450381679,-1.4045801526717556,-0.45947265625,-0.059326171875,-0.185546875,1.2834999999999999
0.9465648854961832,0.44274809160305345,-1.5419847328244274,-0.45947265625,-0.06005859375,-0.176513671875,1.2852
0.9770992366412213,0.48854961832061067,-1.4351145038167938,-0.4609375,-0.05712890625,-0.17333984375,1.2869
1.4198473282442747,0.7175572519083969,-1.3740458015267176,-0.45947265625,-0.05859375,-0.18408203125,1.2886
1.4045801526717556,0.42748091603053434,-1.2671755725190839,-0.455810546875,-0.0576171875,-0.1806640625,1.2903
1.1908396946564885,0.42748091603053434,-1.450381679389313,-0.45849609375,-0.062744140625,-0.1767578125,1.292
1.3893129770992367,0.5801526717557252,-1.4045801526717556,-0.4560546875,-0.059326171875,-0.182373046875,1.2936999999999999
1.5725190839694656,0.6870229007633588,-1.5267175572519085,-0.45751953125,-0.060791015625,-0.175048828125,1.2953999999999999
1.5725190839694656,0.5190839694656488,-1.465648854961832,-0.461181640625,-0.065185546875,-0.172607421875,1.2971
1.6030534351145038,0.6106870229007634,-1.618320610687023,-0.462158203125,-0.05908203125,-0.18310546875,1.2988
1.5572519083969465,0.5648854961832062,-1.5267175572519085,-0.45947265625,-0.05419921875,-0.179931640625,1.3005
1.8015267175572518,0.48854961832061067,-1.816793893129771,-0.45947265625,-0.061279296875,-0.18115234375,1.3022
1.3893129770992367,0.6564885496183206,-1.6793893129770991,-0.462890625,-0.05859375,-0.181396484375,1.3038999999999998
1.618320610687023,0.7022900763358778,-1.633587786259542,-0.460205078125,-0.059326171875,-0.1904296875,1.3055999999999999
1.4045801526717556,0.6717557251908397,-1.6488549618320612,-0.459716796875,-0.056884765625,-0.1796875,1.3073
1.3893129770992367,0.5954198473282443,-1.618320610687023,-0.46337890625,-0.05615234375,-0.18603515625,1.309
1.1603053435114503,0.5190839694656488,-1.465648854961832,-0.458740234375,-0.057861328125,-0.179931640625,1.3107
1.2366412213740459,0.3816793893129771,-1.633587786259542,-0.460693359375,-0.060546875,-0.184814453125,1.3124
1.099236641221374,0.4580152671755725,-1.618320610687023,-0.464599609375,-0.057373046875,-0.183837890625,1.3140999999999998
0.8091603053435115,0.42748091603053434,-1.5419847328244274,-0.4658203125,-0.054443359375,-0.17236328125,1.3157999999999999
1.0076335877862594,0.3053435114503817,-1.4961832061068703,-0.463134765625,-0.05224609375,-0.185302734375,1.3175
1.0687022900763359,0.44274809160305345,-1.5267175572519085,-0.459228515625,-0.055908203125,-0.177490234375,1.3192
0.9923664122137404,0.2900763358778626,-1.5877862595419847,-0.4619140625,-0.055419921875,-0.1767578125,1.3209
0.916030534351145,0.2900763358778626,-1.3435114503816794,-0.462646484375,-0.052734375,-0.18310546875,1.3226
1.0229007633587786,0.33587786259541985,-1.4961832061068703,-0.46240234375,-0.056884765625,-0.1796875,1.3243
1.0229007633587786,0.3816793893129771,-1.6641221374045803,-0.461181640625,-0.055908203125,-0.18408203125,1.3259999999999998
0.916030534351145,0.4122137404580153,-1.251908396946565,-0.461669921875,-0.059326171875,-0.1875,1.3276999999999999
0.8244274809160306,0.32061068702290074,-1.450381679389313,-0.462158203125,-0.056396484375,-0.193603515625,1.3294
0.8396946564885496,0.5038167938931297,-1.4198473282442747,-0.45654296875,-0.05615234375,-0.1845703125,1.3311
1.0534351145038168,0.3816793893129771,-1.2213740458015268,-0.461181640625,-0.05322265625,-0.1865234375,1.3328
0.8854961832061069,0.6106870229007634,-1.3129770992366412,-0.46240234375,-0.0498046875,-0.1826171875,1.3345
0.8854961832061069,0.9007633587786259,-1.1908396946564885,-0.462646484375,-0.053955078125,-0.181396484375,1.3361999999999998
0.9312977099236641,0.7022900763358778,-1.1297709923664123,-0.45947265625,-0.052490234375,-0.18212890625,1.3378999999999999
1.2213740458015268,1.0687022900763359,-1.2061068702290076,-0.464599609375,-0.05712890625,-0.190185546875,1.3396
1.1603053435114503,1.1297709923664123,-1.282442748091603,-0.45654296875,-0.05810546875,-0.18603515625,1.3413
1.0534351145038168,1.1755725190839694,-1.2061068702290076,-0.458740234375,-0.059814453125,-0.185546875,1.343
1.297709923664122,1.297709923664122,-1.3282442748091603,-0.46337890625,-0.05615234375,-0.18408203125,1.3447
1.282442748091603,1.3282442748091603,-1.2213740458015268,-0.460693359375,-0.0576171875,-0.1884765625,1.3463999999999998
1.5267175572519085,1.4961832061068703,-1.297709923664122,-0.463134765625,-0.060302734375,-0.1796875,1.3480999999999999
1.8473282442748091,1.5725190839694656,-1.4351145038167938,-0.458251953125,-0.057861328125,-0.18603515625,1.3497999999999999
2.015267175572519,1.7557251908396947,-1.465648854961832,-0.459228515625,-0.058837890625,-0.185546875,1.3515
1.9694656488549618,1.9236641221374047,-1.4809160305343512,-0.462158203125,-0.055908203125,-0.1826171875,1.3532
1.9541984732824427,1.8625954198473282,-1.4809160305343512,-0.46240234375,-0.05517578125,-0.18603515625,1.3549
1.9236641221374047,2.0,-1.4961832061068703,-0.462158203125,-0.056396484375,-0.1787109375,1.3566
1.8473282442748091,2.030534351145038,-1.6793893129770991,-0.46044921875,-0.055908203125,-0.1865234375,1.3582999999999998
1.7709923664122138,1.9083969465648856,-1.3893129770992367,-0.459716796875,-0.05908203125,-0.180419921875,1.3599999999999999
1.9389312977099236,1.8931297709923665,-1.4351145038167938,-0.459228515625,-0.06103515625,-0.18310546875,1.3617
1.6946564885496183,1.8931297709923665,-1.465648854961832,-0.461181640625,-0.060546875,-0.1904296875,1.3634
1.8625954198473282,2.0,-1.5419847328244274,-0.45947265625,-0.058349609375,-0.183837890625,1.3651
1.8473282442748091,1.8473282442748091,-1.5877862595419847,-0.4599609375,-0.05322265625,-0.1787109375,1.3668
2.0610687022900764,1.9083969465648856,-1.5419847328244274,-0.458984375,-0.054931640625,-0.184326171875,1.3684999999999998
2.030534351145038,1.8625954198473282,-1.7404580152671756,-0.45751953125,-0.056640625,-0.187255859375,1.3701999999999999
2.2748091603053435,1.8473282442748091,-1.6641221374045803,-0.4580078125,-0.052978515625,-0.1787109375,1.3719
2.2900763358778624,1.8473282442748091,-1.5419847328244274,-0.460205078125,-0.055419921875,-0.186279296875,1.3736
2.4732824427480917,1.9694656488549618,-1.7099236641221374,-0.458740234375,-0.061279296875,-0.177490234375,1.3753
2.6106870229007635,1.8473282442748091,-1.633587786259542,-0.45751953125,-0.056884765625,-0.174560546875,1.377
2.427480916030534,1.5877862595419847,-1.816793893129771,-0.458740234375,-0.06396484375,-0.1806640625,1.3786999999999998
2.7480916030534353,1.786259541984733,-1.6793893129770991,-0.459228515625,-0.057373046875,-0.1796875,1.3803999999999998
3.1908396946564888,1.9236641221374047,-1.5267175572519085,-0.4599609375,-0.06103515625,-0.187744140625,1.3820999999999999
2.9160305343511452,1.6641221374045803,-1.3893129770992367,-0.462646484375,-0.05712890625,-0.1708984375,1.3838
3.1755725190839694,1.633587786259542,-1.5419847328244274,-0.459228515625,-0.05517578125,-0.18212890625,1.3855
3.1755725190839694,1.7251908396946565,-1.6030534351145038,-0.458984375,-0.05322265625,-0.1796875,1.3872
3.480916030534351,1.9694656488549618,-1.618320610687023,-0.46240234375,-0.060546875,-0.171630859375,1.3889
3.5877862595419847,1.8625954198473282,-1.4809160305343512,-0.461181640625,-0.055419921875,-0.190185546875,1.3905999999999998
3.6793893129770994,2.015267175572519,-1.7709923664122138,-0.459716796875,-0.053955078125,-0.1865234375,1.3922999999999999
3.7099236641221376,2.030534351145038,-1.465648854961832,-0.465087890625,-0.056884765625,-0.1787109375,1.394
3.8931297709923665,2.045801526717557,-1.633587786259542,-0.45703125,-0.055419921875,-0.178955078125,1.3957
3.954198473282443,2.1526717557251906,-1.5267175572519085,-0.457763671875,-0.059326171875,-0.181640625,1.3974
4.015267175572519,2.3206106870229006,-1.5725190839694656,-0.45947265625,-0.058837890625,-0.1826171875,1.3991
4.1679389312977095,2.2290076335877864,-1.4198473282442747,-0.460693359375,-0.0576171875,-0.187744140625,1.4007999999999998
3.7251908396946565,2.3969465648854964,-1.450381679389313,-0.4599609375,-0.05712890625,-0.1826171875,1.4024999999999999
3.801526717557252,2.427480916030534,-1.3435114503816794,-0.45654296875,-0.055419921875,-0.182861328125,1.4042
3.648854961832061,2.4732824427480917,-1.3129770992366412,-0.46435546875,-0.0546875,-0.18310546875,1.4059
3.0839694656488548,2.3969465648854964,-1.2213740458015268,-0.45947265625,-0.055908203125,-0.185302734375,1.4076
3.0076335877862594,2.4580152671755724,-1.3282442748091603,-0.462158203125,-0.052978515625,-0.186767578125,1.4093
2.900763358778626,2.427480916030534,-1.2366412213740459,-0.459716796875,-0.06005859375,-0.190673828125,1.411
2.7022900763358777,2.4885496183206106,-1.2366412213740459,-0.458984375,-0.05322265625,-0.1796875,1.4126999999999998
2.946564885496183,2.50381679389313,-1.0534351145038168,-0.45947265625,-0.06298828125,-0.182861328125,1.4143999999999999
2.900763358778626,2.549618320610687,-1.3587786259541985,-0.46044921875,-0.057373046875,-0.18212890625,1.4161
2.9770992366412212,2.7786259541984735,-1.2366412213740459,-0.46044921875,-0.05908203125,-0.18603515625,1.4178
2.9618320610687023,2.717557251908397,-1.2671755725190839,-0.45947265625,-0.055419921875,-0.18798828125,1.4195
3.2061068702290076,2.564885496183206,-1.3435114503816794,-0.45751953125,-0.060302734375,-0.188232421875,1.4212
3.053435114503817,2.6259541984732824,-1.3893129770992367,-0.45947265625,-0.060791015625,-0.18701171875,1.4228999999999998
3.114503816793893,2.8396946564885495,-1.5114503816793894,-0.45654296875,-0.063720703125,-0.18896484375,1.4245999999999999
3.435114503816794,2.732824427480916,-1.4351145038167938,-0.4560546875,-0.064697265625,-0.1845703125,1.4263
3.3282442748091605,2.7786259541984735,-1.5114503816793894,-0.4609375,-0.06298828125,-0.188232421875,1.428
3.1908396946564888,2.6717557251908395,-1.5877862595419847,-0.458984375,-0.06494140625,-0.175537109375,1.4297
3.1908396946564888,2.6106870229007635,-1.618320610687023,-0.454833984375,-0.066162109375,-0.18310546875,1.4314
3.282442748091603,2.6106870229007635,-1.8015267175572518,-0.455322265625,-0.06689453125,-0.17578125,1.4330999999999998
3.145038167938931,2.366412213740458,-1.633587786259542,-0.4580078125,-0.068115234375,-0.180908203125,1.4347999999999999
3.1908396946564888,2.4427480916030535,-1.5267175572519085,-0.457275390625,-0.0654296875,-0.17578125,1.4364999999999999
3.312977099236641,2.1526717557251906,-1.450381679389313,-0.45654296875,-0.069091796875,-0.17578125,1.4382
3.1603053435114505,2.16793893129771,-1.6793893129770991,-0.451904296875,-0.06640625,-0.176513671875,1.4399
3.282442748091603,1.8931297709923665,-1.4961832061068703,-0.45556640625,-0.059814453125,-0.184326171875,1.4416
3.236641221374046,1.9083969465648856,-1.6030534351145038,-0.454833984375,-0.060302734375,-0.18408203125,1.4433
3.0076335877862594,1.6793893129770991,-1.6030534351145038,-0.4599609375,-0.0673828125,-0.18359375,1.4449999999999998
3.2061068702290076,1.450381679389313,-1.786259541984733,-0.456298828125,-0.05810546875,-0.1904296875,1.4466999999999999
3.2977099236641223,1.5419847328244274,-1.7099236641221374,-0.458740234375,-0.059814453125,-0.18017578125,1.4484
3.3587786259541983,1.5419847328244274,-1.618320610687023,-0.45849609375,-0.064453125,-0.171142578125,1.4501
2.9770992366412212,1.3587786259541985,-1.6030534351145038,-0.455078125,-0.062255859375,-0.17822265625,1.4518
3.2519083969465647,1.5419847328244274,-1.8015267175572518,-0.4580078125,-0.065185546875,-0.178466796875,1.4535
3.3587786259541983,1.4809160305343512,-1.3587786259541985,-0.458740234375,-0.06103515625,-0.177490234375,1.4551999999999998
3.1908396946564888,1.6488549618320612,-1.4961832061068703,-0.45556640625,-0.064453125,-0.181396484375,1.4568999999999999
3.3740458015267176,1.6946564885496183,-1.6488549618320612,-0.456298828125,-0.0654296875,-0.185546875,1.4586
3.7404580152671754,1.6641221374045803,-1.4809160305343512,-0.459228515625,-0.06396484375,-0.17724609375,1.4603
3.648854961832061,1.8778625954198473,-1.4351145038167938,-0.463134765625,-0.061279296875,-0.182373046875,1.462
3.83206106870229,1.9541984732824427,-1.282442748091603,-0.462158203125,-0.0654296875,-0.18408203125,1.4637
3.9236641221374047,2.0763358778625953,-1.282442748091603,-0.45703125,-0.061767578125,-0.180908203125,1.4653999999999998
4.0,2.1526717557251906,-1.3740458015267176,-0.45947265625,-0.06201171875,-0.173583984375,1.4670999999999998
3.984732824427481,2.2442748091603053,-1.2671755725190839,-0.45947265625,-0.0625,-0.175048828125,1.4687999999999999
4.0458015267175576,2.4885496183206106,-1.2213740458015268,-0.45947265625,-0.064208984375,-0.17333984375,1.4705
4.244274809160306,2.4732824427480917,-1.083969465648855,-0.458984375,-0.070068359375,-0.175048828125,1.4722
4.183206106870229,2.4732824427480917,-1.3587786259541985,-0.462158203125,-0.069091796875,-0.17919921875,1.4739
4.244274809160306,2.5801526717557253,-1.3587786259541985,-0.45947265625,-0.060791015625,-0.184814453125,1.4756
4.5038167938931295,2.50381679389313,-1.1908396946564885,-0.46435546875,-0.060302734375,-0.178955078125,1.4772999999999998
4.1679389312977095,2.564885496183206,-1.2061068702290076,-0.454345703125,-0.06591796875,-0.171630859375,1.4789999999999999
3.969465648854962,2.381679389312977,-1.1755725190839694,-0.458984375,-0.065185546875,-0.181396484375,1.4807
4.259541984732825,2.4122137404580153,-1.3129770992366412,-0.4619140625,-0.066162109375,-0.177490234375,1.4824
3.954198473282443,2.519083969465649,-1.3893129770992367,-0.45556640625,-0.06884765625,-0.176025390625,1.4841
3.954198473282443,2.427480916030534,-1.4045801526717556,-0.45654296875,-0.06787109375,-0.175537109375,1.4858
3.816793893129771,2.213740458015267,-1.465648854961832,-0.453857421875,-0.071044921875,-0.178466796875,1.4874999999999998
3.66412213740458,2.198473282442748,-1.4198473282442747,-0.457275390625,-0.070068359375,-0.173828125,1.4891999999999999
3.49618320610687,2.1526717557251906,-1.3129770992366412,-0.456298828125,-0.0693359375,-0.177490234375,1.4909
3.2977099236641223,2.015267175572519,-1.251908396946565,-0.459716796875,-0.065673828125,-0.17822265625,1.4926
3.312977099236641,1.9389312977099236,-1.297709923664122,-0.45263671875,-0.071044921875,-0.17626953125,1.4943
3.0839694656488548,1.7709923664122138,-1.0381679389312977,-0.455078125,-0.0703125,-0.18310546875,1.496
3.099236641221374,1.7251908396946565,-1.297709923664122,-0.45556640625,-0.066162109375,-0.177490234375,1.4976999999999998
2.9770992366412212,1.6641221374045803,-1.4045801526717556,-0.463134765625,-0.07568359375,-0.17626953125,1.4993999999999998
2.6717557251908395,1.4809160305343512,-1.3587786259541985,-0.46240234375,-0.068115234375,-0.18603515625,1.5010999999999999
2.8396946564885495,1.5725190839694656,-1.3435114503816794,-0.4609375,-0.0712890625,-0.180419921875,1.5028
2.6106870229007635,1.5419847328244274,-1.2061068702290076,-0.45947265625,-0.0703125,-0.170166015625,1.5045
2.6564885496183206,1.4198473282442747,-1.2366412213740459,-0.45361328125,-0.067626953125,-0.181396484375,1.5062
2.6106870229007635,1.3435114503816794,-1.2366412213740459,-0.45703125,-0.070556640625,-0.175048828125,1.5079
2.4885496183206106,1.3893129770992367,-1.3129770992366412,-0.46142578125,-0.068115234375,-0.178955078125,1.5095999999999998
2.2748091603053435,1.4198473282442747,-1.5877862595419847,-0.45458984375,-0.06787109375,-0.1767578125,1.5112999999999999
2.427480916030534,1.5419847328244274,-1.6488549618320612,-0.45361328125,-0.073974609375,-0.171630859375,1.513
2.4732824427480917,1.5877862595419847,-1.3893129770992367,-0.45703125,-0.073486328125,-0.18017578125,1.5147
2.519083969465649,1.5114503816793894,-1.450381679389313,-0.45703125,-0.070556640625,-0.17919921875,1.5164
2.366412213740458,1.5877862595419847,-1.5114503816793894,-0.458984375,-0.06689453125,-0.188720703125,1.5181
2.351145038167939,1.8015267175572518,-1.7557251908396947,-0.45703125,-0.069091796875,-0.17919921875,1.5197999999999998
2.4732824427480917,1.7404580152671756,-1.5267175572519085,-0.46044921875,-0.06884765625,-0.176025390625,1.5214999999999999
2.4732824427480917,1.6641221374045803,-1.618320610687023,-0.455078125,-0.0703125,-0.185546875,1.5231999999999999
2.687022900763359,1.9389312977099236,-1.3740458015267176,-0.454833984375,-0.06787109375,-0.178955078125,1.5249
2.7022900763358777,2.030534351145038,-1.83206106870229,-0.451904296875,-0.06982421875,-0.173828125,1.5266
2.8244274809160306,2.030534351145038,-1.6641221374045803,-0.45751953125,-0.06396484375,-0.177490234375,1.5283
2.6106870229007635,2.0,-1.5725190839694656,-0.460205078125,-0.062255859375,-0.17138671875,1.5299999999999998
2.7022900763358777,2.0916030534351147,-1.5725190839694656,-0.45947265625,-0.061279296875,-0.175537109375,1.5316999999999998
2.7786259541984735,2.351145038167939,-1.7099236641221374,-0.46044921875,-0.064453125,-0.181640625,1.5333999999999999
2.7480916030534353,2.351145038167939,-1.5877862595419847,-0.4609375,-0.066162109375,-0.173828125,1.5351
2.6717557251908395,2.2748091603053435,-1.3282442748091603,-0.460205078125,-0.06298828125,-0.17724609375,1.5368
2.9923664122137406,2.0763358778625953,-1.5725190839694656,-0.458251953125,-0.064697265625,-0.17431640625,1.5385
2.9160305343511452,2.183206106870229,-1.450381679389313,-0.460205078125,-0.065185546875,-0.170654296875,1.5402
3.068702290076336,2.16793893129771,-1.3740458015267176,-0.45947265625,-0.062744140625,-0.178466796875,1.5418999999999998
3.053435114503817,2.1374045801526718,-1.3893129770992367,-0.4609375,-0.062744140625,-0.1767578125,1.5435999999999999
2.8396946564885495,2.0610687022900764,-1.4961832061068703,-0.46142578125,-0.066162109375,-0.17822265625,1.5453
2.9770992366412212,2.1068702290076335,-1.4198473282442747,-0.45556640625,-0.059326171875,-0.163818359375,1.547
2.900763358778626,2.015267175572519,-1.3893129770992367,-0.454833984375,-0.063720703125,-0.17138671875,1.5487
2.946564885496183,1.8778625954198473,-1.450381679389313,-0.4599609375,-0.059814453125,-0.17041015625,1.5504
3.0839694656488548,1.816793893129771,-1.3893129770992367,-0.453125,-0.068115234375,-0.1728515625,1.5520999999999998
2.9770992366412212,1.6946564885496183,-1.4198473282442747,-0.45654296875,-0.0625,-0.17138671875,1.5537999999999998
3.0076335877862594,1.83206106870229,-1.0229007633587786,-0.45703125,-0.06396484375,-0.169677734375,1.5554999999999999
3.3282442748091605,1.7709923664122138,-1.083969465648855,-0.456298828125,-0.0625,-0.17919921875,1.5572
3.3893129770992365,1.8931297709923665,-0.9770992366412213,-0.457763671875,-0.065673828125,-0.174560546875,1.5589
3.3893129770992365,1.7557251908396947,-0.9465648854961832,-0.45751953125,-0.06494140625,-0.176025390625,1.5606
3.480916030534351,1.8778625954198473,-0.7938931297709924,-0.457275390625,-0.066650390625,-0.172607421875,1.5623
3.5877862595419847,1.786259541984733,-0.8396946564885496,-0.45166015625,-0.06201171875,-0.1796875,1.5639999999999998
3.633587786259542,1.9694656488549618,-0.7175572519083969,-0.453369140625,-0.06787109375,-0.182861328125,1.5656999999999999
3.801526717557252,2.1526717557251906,-0.7022900763358778,-0.45654296875,-0.067626953125,-0.173583984375,1.5674
3.984732824427481,2.2748091603053435,-0.6717557251908397,-0.456787109375,-0.069580078125,-0.179931640625,1.5691
4.0,2.2748091603053435,-0.6412213740458015,-0.450439453125,-0.065673828125,-0.175048828125,1.5708
4.229007633587786,2.2900763358778624,-0.7175572519083969,-0.45361328125,-0.064208984375,-0.183349609375,1.5725
4.2748091603053435,2.427480916030534,-0.5954198473282443,-0.455810546875,-0.065185546875,-0.178955078125,1.5741999999999998
4.2748091603053435,2.7022900763358777,-0.42748091603053434,-0.451416015625,-0.066650390625,-0.178466796875,1.5758999999999999
4.366412213740458,2.6259541984732824,-0.6412213740458015,-0.4521484375,-0.069091796875,-0.185302734375,1.5776
4.198473282442748,2.595419847328244,-0.5648854961832062,-0.450927734375,-0.06689453125,-0.179443359375,1.5793
4.290076335877862,2.8396946564885495,-0.6412213740458015,-0.458984375,-0.064453125,-0.175048828125,1.581
4.229007633587786,3.053435114503817,-0.5954198473282443,-0.452392578125,-0.0732421875,-0.180908203125,1.5827
4.5038167938931295,2.854961832061069,-0.6564885496183206,-0.455078125,-0.0712890625,-0.1708984375,1.5843999999999998
4.183206106870229,3.145038167938931,-0.6106870229007634,-0.4521484375,-0.07080078125,-0.173828125,1.5860999999999998
4.442748091603053,3.053435114503817,-0.8854961832061069,-0.451904296875,-0.067626953125,-0.1728515625,1.5877999999999999
4.3816793893129775,3.0229007633587788,-0.8549618320610687,-0.453125,-0.069091796875,-0.176025390625,1.5895
4.259541984732825,2.9618320610687023,-0.9770992366412213,-0.453857421875,-0.068603515625,-0.1748046875,1.5912
4.183206106870229,2.9923664122137406,-0.8549618320610687,-0.449462890625,-0.068115234375,-0.170654296875,1.5929
4.366412213740458,2.8091603053435112,-1.1603053435114503,-0.446533203125,-0.067626953125,-0.16845703125,1.5946
4.198473282442748,2.5343511450381677,-1.1297709923664123,-0.456298828125,-0.072265625,-0.1728515625,1.5962999999999998
4.259541984732825,2.6564885496183206,-1.2213740458015268,-0.453369140625,-0.069091796875,-0.172119140625,1.5979999999999999
4.0458015267175576,2.4122137404580153,-1.0534351145038168,-0.4560546875,-0.0673828125,-0.17333984375,1.5997
3.816793893129771,2.33587786259542,-1.1297709923664123,-0.4521484375,-0.070068359375,-0.173095703125,1.6014
3.9389312977099236,2.3053435114503817,-1.0687022900763359,-0.45556640625,-0.0693359375,-0.177490234375,1.6031
3.7099236641221376,2.183206106870229,-1.1908396946564885,-0.44921875,-0.0732421875,-0.171142578125,1.6048
3.618320610687023,2.1068702290076335,-1.2213740458015268,-0.456298828125,-0.07421875,-0.1875,1.6064999999999998
3.6030534351145036,1.984732824427481,-1.2213740458015268,-0.458251953125,-0.07373046875,-0.176025390625,1.6081999999999999
3.267175572519084,1.9236641221374047,-1.1908396946564885,-0.455322265625,-0.06884765625,-0.174560546875,1.6098999999999999
2.946564885496183,1.5877862595419847,-1.1450381679389312,-0.455810546875,-0.064453125,-0.175048828125,1.6116
3.1908396946564888,1.7099236641221374,-1.0229007633587786,-0.44775390625,-0.0771484375,-0.188232421875,1.6133
2.8396946564885495,1.786259541984733,-1.4809160305343512,-0.451416015625,-0.07470703125,-0.177001953125,1.615
2.7480916030534353,1.5725190839694656,-1.4198473282442747,-0.447509765625,-0.08056640625,-0.179931640625,1.6166999999999998
2.854961832061069,1.6793893129770991,-1.4045801526717556,-0.449462890625,-0.069091796875,-0.184814453125,1.6183999999999998
2.885496183206107,1.6946564885496183,-1.3282442748091603,-0.44970703125,-0.072265625,-0.1787109375,1.6200999999999999
2.7938931297709924,1.5725190839694656,-1.297709923664122,-0.45068359375,-0.0751953125,-0.185302734375,1.6218
2.732824427480916,1.816793893129771,-1.3740458015267176,-0.45556640625,-0.0703125,-0.17919921875,1.6235
2.8702290076335877,1.83206106870229,-1.618320610687023,-0.452880859375,-0.0712890625,-0.177734375,1.6252
2.7480916030534353,1.7557251908396947,-1.4809160305343512,-0.451416015625,-0.07080078125,-0.176025390625,1.6269
2.4885496183206106,1.786259541984733,-1.7099236641221374,-0.454345703125,-0.068359375,-0.175048828125,1.6285999999999998
2.4427480916030535,2.1068702290076335,-1.297709923664122,-0.457275390625,-0.0703125,-0.17138671875,1.6302999999999999
2.4885496183206106,1.984732824427481,-1.633587786259542,-0.45556640625,-0.065185546875,-0.170166015625,1.632
2.3053435114503817,2.0610687022900764,-1.450381679389313,-0.454833984375,-0.06884765625,-0.16455078125,1.6337
2.3206106870229006,1.8625954198473282,-1.5877862595419847,-0.458251953125,-0.064453125,-0.171630859375,1.6354
2.16793893129771,1.8015267175572518,-1.5114503816793894,-0.449462890625,-0.074951171875,-0.1767578125,1.6371
2.0610687022900764,1.6946564885496183,-1.4961832061068703,-0.447998046875,-0.072509765625,-0.177734375,1.6387999999999998
2.0610687022900764,1.786259541984733,-1.6793893129770991,-0.453125,-0.067626953125,-0.17919921875,1.6404999999999998
2.16793893129771,1.8625954198473282,-1.7404580152671756,-0.455322265625,-0.0693359375,-0.175537109375,1.6421999999999999
2.33587786259542,1.7709923664122138,-1.633587786259542,-0.452880859375,-0.0703125,-0.185546875,1.6439
1.984732824427481,1.7709923664122138,-1.6793893129770991,-0.451416015625,-0.0673828125,-0.17236328125,1.6456
1.9083969465648856,1.7404580152671756,-1.5267175572519085,-0.45166015625,-0.066650390625,-0.17431640625,1.6473
2.16793893129771,1.5725190839694656,-1.5877862595419847,-0.445556640625,-0.066650390625,-0.18310546875,1.6489999999999998
1.8931297709923665,1.297709923664122,-1.6641221374045803,-0.45556640625,-0.0634765625,-0.17626953125,1.6506999999999998
1.7557251908396947,1.4351145038167938,-1.7557251908396947,-0.45556640625,-0.065673828125,-0.177001953125,1.6523999999999999
1.8931297709923665,1.3282442748091603,-1.5114503816793894,-0.45458984375,-0.064208984375,-0.170654296875,1.6541
1.9694656488549618,1.1145038167938932,-1.6641221374045803,-0.45556640625,-0.0693359375,-0.172119140625,1.6558
1.633587786259542,0.9007633587786259,-1.633587786259542,-0.4599609375,-0.069091796875,-0.1806640625,1.6575
1.7557251908396947,0.8854961832061069,-1.6641221374045803,-0.453125,-0.064208984375,-0.1787109375,1.6592
1.786259541984733,0.5801526717557252,-1.5877862595419847,-0.453125,-0.063232421875,-0.179443359375,1.6608999999999998
1.4961832061068703,0.732824427480916,-1.5419847328244274,-0.456298828125,-0.069091796875,-0.177001953125,1.6625999999999999
1.6946564885496183,0.5190839694656488,-1.450381679389313,-0.4560546875,-0.064453125,-0.179931640625,1.6643
1.8015267175572518,0.3511450381679389,-1.4351145038167938,-0.455322265625,-0.0625,-0.180419921875,1.666
2.0610687022900764,0.5190839694656488,-1.297709923664122,-0.457763671875,-0.0634765625,-0.1845703125,1.6677
2.0763358778625953,0.3969465648854962,-1.282442748091603,-0.454345703125,-0.066650390625,-0.1865234375,1.6694
2.1374045801526718,0.3969465648854962,-1.2213740458015268,-0.45361328125,-0.0703125,-0.17822265625,1.6710999999999998
1.816793893129771,0.42748091603053434,-1.3129770992366412,-0.45556640625,-0.0673828125,-0.1826171875,1.6727999999999998
1.9236641221374047,0.366412213740458,-1.3435114503816794,-0.448974609375,-0.064453125,-0.18603515625,1.6744999999999999
1.8473282442748091,0.44274809160305345,-1.2213740458015268,-0.45849609375,-0.069580078125,-0.17919921875,1.6762
2.0610687022900764,0.6106870229007634,-1.1450381679389312,-0.456298828125,-0.064453125,-0.183837890625,1.6779
2.16793893129771,0.5648854961832062,-1.3282442748091603,-0.460205078125,-0.06640625,-0.1845703125,1.6796
2.0916030534351147,0.6870229007633588,-1.465648854961832,-0.45556640625,-0.06005859375,-0.180419921875,1.6813
2.122137404580153,0.6259541984732825,-1.2366412213740459,-0.454345703125,-0.066162109375,-0.180908203125,1.6829999999999998
2.351145038167939,0.6717557251908397,-1.4351145038167938,-0.45166015625,-0.069091796875,-0.16845703125,1.6846999999999999
2.1526717557251906,0.8854961832061069,-1.3587786259541985,-0.457275390625,-0.066650390625,-0.173095703125,1.6864
2.2900763358778624,0.916030534351145,-1.4961832061068703,-0.459228515625,-0.0673828125,-0.1806640625,1.6881
2.3053435114503817,0.8091603053435115,-1.5572519083969465,-0.4560546875,-0.066650390625,-0.174560546875,1.6898
2.4732824427480917,0.9618320610687023,-1.4198473282442747,-0.45703125,-0.067626953125,-0.171630859375,1.6915
2.3969465648854964,1.1755725190839694,-1.5267175572519085,-0.45751953125,-0.06787109375,-0.176025390625,1.6931999999999998
2.213740458015267,0.9618320610687023,-1.465648854961832,-0.456298828125,-0.06689453125,-0.18505859375,1.6948999999999999
2.595419847328244,1.083969465648855,-1.465648854961832,-0.455810546875,-0.0703125,-0.18115234375,1.6965999999999999
2.4885496183206106,1.282442748091603,-1.618320610687023,-0.457763671875,-0.06591796875,-0.184814453125,1.6983
2.3206106870229006,1.2366412213740459,-1.5114503816793894,-0.45947265625,-0.072265625,-0.175048828125,1.7
2.5343511450381677,0.916030534351145,-1.618320610687023,-0.463134765625,-0.0732421875,-0.174072265625,1.7017
2.595419847328244,1.1450381679389312,-1.7251908396946565,-0.454345703125,-0.07470703125,-0.178955078125,1.7033999999999998
2.3969465648854964,1.1603053435114503,-1.6030534351145038,-0.4599609375,-0.072021484375,-0.18017578125,1.7050999999999998
2.3206106870229006,1.099236641221374,-1.5572519083969465,-0.45947265625,-0.06591796875,-0.180908203125,1.7067999999999999
2.16793893129771,0.9465648854961832,-1.7557251908396947,-0.458251953125,-0.0703125,-0.178466796875,1.7085
2.045801526717557,1.099236641221374,-1.6946564885496183,-0.456298828125,-0.06884765625,-0.177978515625,1.7102
2.0,0.9923664122137404,-2.045801526717557,-0.454833984375,-0.070068359375,-0.173095703125,1.7119
1.7404580152671756,0.9770992366412213,-1.6946564885496183,-0.46142578125,-0.068603515625,-0.176513671875,1.7136
1.8931297709923665,1.0381679389312977,-1.7557251908396947,-0.45947265625,-0.069091796875,-0.181640625,1.7152999999999998
1.7251908396946565,1.0687022900763359,-1.9389312977099236,-0.456298828125,-0.069091796875,-0.18017578125,1.7169999999999999
1.5114503816793894,0.9465648854961832,-1.8625954198473282,-0.454833984375,-0.064453125,-0.1748046875,1.7187
1.6641221374045803,0.9618320610687023,-1.9236641221374047,-0.45703125,-0.06884765625,-0.18359375,1.7204
1.5877862595419847,0.916030534351145,-2.015267175572519,-0.455078125,-0.066162109375,-0.17822265625,1.7221
1.1908396946564885,1.0229007633587786,-2.030534351145038,-0.457763671875,-0.0693359375,-0.17578125,1.7238
0.9618320610687023,0.8396946564885496,-1.984732824427481,-0.457275390625,-0.0693359375,-0.179931640625,1.7254999999999998
1.099236641221374,0.916030534351145,-1.9541984732824427,-0.46142578125,-0.065673828125,-0.177734375,1.7271999999999998
1.0534351145038168,0.7480916030534351,-2.0610687022900764,-0.45458984375,-0.06689453125,-0.185791015625,1.7288999999999999
0.9465648854961832,0.5648854961832062,-2.519083969465649,-0.4560546875,-0.0673828125,-0.1796875,1.7306
0.916030534351145,0.732824427480916,-2.1526717557251906,-0.451904296875,-0.061279296875,-0.176025390625,1.7323
0.7786259541984732,0.5343511450381679,-1.9694656488549618,-0.452880859375,-0.069091796875,-0.17724609375,1.734
0.6106870229007634,0.32061068702290074,-2.045801526717557,-0.458251953125,-0.061279296875,-0.182861328125,1.7356999999999998
0.42748091603053434,0.2900763358778626,-2.015267175572519,-0.454833984375,-0.062744140625,-0.173095703125,1.7373999999999998
0.3511450381679389,0.183206106870229,-2.015267175572519,-0.45703125,-0.065673828125,-0.1787109375,1.7390999999999999
0.5190839694656488,0.04580152671755725,-2.1374045801526718,-0.457275390625,-0.06494140625,-0.182861328125,1.7408
0.6564885496183206,0.07633587786259542,-2.0916030534351147,-0.46240234375,-0.063720703125,-0.185546875,1.7425
0.6106870229007634,-0.13740458015267176,-1.9541984732824427,-0.460205078125,-0.060791015625,-0.18994140625,1.7442
0.9618320610687023,0.061068702290076333,-2.0916030534351147,-0.45849609375,-0.065185546875,-0.17919921875,1.7459
1.251908396946565,0.16793893129770993,-1.9541984732824427,-0.45947265625,-0.065673828125,-0.18994140625,1.7475999999999998
1.0381679389312977,0.3053435114503817,-1.984732824427481,-0.455322265625,-0.05908203125,-0.18701171875,1.7492999999999999
1.099236641221374,0.3816793893129771,-2.015267175572519,-0.460205078125,-0.055908203125,-0.188232421875,1.751
1.3587786259541985,0.3969465648854962,-1.8473282442748091,-0.462890625,-0.060791015625,-0.183837890625,1.7527
1.4809160305343512,0.6259541984732825,-1.633587786259542,-0.465576171875,-0.060302734375,-0.17822265625,1.7544
1.5572519083969465,0.7175572519083969,-1.6641221374045803,-0.45947265625,-0.060791015625,-0.179931640625,1.7561
1.450381679389313,0.6870229007633588,-1.6030534351145038,-0.4599609375,-0.060791015625,-0.180908203125,1.7577999999999998
1.3587786259541985,0.916030534351145,-1.7557251908396947,-0.459716796875,-0.06640625,-0.176025390625,1.7594999999999998
1.3282442748091603,1.4351145038167938,-1.4198473282442747,-0.46240234375,-0.062744140625,-0.179931640625,1.7611999999999999
1.3587786259541985,1.3740458015267176,-1.4198473282442747,-0.457275390625,-0.06298828125,-0.18603515625,1.7629
1.4045801526717556,1.5267175572519085,-1.4198473282442747,-0.45849609375,-0.0576171875,-0.18798828125,1.7646
1.1450381679389312,1.5267175572519085,-1.5419847328244274,-0.458251953125,-0.06298828125,-0.18115234375,1.7663
1.2671755725190839,1.5877862595419847,-1.297709923664122,-0.46484375,-0.056884765625,-0.17724609375,1.7679999999999998
1.1755725190839694,1.633587786259542,-1.6488549618320612,-0.45947265625,-0.060302734375,-0.18310546875,1.7696999999999998
0.8396946564885496,1.5419847328244274,-1.4961832061068703,-0.4619140625,-0.0615234375,-0.190185546875,1.7713999999999999
0.5954198473282443,1.5572519083969465,-1.4961832061068703,-0.460693359375,-0.058349609375,-0.182861328125,1.7731
0.5190839694656488,1.5114503816793894,-1.4351145038167938,-0.45849609375,-0.0625,-0.177490234375,1.7748
0.5648854961832062,1.6030534351145038,-1.4351145038167938,-0.4619140625,-0.0576171875,-0.18359375,1.7765
0.21374045801526717,1.6030534351145038,-1.2366412213740459,-0.458740234375,-0.0595703125,-0.186279296875,1.7782
0.12213740458015267,1.7557251908396947,-1.5572519083969465,-0.457763671875,-0.061279296875,-0.173583984375,1.7798999999999998
-0.030534351145038167,1.3282442748091603,-1.2061068702290076,-0.457763671875,-0.060302734375,-0.1845703125,1.7815999999999999
-0.030534351145038167,1.1450381679389312,-1.3282442748091603,-0.456787109375,-0.062744140625,-0.18115234375,1.7832999999999999
-0.33587786259541985,1.3129770992366412,-1.282442748091603,-0.46484375,-0.067138671875,-0.181640625,1.785
-0.3053435114503817,0.9770992366412213,-1.2061068702290076,-0.45556640625,-0.067138671875,-0.18505859375,1.7867
-0.21374045801526717,1.0229007633587786,-1.2061068702290076,-0.4560546875,-0.071044921875,-0.181884765625,1.7884
-0.33587786259541985,1.1755725190839694,-1.4809160305343512,-0.460205078125,-0.0703125,-0.177490234375,1.7900999999999998
