gyrox1,gyroy1,gyroz1,accelx1,accely1,accelz1,Time
-0.7633587786259542,0.24427480916030533,-0.22900763358778625,-0.429443359375,0.036376953125,-0.283447265625,0.0
-0.9465648854961832,0.3816793893129771,-0.24427480916030533,-0.430908203125,0.03369140625,-0.291259765625,0.0017
-0.8702290076335878,0.33587786259541985,-0.16793893129770993,-0.434326171875,0.0322265625,-0.294189453125,0.0034
-0.8396946564885496,0.3816793893129771,-0.21374045801526717,-0.42822265625,0.032470703125,-0.2919921875,0.0050999999999999995
-0.8396946564885496,0.24427480916030533,-0.0916030534351145,-0.435302734375,0.03759765625,-0.290771484375,0.0068
-1.0076335877862594,0.48854961832061067,-0.2748091603053435,-0.437744140625,0.03515625,-0.292236328125,0.008499999999999999
-0.9007633587786259,0.6717557251908397,-0.04580152671755725,-0.430908203125,0.031494140625,-0.29052734375,0.010199999999999999
-1.0381679389312977,0.7022900763358778,-0.16793893129770993,-0.430419921875,0.030517578125,-0.294677734375,0.011899999999999999
-1.297709923664122,0.6259541984732825,0.13740458015267176,-0.43115234375,0.034912109375,-0.29345703125,0.0136
-1.1450381679389312,0.6106870229007634,0.0916030534351145,-0.43212890625,0.032470703125,-0.29150390625,0.0153
-1.2061068702290076,0.5801526717557252,0.13740458015267176,-0.4287109375,0.035888671875,-0.28759765625,0.016999999999999998
-1.4045801526717556,0.7175572519083969,-0.030534351145038167,-0.431884765625,0.03369140625,-0.297119140625,0.018699999999999998
-1.4045801526717556,0.6106870229007634,0.10687022900763359,-0.4228515625,0.031982421875,-0.293701171875,0.020399999999999998
-1.3893129770992367,0.5801526717557252,0.10687022900763359,-0.42431640625,0.031982421875,-0.293701171875,0.022099999999999998
-1.7251908396946565,0.7175572519083969,0.04580152671755725,-0.42822265625,0.038330078125,-0.292724609375,0.023799999999999998
-1.618320610687023,0.6564885496183206,0.21374045801526717,-0.428466796875,0.032958984375,-0.289306640625,0.0255
-1.633587786259542,0.7633587786259542,0.2900763358778626,-0.43017578125,0.033447265625,-0.2939453125,0.0272
-1.8015267175572518,0.6106870229007634,-0.1984732824427481,-0.42724609375,0.03759765625,-0.29443359375,0.0289
-1.8625954198473282,0.8091603053435115,0.2900763358778626,-0.426513671875,0.03564453125,-0.29052734375,0.0306
-1.9541984732824427,0.8854961832061069,0.24427480916030533,-0.428466796875,0.034912109375,-0.2958984375,0.032299999999999995
-2.0916030534351147,0.7938931297709924,0.22900763358778625,-0.433837890625,0.0322265625,-0.291259765625,0.033999999999999996
-2.122137404580153,0.7175572519083969,0.15267175572519084,-0.426025390625,0.03173828125,-0.29541015625,0.035699999999999996
-2.015267175572519,0.7480916030534351,0.2900763358778626,-0.42578125,0.0390625,-0.290771484375,0.037399999999999996
-2.1068702290076335,0.8091603053435115,-0.0916030534351145,-0.425537109375,0.044921875,-0.286865234375,0.039099999999999996
-2.213740458015267,0.7480916030534351,0.22900763358778625,-0.4208984375,0.037109375,-0.289306640625,0.040799999999999996
-2.3969465648854964,0.7786259541984732,0.15267175572519084,-0.428955078125,0.03271484375,-0.29638671875,0.042499999999999996
-2.4580152671755724,0.7938931297709924,0.10687022900763359,-0.422607421875,0.03271484375,-0.290771484375,0.044199999999999996
-2.3969465648854964,0.5954198473282443,0.0916030534351145,-0.426025390625,0.031494140625,-0.2900390625,0.045899999999999996
-2.427480916030534,0.6412213740458015,0.07633587786259542,-0.42236328125,0.035888671875,-0.290771484375,0.047599999999999996
-2.5801526717557253,0.6106870229007634,-0.15267175572519084,-0.42578125,0.038330078125,-0.29150390625,0.0493
-2.5801526717557253,0.5801526717557252,0.12213740458015267,-0.42431640625,0.03662109375,-0.2919921875,0.051
-2.732824427480916,0.3511450381679389,-0.04580152671755725,-0.429443359375,0.03466796875,-0.294189453125,0.0527
-2.6717557251908395,0.5343511450381679,0.0,-0.4267578125,0.037841796875,-0.290771484375,0.0544
-2.717557251908397,0.4580152671755725,0.030534351145038167,-0.428466796875,0.0390625,-0.29443359375,0.0561
-2.732824427480916,0.2748091603053435,-0.2748091603053435,-0.42578125,0.040771484375,-0.29052734375,0.0578
-2.8702290076335877,0.33587786259541985,-0.2595419847328244,-0.427490234375,0.0341796875,-0.29833984375,0.0595
-2.7938931297709924,0.366412213740458,-0.07633587786259542,-0.429443359375,0.0380859375,-0.2939453125,0.0612
-3.145038167938931,0.3969465648854962,-0.2748091603053435,-0.428955078125,0.0361328125,-0.29443359375,0.0629
-3.1755725190839694,0.16793893129770993,-0.16793893129770993,-0.427001953125,0.03564453125,-0.294677734375,0.06459999999999999
-3.1908396946564888,0.13740458015267176,-0.22900763358778625,-0.425537109375,0.03662109375,-0.288818359375,0.0663
-3.053435114503817,0.22900763358778625,-0.0916030534351145,-0.4267578125,0.037109375,-0.29248046875,0.06799999999999999
-3.236641221374046,0.24427480916030533,-0.2595419847328244,-0.433349609375,0.038818359375,-0.29638671875,0.0697
-3.282442748091603,0.13740458015267176,-0.12213740458015267,-0.429443359375,0.041259765625,-0.288330078125,0.07139999999999999
-3.480916030534351,0.21374045801526717,-0.366412213740458,-0.43359375,0.03857421875,-0.2841796875,0.0731
-3.480916030534351,0.015267175572519083,-0.22900763358778625,-0.427734375,0.04296875,-0.296630859375,0.07479999999999999
-3.5114503816793894,0.015267175572519083,-0.15267175572519084,-0.429931640625,0.0390625,-0.29296875,0.0765
-3.312977099236641,0.183206106870229,-0.061068702290076333,-0.429443359375,0.039794921875,-0.294189453125,0.07819999999999999
-3.572519083969466,0.183206106870229,-0.4122137404580153,-0.43017578125,0.0400390625,-0.291259765625,0.0799
-3.5267175572519083,0.015267175572519083,-0.183206106870229,-0.42431640625,0.037353515625,-0.294677734375,0.08159999999999999
-3.6793893129770994,-0.07633587786259542,-0.24427480916030533,-0.42822265625,0.039794921875,-0.29296875,0.0833
-3.969465648854962,0.10687022900763359,-0.1984732824427481,-0.430908203125,0.041015625,-0.291748046875,0.08499999999999999
-3.7099236641221376,0.04580152671755725,-0.3053435114503817,-0.427001953125,0.032958984375,-0.289794921875,0.0867
-3.786259541984733,-0.0916030534351145,-0.3816793893129771,-0.4287109375,0.031494140625,-0.292236328125,0.08839999999999999
-3.969465648854962,0.061068702290076333,-0.33587786259541985,-0.427001953125,0.038330078125,-0.292724609375,0.0901
-4.122137404580153,-0.12213740458015267,-0.183206106870229,-0.432861328125,0.03466796875,-0.301513671875,0.09179999999999999
-4.0,-0.015267175572519083,-0.21374045801526717,-0.43212890625,0.04150390625,-0.295166015625,0.0935
-3.8473282442748094,0.04580152671755725,-0.13740458015267176,-0.427001953125,0.041748046875,-0.2939453125,0.09519999999999999
-4.290076335877862,0.0,-0.2748091603053435,-0.428955078125,0.039306640625,-0.291259765625,0.0969
-4.183206106870229,0.015267175572519083,-0.10687022900763359,-0.43408203125,0.03564453125,-0.293212890625,0.0986
-4.137404580152672,-0.061068702290076333,-0.22900763358778625,-0.432861328125,0.0380859375,-0.292236328125,0.1003
-4.198473282442748,0.0916030534351145,-0.22900763358778625,-0.43017578125,0.0390625,-0.30029296875,0.102
-4.229007633587786,0.12213740458015267,-0.3969465648854962,-0.427734375,0.03955078125,-0.294189453125,0.1037
-4.305343511450381,-0.030534351145038167,-0.33587786259541985,-0.427001953125,0.0419921875,-0.298583984375,0.1054
-4.198473282442748,0.16793893129770993,-0.4732824427480916,-0.4287109375,0.037353515625,-0.287109375,0.1071
-4.152671755725191,0.16793893129770993,-0.44274809160305345,-0.43017578125,0.04052734375,-0.288818359375,0.1088
-4.488549618320611,0.04580152671755725,-0.5954198473282443,-0.43115234375,0.042724609375,-0.292724609375,0.11049999999999999
-4.305343511450381,0.15267175572519084,-0.7480916030534351,-0.427001953125,0.040771484375,-0.28515625,0.1122
-4.3816793893129775,0.030534351145038167,-0.6106870229007634,-0.4326171875,0.042236328125,-0.28076171875,0.11389999999999999
-4.366412213740458,0.16793893129770993,-0.7022900763358778,-0.430908203125,0.04345703125,-0.287841796875,0.1156
-4.396946564885496,0.16793893129770993,-0.7022900763358778,-0.42822265625,0.04052734375,-0.29150390625,0.11729999999999999
-4.152671755725191,-0.061068702290076333,-0.9618320610687023,-0.431396484375,0.0458984375,-0.29345703125,0.119
-4.396946564885496,0.12213740458015267,-1.0076335877862594,-0.4248046875,0.0498046875,-0.28515625,0.12069999999999999
-4.351145038167939,0.22900763358778625,-0.9770992366412213,-0.426513671875,0.0390625,-0.28857421875,0.1224
-4.183206106870229,-0.2595419847328244,-1.0381679389312977,-0.423583984375,0.0361328125,-0.283447265625,0.12409999999999999
-4.366412213740458,-0.183206106870229,-1.1297709923664123,-0.424560546875,0.040283203125,-0.287109375,0.1258
-4.305343511450381,-0.22900763358778625,-0.9312977099236641,-0.425048828125,0.042236328125,-0.288818359375,0.1275
-4.198473282442748,-0.3053435114503817,-1.099236641221374,-0.428955078125,0.04443359375,-0.290283203125,0.12919999999999998
-4.473282442748092,-0.1984732824427481,-1.0229007633587786,-0.427490234375,0.044189453125,-0.287109375,0.1309
-4.229007633587786,-0.15267175572519084,-0.9618320610687023,-0.4287109375,0.041748046875,-0.27978515625,0.1326
-4.152671755725191,-0.32061068702290074,-1.2061068702290076,-0.43017578125,0.044677734375,-0.2900390625,0.1343
-4.2748091603053435,-0.3969465648854962,-1.099236641221374,-0.4287109375,0.041015625,-0.29541015625,0.13599999999999998
-4.0,-0.183206106870229,-1.2061068702290076,-0.427001953125,0.04638671875,-0.294677734375,0.1377
-4.137404580152672,-0.13740458015267176,-1.1145038167938932,-0.43115234375,0.046875,-0.282958984375,0.1394
-4.259541984732825,-0.04580152671755725,-1.2366412213740459,-0.43115234375,0.04541015625,-0.2841796875,0.1411
-4.0458015267175576,-0.24427480916030533,-1.4351145038167938,-0.427978515625,0.046875,-0.298583984375,0.14279999999999998
-4.0,0.0,-1.6030534351145038,-0.431884765625,0.04736328125,-0.289306640625,0.1445
-3.969465648854962,0.015267175572519083,-1.5267175572519085,-0.431396484375,0.04541015625,-0.2919921875,0.1462
-3.9236641221374047,-0.061068702290076333,-1.6030534351145038,-0.432373046875,0.047119140625,-0.29150390625,0.1479
-3.9083969465648853,-0.030534351145038167,-1.5725190839694656,-0.429443359375,0.04345703125,-0.284912109375,0.14959999999999998
-3.9236641221374047,0.15267175572519084,-1.6488549618320612,-0.425537109375,0.043212890625,-0.2890625,0.1513
-3.8473282442748094,0.061068702290076333,-1.6030534351145038,-0.432861328125,0.03955078125,-0.28662109375,0.153
-3.7709923664122136,0.12213740458015267,-1.8015267175572518,-0.4287109375,0.047119140625,-0.288330078125,0.1547
-3.8931297709923665,0.1984732824427481,-1.7251908396946565,-0.428466796875,0.045166015625,-0.293701171875,0.15639999999999998
-3.7251908396946565,0.3511450381679389,-1.786259541984733,-0.4287109375,0.046630859375,-0.287353515625,0.1581
-3.7709923664122136,0.0,-2.015267175572519,-0.426025390625,0.04296875,-0.286865234375,0.1598
-3.7099236641221376,-0.015267175572519083,-2.045801526717557,-0.430908203125,0.04638671875,-0.288818359375,0.1615
-3.6030534351145036,0.061068702290076333,-1.8931297709923665,-0.431884765625,0.045166015625,-0.291748046875,0.16319999999999998
-3.5877862595419847,0.1984732824427481,-1.8778625954198473,-0.433349609375,0.042236328125,-0.294677734375,0.1649
-3.5267175572519083,0.183206106870229,-2.030534351145038,-0.433349609375,0.048828125,-0.287109375,0.1666
-3.3893129770992365,0.42748091603053434,-1.816793893129771,-0.43359375,0.051513671875,-0.283935546875,0.16829999999999998
-3.6030534351145036,0.3511450381679389,-1.8778625954198473,-0.429443359375,0.049072265625,-0.28076171875,0.16999999999999998
-3.2519083969465647,0.32061068702290074,-1.9389312977099236,-0.432861328125,0.046630859375,-0.287109375,0.1717
-3.2519083969465647,0.44274809160305345,-2.045801526717557,-0.42822265625,0.0517578125,-0.2822265625,0.1734
-3.3282442748091605,0.5954198473282443,-2.015267175572519,-0.427978515625,0.044189453125,-0.287109375,0.17509999999999998
-3.236641221374046,0.6717557251908397,-1.9389312977099236,-0.431640625,0.048095703125,-0.291748046875,0.17679999999999998
-3.145038167938931,0.6564885496183206,-2.183206106870229,-0.427490234375,0.043212890625,-0.28662109375,0.1785
-3.2061068702290076,0.7175572519083969,-2.3969465648854964,-0.4296875,0.04541015625,-0.295166015625,0.1802
-3.267175572519084,0.6412213740458015,-2.1526717557251906,-0.428466796875,0.04443359375,-0.291748046875,0.18189999999999998
-2.9770992366412212,0.6412213740458015,-2.3206106870229006,-0.430419921875,0.048095703125,-0.291748046875,0.18359999999999999
-2.946564885496183,0.732824427480916,-2.33587786259542,-0.4326171875,0.046875,-0.29541015625,0.1853
-2.9923664122137406,0.6412213740458015,-2.2595419847328246,-0.42919921875,0.046875,-0.290283203125,0.187
-2.9618320610687023,0.6870229007633588,-2.4122137404580153,-0.42919921875,0.047119140625,-0.2998046875,0.18869999999999998
-2.885496183206107,0.7633587786259542,-2.3969465648854964,-0.42822265625,0.050048828125,-0.294189453125,0.19039999999999999
-2.900763358778626,0.9465648854961832,-2.213740458015267,-0.43408203125,0.04443359375,-0.29345703125,0.1921
-2.931297709923664,0.8396946564885496,-2.4885496183206106,-0.43408203125,0.051025390625,-0.299560546875,0.1938
-2.732824427480916,0.8854961832061069,-2.3053435114503817,-0.43310546875,0.0458984375,-0.29248046875,0.19549999999999998
-2.549618320610687,0.8702290076335878,-2.351145038167939,-0.431396484375,0.049560546875,-0.28955078125,0.1972
-2.519083969465649,0.9465648854961832,-2.381679389312977,-0.43359375,0.04833984375,-0.291259765625,0.1989
-2.564885496183206,0.9923664122137404,-2.4427480916030535,-0.428955078125,0.05224609375,-0.287353515625,0.2006
-2.366412213740458,1.083969465648855,-2.2748091603053435,-0.428955078125,0.05029296875,-0.28662109375,0.20229999999999998
-2.4580152671755724,1.1450381679389312,-2.519083969465649,-0.428955078125,0.047607421875,-0.2880859375,0.204
-2.4885496183206106,1.1145038167938932,-2.50381679389313,-0.42578125,0.05029296875,-0.28173828125,0.2057
-2.2595419847328246,1.1603053435114503,-2.6259541984732824,-0.427978515625,0.0498046875,-0.282958984375,0.2074
-2.2290076335877864,1.0687022900763359,-2.5343511450381677,-0.427001953125,0.045654296875,-0.289306640625,0.20909999999999998
-2.2900763358778624,1.0076335877862594,-2.9160305343511452,-0.423095703125,0.052734375,-0.29150390625,0.2108
-2.213740458015267,1.282442748091603,-2.6259541984732824,-0.426513671875,0.045166015625,-0.283203125,0.2125
-2.183206106870229,1.1603053435114503,-2.7480916030534353,-0.42236328125,0.04931640625,-0.288330078125,0.2142
-2.1068702290076335,1.1603053435114503,-2.7022900763358777,-0.42822265625,0.044677734375,-0.29248046875,0.21589999999999998
-2.0610687022900764,0.9007633587786259,-2.6564885496183206,-0.427001953125,0.048828125,-0.294921875,0.2176
-2.0610687022900764,1.0381679389312977,-2.5343511450381677,-0.430908203125,0.044677734375,-0.2890625,0.2193
-1.984732824427481,1.0381679389312977,-2.4427480916030535,-0.4296875,0.05126953125,-0.29248046875,0.22099999999999997
-1.8625954198473282,0.9312977099236641,-2.5801526717557253,-0.429931640625,0.049560546875,-0.284912109375,0.22269999999999998
-1.8015267175572518,1.099236641221374,-2.5343511450381677,-0.4287109375,0.04345703125,-0.29052734375,0.2244
-1.8931297709923665,1.1297709923664123,-2.6564885496183206,-0.426513671875,0.044677734375,-0.28662109375,0.2261
-1.8778625954198473,1.2366412213740459,-2.717557251908397,-0.426025390625,0.043701171875,-0.28955078125,0.22779999999999997
-1.83206106870229,1.0687022900763359,-2.6106870229007635,-0.427001953125,0.051025390625,-0.291748046875,0.22949999999999998
-1.8473282442748091,1.099236641221374,-2.687022900763359,-0.4306640625,0.0498046875,-0.290771484375,0.2312
-1.5114503816793894,1.3435114503816794,-2.5801526717557253,-0.4326171875,0.04833984375,-0.2880859375,0.2329
-1.5419847328244274,1.297709923664122,-2.9160305343511452,-0.43310546875,0.05029296875,-0.287841796875,0.23459999999999998
-1.4961832061068703,1.2061068702290076,-2.946564885496183,-0.426025390625,0.044921875,-0.284912109375,0.23629999999999998
-1.465648854961832,1.297709923664122,-2.9618320610687023,-0.4287109375,0.048828125,-0.283203125,0.238
-1.4809160305343512,1.4351145038167938,-2.8091603053435112,-0.429443359375,0.047119140625,-0.284423828125,0.2397
-1.3435114503816794,1.2061068702290076,-2.9770992366412212,-0.429443359375,0.043701171875,-0.283935546875,0.24139999999999998
-1.3587786259541985,1.251908396946565,-2.8091603053435112,-0.430419921875,0.04931640625,-0.28515625,0.24309999999999998
-1.297709923664122,1.3893129770992367,-3.1603053435114505,-0.431396484375,0.045654296875,-0.29296875,0.2448
-1.083969465648855,1.4351145038167938,-2.854961832061069,-0.431884765625,0.0478515625,-0.292236328125,0.2465
-1.1908396946564885,1.4809160305343512,-2.9770992366412212,-0.42724609375,0.049072265625,-0.29443359375,0.24819999999999998
-1.1755725190839694,1.465648854961832,-2.9770992366412212,-0.428466796875,0.044189453125,-0.293212890625,0.24989999999999998
-0.8854961832061069,1.1450381679389312,-3.068702290076336,-0.431884765625,0.04638671875,-0.2890625,0.2516
-1.0687022900763359,1.4198473282442747,-3.068702290076336,-0.431640625,0.044921875,-0.294189453125,0.25329999999999997
-0.8396946564885496,1.5572519083969465,-3.0076335877862594,-0.43310546875,0.045166015625,-0.296875,0.255
-0.8702290076335878,1.4961832061068703,-3.053435114503817,-0.436279296875,0.045654296875,-0.290283203125,0.2567
-0.7633587786259542,1.5572519083969465,-3.2519083969465647,-0.43115234375,0.047119140625,-0.2939453125,0.25839999999999996
-0.7022900763358778,1.4961832061068703,-3.114503816793893,-0.42724609375,0.045654296875,-0.28955078125,0.2601
-0.6106870229007634,1.5725190839694656,-3.1297709923664123,-0.429931640625,0.05224609375,-0.28515625,0.2618
-0.732824427480916,1.5725190839694656,-3.068702290076336,-0.43310546875,0.053955078125,-0.29541015625,0.2635
-0.732824427480916,1.816793893129771,-3.236641221374046,-0.433349609375,0.046630859375,-0.285400390625,0.2652
-0.44274809160305345,1.5572519083969465,-3.1297709923664123,-0.431396484375,0.0439453125,-0.29638671875,0.26689999999999997
-0.5343511450381679,1.7251908396946565,-3.3740458015267176,-0.42919921875,0.043701171875,-0.2900390625,0.2686
-0.5801526717557252,1.6793893129770991,-3.1297709923664123,-0.432373046875,0.047607421875,-0.288818359375,0.2703
-0.5190839694656488,1.6946564885496183,-3.3740458015267176,-0.43408203125,0.04443359375,-0.294677734375,0.27199999999999996
-0.4580152671755725,1.7251908396946565,-3.2061068702290076,-0.43408203125,0.048095703125,-0.29345703125,0.2737
-0.549618320610687,1.6793893129770991,-3.2061068702290076,-0.429931640625,0.04931640625,-0.299560546875,0.2754
-0.3511450381679389,1.6793893129770991,-3.1603053435114505,-0.432861328125,0.0498046875,-0.29345703125,0.27709999999999996
-0.2900763358778626,1.6946564885496183,-3.099236641221374,-0.430419921875,0.045166015625,-0.2958984375,0.2788
-0.4732824427480916,1.83206106870229,-3.0229007633587788,-0.42919921875,0.049072265625,-0.29296875,0.28049999999999997
-0.366412213740458,1.8931297709923665,-3.0839694656488548,-0.432861328125,0.042236328125,-0.292236328125,0.2822
-0.21374045801526717,1.8625954198473282,-2.885496183206107,-0.43310546875,0.037109375,-0.28857421875,0.2839
-0.3816793893129771,1.8625954198473282,-3.1603053435114505,-0.432861328125,0.041748046875,-0.296142578125,0.28559999999999997
-0.366412213740458,2.0610687022900764,-2.8396946564885495,-0.426513671875,0.04345703125,-0.293701171875,0.2873
-0.0916030534351145,1.9694656488549618,-2.9618320610687023,-0.425537109375,0.04541015625,-0.295654296875,0.289
-0.07633587786259542,1.9541984732824427,-2.763358778625954,-0.429443359375,0.046142578125,-0.292724609375,0.29069999999999996
-0.3053435114503817,2.030534351145038,-2.8091603053435112,-0.4287109375,0.047607421875,-0.29443359375,0.2924
-0.4122137404580153,1.9236641221374047,-2.9160305343511452,-0.42919921875,0.04638671875,-0.291748046875,0.2941
-0.32061068702290074,2.030534351145038,-2.931297709923664,-0.434326171875,0.04248046875,-0.28955078125,0.2958
-0.15267175572519084,2.16793893129771,-2.717557251908397,-0.430908203125,0.04541015625,-0.299072265625,0.2975
0.0,2.0610687022900764,-3.0381679389312977,-0.430908203125,0.04833984375,-0.29931640625,0.29919999999999997
-0.12213740458015267,1.9541984732824427,-2.854961832061069,-0.430908203125,0.04248046875,-0.2939453125,0.3009
-0.13740458015267176,2.1526717557251906,-2.9618320610687023,-0.43017578125,0.047607421875,-0.287109375,0.3026
0.04580152671755725,2.2442748091603053,-2.8244274809160306,-0.431640625,0.044921875,-0.293701171875,0.30429999999999996
-0.15267175572519084,2.16793893129771,-2.931297709923664,-0.429443359375,0.0498046875,-0.28759765625,0.306
-0.04580152671755725,2.045801526717557,-2.7480916030534353,-0.429443359375,0.046875,-0.287353515625,0.3077
0.061068702290076333,2.1068702290076335,-3.053435114503817,-0.42919921875,0.050048828125,-0.29443359375,0.3094
0.32061068702290074,2.1374045801526718,-2.8396946564885495,-0.420166015625,0.046630859375,-0.290283203125,0.3111
-0.015267175572519083,2.1526717557251906,-3.0076335877862594,-0.423828125,0.0439453125,-0.28759765625,0.31279999999999997
0.1984732824427481,2.198473282442748,-2.854961832061069,-0.430908203125,0.046142578125,-0.294677734375,0.3145
0.12213740458015267,2.183206106870229,-2.931297709923664,-0.4306640625,0.043701171875,-0.286376953125,0.3162
0.12213740458015267,2.198473282442748,-2.9923664122137406,-0.432861328125,0.04443359375,-0.28662109375,0.31789999999999996
0.15267175572519084,2.2900763358778624,-2.9618320610687023,-0.43310546875,0.042724609375,-0.290283203125,0.3196
0.33587786259541985,2.381679389312977,-2.595419847328244,-0.427978515625,0.04296875,-0.281005859375,0.3213
0.3969465648854962,2.366412213740458,-2.8702290076335877,-0.42724609375,0.040771484375,-0.286376953125,0.323
0.32061068702290074,2.4427480916030535,-2.763358778625954,-0.427978515625,0.0400390625,-0.28759765625,0.3247
0.13740458015267176,2.4427480916030535,-2.6717557251908395,-0.427734375,0.042724609375,-0.292236328125,0.32639999999999997
0.22900763358778625,2.33587786259542,-2.732824427480916,-0.4345703125,0.036865234375,-0.290771484375,0.3281
0.32061068702290074,2.3969465648854964,-2.6717557251908395,-0.433349609375,0.04296875,-0.292236328125,0.3298
0.10687022900763359,2.595419847328244,-2.564885496183206,-0.428466796875,0.04345703125,-0.286865234375,0.33149999999999996
0.24427480916030533,2.519083969465649,-2.6564885496183206,-0.423583984375,0.0458984375,-0.2802734375,0.3332
0.44274809160305345,2.4732824427480917,-2.6106870229007635,-0.4287109375,0.042236328125,-0.288818359375,0.3349
0.2595419847328244,2.50381679389313,-2.8244274809160306,-0.42919921875,0.04345703125,-0.28955078125,0.33659999999999995
0.4732824427480916,2.5343511450381677,-2.732824427480916,-0.427490234375,0.0498046875,-0.294189453125,0.3383
0.3511450381679389,2.4885496183206106,-2.549618320610687,-0.4296875,0.04345703125,-0.284423828125,0.33999999999999997
0.42748091603053434,2.213740458015267,-2.427480916030534,-0.427490234375,0.0439453125,-0.290283203125,0.3417
0.4122137404580153,2.3969465648854964,-2.595419847328244,-0.4287109375,0.039306640625,-0.2939453125,0.3434
0.4122137404580153,2.4427480916030535,-2.6106870229007635,-0.427734375,0.04443359375,-0.290771484375,0.34509999999999996
0.33587786259541985,2.4427480916030535,-2.5343511450381677,-0.42822265625,0.046142578125,-0.287109375,0.3468
0.5954198473282443,2.4427480916030535,-2.351145038167939,-0.429931640625,0.045654296875,-0.296630859375,0.3485
0.366412213740458,2.427480916030534,-2.33587786259542,-0.431396484375,0.045166015625,-0.29443359375,0.35019999999999996
0.5038167938931297,2.381679389312977,-2.2748091603053435,-0.427978515625,0.04345703125,-0.296142578125,0.3519
0.48854961832061067,2.33587786259542,-2.3969465648854964,-0.428466796875,0.043701171875,-0.29052734375,0.35359999999999997
0.5801526717557252,2.50381679389313,-2.33587786259542,-0.425537109375,0.045166015625,-0.288818359375,0.3553
0.6412213740458015,2.4122137404580153,-2.3206106870229006,-0.42919921875,0.0458984375,-0.2890625,0.357
0.6412213740458015,2.3969465648854964,-1.9236641221374047,-0.4296875,0.04296875,-0.295654296875,0.35869999999999996
0.3511450381679389,2.366412213740458,-2.0916030534351147,-0.429443359375,0.040283203125,-0.292236328125,0.3604
0.4732824427480916,2.519083969465649,-2.2290076335877864,-0.4287109375,0.040283203125,-0.287109375,0.3621
0.44274809160305345,2.50381679389313,-2.045801526717557,-0.4326171875,0.0380859375,-0.291015625,0.36379999999999996
0.6106870229007634,2.381679389312977,-1.8625954198473282,-0.4296875,0.0419921875,-0.29638671875,0.3655
0.3816793893129771,2.4580152671755724,-2.0,-0.425537109375,0.0390625,-0.29345703125,0.36719999999999997
0.366412213740458,2.366412213740458,-1.8778625954198473,-0.423095703125,0.04541015625,-0.28564453125,0.3689
0.5801526717557252,2.427480916030534,-1.8625954198473282,-0.429931640625,0.03857421875,-0.298583984375,0.3706
0.6564885496183206,2.6106870229007635,-1.8015267175572518,-0.4306640625,0.048828125,-0.2890625,0.37229999999999996
0.5954198473282443,2.4885496183206106,-1.9541984732824427,-0.42919921875,0.045654296875,-0.2890625,0.374
0.42748091603053434,2.6564885496183206,-1.7251908396946565,-0.427490234375,0.039306640625,-0.296142578125,0.3757
0.44274809160305345,2.4580152671755724,-1.83206106870229,-0.429443359375,0.04345703125,-0.293701171875,0.37739999999999996
0.5648854961832062,2.6564885496183206,-1.6946564885496183,-0.426025390625,0.0419921875,-0.29931640625,0.3791
0.6106870229007634,2.6259541984732824,-1.8473282442748091,-0.42578125,0.045654296875,-0.299072265625,0.38079999999999997
0.6412213740458015,2.595419847328244,-1.816793893129771,-0.4267578125,0.048828125,-0.296630859375,0.38249999999999995
0.5190839694656488,2.6259541984732824,-1.83206106870229,-0.4267578125,0.04443359375,-0.28369140625,0.3842
0.6259541984732825,2.8244274809160306,-1.7404580152671756,-0.427001953125,0.041259765625,-0.281494140625,0.38589999999999997
0.6259541984732825,2.6259541984732824,-1.6793893129770991,-0.426513671875,0.042236328125,-0.290771484375,0.3876
0.6870229007633588,2.6106870229007635,-1.7404580152671756,-0.430419921875,0.03857421875,-0.293212890625,0.3893
0.7480916030534351,2.595419847328244,-1.6641221374045803,-0.42529296875,0.04345703125,-0.30029296875,0.39099999999999996
0.7175572519083969,2.50381679389313,-1.7709923664122138,-0.420166015625,0.040283203125,-0.29296875,0.3927
0.8091603053435115,2.717557251908397,-1.5725190839694656,-0.42724609375,0.044189453125,-0.2958984375,0.3944
0.732824427480916,2.6259541984732824,-1.5419847328244274,-0.42919921875,0.0419921875,-0.28125,0.39609999999999995
0.7633587786259542,2.717557251908397,-1.5572519083969465,-0.424560546875,0.047607421875,-0.282470703125,0.3978
0.732824427480916,2.6259541984732824,-1.5267175572519085,-0.428466796875,0.043701171875,-0.287353515625,0.39949999999999997
0.916030534351145,2.6106870229007635,-1.6030534351145038,-0.427734375,0.0478515625,-0.284912109375,0.4012
0.8854961832061069,2.5343511450381677,-1.6946564885496183,-0.427978515625,0.041748046875,-0.29150390625,0.4029
0.5648854961832062,2.6106870229007635,-1.6488549618320612,-0.42529296875,0.049560546875,-0.29638671875,0.40459999999999996
0.9618320610687023,2.900763358778626,-1.6488549618320612,-0.42822265625,0.047119140625,-0.2939453125,0.4063
0.9465648854961832,2.6717557251908395,-1.5725190839694656,-0.424072265625,0.04296875,-0.295654296875,0.408
0.9312977099236641,2.595419847328244,-1.6641221374045803,-0.427490234375,0.044921875,-0.294189453125,0.40969999999999995
1.0687022900763359,2.351145038167939,-1.7557251908396947,-0.424560546875,0.048828125,-0.2919921875,0.4114
0.8854961832061069,2.50381679389313,-1.7404580152671756,-0.42822265625,0.049560546875,-0.291748046875,0.41309999999999997
0.9770992366412213,2.6564885496183206,-1.7557251908396947,-0.4267578125,0.0439453125,-0.2822265625,0.4148
1.099236641221374,2.427480916030534,-1.8625954198473282,-0.425048828125,0.0439453125,-0.2880859375,0.4165
1.1603053435114503,2.2748091603053435,-1.7709923664122138,-0.423828125,0.04248046875,-0.288818359375,0.41819999999999996
1.1450381679389312,2.427480916030534,-1.7251908396946565,-0.42578125,0.042724609375,-0.2900390625,0.4199
1.251908396946565,2.4427480916030535,-1.9236641221374047,-0.42822265625,0.03955078125,-0.287353515625,0.4216
1.450381679389313,2.3969465648854964,-1.8015267175572518,-0.427490234375,0.044677734375,-0.29541015625,0.42329999999999995
1.4961832061068703,2.3969465648854964,-1.7099236641221374,-0.4267578125,0.05224609375,-0.29345703125,0.425
1.3893129770992367,2.2748091603053435,-1.786259541984733,-0.425537109375,0.04443359375,-0.285400390625,0.42669999999999997
1.297709923664122,2.427480916030534,-1.7709923664122138,-0.43017578125,0.049560546875,-0.293701171875,0.4284
1.3740458015267176,2.427480916030534,-1.8931297709923665,-0.428955078125,0.04443359375,-0.291748046875,0.4301
1.282442748091603,2.4885496183206106,-1.8625954198473282,-0.42919921875,0.05078125,-0.291015625,0.43179999999999996
1.5267175572519085,2.427480916030534,-1.9541984732824427,-0.43212890625,0.042724609375,-0.293701171875,0.4335
1.4198473282442747,2.4732824427480917,-1.8931297709923665,-0.428466796875,0.043701171875,-0.296630859375,0.4352
1.5267175572519085,2.3969465648854964,-1.816793893129771,-0.429443359375,0.046142578125,-0.298828125,0.43689999999999996
1.5877862595419847,2.4885496183206106,-1.9236641221374047,-0.424072265625,0.041748046875,-0.297607421875,0.4386
1.5572519083969465,2.6259541984732824,-1.9541984732824427,-0.426025390625,0.046875,-0.29541015625,0.44029999999999997
1.786259541984733,2.2442748091603053,-1.816793893129771,-0.428466796875,0.043212890625,-0.2890625,0.44199999999999995
1.6793893129770991,2.2442748091603053,-1.8015267175572518,-0.4248046875,0.045166015625,-0.298095703125,0.4437
1.816793893129771,2.351145038167939,-1.5267175572519085,-0.425048828125,0.0400390625,-0.29296875,0.44539999999999996
1.7557251908396947,2.351145038167939,-1.7099236641221374,-0.427978515625,0.042236328125,-0.29638671875,0.4471
1.9236641221374047,2.381679389312977,-1.7099236641221374,-0.43017578125,0.040283203125,-0.29345703125,0.4488
1.8931297709923665,2.427480916030534,-1.618320610687023,-0.434326171875,0.04638671875,-0.297607421875,0.45049999999999996
1.8015267175572518,2.6259541984732824,-1.5725190839694656,-0.429931640625,0.048095703125,-0.290771484375,0.4522
1.984732824427481,2.366412213740458,-1.618320610687023,-0.433349609375,0.04931640625,-0.299560546875,0.45389999999999997
1.7404580152671756,2.519083969465649,-1.3893129770992367,-0.4345703125,0.040283203125,-0.291015625,0.45559999999999995
1.7557251908396947,2.6259541984732824,-1.5114503816793894,-0.432861328125,0.039794921875,-0.28759765625,0.4573
1.8473282442748091,2.7022900763358777,-1.2671755725190839,-0.4287109375,0.04345703125,-0.2880859375,0.45899999999999996
1.8778625954198473,2.6564885496183206,-1.450381679389313,-0.43701171875,0.041015625,-0.297607421875,0.4607
2.015267175572519,2.6259541984732824,-1.2671755725190839,-0.42724609375,0.0419921875,-0.298095703125,0.4624
1.83206106870229,2.6412213740458017,-1.3587786259541985,-0.4306640625,0.04248046875,-0.29345703125,0.46409999999999996
1.9541984732824427,2.8091603053435112,-1.3435114503816794,-0.427978515625,0.0439453125,-0.289794921875,0.4658
1.9694656488549618,2.6412213740458017,-1.3587786259541985,-0.43017578125,0.041015625,-0.29443359375,0.46749999999999997
1.8931297709923665,2.6259541984732824,-1.251908396946565,-0.427490234375,0.042724609375,-0.293212890625,0.46919999999999995
2.0763358778625953,2.6106870229007635,-1.2213740458015268,-0.43408203125,0.038818359375,-0.292236328125,0.4709
1.9389312977099236,2.8396946564885495,-1.0687022900763359,-0.432373046875,0.041259765625,-0.28857421875,0.47259999999999996
1.8778625954198473,2.564885496183206,-0.9923664122137404,-0.427734375,0.03564453125,-0.30078125,0.4743
2.045801526717557,2.6564885496183206,-1.0076335877862594,-0.42529296875,0.040771484375,-0.2998046875,0.476
2.183206106870229,2.7022900763358777,-0.8549618320610687,-0.4326171875,0.04833984375,-0.288330078125,0.47769999999999996
2.045801526717557,2.8244274809160306,-0.7633587786259542,-0.428466796875,0.04052734375,-0.293701171875,0.4794
2.0610687022900764,2.687022900763359,-0.8091603053435115,-0.426025390625,0.03955078125,-0.29345703125,0.48109999999999997
2.045801526717557,2.564885496183206,-0.7175572519083969,-0.430908203125,0.0419921875,-0.29052734375,0.48279999999999995
2.122137404580153,2.6412213740458017,-0.7175572519083969,-0.425048828125,0.044677734375,-0.291259765625,0.4845
1.8778625954198473,2.885496183206107,-0.5954198473282443,-0.423095703125,0.039306640625,-0.297607421875,0.48619999999999997
2.16793893129771,2.7022900763358777,-0.6717557251908397,-0.4306640625,0.03955078125,-0.293212890625,0.4879
2.4732824427480917,2.8091603053435112,-0.6106870229007634,-0.427978515625,0.040771484375,-0.291015625,0.4896
2.33587786259542,2.9923664122137406,-0.5801526717557252,-0.427490234375,0.045166015625,-0.290771484375,0.49129999999999996
2.0916030534351147,2.8091603053435112,-0.4122137404580153,-0.427490234375,0.0361328125,-0.296142578125,0.493
2.2442748091603053,2.7786259541984735,-0.5343511450381679,-0.4306640625,0.04248046875,-0.298828125,0.4947
2.1374045801526718,2.885496183206107,-0.42748091603053434,-0.427490234375,0.0458984375,-0.29150390625,0.49639999999999995
2.198473282442748,2.8091603053435112,-0.4732824427480916,-0.42529296875,0.044189453125,-0.290771484375,0.4981
2.3053435114503817,2.885496183206107,-0.1984732824427481,-0.428955078125,0.038818359375,-0.29541015625,0.49979999999999997
2.2290076335877864,2.763358778625954,-0.32061068702290074,-0.4267578125,0.04345703125,-0.287841796875,0.5015
2.3053435114503817,2.687022900763359,-0.42748091603053434,-0.4287109375,0.044921875,-0.29296875,0.5032
2.4122137404580153,2.6259541984732824,-0.5190839694656488,-0.429931640625,0.044189453125,-0.297607421875,0.5049
2.4122137404580153,2.7022900763358777,-0.3053435114503817,-0.430908203125,0.046142578125,-0.2890625,0.5065999999999999
2.427480916030534,2.7786259541984735,-0.3969465648854962,-0.4296875,0.041748046875,-0.2890625,0.5083
2.4427480916030535,2.7480916030534353,-0.2748091603053435,-0.4287109375,0.035400390625,-0.2958984375,0.51
2.1526717557251906,2.8396946564885495,-0.366412213740458,-0.423095703125,0.03955078125,-0.2958984375,0.5116999999999999
2.33587786259542,3.068702290076336,-0.12213740458015267,-0.427001953125,0.040283203125,-0.2939453125,0.5134
2.2748091603053435,3.1297709923664123,-0.15267175572519084,-0.4287109375,0.04150390625,-0.296142578125,0.5151
2.3053435114503817,3.2061068702290076,0.0,-0.432373046875,0.0400390625,-0.28857421875,0.5167999999999999
2.2442748091603053,3.2977099236641223,-0.24427480916030533,-0.431884765625,0.047119140625,-0.287841796875,0.5185
2.2900763358778624,3.2213740458015265,-0.015267175572519083,-0.42724609375,0.040771484375,-0.296142578125,0.5202
2.2900763358778624,3.236641221374046,-0.2595419847328244,-0.4267578125,0.039794921875,-0.29541015625,0.5218999999999999
2.3053435114503817,3.2213740458015265,-0.10687022900763359,-0.4267578125,0.037109375,-0.287353515625,0.5236
2.381679389312977,3.0839694656488548,-0.12213740458015267,-0.427734375,0.04150390625,-0.29638671875,0.5253
2.122137404580153,3.267175572519084,-0.0916030534351145,-0.43212890625,0.041748046875,-0.287841796875,0.527
2.198473282442748,3.2213740458015265,-0.2748091603053435,-0.424560546875,0.042724609375,-0.2900390625,0.5287
2.366412213740458,3.0076335877862594,-0.030534351145038167,-0.425537109375,0.03955078125,-0.28955078125,0.5304
2.3206106870229006,3.0839694656488548,-0.04580152671755725,-0.422119140625,0.042724609375,-0.29296875,0.5321
2.2442748091603053,2.9770992366412212,0.10687022900763359,-0.4248046875,0.044189453125,-0.29296875,0.5337999999999999
2.2900763358778624,2.717557251908397,-0.015267175572519083,-0.423583984375,0.037841796875,-0.295654296875,0.5355
2.0,2.8244274809160306,0.33587786259541985,-0.42431640625,0.041259765625,-0.297607421875,0.5372
2.0916030534351147,2.7786259541984735,0.22900763358778625,-0.4248046875,0.041259765625,-0.294189453125,0.5388999999999999
2.213740458015267,2.7022900763358777,0.24427480916030533,-0.422607421875,0.04296875,-0.294921875,0.5406
2.0763358778625953,2.6564885496183206,0.42748091603053434,-0.426513671875,0.041015625,-0.298095703125,0.5423
2.015267175572519,2.732824427480916,0.2900763358778626,-0.4306640625,0.03857421875,-0.296630859375,0.5439999999999999
2.0916030534351147,2.7022900763358777,0.24427480916030533,-0.4228515625,0.044677734375,-0.292236328125,0.5457
2.198473282442748,2.7480916030534353,0.42748091603053434,-0.42041015625,0.04443359375,-0.2978515625,0.5474
2.1374045801526718,2.7786259541984735,0.3816793893129771,-0.42236328125,0.040283203125,-0.298095703125,0.5490999999999999
2.0916030534351147,2.5801526717557253,0.2900763358778626,-0.421142578125,0.04248046875,-0.29931640625,0.5508
2.1374045801526718,2.519083969465649,0.15267175572519084,-0.427001953125,0.04052734375,-0.2939453125,0.5525
2.1068702290076335,2.519083969465649,0.549618320610687,-0.4287109375,0.041259765625,-0.2958984375,0.5541999999999999
1.8931297709923665,2.4122137404580153,0.4122137404580153,-0.423095703125,0.03857421875,-0.291259765625,0.5559
1.9694656488549618,2.519083969465649,0.48854961832061067,-0.42724609375,0.034912109375,-0.2919921875,0.5576
2.0763358778625953,2.427480916030534,0.33587786259541985,-0.4248046875,0.04248046875,-0.297607421875,0.5593
1.7557251908396947,2.427480916030534,0.5343511450381679,-0.42724609375,0.04345703125,-0.289794921875,0.5609999999999999
1.9389312977099236,2.50381679389313,0.4732824427480916,-0.417724609375,0.039306640625,-0.292724609375,0.5627
1.6641221374045803,2.16793893129771,0.5038167938931297,-0.423828125,0.041015625,-0.2900390625,0.5644
1.7709923664122138,2.122137404580153,0.5038167938931297,-0.427001953125,0.041748046875,-0.29345703125,0.5660999999999999
1.9083969465648856,2.183206106870229,0.732824427480916,-0.42333984375,0.044189453125,-0.296630859375,0.5678
1.7251908396946565,2.198473282442748,0.5038167938931297,-0.427490234375,0.038330078125,-0.29833984375,0.5695
1.6030534351145038,2.0610687022900764,0.732824427480916,-0.43017578125,0.03759765625,-0.297119140625,0.5711999999999999
1.5725190839694656,1.9694656488549618,0.5648854961832062,-0.42724609375,0.03857421875,-0.297119140625,0.5729
1.8015267175572518,1.9083969465648856,0.3816793893129771,-0.42236328125,0.039794921875,-0.29638671875,0.5746
1.6641221374045803,1.8778625954198473,0.4122137404580153,-0.41943359375,0.041259765625,-0.296630859375,0.5762999999999999
1.4961832061068703,1.7251908396946565,0.4580152671755725,-0.427001953125,0.039794921875,-0.30126953125,0.578
1.5877862595419847,1.6793893129770991,0.6717557251908397,-0.425048828125,0.04150390625,-0.288330078125,0.5797
1.4961832061068703,1.8015267175572518,0.44274809160305345,-0.426513671875,0.04296875,-0.289306640625,0.5813999999999999
1.633587786259542,1.7709923664122138,0.5038167938931297,-0.421630859375,0.046875,-0.29736328125,0.5831
1.3740458015267176,1.6488549618320612,0.6564885496183206,-0.430419921875,0.041259765625,-0.302001953125,0.5848
1.465648854961832,1.6030534351145038,0.5801526717557252,-0.427490234375,0.0439453125,-0.298583984375,0.5865
1.3282442748091603,1.8015267175572518,0.6870229007633588,-0.43212890625,0.0419921875,-0.301025390625,0.5882
1.5114503816793894,1.7709923664122138,0.7175572519083969,-0.42626953125,0.045654296875,-0.2919921875,0.5899
1.1450381679389312,1.5114503816793894,0.916030534351145,-0.425048828125,0.0419921875,-0.2998046875,0.5916
1.0381679389312977,1.6030534351145038,0.8091603053435115,-0.423828125,0.041748046875,-0.303466796875,0.5932999999999999
1.3740458015267176,1.5725190839694656,0.7633587786259542,-0.42529296875,0.03515625,-0.285888671875,0.595
1.3282442748091603,1.6641221374045803,0.7786259541984732,-0.425048828125,0.04638671875,-0.287841796875,0.5967
1.0229007633587786,1.6641221374045803,0.8854961832061069,-0.4228515625,0.0439453125,-0.29248046875,0.5983999999999999
1.0687022900763359,1.8015267175572518,0.8396946564885496,-0.428466796875,0.040771484375,-0.2919921875,0.6001
1.0534351145038168,1.4198473282442747,0.8244274809160306,-0.429931640625,0.038818359375,-0.297119140625,0.6018
1.099236641221374,1.450381679389313,0.7633587786259542,-0.423095703125,0.03955078125,-0.30224609375,0.6034999999999999
0.9465648854961832,1.5572519083969465,0.5190839694656488,-0.423095703125,0.046875,-0.2978515625,0.6052
0.7633587786259542,1.5725190839694656,0.6564885496183206,-0.42431640625,0.043701171875,-0.294677734375,0.6069
0.8702290076335878,1.5419847328244274,0.9770992366412213,-0.42431640625,0.040283203125,-0.29736328125,0.6085999999999999
0.7633587786259542,1.5419847328244274,0.8854961832061069,-0.423583984375,0.039794921875,-0.28662109375,0.6103
0.7022900763358778,1.3282442748091603,0.7938931297709924,-0.4189453125,0.041259765625,-0.295166015625,0.612
0.6412213740458015,1.5419847328244274,0.8854961832061069,-0.427490234375,0.040771484375,-0.28857421875,0.6136999999999999
0.7786259541984732,1.5419847328244274,1.1450381679389312,-0.42529296875,0.03564453125,-0.286376953125,0.6154
0.7480916030534351,1.3587786259541985,1.0381679389312977,-0.42578125,0.044921875,-0.30029296875,0.6171
0.6564885496183206,1.4809160305343512,1.0381679389312977,-0.42529296875,0.045166015625,-0.297607421875,0.6188
0.6717557251908397,1.4809160305343512,1.0381679389312977,-0.425048828125,0.045166015625,-0.297119140625,0.6204999999999999
0.5190839694656488,1.4045801526717556,0.9770992366412213,-0.423828125,0.044921875,-0.300048828125,0.6222
0.549618320610687,1.5267175572519085,0.9312977099236641,-0.42626953125,0.043701171875,-0.290771484375,0.6239
0.4580152671755725,1.4809160305343512,0.8854961832061069,-0.42822265625,0.045166015625,-0.293212890625,0.6255999999999999
0.7938931297709924,1.4351145038167938,0.7938931297709924,-0.4248046875,0.0390625,-0.298583984375,0.6273
0.5190839694656488,1.4045801526717556,0.6717557251908397,-0.4248046875,0.045166015625,-0.295654296875,0.629
0.366412213740458,1.282442748091603,0.8396946564885496,-0.427001953125,0.04345703125,-0.298095703125,0.6306999999999999
0.5190839694656488,1.465648854961832,0.6717557251908397,-0.426025390625,0.044921875,-0.29638671875,0.6324
0.3816793893129771,1.4045801526717556,0.6717557251908397,-0.43017578125,0.0458984375,-0.2900390625,0.6341
0.3969465648854962,1.2366412213740459,0.7633587786259542,-0.425537109375,0.041015625,-0.288818359375,0.6357999999999999
0.4122137404580153,1.3587786259541985,0.5190839694656488,-0.424072265625,0.04150390625,-0.296142578125,0.6375
0.22900763358778625,1.3587786259541985,0.5954198473282443,-0.42333984375,0.04638671875,-0.28955078125,0.6392
0.3053435114503817,1.1603053435114503,0.6259541984732825,-0.423583984375,0.038818359375,-0.29541015625,0.6408999999999999
0.33587786259541985,1.1755725190839694,0.48854961832061067,-0.425048828125,0.041259765625,-0.29345703125,0.6426
0.1984732824427481,1.4351145038167938,0.4732824427480916,-0.428955078125,0.04443359375,-0.29345703125,0.6443
0.3053435114503817,1.1450381679389312,0.5648854961832062,-0.4228515625,0.048095703125,-0.29541015625,0.646
0.33587786259541985,0.9923664122137404,0.3969465648854962,-0.423583984375,0.0458984375,-0.291259765625,0.6476999999999999
0.2595419847328244,0.7633587786259542,0.24427480916030533,-0.423828125,0.04541015625,-0.29248046875,0.6494
0.3816793893129771,0.8091603053435115,0.5343511450381679,-0.422607421875,0.045654296875,-0.304443359375,0.6511
0.3053435114503817,0.6717557251908397,0.2900763358778626,-0.42333984375,0.044189453125,-0.28955078125,0.6527999999999999
0.15267175572519084,0.5648854961832062,0.183206106870229,-0.425048828125,0.04345703125,-0.29296875,0.6545
0.15267175572519084,0.6259541984732825,0.16793893129770993,-0.422119140625,0.05078125,-0.3037109375,0.6562
0.33587786259541985,0.48854961832061067,0.22900763358778625,-0.42431640625,0.042724609375,-0.298828125,0.6578999999999999
0.2900763358778626,0.7022900763358778,0.183206106870229,-0.426025390625,0.044677734375,-0.303955078125,0.6596
0.04580152671755725,0.4122137404580153,0.183206106870229,-0.420654296875,0.0439453125,-0.297607421875,0.6613
0.24427480916030533,0.21374045801526717,0.04580152671755725,-0.42822265625,0.04296875,-0.2939453125,0.6629999999999999
0.030534351145038167,0.21374045801526717,0.15267175572519084,-0.4267578125,0.045654296875,-0.296875,0.6647
0.04580152671755725,0.0916030534351145,0.15267175572519084,-0.4248046875,0.04296875,-0.28759765625,0.6664
0.015267175572519083,0.0,0.1984732824427481,-0.429443359375,0.043212890625,-0.298828125,0.6680999999999999
0.12213740458015267,0.13740458015267176,0.07633587786259542,-0.42529296875,0.04541015625,-0.298095703125,0.6698
0.13740458015267176,0.16793893129770993,0.16793893129770993,-0.42724609375,0.0458984375,-0.292724609375,0.6715
0.07633587786259542,0.15267175572519084,0.3053435114503817,-0.421630859375,0.03857421875,-0.29833984375,0.6731999999999999
0.07633587786259542,0.061068702290076333,0.10687022900763359,-0.427734375,0.042724609375,-0.29150390625,0.6748999999999999
0.04580152671755725,-0.12213740458015267,0.015267175572519083,-0.427001953125,0.045654296875,-0.28759765625,0.6766
-0.04580152671755725,0.015267175572519083,0.21374045801526717,-0.42529296875,0.04736328125,-0.29833984375,0.6783
-0.33587786259541985,-0.3511450381679389,0.183206106870229,-0.422119140625,0.046875,-0.29052734375,0.6799999999999999
-0.24427480916030533,-0.3969465648854962,0.2595419847328244,-0.421875,0.04443359375,-0.300537109375,0.6817
-0.1984732824427481,-0.6412213740458015,0.15267175572519084,-0.424560546875,0.043212890625,-0.294677734375,0.6834
-0.07633587786259542,-0.5648854961832062,0.04580152671755725,-0.420166015625,0.046875,-0.287109375,0.6850999999999999
0.061068702290076333,-0.33587786259541985,-0.015267175572519083,-0.420654296875,0.041748046875,-0.28466796875,0.6868
-0.030534351145038167,-0.7938931297709924,0.13740458015267176,-0.424560546875,0.04443359375,-0.295166015625,0.6885
-0.183206106870229,-1.0076335877862594,0.15267175572519084,-0.421142578125,0.04443359375,-0.294677734375,0.6901999999999999
-0.183206106870229,-1.0076335877862594,0.44274809160305345,-0.421630859375,0.044921875,-0.296630859375,0.6919
-0.4122137404580153,-1.2366412213740459,0.15267175572519084,-0.426513671875,0.042724609375,-0.29931640625,0.6936
-0.42748091603053434,-1.5419847328244274,0.5190839694656488,-0.420166015625,0.04248046875,-0.290771484375,0.6952999999999999
-0.13740458015267176,-1.465648854961832,0.4732824427480916,-0.428466796875,0.0419921875,-0.288818359375,0.697
-0.5343511450381679,-1.4809160305343512,0.4580152671755725,-0.427734375,0.045654296875,-0.291015625,0.6987
-0.4122137404580153,-1.3435114503816794,0.549618320610687,-0.425048828125,0.0498046875,-0.291259765625,0.7003999999999999
-0.5190839694656488,-1.2671755725190839,0.7938931297709924,-0.427490234375,0.044677734375,-0.296630859375,0.7021
-0.44274809160305345,-1.0381679389312977,0.6564885496183206,-0.425537109375,0.0439453125,-0.2890625,0.7038
-0.3969465648854962,-1.1297709923664123,0.549618320610687,-0.4287109375,0.045166015625,-0.289306640625,0.7055
-0.32061068702290074,-1.3282442748091603,0.48854961832061067,-0.43115234375,0.04541015625,-0.286376953125,0.7071999999999999
-0.366412213740458,-1.3435114503816794,0.6106870229007634,-0.425537109375,0.049072265625,-0.295166015625,0.7089
-0.3511450381679389,-1.5114503816793894,0.3511450381679389,-0.429443359375,0.0517578125,-0.294677734375,0.7106
-0.32061068702290074,-1.5267175572519085,0.3969465648854962,-0.424560546875,0.04931640625,-0.294921875,0.7122999999999999
-0.24427480916030533,-1.5419847328244274,0.04580152671755725,-0.42431640625,0.04443359375,-0.29248046875,0.714
-0.4122137404580153,-1.7251908396946565,0.015267175572519083,-0.420654296875,0.041015625,-0.29248046875,0.7157
-0.4580152671755725,-1.4351145038167938,0.04580152671755725,-0.42626953125,0.0517578125,-0.284912109375,0.7173999999999999
-0.3053435114503817,-1.5572519083969465,0.42748091603053434,-0.4287109375,0.044921875,-0.296142578125,0.7191
-0.04580152671755725,-1.5267175572519085,0.12213740458015267,-0.426025390625,0.0478515625,-0.297119140625,0.7208
-0.2900763358778626,-1.3740458015267176,0.2900763358778626,-0.427490234375,0.052978515625,-0.294677734375,0.7224999999999999
-0.2900763358778626,-1.5114503816793894,0.2595419847328244,-0.42578125,0.05078125,-0.2958984375,0.7242
-0.2748091603053435,-1.6641221374045803,0.48854961832061067,-0.42529296875,0.047119140625,-0.29150390625,0.7259
-0.3511450381679389,-1.7709923664122138,0.32061068702290074,-0.43115234375,0.04833984375,-0.290771484375,0.7275999999999999
-0.2900763358778626,-1.8015267175572518,0.366412213740458,-0.42333984375,0.04345703125,-0.287109375,0.7293
-0.10687022900763359,-1.8778625954198473,0.183206106870229,-0.427734375,0.04345703125,-0.295654296875,0.731
-0.15267175572519084,-1.7709923664122138,0.3053435114503817,-0.429931640625,0.04638671875,-0.29296875,0.7326999999999999
-0.22900763358778625,-1.8473282442748091,0.366412213740458,-0.429931640625,0.04638671875,-0.28515625,0.7343999999999999
-0.061068702290076333,-1.8473282442748091,0.15267175572519084,-0.426025390625,0.04931640625,-0.294921875,0.7361
-0.24427480916030533,-1.633587786259542,0.07633587786259542,-0.4287109375,0.049560546875,-0.29248046875,0.7378
-0.061068702290076333,-1.5267175572519085,0.15267175572519084,-0.428466796875,0.044921875,-0.28857421875,0.7394999999999999
-0.07633587786259542,-1.5877862595419847,-0.16793893129770993,-0.426513671875,0.049560546875,-0.294921875,0.7412
-0.04580152671755725,-1.8473282442748091,-0.21374045801526717,-0.4228515625,0.045166015625,-0.29296875,0.7429
-0.07633587786259542,-1.8473282442748091,-0.16793893129770993,-0.42822265625,0.048583984375,-0.29736328125,0.7445999999999999
-0.07633587786259542,-1.7404580152671756,-0.21374045801526717,-0.4248046875,0.046875,-0.290771484375,0.7463
-0.13740458015267176,-1.786259541984733,-0.16793893129770993,-0.433349609375,0.048583984375,-0.28515625,0.748
0.04580152671755725,-1.6641221374045803,0.0,-0.43359375,0.047607421875,-0.291259765625,0.7496999999999999
0.0916030534351145,-1.6793893129770991,-0.0916030534351145,-0.4296875,0.046630859375,-0.289794921875,0.7514
0.3053435114503817,-1.7404580152671756,-0.030534351145038167,-0.427490234375,0.05224609375,-0.301025390625,0.7531
0.16793893129770993,-1.7251908396946565,-0.3511450381679389,-0.42822265625,0.05078125,-0.29638671875,0.7547999999999999
-0.015267175572519083,-1.5725190839694656,-0.030534351145038167,-0.427734375,0.053466796875,-0.290771484375,0.7565
0.183206106870229,-1.5572519083969465,-0.10687022900763359,-0.428955078125,0.046875,-0.294921875,0.7582
0.3511450381679389,-1.5877862595419847,-0.0916030534351145,-0.427490234375,0.048583984375,-0.298828125,0.7598999999999999
0.1984732824427481,-1.5114503816793894,-0.061068702290076333,-0.424072265625,0.05322265625,-0.293212890625,0.7615999999999999
0.2900763358778626,-1.4045801526717556,-0.10687022900763359,-0.42431640625,0.04736328125,-0.282958984375,0.7633
0.3511450381679389,-1.2061068702290076,-0.366412213740458,-0.431640625,0.049072265625,-0.287841796875,0.7649999999999999
0.32061068702290074,-1.282442748091603,-0.2595419847328244,-0.4287109375,0.050048828125,-0.286865234375,0.7666999999999999
0.16793893129770993,-1.4045801526717556,-0.5801526717557252,-0.430908203125,0.046875,-0.28955078125,0.7684
0.1984732824427481,-1.3740458015267176,-0.4732824427480916,-0.43017578125,0.05078125,-0.296142578125,0.7701
0.2900763358778626,-1.3740458015267176,-0.48854961832061067,-0.4287109375,0.05224609375,-0.29345703125,0.7717999999999999
0.21374045801526717,-1.3435114503816794,-0.48854961832061067,-0.431396484375,0.04541015625,-0.28759765625,0.7735
0.1984732824427481,-1.465648854961832,-0.6564885496183206,-0.423828125,0.047607421875,-0.2880859375,0.7752
0.42748091603053434,-1.5114503816793894,-0.549618320610687,-0.428466796875,0.0556640625,-0.291259765625,0.7768999999999999
0.33587786259541985,-1.450381679389313,-0.549618320610687,-0.4345703125,0.051513671875,-0.297119140625,0.7786
0.33587786259541985,-1.3740458015267176,-0.44274809160305345,-0.42919921875,0.044677734375,-0.28466796875,0.7803
0.3816793893129771,-1.618320610687023,-0.48854961832061067,-0.4296875,0.05126953125,-0.2880859375,0.7819999999999999
0.13740458015267176,-1.3893129770992367,-0.366412213740458,-0.43212890625,0.048828125,-0.297119140625,0.7837
0.07633587786259542,-1.3893129770992367,-0.5343511450381679,-0.4306640625,0.046875,-0.290283203125,0.7854
0.22900763358778625,-1.2213740458015268,-0.5343511450381679,-0.4306640625,0.049560546875,-0.296875,0.7870999999999999
0.32061068702290074,-1.1145038167938932,-0.7633587786259542,-0.431396484375,0.048583984375,-0.2978515625,0.7888
0.3053435114503817,-1.0534351145038168,-0.8091603053435115,-0.431396484375,0.04736328125,-0.28955078125,0.7905
0.3053435114503817,-1.1603053435114503,-0.7175572519083969,-0.4287109375,0.0517578125,-0.294189453125,0.7921999999999999
0.24427480916030533,-1.1603053435114503,-0.8854961832061069,-0.431884765625,0.047607421875,-0.293701171875,0.7938999999999999
0.2748091603053435,-0.8702290076335878,-0.8702290076335878,-0.4306640625,0.047607421875,-0.29638671875,0.7956
0.183206106870229,-0.8396946564885496,-0.8854961832061069,-0.431396484375,0.051025390625,-0.29150390625,0.7973
0.32061068702290074,-0.7633587786259542,-0.9770992366412213,-0.4306640625,0.048095703125,-0.28662109375,0.7989999999999999
0.3053435114503817,-0.7633587786259542,-1.0534351145038168,-0.434326171875,0.05126953125,-0.29150390625,0.8007
0.10687022900763359,-0.8549618320610687,-1.2061068702290076,-0.434814453125,0.04833984375,-0.29345703125,0.8024
0.3511450381679389,-0.8549618320610687,-1.1145038167938932,-0.43505859375,0.046630859375,-0.2890625,0.8040999999999999
0.3816793893129771,-0.7480916030534351,-1.0687022900763359,-0.430419921875,0.0478515625,-0.28515625,0.8058
0.5038167938931297,-0.6106870229007634,-1.2671755725190839,-0.430419921875,0.0546875,-0.282958984375,0.8075
0.2900763358778626,-0.7022900763358778,-1.3129770992366412,-0.432861328125,0.05078125,-0.28271484375,0.8091999999999999
0.21374045801526717,-0.6564885496183206,-1.3435114503816794,-0.429443359375,0.0478515625,-0.287353515625,0.8109
0.3053435114503817,-0.48854961832061067,-1.5267175572519085,-0.431640625,0.05078125,-0.284423828125,0.8126
0.2900763358778626,-0.6870229007633588,-1.4809160305343512,-0.43798828125,0.052001953125,-0.28955078125,0.8142999999999999
0.2900763358778626,-0.7175572519083969,-1.618320610687023,-0.43017578125,0.05126953125,-0.291259765625,0.816
0.24427480916030533,-0.7175572519083969,-1.5267175572519085,-0.433349609375,0.0498046875,-0.29443359375,0.8177
0.2748091603053435,-0.6259541984732825,-1.7404580152671756,-0.4287109375,0.048828125,-0.285400390625,0.8193999999999999
0.2748091603053435,-0.6259541984732825,-1.6793893129770991,-0.4345703125,0.050537109375,-0.28662109375,0.8210999999999999
0.3969465648854962,-0.5954198473282443,-1.7251908396946565,-0.435791015625,0.04833984375,-0.287841796875,0.8228
0.44274809160305345,-0.42748091603053434,-1.7099236641221374,-0.435302734375,0.05078125,-0.29248046875,0.8244999999999999
0.3053435114503817,-0.4580152671755725,-1.7557251908396947,-0.43701171875,0.046875,-0.2939453125,0.8261999999999999
0.42748091603053434,-0.32061068702290074,-1.8778625954198473,-0.434814453125,0.049072265625,-0.287841796875,0.8279
0.48854961832061067,-0.24427480916030533,-1.8473282442748091,-0.435302734375,0.047119140625,-0.2880859375,0.8296
0.549618320610687,-0.04580152671755725,-1.9083969465648856,-0.436767578125,0.052978515625,-0.2890625,0.8312999999999999
0.549618320610687,0.10687022900763359,-2.2442748091603053,-0.43017578125,0.054443359375,-0.29150390625,0.833
0.3969465648854962,-0.030534351145038167,-2.198473282442748,-0.4306640625,0.05224609375,-0.2880859375,0.8347
0.5343511450381679,0.24427480916030533,-2.2595419847328246,-0.43408203125,0.05078125,-0.28857421875,0.8363999999999999
0.5038167938931297,0.16793893129770993,-2.2595419847328246,-0.430419921875,0.04833984375,-0.288330078125,0.8381
0.4122137404580153,0.3816793893129771,-2.2595419847328246,-0.4345703125,0.05224609375,-0.294189453125,0.8398
0.6564885496183206,0.5343511450381679,-2.2442748091603053,-0.434814453125,0.045166015625,-0.293701171875,0.8414999999999999
0.5801526717557252,0.6259541984732825,-2.3969465648854964,-0.434326171875,0.0478515625,-0.296142578125,0.8432
0.5190839694656488,0.5801526717557252,-2.0916030534351147,-0.427734375,0.050048828125,-0.294677734375,0.8449
0.7938931297709924,0.8854961832061069,-2.1374045801526718,-0.434814453125,0.045654296875,-0.293701171875,0.8465999999999999
0.732824427480916,0.6564885496183206,-2.4427480916030535,-0.429443359375,0.05322265625,-0.287353515625,0.8482999999999999
0.48854961832061067,0.6259541984732825,-2.3206106870229006,-0.43310546875,0.050048828125,-0.28369140625,0.85
0.5954198473282443,0.9465648854961832,-2.2748091603053435,-0.43017578125,0.0517578125,-0.290283203125,0.8516999999999999
0.6412213740458015,0.8702290076335878,-2.50381679389313,-0.43017578125,0.0478515625,-0.291748046875,0.8533999999999999
0.732824427480916,0.7938931297709924,-2.519083969465649,-0.43212890625,0.048583984375,-0.2890625,0.8551
0.48854961832061067,0.916030534351145,-2.50381679389313,-0.426513671875,0.04833984375,-0.28662109375,0.8568
0.5190839694656488,0.9465648854961832,-2.4122137404580153,-0.431396484375,0.046142578125,-0.284423828125,0.8584999999999999
0.6412213740458015,0.8396946564885496,-2.4580152671755724,-0.430419921875,0.048095703125,-0.28564453125,0.8602
0.732824427480916,0.916030534351145,-2.427480916030534,-0.431640625,0.05419921875,-0.29248046875,0.8619
0.6412213740458015,0.916030534351145,-2.3053435114503817,-0.426513671875,0.045166015625,-0.291015625,0.8635999999999999
0.6106870229007634,0.8244274809160306,-2.4122137404580153,-0.42919921875,0.0478515625,-0.283447265625,0.8653
0.6717557251908397,0.8091603053435115,-2.427480916030534,-0.42431640625,0.050048828125,-0.287109375,0.867
0.5954198473282443,1.0381679389312977,-2.183206106870229,-0.433349609375,0.04248046875,-0.296630859375,0.8686999999999999
0.6870229007633588,1.1603053435114503,-2.1068702290076335,-0.4326171875,0.0478515625,-0.291259765625,0.8704
0.6564885496183206,1.1297709923664123,-2.16793893129771,-0.432861328125,0.052734375,-0.28369140625,0.8721
0.3816793893129771,1.1450381679389312,-2.2595419847328246,-0.433349609375,0.04638671875,-0.29296875,0.8737999999999999
0.5954198473282443,1.3282442748091603,-2.1068702290076335,-0.433349609375,0.049072265625,-0.285888671875,0.8755
0.6106870229007634,1.3740458015267176,-2.213740458015267,-0.4365234375,0.052734375,-0.287353515625,0.8772
0.6106870229007634,1.3587786259541985,-2.0610687022900764,-0.4287109375,0.05126953125,-0.289794921875,0.8788999999999999
0.6717557251908397,1.5267175572519085,-2.0916030534351147,-0.428466796875,0.049072265625,-0.289306640625,0.8805999999999999
0.7175572519083969,1.5419847328244274,-2.183206106870229,-0.426513671875,0.05126953125,-0.283935546875,0.8823
0.7633587786259542,1.5572519083969465,-2.1068702290076335,-0.42578125,0.0498046875,-0.28759765625,0.8839999999999999
0.549618320610687,1.5114503816793894,-2.2442748091603053,-0.431640625,0.046875,-0.291015625,0.8856999999999999
0.7938931297709924,1.4351145038167938,-2.198473282442748,-0.426513671875,0.0478515625,-0.279541015625,0.8874
0.9465648854961832,1.450381679389313,-2.2290076335877864,-0.428466796875,0.0439453125,-0.289306640625,0.8891
1.0381679389312977,1.618320610687023,-2.183206106870229,-0.43115234375,0.044921875,-0.2900390625,0.8907999999999999
0.7022900763358778,1.7099236641221374,-2.213740458015267,-0.427001953125,0.04345703125,-0.2890625,0.8925
0.8854961832061069,1.5572519083969465,-2.3969465648854964,-0.4306640625,0.044921875,-0.2880859375,0.8942
0.8244274809160306,1.7099236641221374,-2.3053435114503817,-0.43310546875,0.0498046875,-0.293212890625,0.8958999999999999
0.732824427480916,1.618320610687023,-2.33587786259542,-0.430419921875,0.050048828125,-0.287109375,0.8976
0.9923664122137404,1.5419847328244274,-2.213740458015267,-0.4306640625,0.054443359375,-0.28662109375,0.8993
1.1145038167938932,1.6641221374045803,-2.3206106870229006,-0.427001953125,0.048583984375,-0.29150390625,0.9009999999999999
0.8244274809160306,1.6641221374045803,-2.549618320610687,-0.43017578125,0.050048828125,-0.29833984375,0.9027
1.0687022900763359,1.6488549618320612,-2.564885496183206,-0.43017578125,0.048828125,-0.28857421875,0.9044
1.1450381679389312,1.5419847328244274,-2.50381679389313,-0.430419921875,0.044677734375,-0.29248046875,0.9060999999999999
1.1755725190839694,1.4198473282442747,-2.549618320610687,-0.42529296875,0.05322265625,-0.28271484375,0.9077999999999999
1.099236641221374,1.5725190839694656,-2.6564885496183206,-0.428955078125,0.050048828125,-0.287353515625,0.9095
1.1297709923664123,1.8625954198473282,-2.5801526717557253,-0.428955078125,0.047607421875,-0.2841796875,0.9111999999999999
1.2213740458015268,1.8015267175572518,-2.732824427480916,-0.4296875,0.0498046875,-0.284912109375,0.9128999999999999
1.297709923664122,1.786259541984733,-2.595419847328244,-0.4248046875,0.0498046875,-0.288330078125,0.9146
1.2061068702290076,1.9083969465648856,-2.595419847328244,-0.431884765625,0.049560546875,-0.28564453125,0.9163
1.2213740458015268,1.6641221374045803,-2.4732824427480917,-0.43115234375,0.048828125,-0.291015625,0.9179999999999999
1.3740458015267176,1.7557251908396947,-2.4580152671755724,-0.427734375,0.049560546875,-0.2978515625,0.9197
1.2366412213740459,1.9236641221374047,-2.687022900763359,-0.43017578125,0.048095703125,-0.291015625,0.9214
1.2671755725190839,1.8625954198473282,-2.5801526717557253,-0.4287109375,0.0439453125,-0.28125,0.9230999999999999
1.4351145038167938,1.9389312977099236,-2.3969465648854964,-0.4326171875,0.051513671875,-0.296142578125,0.9248
1.3282442748091603,1.816793893129771,-2.50381679389313,-0.42578125,0.050048828125,-0.29248046875,0.9265
1.3740458015267176,1.9389312977099236,-2.549618320610687,-0.429443359375,0.049560546875,-0.29443359375,0.9281999999999999
1.4809160305343512,1.8625954198473282,-2.50381679389313,-0.428955078125,0.053955078125,-0.2958984375,0.9299
1.450381679389313,2.045801526717557,-2.4427480916030535,-0.42724609375,0.04736328125,-0.291748046875,0.9316
1.4045801526717556,1.9541984732824427,-2.687022900763359,-0.4326171875,0.05078125,-0.2900390625,0.9332999999999999
1.4961832061068703,1.984732824427481,-2.4427480916030535,-0.429443359375,0.050537109375,-0.2861328125,0.9349999999999999
1.4809160305343512,2.0610687022900764,-2.5343511450381677,-0.4296875,0.050537109375,-0.290283203125,0.9367
1.6793893129770991,2.015267175572519,-2.3206106870229006,-0.433349609375,0.047607421875,-0.28173828125,0.9383999999999999
1.5877862595419847,1.9694656488549618,-2.50381679389313,-0.4287109375,0.047607421875,-0.29150390625,0.9400999999999999
1.5877862595419847,2.0763358778625953,-2.5801526717557253,-0.4287109375,0.050048828125,-0.29443359375,0.9418
1.465648854961832,2.2748091603053435,-2.564885496183206,-0.428466796875,0.05126953125,-0.290771484375,0.9434999999999999
1.5725190839694656,2.183206106870229,-2.381679389312977,-0.431884765625,0.046875,-0.291259765625,0.9451999999999999
1.816793893129771,2.213740458015267,-2.2290076335877864,-0.431884765625,0.047119140625,-0.29638671875,0.9469
1.8015267175572518,2.2290076335877864,-2.4732824427480917,-0.432861328125,0.0517578125,-0.291259765625,0.9486
1.7099236641221374,2.351145038167939,-2.50381679389313,-0.428466796875,0.046875,-0.284423828125,0.9502999999999999
1.7404580152671756,2.3969465648854964,-2.2748091603053435,-0.435546875,0.054931640625,-0.293212890625,0.952
1.6793893129770991,2.1526717557251906,-2.549618320610687,-0.427978515625,0.047607421875,-0.285400390625,0.9537
1.4809160305343512,2.3053435114503817,-2.1526717557251906,-0.4267578125,0.04833984375,-0.284423828125,0.9553999999999999
1.7709923664122138,2.2442748091603053,-2.5343511450381677,-0.43017578125,0.05322265625,-0.289794921875,0.9571
1.9389312977099236,2.3053435114503817,-2.351145038167939,-0.430908203125,0.045166015625,-0.28955078125,0.9588
1.9694656488549618,2.4580152671755724,-2.4427480916030535,-0.427734375,0.042236328125,-0.29443359375,0.9604999999999999
1.83206106870229,2.3969465648854964,-2.3053435114503817,-0.4296875,0.04638671875,-0.291748046875,0.9621999999999999
1.9541984732824427,2.213740458015267,-2.33587786259542,-0.428466796875,0.051513671875,-0.286376953125,0.9639
2.183206106870229,2.1526717557251906,-2.351145038167939,-0.430908203125,0.04833984375,-0.296630859375,0.9655999999999999
1.984732824427481,2.3206106870229006,-2.4122137404580153,-0.43359375,0.045654296875,-0.2978515625,0.9672999999999999
2.1374045801526718,2.351145038167939,-2.351145038167939,-0.428955078125,0.04736328125,-0.288330078125,0.969
2.0610687022900764,2.3206106870229006,-2.2595419847328246,-0.427734375,0.052490234375,-0.2861328125,0.9706999999999999
2.1526717557251906,2.4732824427480917,-2.2748091603053435,-0.430908203125,0.052001953125,-0.289794921875,0.9723999999999999
1.9236641221374047,2.2442748091603053,-2.366412213740458,-0.426025390625,0.053955078125,-0.287841796875,0.9741
2.045801526717557,2.3206106870229006,-2.427480916030534,-0.426025390625,0.04736328125,-0.28466796875,0.9758
1.8778625954198473,2.4122137404580153,-2.3053435114503817,-0.427490234375,0.052490234375,-0.291748046875,0.9774999999999999
2.0,2.366412213740458,-2.3206106870229006,-0.43359375,0.0537109375,-0.2880859375,0.9792
2.2900763358778624,2.3053435114503817,-2.4580152671755724,-0.42529296875,0.046630859375,-0.294189453125,0.9809
2.198473282442748,2.33587786259542,-2.16793893129771,-0.426025390625,0.05078125,-0.2919921875,0.9825999999999999
2.198473282442748,2.351145038167939,-2.50381679389313,-0.43017578125,0.0498046875,-0.294921875,0.9843
2.366412213740458,2.4122137404580153,-2.2748091603053435,-0.427490234375,0.042724609375,-0.2958984375,0.986
2.2900763358778624,2.381679389312977,-2.2442748091603053,-0.42626953125,0.04736328125,-0.297119140625,0.9876999999999999
2.2595419847328246,2.381679389312977,-2.366412213740458,-0.42919921875,0.05126953125,-0.28515625,0.9894
2.4122137404580153,2.2442748091603053,-2.6259541984732824,-0.430908203125,0.051025390625,-0.291748046875,0.9911
2.427480916030534,2.213740458015267,-2.427480916030534,-0.42822265625,0.04931640625,-0.296875,0.9927999999999999
2.4122137404580153,2.2442748091603053,-2.4580152671755724,-0.431640625,0.05126953125,-0.29345703125,0.9944999999999999
2.2900763358778624,2.2442748091603053,-2.3206106870229006,-0.42333984375,0.05029296875,-0.29248046875,0.9962
2.366412213740458,2.3969465648854964,-2.2900763358778624,-0.42333984375,0.052490234375,-0.290283203125,0.9978999999999999
2.763358778625954,2.2442748091603053,-2.3053435114503817,-0.425537109375,0.052734375,-0.291015625,0.9995999999999999
2.564885496183206,2.183206106870229,-2.595419847328244,-0.426025390625,0.0498046875,-0.290771484375,1.0012999999999999
2.2290076335877864,2.366412213740458,-2.381679389312977,-0.42529296875,0.044677734375,-0.2890625,1.003
2.4427480916030535,2.1526717557251906,-2.4427480916030535,-0.418212890625,0.043701171875,-0.28857421875,1.0047
2.6564885496183206,2.213740458015267,-2.519083969465649,-0.4248046875,0.046630859375,-0.29052734375,1.0064
2.549618320610687,2.1068702290076335,-2.7022900763358777,-0.43017578125,0.04150390625,-0.2890625,1.0081
2.50381679389313,2.122137404580153,-2.4732824427480917,-0.427978515625,0.047607421875,-0.29248046875,1.0098
2.4580152671755724,2.122137404580153,-2.687022900763359,-0.427001953125,0.050537109375,-0.293212890625,1.0114999999999998
2.732824427480916,2.1068702290076335,-2.4580152671755724,-0.42724609375,0.047607421875,-0.2900390625,1.0131999999999999
2.5801526717557253,2.2290076335877864,-2.687022900763359,-0.422119140625,0.05029296875,-0.287109375,1.0149
2.885496183206107,2.1374045801526718,-2.6259541984732824,-0.4248046875,0.050537109375,-0.290283203125,1.0166
2.7022900763358777,2.0916030534351147,-2.885496183206107,-0.426513671875,0.05126953125,-0.2861328125,1.0183
2.854961832061069,2.1068702290076335,-2.7786259541984735,-0.42724609375,0.051513671875,-0.295166015625,1.02
2.8396946564885495,2.183206106870229,-2.732824427480916,-0.423828125,0.043701171875,-0.29296875,1.0217
2.6717557251908395,2.2442748091603053,-2.8702290076335877,-0.427490234375,0.046142578125,-0.287109375,1.0233999999999999
2.7938931297709924,2.1374045801526718,-2.854961832061069,-0.4306640625,0.047607421875,-0.2978515625,1.0251
2.6564885496183206,2.1374045801526718,-2.8244274809160306,-0.427978515625,0.043212890625,-0.295654296875,1.0268
2.854961832061069,2.0916030534351147,-2.763358778625954,-0.42919921875,0.044189453125,-0.29638671875,1.0285
2.9618320610687023,2.16793893129771,-2.564885496183206,-0.423095703125,0.04248046875,-0.29296875,1.0302
2.9160305343511452,2.0916030534351147,-2.7480916030534353,-0.42333984375,0.04638671875,-0.299072265625,1.0319
2.8702290076335877,1.8778625954198473,-2.732824427480916,-0.421875,0.05126953125,-0.29345703125,1.0335999999999999
2.9618320610687023,1.9694656488549618,-2.8702290076335877,-0.427490234375,0.0458984375,-0.2939453125,1.0352999999999999
2.7022900763358777,1.9694656488549618,-2.9160305343511452,-0.424560546875,0.047119140625,-0.286376953125,1.037
3.0839694656488548,2.1068702290076335,-3.1908396946564888,-0.42138671875,0.0458984375,-0.28759765625,1.0387
3.1297709923664123,1.9083969465648856,-3.1603053435114505,-0.424072265625,0.04345703125,-0.296142578125,1.0404
2.7786259541984735,1.8625954198473282,-3.3893129770992365,-0.425537109375,0.04931640625,-0.293701171875,1.0421
3.1297709923664123,1.7557251908396947,-3.267175572519084,-0.4306640625,0.0458984375,-0.290771484375,1.0437999999999998
3.0381679389312977,1.633587786259542,-3.7099236641221376,-0.429443359375,0.046142578125,-0.2880859375,1.0454999999999999
2.8396946564885495,1.5725190839694656,-3.450381679389313,-0.42236328125,0.05126953125,-0.29833984375,1.0472
3.0229007633587788,1.5267175572519085,-3.5419847328244276,-0.422119140625,0.049560546875,-0.294921875,1.0489
3.068702290076336,1.3587786259541985,-3.4656488549618323,-0.42333984375,0.048095703125,-0.29833984375,1.0506
2.9618320610687023,1.5572519083969465,-3.450381679389313,-0.42919921875,0.045166015625,-0.2919921875,1.0523
2.931297709923664,1.3893129770992367,-3.3435114503816794,-0.42822265625,0.046142578125,-0.291259765625,1.054
3.236641221374046,1.465648854961832,-3.5877862595419847,-0.428466796875,0.044921875,-0.29638671875,1.0556999999999999
3.068702290076336,1.450381679389313,-3.5267175572519083,-0.4287109375,0.050048828125,-0.2890625,1.0574
3.068702290076336,1.4198473282442747,-3.6030534351145036,-0.4296875,0.05078125,-0.295166015625,1.0591
2.9923664122137406,1.3893129770992367,-3.450381679389313,-0.427734375,0.041748046875,-0.2958984375,1.0608
2.8396946564885495,1.4198473282442747,-3.633587786259542,-0.429931640625,0.0419921875,-0.296142578125,1.0625
2.8702290076335877,1.3129770992366412,-3.83206106870229,-0.42919921875,0.050537109375,-0.29296875,1.0642
3.099236641221374,1.5114503816793894,-3.801526717557252,-0.430419921875,0.0478515625,-0.294677734375,1.0658999999999998
3.0076335877862594,1.3435114503816794,-3.9083969465648853,-0.43017578125,0.0478515625,-0.29931640625,1.0675999999999999
3.1297709923664123,1.2366412213740459,-4.122137404580153,-0.426025390625,0.045654296875,-0.290283203125,1.0693
2.946564885496183,1.282442748091603,-4.122137404580153,-0.431396484375,0.04638671875,-0.30078125,1.071
2.854961832061069,1.1908396946564885,-4.2748091603053435,-0.428466796875,0.050537109375,-0.294677734375,1.0727
3.099236641221374,1.1297709923664123,-3.9083969465648853,-0.427734375,0.046630859375,-0.292236328125,1.0744
3.053435114503817,1.083969465648855,-4.030534351145038,-0.423095703125,0.044189453125,-0.285400390625,1.0760999999999998
3.0229007633587788,1.0534351145038168,-4.198473282442748,-0.43115234375,0.04248046875,-0.27783203125,1.0777999999999999
2.900763358778626,1.1297709923664123,-3.954198473282443,-0.430419921875,0.044677734375,-0.287841796875,1.0795
3.068702290076336,1.2671755725190839,-3.954198473282443,-0.42333984375,0.0478515625,-0.28466796875,1.0812
3.1297709923664123,1.1145038167938932,-4.229007633587786,-0.426513671875,0.0498046875,-0.290771484375,1.0829
2.946564885496183,1.083969465648855,-4.213740458015267,-0.4287109375,0.046875,-0.298828125,1.0846
2.9618320610687023,0.9465648854961832,-4.122137404580153,-0.431884765625,0.042724609375,-0.289794921875,1.0863
3.0381679389312977,0.9465648854961832,-4.396946564885496,-0.434326171875,0.043701171875,-0.296630859375,1.0879999999999999
3.1908396946564888,0.9923664122137404,-4.595419847328245,-0.428955078125,0.048828125,-0.29345703125,1.0897
2.9770992366412212,1.1450381679389312,-4.625954198473282,-0.427978515625,0.050048828125,-0.292724609375,1.0914
3.1908396946564888,0.9618320610687023,-4.534351145038168,-0.42626953125,0.048828125,-0.30126953125,1.0931
3.145038167938931,0.8702290076335878,-4.549618320610687,-0.42724609375,0.04248046875,-0.29443359375,1.0948
2.9923664122137406,0.7786259541984732,-4.809160305343512,-0.427001953125,0.043701171875,-0.295654296875,1.0965
3.0381679389312977,0.8396946564885496,-4.824427480916031,-0.4267578125,0.0458984375,-0.287109375,1.0981999999999998
3.2213740458015265,0.9618320610687023,-4.732824427480916,-0.4267578125,0.04736328125,-0.291748046875,1.0998999999999999
3.1755725190839694,1.0534351145038168,-4.809160305343512,-0.420654296875,0.048583984375,-0.29296875,1.1016
3.1755725190839694,0.9007633587786259,-4.977099236641221,-0.42578125,0.051513671875,-0.30078125,1.1033
3.114503816793893,0.8091603053435115,-4.854961832061068,-0.428466796875,0.045166015625,-0.29541015625,1.105
3.114503816793893,0.9465648854961832,-5.022900763358779,-0.426025390625,0.04150390625,-0.291259765625,1.1067
3.1297709923664123,0.7786259541984732,-4.931297709923665,-0.4287109375,0.0478515625,-0.294677734375,1.1083999999999998
3.114503816793893,0.7786259541984732,-5.1603053435114505,-0.422119140625,0.046630859375,-0.289306640625,1.1100999999999999
3.145038167938931,0.9923664122137404,-5.114503816793893,-0.42724609375,0.04541015625,-0.29248046875,1.1118
3.1297709923664123,0.7633587786259542,-5.129770992366412,-0.431640625,0.041015625,-0.29052734375,1.1135
3.435114503816794,0.9770992366412213,-5.3893129770992365,-0.431640625,0.04736328125,-0.2880859375,1.1152
3.2519083969465647,1.0229007633587786,-5.419847328244275,-0.427490234375,0.045654296875,-0.286865234375,1.1169
3.2213740458015265,1.0229007633587786,-5.526717557251908,-0.42822265625,0.044189453125,-0.29541015625,1.1186
3.312977099236641,1.0687022900763359,-5.557251908396947,-0.427490234375,0.04443359375,-0.2841796875,1.1202999999999999
3.3893129770992365,0.9770992366412213,-5.4961832061068705,-0.433837890625,0.0478515625,-0.298095703125,1.1219999999999999
3.3282442748091605,1.0534351145038168,-5.419847328244275,-0.43017578125,0.04541015625,-0.28857421875,1.1237
3.1755725190839694,1.1755725190839694,-5.633587786259542,-0.42919921875,0.044677734375,-0.289794921875,1.1254
3.2519083969465647,1.1908396946564885,-5.7251908396946565,-0.4287109375,0.046875,-0.293212890625,1.1271
3.49618320610687,1.1908396946564885,-5.862595419847328,-0.43017578125,0.049560546875,-0.28955078125,1.1288
3.1297709923664123,1.1450381679389312,-5.587786259541985,-0.43505859375,0.04150390625,-0.294921875,1.1304999999999998
3.404580152671756,1.2366412213740459,-5.786259541984733,-0.428466796875,0.045166015625,-0.29248046875,1.1321999999999999
3.5572519083969465,1.1145038167938932,-5.694656488549619,-0.42919921875,0.040283203125,-0.298828125,1.1339
3.3435114503816794,1.3282442748091603,-5.923664122137405,-0.4287109375,0.0458984375,-0.300537109375,1.1356
3.49618320610687,1.3435114503816794,-6.0,-0.427978515625,0.044189453125,-0.2822265625,1.1373
3.7709923664122136,1.3282442748091603,-6.0458015267175576,-0.433349609375,0.0400390625,-0.29296875,1.139
3.404580152671756,1.2061068702290076,-6.061068702290076,-0.435791015625,0.043212890625,-0.294677734375,1.1407
3.5114503816793894,1.251908396946565,-6.198473282442748,-0.425048828125,0.043701171875,-0.294921875,1.1423999999999999
3.5419847328244276,1.4351145038167938,-6.122137404580153,-0.427001953125,0.046875,-0.29248046875,1.1441
3.7099236641221376,1.3893129770992367,-6.259541984732825,-0.4306640625,0.0458984375,-0.2880859375,1.1458
3.480916030534351,1.4045801526717556,-6.458015267175573,-0.430908203125,0.04345703125,-0.28955078125,1.1475
3.801526717557252,1.4809160305343512,-6.427480916030534,-0.429931640625,0.04638671875,-0.28955078125,1.1492
3.6030534351145036,1.6641221374045803,-6.6106870229007635,-0.429931640625,0.04833984375,-0.294189453125,1.1509
3.801526717557252,1.5267175572519085,-6.824427480916031,-0.43212890625,0.038330078125,-0.29248046875,1.1525999999999998
3.7709923664122136,1.816793893129771,-7.068702290076335,-0.43212890625,0.045654296875,-0.29296875,1.1542999999999999
3.9389312977099236,1.8015267175572518,-7.099236641221374,-0.4296875,0.045166015625,-0.2861328125,1.156
3.83206106870229,1.9541984732824427,-7.022900763358779,-0.425537109375,0.04541015625,-0.290283203125,1.1577
3.83206106870229,2.0,-7.282442748091603,-0.427001953125,0.03955078125,-0.29443359375,1.1594
4.0,1.9236641221374047,-7.358778625954199,-0.43310546875,0.0458984375,-0.292724609375,1.1611
3.8473282442748094,1.9389312977099236,-7.557251908396947,-0.42724609375,0.04931640625,-0.291748046875,1.1627999999999998
4.091603053435114,1.9541984732824427,-7.3893129770992365,-0.43115234375,0.047119140625,-0.294189453125,1.1644999999999999
3.83206106870229,1.8931297709923665,-7.572519083969466,-0.427978515625,0.039794921875,-0.2880859375,1.1662
4.0,1.984732824427481,-7.801526717557252,-0.427490234375,0.0400390625,-0.289794921875,1.1679
4.0,2.0610687022900764,-7.923664122137405,-0.42578125,0.040771484375,-0.296142578125,1.1696
3.7251908396946565,2.015267175572519,-7.862595419847328,-0.4306640625,0.044677734375,-0.292724609375,1.1713
3.9083969465648853,2.1374045801526718,-8.01526717557252,-0.42626953125,0.044189453125,-0.291748046875,1.173
4.137404580152672,2.0763358778625953,-8.259541984732824,-0.4296875,0.037353515625,-0.29833984375,1.1746999999999999
3.83206106870229,2.0763358778625953,-8.183206106870228,-0.43505859375,0.04736328125,-0.298828125,1.1764
3.648854961832061,2.198473282442748,-8.274809160305344,-0.425048828125,0.040283203125,-0.2890625,1.1781
3.7099236641221376,2.2442748091603053,-8.50381679389313,-0.4267578125,0.043701171875,-0.29541015625,1.1798
3.877862595419847,2.183206106870229,-8.473282442748092,-0.4296875,0.043701171875,-0.29248046875,1.1815
3.877862595419847,2.122137404580153,-8.732824427480915,-0.421875,0.036376953125,-0.293212890625,1.1832
3.877862595419847,2.198473282442748,-8.610687022900763,-0.423095703125,0.0390625,-0.293701171875,1.1848999999999998
3.816793893129771,2.2900763358778624,-8.763358778625955,-0.42822265625,0.039794921875,-0.29150390625,1.1865999999999999
3.7099236641221376,2.0916030534351147,-8.83969465648855,-0.42919921875,0.0380859375,-0.2978515625,1.1883
3.6946564885496183,2.045801526717557,-8.870229007633588,-0.42919921875,0.036865234375,-0.282958984375,1.19
3.618320610687023,2.030534351145038,-8.717557251908397,-0.423095703125,0.035400390625,-0.29541015625,1.1917
3.3435114503816794,2.183206106870229,-9.022900763358779,-0.429931640625,0.0390625,-0.297119140625,1.1934
3.5419847328244276,1.984732824427481,-8.885496183206106,-0.427001953125,0.03955078125,-0.287353515625,1.1950999999999998
3.5572519083969465,2.0,-9.145038167938932,-0.427490234375,0.04052734375,-0.296142578125,1.1967999999999999
3.312977099236641,2.045801526717557,-9.038167938931299,-0.42822265625,0.0361328125,-0.28564453125,1.1985
3.404580152671756,1.9389312977099236,-9.129770992366412,-0.427734375,0.0400390625,-0.2861328125,1.2002
3.480916030534351,2.015267175572519,-8.977099236641221,-0.426025390625,0.037841796875,-0.2822265625,1.2019
3.404580152671756,2.015267175572519,-8.992366412213741,-0.429443359375,0.033203125,-0.29296875,1.2036
3.3893129770992365,2.183206106870229,-8.900763358778626,-0.432861328125,0.0380859375,-0.2998046875,1.2053
3.3587786259541983,2.030534351145038,-9.068702290076336,-0.431396484375,0.039794921875,-0.29931640625,1.2069999999999999
3.2213740458015265,2.0916030534351147,-9.16030534351145,-0.430419921875,0.042724609375,-0.29296875,1.2086999999999999
3.0839694656488548,1.8778625954198473,-9.312977099236642,-0.4248046875,0.04296875,-0.29345703125,1.2104
3.099236641221374,1.8015267175572518,-9.251908396946565,-0.431396484375,0.035888671875,-0.296142578125,1.2121
3.099236641221374,1.8015267175572518,-9.450381679389313,-0.4287109375,0.035888671875,-0.303955078125,1.2138
3.099236641221374,1.9236641221374047,-9.48091603053435,-0.427978515625,0.033203125,-0.29638671875,1.2155
3.053435114503817,2.045801526717557,-9.374045801526718,-0.43310546875,0.03515625,-0.2880859375,1.2171999999999998
3.068702290076336,1.618320610687023,-9.511450381679388,-0.4267578125,0.041015625,-0.29248046875,1.2188999999999999
2.931297709923664,1.7251908396946565,-9.511450381679388,-0.419189453125,0.03369140625,-0.29345703125,1.2206
2.763358778625954,1.5877862595419847,-9.221374045801527,-0.430908203125,0.0341796875,-0.29345703125,1.2223
2.7786259541984735,1.6641221374045803,-9.435114503816793,-0.4296875,0.032958984375,-0.29296875,1.224
2.854961832061069,1.633587786259542,-9.48091603053435,-0.427001953125,0.037353515625,-0.286376953125,1.2257
2.7480916030534353,1.8473282442748091,-9.526717557251908,-0.42578125,0.032958984375,-0.298583984375,1.2273999999999998
2.687022900763359,1.633587786259542,-9.419847328244275,-0.4267578125,0.03564453125,-0.2919921875,1.2290999999999999
2.763358778625954,1.5114503816793894,-9.557251908396946,-0.428466796875,0.0390625,-0.2939453125,1.2308
2.6259541984732824,1.633587786259542,-9.435114503816793,-0.427001953125,0.031982421875,-0.290283203125,1.2325
2.6106870229007635,1.6793893129770991,-9.48091603053435,-0.425537109375,0.03369140625,-0.2978515625,1.2342
2.6259541984732824,1.6641221374045803,-9.129770992366412,-0.427490234375,0.033447265625,-0.283935546875,1.2359
2.2900763358778624,1.5725190839694656,-9.419847328244275,-0.429931640625,0.0341796875,-0.2978515625,1.2376
2.519083969465649,1.6030534351145038,-9.374045801526718,-0.429931640625,0.036376953125,-0.30126953125,1.2392999999999998
2.4732824427480917,1.5114503816793894,-9.526717557251908,-0.430908203125,0.03857421875,-0.29443359375,1.2409999999999999
2.595419847328244,1.5267175572519085,-9.267175572519085,-0.427978515625,0.037109375,-0.295654296875,1.2427
2.50381679389313,1.6030534351145038,-9.526717557251908,-0.43017578125,0.029052734375,-0.2939453125,1.2444
2.50381679389313,1.7099236641221374,-9.206106870229007,-0.4296875,0.0341796875,-0.29931640625,1.2461
2.1526717557251906,1.633587786259542,-9.465648854961833,-0.433349609375,0.032958984375,-0.2958984375,1.2478
2.366412213740458,1.786259541984733,-9.511450381679388,-0.4326171875,0.03369140625,-0.30078125,1.2494999999999998
2.3969465648854964,1.7557251908396947,-9.465648854961833,-0.43505859375,0.03076171875,-0.291748046875,1.2511999999999999
2.3053435114503817,1.786259541984733,-9.282442748091603,-0.431884765625,0.033447265625,-0.29248046875,1.2529
2.0916030534351147,2.015267175572519,-9.419847328244275,-0.43359375,0.03466796875,-0.29541015625,1.2546
2.1374045801526718,2.2442748091603053,-9.465648854961833,-0.430908203125,0.031982421875,-0.2978515625,1.2563
2.427480916030534,2.2290076335877864,-9.419847328244275,-0.433349609375,0.032958984375,-0.29736328125,1.258
2.2595419847328246,2.2748091603053435,-9.206106870229007,-0.43505859375,0.03466796875,-0.289306640625,1.2596999999999998
2.198473282442748,2.183206106870229,-9.251908396946565,-0.43359375,0.03564453125,-0.296142578125,1.2613999999999999
2.2595419847328246,2.2900763358778624,-9.129770992366412,-0.43115234375,0.0341796875,-0.297119140625,1.2631
2.2442748091603053,2.4580152671755724,-9.251908396946565,-0.429931640625,0.03564453125,-0.2958984375,1.2648
2.2748091603053435,2.4122137404580153,-9.236641221374045,-0.431640625,0.0341796875,-0.29052734375,1.2665
2.122137404580153,2.33587786259542,-9.312977099236642,-0.437744140625,0.033203125,-0.29736328125,1.2682
2.015267175572519,2.366412213740458,-8.931297709923664,-0.435302734375,0.035888671875,-0.29541015625,1.2699
2.4427480916030535,2.687022900763359,-8.992366412213741,-0.431884765625,0.027099609375,-0.29931640625,1.2715999999999998
2.2748091603053435,2.595419847328244,-8.80916030534351,-0.423583984375,0.03173828125,-0.296142578125,1.2732999999999999
2.2442748091603053,2.519083969465649,-9.114503816793894,-0.428466796875,0.037109375,-0.29833984375,1.275
2.030534351145038,2.4732824427480917,-8.900763358778626,-0.430419921875,0.033203125,-0.284423828125,1.2767
2.1374045801526718,2.6412213740458017,-8.854961832061068,-0.428466796875,0.026123046875,-0.2880859375,1.2784
1.9694656488549618,2.4580152671755724,-8.595419847328245,-0.424072265625,0.031494140625,-0.28759765625,1.2801
2.1068702290076335,2.519083969465649,-8.687022900763358,-0.431640625,0.029296875,-0.295654296875,1.2817999999999998
2.122137404580153,2.687022900763359,-8.412213740458014,-0.4267578125,0.02734375,-0.298828125,1.2834999999999999
2.183206106870229,2.595419847328244,-8.473282442748092,-0.42333984375,0.0302734375,-0.290771484375,1.2852
2.045801526717557,2.6717557251908395,-8.305343511450381,-0.427734375,0.0283203125,-0.291259765625,1.2869
2.0,2.549618320610687,-8.351145038167939,-0.425537109375,0.031494140625,-0.296142578125,1.2886
2.122137404580153,2.8091603053435112,-8.13740458015267,-0.4296875,0.03369140625,-0.298828125,1.2903
2.0,2.9618320610687023,-8.15267175572519,-0.430419921875,0.035888671875,-0.298095703125,1.292
2.213740458015267,2.763358778625954,-8.198473282442748,-0.434326171875,0.036376953125,-0.300537109375,1.2936999999999999
2.1374045801526718,2.885496183206107,-8.213740458015268,-0.4267578125,0.02880859375,-0.303466796875,1.2953999999999999
2.183206106870229,3.0381679389312977,-7.893129770992366,-0.42724609375,0.0341796875,-0.30078125,1.2971
2.0916030534351147,2.9770992366412212,-7.679389312977099,-0.42822265625,0.0302734375,-0.291748046875,1.2988
2.183206106870229,3.0381679389312977,-7.648854961832061,-0.428955078125,0.03173828125,-0.29345703125,1.3005
2.1526717557251906,2.9923664122137406,-7.786259541984733,-0.427490234375,0.0302734375,-0.290283203125,1.3022
2.1374045801526718,3.145038167938931,-7.374045801526718,-0.432861328125,0.030517578125,-0.29248046875,1.3038999999999998
1.8778625954198473,3.114503816793893,-7.32824427480916,-0.4306640625,0.031982421875,-0.297607421875,1.3055999999999999
2.183206106870229,3.2061068702290076,-7.190839694656488,-0.42822265625,0.0263671875,-0.299072265625,1.3073
2.3053435114503817,3.3587786259541983,-7.114503816793893,-0.43115234375,0.03466796875,-0.2978515625,1.309
2.030534351145038,3.053435114503817,-7.114503816793893,-0.4296875,0.033203125,-0.298095703125,1.3107
2.351145038167939,3.145038167938931,-7.114503816793893,-0.428466796875,0.031982421875,-0.30322265625,1.3124
2.2442748091603053,3.099236641221374,-6.9465648854961835,-0.426513671875,0.03125,-0.283935546875,1.3140999999999998
2.3053435114503817,3.282442748091603,-6.748091603053435,-0.4345703125,0.034912109375,-0.29345703125,1.3157999999999999
2.4732824427480917,3.312977099236641,-6.67175572519084,-0.432373046875,0.03515625,-0.29833984375,1.3175
2.4122137404580153,3.267175572519084,-6.900763358778626,-0.432861328125,0.03271484375,-0.28955078125,1.3192
2.1068702290076335,3.0229007633587788,-6.732824427480916,-0.430908203125,0.03271484375,-0.29931640625,1.3209
2.4427480916030535,3.404580152671756,-6.870229007633588,-0.4248046875,0.030517578125,-0.30029296875,1.3226
2.2595419847328246,3.282442748091603,-6.702290076335878,-0.432373046875,0.0302734375,-0.296630859375,1.3243
2.351145038167939,3.1603053435114505,-6.748091603053435,-0.43505859375,0.03076171875,-0.298828125,1.3259999999999998
2.4885496183206106,3.267175572519084,-6.5038167938931295,-0.43505859375,0.029296875,-0.29052734375,1.3276999999999999
2.6106870229007635,2.9618320610687023,-6.5038167938931295,-0.429931640625,0.030029296875,-0.2900390625,1.3294
2.519083969465649,2.9618320610687023,-6.366412213740458,-0.4306640625,0.028076171875,-0.287353515625,1.3311
2.6412213740458017,3.0076335877862594,-6.366412213740458,-0.430419921875,0.03369140625,-0.29931640625,1.3328
2.4427480916030535,3.0229007633587788,-6.2748091603053435,-0.428466796875,0.02880859375,-0.297607421875,1.3345
2.9618320610687023,2.931297709923664,-6.122137404580153,-0.429443359375,0.0302734375,-0.300048828125,1.3361999999999998
2.8244274809160306,2.717557251908397,-5.893129770992366,-0.425048828125,0.02734375,-0.296630859375,1.3378999999999999
2.7786259541984735,2.7938931297709924,-5.801526717557252,-0.433349609375,0.0341796875,-0.3017578125,1.3396
2.6717557251908395,2.9618320610687023,-5.740458015267175,-0.42919921875,0.027587890625,-0.30126953125,1.3413
2.854961832061069,2.7786259541984735,-5.694656488549619,-0.4267578125,0.028076171875,-0.29345703125,1.343
2.885496183206107,2.854961832061069,-5.557251908396947,-0.4287109375,0.03173828125,-0.29541015625,1.3447
2.7786259541984735,2.8396946564885495,-5.66412213740458,-0.427978515625,0.0341796875,-0.298095703125,1.3463999999999998
2.763358778625954,2.900763358778626,-5.572519083969466,-0.433837890625,0.026123046875,-0.28759765625,1.3480999999999999
3.0076335877862594,2.931297709923664,-5.526717557251908,-0.42919921875,0.028076171875,-0.289794921875,1.3497999999999999
2.8396946564885495,2.717557251908397,-5.282442748091603,-0.431884765625,0.024169921875,-0.296142578125,1.3515
3.0229007633587788,2.687022900763359,-5.206106870229007,-0.4287109375,0.024658203125,-0.29833984375,1.3532
2.8244274809160306,2.8702290076335877,-5.282442748091603,-0.42529296875,0.029541015625,-0.294677734375,1.3549
2.763358778625954,2.9618320610687023,-5.129770992366412,-0.42822265625,0.029296875,-0.296142578125,1.3566
3.0229007633587788,2.7480916030534353,-4.99236641221374,-0.429931640625,0.02734375,-0.297607421875,1.3582999999999998
2.8702290076335877,2.595419847328244,-4.99236641221374,-0.429443359375,0.024169921875,-0.29345703125,1.3599999999999999
2.9618320610687023,2.5801526717557253,-4.732824427480916,-0.424072265625,0.02880859375,-0.28662109375,1.3617
2.732824427480916,2.687022900763359,-4.5038167938931295,-0.4248046875,0.02734375,-0.292236328125,1.3634
2.9770992366412212,2.763358778625954,-4.732824427480916,-0.427490234375,0.02490234375,-0.287109375,1.3651
2.8396946564885495,2.50381679389313,-4.396946564885496,-0.42236328125,0.026611328125,-0.294677734375,1.3668
2.9618320610687023,2.351145038167939,-4.198473282442748,-0.4287109375,0.02783203125,-0.291748046875,1.3684999999999998
2.854961832061069,2.33587786259542,-4.198473282442748,-0.4296875,0.03173828125,-0.29541015625,1.3701999999999999
2.9160305343511452,2.427480916030534,-4.198473282442748,-0.427734375,0.025634765625,-0.297607421875,1.3719
3.0076335877862594,2.687022900763359,-3.954198473282443,-0.42578125,0.028076171875,-0.28662109375,1.3736
3.0839694656488548,2.381679389312977,-3.8625954198473282,-0.429443359375,0.027587890625,-0.29150390625,1.3753
3.099236641221374,2.351145038167939,-3.816793893129771,-0.423828125,0.026611328125,-0.291748046875,1.377
2.8396946564885495,2.2595419847328246,-3.7251908396946565,-0.427734375,0.02587890625,-0.291748046875,1.3786999999999998
3.068702290076336,2.198473282442748,-3.6030534351145036,-0.420654296875,0.029296875,-0.299072265625,1.3803999999999998
3.2213740458015265,2.213740458015267,-3.6030534351145036,-0.427001953125,0.02490234375,-0.291015625,1.3820999999999999
3.1297709923664123,2.213740458015267,-3.5267175572519083,-0.427734375,0.02685546875,-0.3056640625,1.3838
3.0076335877862594,2.1374045801526718,-3.480916030534351,-0.423828125,0.031005859375,-0.296142578125,1.3855
3.0381679389312977,2.198473282442748,-3.3282442748091605,-0.42919921875,0.028564453125,-0.30029296875,1.3872
3.0229007633587788,2.16793893129771,-3.3282442748091605,-0.419921875,0.02734375,-0.299560546875,1.3889
3.114503816793893,1.9389312977099236,-3.1908396946564888,-0.4228515625,0.02685546875,-0.301025390625,1.3905999999999998
3.3282442748091605,2.0610687022900764,-3.114503816793893,-0.4287109375,0.026123046875,-0.294677734375,1.3922999999999999
3.3587786259541983,2.045801526717557,-3.099236641221374,-0.4267578125,0.025390625,-0.293212890625,1.394
3.2977099236641223,1.9083969465648856,-2.946564885496183,-0.424560546875,0.028564453125,-0.29296875,1.3957
3.312977099236641,1.816793893129771,-2.8396946564885495,-0.42626953125,0.0224609375,-0.296875,1.3974
3.1755725190839694,1.9236641221374047,-2.854961832061069,-0.4267578125,0.024658203125,-0.296875,1.3991
3.3587786259541983,1.7557251908396947,-2.7022900763358777,-0.427001953125,0.022705078125,-0.302978515625,1.4007999999999998
3.2519083969465647,1.9694656488549618,-2.6259541984732824,-0.431396484375,0.025634765625,-0.300537109375,1.4024999999999999
3.3893129770992365,2.015267175572519,-2.6106870229007635,-0.42724609375,0.026123046875,-0.29052734375,1.4042
3.5267175572519083,1.5572519083969465,-2.4885496183206106,-0.420654296875,0.02880859375,-0.2998046875,1.4059
3.312977099236641,1.7404580152671756,-2.4732824427480917,-0.42822265625,0.02587890625,-0.298095703125,1.4076
3.2213740458015265,1.8015267175572518,-2.2595419847328246,-0.427978515625,0.028076171875,-0.28857421875,1.4093
3.450381679389313,1.7251908396946565,-2.0763358778625953,-0.4326171875,0.025146484375,-0.291748046875,1.411
3.1603053435114505,1.83206106870229,-1.984732824427481,-0.429443359375,0.02197265625,-0.29248046875,1.4126999999999998
3.3435114503816794,1.6793893129770991,-1.9083969465648856,-0.430908203125,0.0234375,-0.2939453125,1.4143999999999999
3.5572519083969465,1.8015267175572518,-2.0763358778625953,-0.434326171875,0.025146484375,-0.301025390625,1.4161
3.267175572519084,1.9236641221374047,-1.786259541984733,-0.4296875,0.022705078125,-0.296142578125,1.4178
3.2519083969465647,1.8778625954198473,-1.7251908396946565,-0.431884765625,0.02294921875,-0.293212890625,1.4195
3.3435114503816794,1.816793893129771,-1.5267175572519085,-0.426025390625,0.028076171875,-0.296630859375,1.4212
3.4198473282442747,1.6030534351145038,-1.5267175572519085,-0.42529296875,0.02685546875,-0.29833984375,1.4228999999999998
3.267175572519084,1.6641221374045803,-1.4198473282442747,-0.4296875,0.0322265625,-0.303466796875,1.4245999999999999
3.3435114503816794,1.6793893129770991,-1.4045801526717556,-0.427490234375,0.02490234375,-0.2958984375,1.4263
3.114503816793893,1.6488549618320612,-1.3282442748091603,-0.4287109375,0.021484375,-0.2998046875,1.428
3.0381679389312977,1.5267175572519085,-1.3587786259541985,-0.4287109375,0.024169921875,-0.3037109375,1.4297
3.2213740458015265,1.786259541984733,-1.1908396946564885,-0.431640625,0.024169921875,-0.298828125,1.4314
3.236641221374046,1.5725190839694656,-1.1908396946564885,-0.43359375,0.027587890625,-0.302001953125,1.4330999999999998
3.1297709923664123,1.6488549618320612,-0.8854961832061069,-0.42431640625,0.0244140625,-0.2958984375,1.4347999999999999
3.145038167938931,1.5114503816793894,-1.0381679389312977,-0.4228515625,0.02685546875,-0.291015625,1.4364999999999999
3.1603053435114505,1.465648854961832,-0.6106870229007634,-0.429931640625,0.0224609375,-0.29541015625,1.4382
3.1908396946564888,1.3587786259541985,-0.7786259541984732,-0.4287109375,0.02978515625,-0.29345703125,1.4399
2.9770992366412212,1.4809160305343512,-0.6870229007633588,-0.428466796875,0.028076171875,-0.297119140625,1.4416
3.2061068702290076,1.4351145038167938,-0.7022900763358778,-0.432861328125,0.0263671875,-0.29443359375,1.4433
3.0381679389312977,1.3740458015267176,-0.5801526717557252,-0.430908203125,0.025390625,-0.29443359375,1.4449999999999998
3.0229007633587788,1.450381679389313,-0.6106870229007634,-0.427490234375,0.023193359375,-0.29931640625,1.4466999999999999
3.099236641221374,1.3740458015267176,-0.2900763358778626,-0.427490234375,0.025390625,-0.290771484375,1.4484
3.068702290076336,1.1755725190839694,-0.4732824427480916,-0.4267578125,0.027099609375,-0.2998046875,1.4501
3.0381679389312977,1.251908396946565,-0.44274809160305345,-0.425048828125,0.02783203125,-0.2919921875,1.4518
2.9770992366412212,1.3740458015267176,-0.4122137404580153,-0.4326171875,0.023193359375,-0.287109375,1.4535
2.931297709923664,1.1755725190839694,-0.3816793893129771,-0.42822265625,0.024658203125,-0.29443359375,1.4551999999999998
2.8091603053435112,1.251908396946565,-0.2595419847328244,-0.430908203125,0.029296875,-0.302001953125,1.4568999999999999
2.7480916030534353,1.1755725190839694,-0.3053435114503817,-0.425537109375,0.029296875,-0.309326171875,1.4586
2.946564885496183,1.1755725190839694,-0.4122137404580153,-0.427734375,0.0234375,-0.296142578125,1.4603
3.0229007633587788,1.1755725190839694,-0.13740458015267176,-0.435302734375,0.028564453125,-0.296142578125,1.462
3.053435114503817,1.0076335877862594,-0.42748091603053434,-0.428955078125,0.024658203125,-0.295654296875,1.4637
2.946564885496183,1.0687022900763359,-0.10687022900763359,-0.426513671875,0.02587890625,-0.30078125,1.4653999999999998
2.7022900763358777,0.9312977099236641,-0.42748091603053434,-0.42724609375,0.025146484375,-0.300537109375,1.4670999999999998
2.9770992366412212,1.0534351145038168,-0.2900763358778626,-0.430419921875,0.026123046875,-0.297607421875,1.4687999999999999
2.900763358778626,1.083969465648855,-0.3511450381679389,-0.42578125,0.029296875,-0.299072265625,1.4705
2.885496183206107,1.0381679389312977,-0.44274809160305345,-0.427978515625,0.026611328125,-0.296630859375,1.4722
2.9160305343511452,0.9618320610687023,-0.4580152671755725,-0.430419921875,0.029296875,-0.2998046875,1.4739
2.9160305343511452,0.9618320610687023,-0.5648854961832062,-0.423583984375,0.031494140625,-0.294921875,1.4756
2.8396946564885495,1.0687022900763359,-0.7633587786259542,-0.42724609375,0.0263671875,-0.29638671875,1.4772999999999998
2.946564885496183,0.8702290076335878,-0.549618320610687,-0.428955078125,0.026123046875,-0.292236328125,1.4789999999999999
2.885496183206107,1.0229007633587786,-0.7786259541984732,-0.428955078125,0.026123046875,-0.29736328125,1.4807
3.0229007633587788,1.0381679389312977,-0.5801526717557252,-0.42919921875,0.02734375,-0.291015625,1.4824
3.0076335877862594,1.0381679389312977,-1.1145038167938932,-0.431884765625,0.031005859375,-0.299560546875,1.4841
2.8702290076335877,1.083969465648855,-0.8244274809160306,-0.43017578125,0.028564453125,-0.298828125,1.4858
3.1297709923664123,1.099236641221374,-0.916030534351145,-0.427734375,0.02685546875,-0.297607421875,1.4874999999999998
3.099236641221374,0.9465648854961832,-1.0687022900763359,-0.43408203125,0.0302734375,-0.298583984375,1.4891999999999999
2.946564885496183,0.9923664122137404,-1.2061068702290076,-0.42431640625,0.03369140625,-0.30224609375,1.4909
2.9770992366412212,1.0229007633587786,-0.9465648854961832,-0.4296875,0.029052734375,-0.2978515625,1.4926
2.9923664122137406,0.9465648854961832,-1.2061068702290076,-0.429443359375,0.026611328125,-0.298828125,1.4943
2.9923664122137406,1.0381679389312977,-1.2366412213740459,-0.427490234375,0.027099609375,-0.2958984375,1.496
2.9160305343511452,0.9465648854961832,-1.3129770992366412,-0.42529296875,0.026123046875,-0.300048828125,1.4976999999999998
2.9770992366412212,0.9465648854961832,-1.3893129770992367,-0.427490234375,0.03271484375,-0.301025390625,1.4993999999999998
3.053435114503817,0.8244274809160306,-1.4961832061068703,-0.425537109375,0.029052734375,-0.30078125,1.5010999999999999
3.053435114503817,0.8396946564885496,-1.3435114503816794,-0.426025390625,0.029296875,-0.299072265625,1.5028
2.885496183206107,1.1145038167938932,-1.5419847328244274,-0.42578125,0.0322265625,-0.297119140625,1.5045
2.8702290076335877,0.8396946564885496,-1.5114503816793894,-0.431884765625,0.025390625,-0.294189453125,1.5062
2.8396946564885495,0.732824427480916,-1.4961832061068703,-0.427001953125,0.027099609375,-0.2958984375,1.5079
2.8702290076335877,0.7633587786259542,-1.5419847328244274,-0.4296875,0.0244140625,-0.292724609375,1.5095999999999998
2.8091603053435112,0.6564885496183206,-1.7404580152671756,-0.432373046875,0.03125,-0.30078125,1.5112999999999999
2.9618320610687023,0.7480916030534351,-1.6641221374045803,-0.424072265625,0.0263671875,-0.2939453125,1.513
2.946564885496183,0.8091603053435115,-1.8625954198473282,-0.426513671875,0.02734375,-0.299072265625,1.5147
2.8396946564885495,0.732824427480916,-1.7404580152671756,-0.426513671875,0.027587890625,-0.30322265625,1.5164
2.732824427480916,0.6412213740458015,-1.9083969465648856,-0.4287109375,0.0263671875,-0.295654296875,1.5181
2.931297709923664,0.5648854961832062,-1.6946564885496183,-0.43115234375,0.027099609375,-0.297119140625,1.5197999999999998
2.854961832061069,0.6870229007633588,-1.9694656488549618,-0.430419921875,0.02490234375,-0.298583984375,1.5214999999999999
2.732824427480916,0.6259541984732825,-1.7709923664122138,-0.42822265625,0.02978515625,-0.285400390625,1.5231999999999999
2.8091603053435112,0.6259541984732825,-1.9541984732824427,-0.428955078125,0.03125,-0.298828125,1.5249
2.946564885496183,0.48854961832061067,-1.8015267175572518,-0.4287109375,0.028076171875,-0.292724609375,1.5266
2.717557251908397,0.6259541984732825,-1.9389312977099236,-0.42138671875,0.024658203125,-0.304931640625,1.5283
2.6412213740458017,0.5954198473282443,-1.9083969465648856,-0.43115234375,0.0283203125,-0.299560546875,1.5299999999999998
2.6259541984732824,0.6870229007633588,-2.0610687022900764,-0.429931640625,0.02734375,-0.30078125,1.5316999999999998
2.8091603053435112,0.549618320610687,-1.9694656488549618,-0.419921875,0.0302734375,-0.2939453125,1.5333999999999999
2.6412213740458017,0.4732824427480916,-2.0,-0.423583984375,0.02099609375,-0.3037109375,1.5351
2.6106870229007635,0.2900763358778626,-1.9083969465648856,-0.425048828125,0.02734375,-0.299072265625,1.5368
2.8396946564885495,0.33587786259541985,-2.2595419847328246,-0.42626953125,0.02783203125,-0.28857421875,1.5385
2.595419847328244,0.2748091603053435,-2.122137404580153,-0.429931640625,0.031982421875,-0.298583984375,1.5402
2.732824427480916,0.2748091603053435,-2.0610687022900764,-0.4296875,0.03076171875,-0.300537109375,1.5418999999999998
2.549618320610687,0.48854961832061067,-1.9694656488549618,-0.4267578125,0.030517578125,-0.28759765625,1.5435999999999999
2.6106870229007635,0.32061068702290074,-2.045801526717557,-0.431640625,0.02734375,-0.298583984375,1.5453
2.6564885496183206,0.2595419847328244,-1.7557251908396947,-0.4248046875,0.0302734375,-0.29736328125,1.547
2.6259541984732824,0.3969465648854962,-1.8778625954198473,-0.431396484375,0.02587890625,-0.30029296875,1.5487
2.5801526717557253,0.48854961832061067,-1.9083969465648856,-0.43310546875,0.025146484375,-0.2978515625,1.5504
2.6106870229007635,0.4732824427480916,-1.816793893129771,-0.42578125,0.0244140625,-0.296142578125,1.5520999999999998
2.3053435114503817,0.5648854961832062,-1.7557251908396947,-0.434326171875,0.030029296875,-0.29541015625,1.5537999999999998
2.33587786259542,0.4580152671755725,-1.8015267175572518,-0.43115234375,0.029296875,-0.302001953125,1.5554999999999999
2.4885496183206106,0.5801526717557252,-1.8625954198473282,-0.430908203125,0.026123046875,-0.2998046875,1.5572
2.427480916030534,0.44274809160305345,-1.8931297709923665,-0.4306640625,0.02490234375,-0.29931640625,1.5589
2.50381679389313,0.33587786259541985,-1.9236641221374047,-0.423828125,0.029052734375,-0.302978515625,1.5606
2.564885496183206,0.33587786259541985,-2.0,-0.420654296875,0.0263671875,-0.292724609375,1.5623
2.549618320610687,0.48854961832061067,-1.984732824427481,-0.426513671875,0.031982421875,-0.295166015625,1.5639999999999998
2.3053435114503817,0.4580152671755725,-1.7709923664122138,-0.42919921875,0.028076171875,-0.30029296875,1.5656999999999999
2.595419847328244,0.2595419847328244,-1.7099236641221374,-0.4287109375,0.025390625,-0.295654296875,1.5674
2.4580152671755724,0.2748091603053435,-1.6793893129770991,-0.42578125,0.024658203125,-0.290283203125,1.5691
2.4580152671755724,0.33587786259541985,-1.618320610687023,-0.42529296875,0.0234375,-0.29345703125,1.5708
2.549618320610687,0.32061068702290074,-1.8625954198473282,-0.427734375,0.026123046875,-0.291748046875,1.5725
2.5343511450381677,0.5343511450381679,-1.816793893129771,-0.426513671875,0.028564453125,-0.296142578125,1.5741999999999998
2.3206106870229006,0.4580152671755725,-2.0916030534351147,-0.434326171875,0.02783203125,-0.295166015625,1.5758999999999999
2.5801526717557253,0.5648854961832062,-1.9236641221374047,-0.430419921875,0.02587890625,-0.301513671875,1.5776
2.6106870229007635,0.6412213740458015,-2.0763358778625953,-0.42919921875,0.03173828125,-0.30517578125,1.5793
2.519083969465649,0.6412213740458015,-2.2442748091603053,-0.427490234375,0.02685546875,-0.306640625,1.581
2.2595419847328246,0.5954198473282443,-2.213740458015267,-0.43017578125,0.03125,-0.286865234375,1.5827
2.4122137404580153,0.5954198473282443,-2.1526717557251906,-0.426025390625,0.03076171875,-0.28759765625,1.5843999999999998
2.4732824427480917,0.48854961832061067,-2.3206106870229006,-0.42529296875,0.0302734375,-0.28857421875,1.5860999999999998
2.2900763358778624,0.4732824427480916,-2.366412213740458,-0.42578125,0.0244140625,-0.302490234375,1.5877999999999999
2.4580152671755724,0.549618320610687,-2.1374045801526718,-0.4326171875,0.027587890625,-0.29443359375,1.5895
2.4427480916030535,0.4580152671755725,-2.16793893129771,-0.426025390625,0.028564453125,-0.2958984375,1.5912
2.4122137404580153,0.5038167938931297,-2.122137404580153,-0.426025390625,0.03173828125,-0.2939453125,1.5929
2.427480916030534,0.42748091603053434,-1.9236641221374047,-0.43359375,0.02587890625,-0.299560546875,1.5946
2.3969465648854964,0.6259541984732825,-1.9389312977099236,-0.4326171875,0.0283203125,-0.29541015625,1.5962999999999998
2.4122137404580153,0.4732824427480916,-2.1068702290076335,-0.433349609375,0.024169921875,-0.295166015625,1.5979999999999999
2.4732824427480917,0.549618320610687,-1.984732824427481,-0.430908203125,0.028076171875,-0.29296875,1.5997
2.33587786259542,0.5190839694656488,-2.0,-0.43017578125,0.029052734375,-0.295654296875,1.6014
2.3053435114503817,0.5190839694656488,-1.9541984732824427,-0.433349609375,0.0244140625,-0.302490234375,1.6031
2.381679389312977,0.6106870229007634,-2.015267175572519,-0.42919921875,0.02587890625,-0.29248046875,1.6048
2.1526717557251906,0.5801526717557252,-1.984732824427481,-0.430908203125,0.023681640625,-0.298828125,1.6064999999999998
2.4122137404580153,0.7480916030534351,-2.183206106870229,-0.43115234375,0.027587890625,-0.290283203125,1.6081999999999999
2.2442748091603053,0.6564885496183206,-1.9236641221374047,-0.43408203125,0.02783203125,-0.302490234375,1.6098999999999999
2.1526717557251906,0.5190839694656488,-2.030534351145038,-0.4248046875,0.028564453125,-0.297607421875,1.6116
2.16793893129771,0.44274809160305345,-2.030534351145038,-0.431884765625,0.023193359375,-0.29296875,1.6133
2.2595419847328246,0.6106870229007634,-1.9541984732824427,-0.43115234375,0.02197265625,-0.29833984375,1.615
2.0610687022900764,0.6870229007633588,-1.8625954198473282,-0.43115234375,0.02734375,-0.2890625,1.6166999999999998
2.1374045801526718,0.5801526717557252,-2.015267175572519,-0.4267578125,0.02587890625,-0.298095703125,1.6183999999999998
2.1068702290076335,0.7480916030534351,-2.0,-0.427978515625,0.030517578125,-0.2998046875,1.6200999999999999
2.030534351145038,0.732824427480916,-1.9541984732824427,-0.429931640625,0.029541015625,-0.29931640625,1.6218
2.0763358778625953,0.48854961832061067,-1.8015267175572518,-0.428466796875,0.031982421875,-0.291259765625,1.6235
2.1526717557251906,0.732824427480916,-1.8625954198473282,-0.429443359375,0.027099609375,-0.2880859375,1.6252
1.984732824427481,0.7786259541984732,-2.0610687022900764,-0.431884765625,0.0224609375,-0.2919921875,1.6269
2.045801526717557,0.6717557251908397,-2.122137404580153,-0.432373046875,0.024658203125,-0.288818359375,1.6285999999999998
2.1526717557251906,0.7175572519083969,-1.6946564885496183,-0.4287109375,0.026611328125,-0.298828125,1.6302999999999999
1.984732824427481,0.7786259541984732,-1.7709923664122138,-0.4296875,0.023193359375,-0.291748046875,1.632
1.9694656488549618,0.5801526717557252,-1.984732824427481,-0.431884765625,0.0263671875,-0.2880859375,1.6337
1.9083969465648856,0.7786259541984732,-2.122137404580153,-0.427978515625,0.02783203125,-0.294189453125,1.6354
1.9541984732824427,0.6259541984732825,-2.0,-0.429443359375,0.027587890625,-0.289794921875,1.6371
1.8931297709923665,0.5801526717557252,-2.0763358778625953,-0.428466796875,0.026611328125,-0.293212890625,1.6387999999999998
1.9541984732824427,0.4122137404580153,-2.045801526717557,-0.4287109375,0.027099609375,-0.29150390625,1.6404999999999998
1.816793893129771,0.6412213740458015,-2.0916030534351147,-0.42578125,0.022216796875,-0.296630859375,1.6421999999999999
1.7099236641221374,0.6412213740458015,-2.1068702290076335,-0.429931640625,0.0283203125,-0.29931640625,1.6439
1.984732824427481,0.6412213740458015,-2.1526717557251906,-0.43505859375,0.0263671875,-0.2939453125,1.6456
1.9389312977099236,0.7938931297709924,-1.9541984732824427,-0.42724609375,0.029052734375,-0.28515625,1.6473
1.9694656488549618,0.7633587786259542,-2.0916030534351147,-0.427978515625,0.032470703125,-0.293212890625,1.6489999999999998
1.9236641221374047,0.8702290076335878,-2.0,-0.42919921875,0.02783203125,-0.30126953125,1.6506999999999998
1.7251908396946565,0.9465648854961832,-2.16793893129771,-0.427734375,0.03271484375,-0.300537109375,1.6523999999999999
1.7404580152671756,1.2061068702290076,-2.198473282442748,-0.431640625,0.032470703125,-0.298095703125,1.6541
2.030534351145038,1.1450381679389312,-2.2290076335877864,-0.4306640625,0.0302734375,-0.289794921875,1.6558
2.2748091603053435,1.282442748091603,-2.1526717557251906,-0.435791015625,0.02783203125,-0.297607421875,1.6575
2.0916030534351147,1.251908396946565,-2.4427480916030535,-0.434814453125,0.021484375,-0.296875,1.6592
1.7099236641221374,1.1603053435114503,-2.381679389312977,-0.4326171875,0.025634765625,-0.297607421875,1.6608999999999998
1.8931297709923665,1.0534351145038168,-2.366412213740458,-0.432373046875,0.02587890625,-0.296630859375,1.6625999999999999
2.015267175572519,1.282442748091603,-2.4427480916030535,-0.43115234375,0.0302734375,-0.291748046875,1.6643
1.9083969465648856,1.2213740458015268,-2.6717557251908395,-0.42626953125,0.027587890625,-0.2939453125,1.666
1.9083969465648856,0.9618320610687023,-2.381679389312977,-0.427490234375,0.033935546875,-0.29736328125,1.6677
1.9694656488549618,0.8854961832061069,-2.50381679389313,-0.431640625,0.02734375,-0.29296875,1.6694
1.83206106870229,1.0229007633587786,-2.4122137404580153,-0.43017578125,0.02587890625,-0.293212890625,1.6710999999999998
1.7709923664122138,0.8549618320610687,-2.4885496183206106,-0.431640625,0.025634765625,-0.29150390625,1.6727999999999998
1.8015267175572518,0.8091603053435115,-2.2442748091603053,-0.4248046875,0.0263671875,-0.29541015625,1.6744999999999999
2.3053435114503817,1.0381679389312977,-2.2290076335877864,-0.428955078125,0.0224609375,-0.28857421875,1.6762
2.045801526717557,0.9312977099236641,-2.3053435114503817,-0.436767578125,0.027099609375,-0.290771484375,1.6779
2.045801526717557,0.9923664122137404,-2.381679389312977,-0.429931640625,0.026123046875,-0.296630859375,1.6796
1.9389312977099236,1.2213740458015268,-2.3969465648854964,-0.4296875,0.0263671875,-0.292724609375,1.6813
2.183206106870229,1.0687022900763359,-2.4732824427480917,-0.42822265625,0.027099609375,-0.303466796875,1.6829999999999998
2.0763358778625953,1.0534351145038168,-2.2900763358778624,-0.432373046875,0.0244140625,-0.296630859375,1.6846999999999999
2.015267175572519,1.251908396946565,-2.6564885496183206,-0.4326171875,0.023193359375,-0.29296875,1.6864
1.9236641221374047,1.3435114503816794,-2.4885496183206106,-0.42919921875,0.025634765625,-0.290283203125,1.6881
2.1068702290076335,1.4961832061068703,-2.4885496183206106,-0.431640625,0.022216796875,-0.289306640625,1.6898
2.2595419847328246,1.5267175572519085,-2.381679389312977,-0.431640625,0.028564453125,-0.290283203125,1.6915
1.8015267175572518,1.5114503816793894,-2.6259541984732824,-0.43603515625,0.028564453125,-0.291748046875,1.6931999999999998
2.0,1.3282442748091603,-2.4580152671755724,-0.4267578125,0.0244140625,-0.296142578125,1.6948999999999999
2.2748091603053435,1.3740458015267176,-2.564885496183206,-0.426513671875,0.022216796875,-0.29248046875,1.6965999999999999
1.984732824427481,1.3129770992366412,-2.3969465648854964,-0.43212890625,0.024169921875,-0.296875,1.6983
1.8778625954198473,1.1297709923664123,-2.4885496183206106,-0.423583984375,0.0234375,-0.29736328125,1.7
2.0763358778625953,1.282442748091603,-2.351145038167939,-0.4267578125,0.031494140625,-0.295166015625,1.7017
1.984732824427481,1.0534351145038168,-2.2290076335877864,-0.421875,0.023193359375,-0.297607421875,1.7033999999999998
2.1526717557251906,1.099236641221374,-2.381679389312977,-0.430908203125,0.024169921875,-0.28759765625,1.7050999999999998
2.1526717557251906,1.083969465648855,-2.198473282442748,-0.4287109375,0.027587890625,-0.292724609375,1.7067999999999999
1.9236641221374047,1.1297709923664123,-2.1068702290076335,-0.435302734375,0.025146484375,-0.289794921875,1.7085
2.0610687022900764,1.099236641221374,-2.122137404580153,-0.427001953125,0.025390625,-0.290283203125,1.7102
2.213740458015267,1.0534351145038168,-1.8473282442748091,-0.42919921875,0.020751953125,-0.29638671875,1.7119
1.8473282442748091,1.1603053435114503,-2.183206106870229,-0.426025390625,0.027587890625,-0.294677734375,1.7136
1.8473282442748091,0.9618320610687023,-1.8931297709923665,-0.427978515625,0.026123046875,-0.289794921875,1.7152999999999998
2.030534351145038,1.083969465648855,-1.9541984732824427,-0.429443359375,0.02880859375,-0.287109375,1.7169999999999999
2.2442748091603053,1.251908396946565,-1.816793893129771,-0.428466796875,0.02490234375,-0.29541015625,1.7187
2.1374045801526718,1.2061068702290076,-1.8625954198473282,-0.429931640625,0.02734375,-0.296142578125,1.7204
2.0763358778625953,1.1297709923664123,-1.8625954198473282,-0.429931640625,0.021728515625,-0.29052734375,1.7221
1.9541984732824427,1.282442748091603,-2.0916030534351147,-0.43359375,0.028076171875,-0.296630859375,1.7238
2.122137404580153,1.2366412213740459,-2.030534351145038,-0.43115234375,0.02490234375,-0.291259765625,1.7254999999999998
2.2900763358778624,1.1145038167938932,-1.8473282442748091,-0.431884765625,0.025634765625,-0.295654296875,1.7271999999999998
2.1068702290076335,1.1450381679389312,-1.9236641221374047,-0.42822265625,0.026123046875,-0.2978515625,1.7288999999999999
2.1068702290076335,1.1145038167938932,-2.0763358778625953,-0.42578125,0.03125,-0.2939453125,1.7306
2.1374045801526718,1.2061068702290076,-1.83206106870229,-0.427490234375,0.03173828125,-0.289306640625,1.7323
2.2748091603053435,1.2061068702290076,-2.015267175572519,-0.427734375,0.026611328125,-0.2900390625,1.734
2.1526717557251906,1.1908396946564885,-1.8778625954198473,-0.424072265625,0.028564453125,-0.28662109375,1.7356999999999998
2.1068702290076335,1.099236641221374,-1.7251908396946565,-0.4267578125,0.026611328125,-0.293212890625,1.7373999999999998
1.984732824427481,1.1145038167938932,-1.6488549618320612,-0.4326171875,0.028076171875,-0.295166015625,1.7390999999999999
2.3206106870229006,1.1145038167938932,-1.6793893129770991,-0.4287109375,0.0263671875,-0.29052734375,1.7408
2.3206106870229006,1.0687022900763359,-1.6793893129770991,-0.42724609375,0.02490234375,-0.291748046875,1.7425
2.381679389312977,0.9923664122137404,-1.7709923664122138,-0.429931640625,0.0244140625,-0.301513671875,1.7442
2.2290076335877864,0.9007633587786259,-1.5725190839694656,-0.427490234375,0.02978515625,-0.290283203125,1.7459
2.351145038167939,0.8549618320610687,-1.5725190839694656,-0.431640625,0.02490234375,-0.293212890625,1.7475999999999998
2.2290076335877864,0.9465648854961832,-1.633587786259542,-0.431640625,0.027587890625,-0.29541015625,1.7492999999999999
2.351145038167939,0.9312977099236641,-1.5572519083969465,-0.427978515625,0.0263671875,-0.29443359375,1.751
2.4732824427480917,0.8854961832061069,-1.4351145038167938,-0.428466796875,0.025146484375,-0.293212890625,1.7527
2.2290076335877864,0.8244274809160306,-1.5114503816793894,-0.4267578125,0.0263671875,-0.30078125,1.7544
2.4427480916030535,0.8549618320610687,-1.4809160305343512,-0.43017578125,0.02734375,-0.295654296875,1.7561
2.3969465648854964,0.5954198473282443,-1.5114503816793894,-0.4306640625,0.02978515625,-0.29248046875,1.7577999999999998
2.0916030534351147,0.6106870229007634,-1.2366412213740459,-0.43212890625,0.028564453125,-0.297119140625,1.7594999999999998
2.351145038167939,0.8396946564885496,-1.3282442748091603,-0.428955078125,0.02685546875,-0.295654296875,1.7611999999999999
2.351145038167939,0.7022900763358778,-1.282442748091603,-0.427734375,0.0224609375,-0.29150390625,1.7629
2.3053435114503817,0.6717557251908397,-1.4045801526717556,-0.427734375,0.024658203125,-0.303466796875,1.7646
2.351145038167939,0.732824427480916,-1.3435114503816794,-0.43115234375,0.025390625,-0.295654296875,1.7663
2.6717557251908395,0.5954198473282443,-1.3282442748091603,-0.429931640625,0.029296875,-0.302490234375,1.7679999999999998
2.366412213740458,0.4732824427480916,-1.2671755725190839,-0.435791015625,0.01708984375,-0.297607421875,1.7696999999999998
2.4427480916030535,0.549618320610687,-1.1755725190839694,-0.429931640625,0.022705078125,-0.29296875,1.7713999999999999
2.4427480916030535,0.7480916030534351,-1.1450381679389312,-0.42919921875,0.0263671875,-0.29052734375,1.7731
2.4732824427480917,0.5648854961832062,-1.2213740458015268,-0.43310546875,0.02392578125,-0.295654296875,1.7748
2.4580152671755724,0.6106870229007634,-1.0229007633587786,-0.432861328125,0.02880859375,-0.293701171875,1.7765
2.183206106870229,0.6870229007633588,-1.0381679389312977,-0.432373046875,0.02392578125,-0.298095703125,1.7782
2.2900763358778624,0.732824427480916,-0.9007633587786259,-0.434326171875,0.02685546875,-0.288818359375,1.7798999999999998
2.351145038167939,0.6870229007633588,-1.1145038167938932,-0.4296875,0.0234375,-0.29833984375,1.7815999999999999
2.3206106870229006,0.5190839694656488,-0.9618320610687023,-0.42822265625,0.02783203125,-0.295166015625,1.7832999999999999
2.366412213740458,0.5954198473282443,-1.0229007633587786,-0.426025390625,0.029296875,-0.2841796875,1.785
2.549618320610687,0.6870229007633588,-0.9007633587786259,-0.431884765625,0.024169921875,-0.2919921875,1.7867
2.351145038167939,0.5343511450381679,-0.9312977099236641,-0.4248046875,0.026611328125,-0.29638671875,1.7884
2.183206106870229,0.6106870229007634,-0.7480916030534351,-0.4287109375,0.027587890625,-0.296875,1.7900999999999998
2.1526717557251906,0.5038167938931297,-0.8091603053435115,-0.42333984375,0.0244140625,-0.290283203125,1.7917999999999998
2.33587786259542,0.732824427480916,-0.5648854961832062,-0.42919921875,0.02734375,-0.290771484375,1.7934999999999999
2.366412213740458,0.5801526717557252,-0.6717557251908397,-0.42626953125,0.0234375,-0.297119140625,1.7952
2.3206106870229006,0.4732824427480916,-0.5343511450381679,-0.429931640625,0.026123046875,-0.296875,1.7969
2.2595419847328246,0.5801526717557252,-0.4580152671755725,-0.429931640625,0.024658203125,-0.30517578125,1.7986
2.2900763358778624,0.7480916030534351,-0.6259541984732825,-0.42431640625,0.0263671875,-0.29150390625,1.8002999999999998
2.3206106870229006,0.5954198473282443,-0.5190839694656488,-0.432861328125,0.0234375,-0.28955078125,1.8019999999999998
2.2900763358778624,0.8244274809160306,-0.44274809160305345,-0.4306640625,0.02099609375,-0.296142578125,1.8036999999999999
2.213740458015267,0.7786259541984732,-0.5954198473282443,-0.43408203125,0.023193359375,-0.289794921875,1.8054
2.213740458015267,0.8244274809160306,-0.48854961832061067,-0.42578125,0.03076171875,-0.290283203125,1.8071
2.1068702290076335,0.8549618320610687,-0.4122137404580153,-0.4287109375,0.0234375,-0.29150390625,1.8088
