gyrox1,gyroy1,gyroz1,accelx1,accely1,accelz1,Time
-1.5572519083969465,0.5038167938931297,-2.2900763358778624,-0.464599609375,0.01220703125,-0.11181640625,0.0
-1.3435114503816794,0.4732824427480916,-2.3206106870229006,-0.466552734375,0.0107421875,-0.12109375,0.0017
-1.251908396946565,0.48854961832061067,-2.2442748091603053,-0.4638671875,0.0068359375,-0.123046875,0.0034
-1.2061068702290076,0.42748091603053434,-2.2290076335877864,-0.464599609375,0.010986328125,-0.120361328125,0.0050999999999999995
-1.1755725190839694,0.7633587786259542,-2.2748091603053435,-0.470458984375,0.008056640625,-0.12353515625,0.0068
-1.0534351145038168,0.5038167938931297,-2.2748091603053435,-0.468505859375,0.01318359375,-0.120849609375,0.008499999999999999
-0.9618320610687023,0.5343511450381679,-2.33587786259542,-0.468017578125,0.0078125,-0.119140625,0.010199999999999999
-0.8091603053435115,0.5190839694656488,-2.3969465648854964,-0.466552734375,0.0078125,-0.117431640625,0.011899999999999999
-0.8244274809160306,0.6412213740458015,-2.213740458015267,-0.471923828125,0.0087890625,-0.121337890625,0.0136
-0.6870229007633588,0.6870229007633588,-2.3053435114503817,-0.466796875,0.010009765625,-0.118896484375,0.0153
-0.6717557251908397,0.5954198473282443,-2.4122137404580153,-0.467529296875,0.01416015625,-0.111328125,0.016999999999999998
-0.5801526717557252,0.5801526717557252,-2.2595419847328246,-0.4638671875,0.00830078125,-0.116943359375,0.018699999999999998
-0.5038167938931297,0.549618320610687,-2.5801526717557253,-0.458984375,0.0068359375,-0.122314453125,0.020399999999999998
-0.183206106870229,0.6717557251908397,-2.427480916030534,-0.46533203125,0.017578125,-0.121337890625,0.022099999999999998
-0.21374045801526717,0.6412213740458015,-2.2748091603053435,-0.465576171875,0.016845703125,-0.10986328125,0.023799999999999998
-0.2595419847328244,0.5190839694656488,-2.4580152671755724,-0.465087890625,0.012451171875,-0.113525390625,0.0255
0.0,0.6106870229007634,-2.3053435114503817,-0.466064453125,0.00830078125,-0.12353515625,0.0272
0.030534351145038167,0.6717557251908397,-2.1374045801526718,-0.46484375,0.01806640625,-0.11083984375,0.0289
-0.15267175572519084,0.6412213740458015,-2.4427480916030535,-0.47119140625,0.01513671875,-0.115234375,0.0306
-0.10687022900763359,0.7938931297709924,-2.3206106870229006,-0.462158203125,0.013671875,-0.119873046875,0.032299999999999995
-0.030534351145038167,0.8244274809160306,-2.33587786259542,-0.4716796875,0.00830078125,-0.11865234375,0.033999999999999996
0.21374045801526717,0.8396946564885496,-2.4732824427480917,-0.468017578125,0.012939453125,-0.122802734375,0.035699999999999996
0.10687022900763359,0.7480916030534351,-2.3206106870229006,-0.463134765625,0.009033203125,-0.125732421875,0.037399999999999996
0.1984732824427481,0.732824427480916,-2.381679389312977,-0.4658203125,0.0078125,-0.11669921875,0.039099999999999996
0.13740458015267176,0.7633587786259542,-2.366412213740458,-0.470947265625,0.00830078125,-0.114013671875,0.040799999999999996
0.2900763358778626,0.9770992366412213,-2.351145038167939,-0.4677734375,0.0126953125,-0.118408203125,0.042499999999999996
0.3816793893129771,1.0534351145038168,-2.4122137404580153,-0.4677734375,0.01171875,-0.126708984375,0.044199999999999996
0.3053435114503817,0.8244274809160306,-2.2748091603053435,-0.46875,0.010986328125,-0.118896484375,0.045899999999999996
0.3511450381679389,0.8702290076335878,-2.381679389312977,-0.463134765625,0.01123046875,-0.1142578125,0.047599999999999996
0.2900763358778626,0.9007633587786259,-2.3053435114503817,-0.466552734375,0.009033203125,-0.123779296875,0.0493
0.5954198473282443,0.9465648854961832,-2.2900763358778624,-0.472412109375,0.01123046875,-0.12255859375,0.051
0.5648854961832062,0.8091603053435115,-2.213740458015267,-0.472412109375,0.009521484375,-0.115234375,0.0527
0.7175572519083969,0.7633587786259542,-2.3969465648854964,-0.468017578125,0.01220703125,-0.121826171875,0.0544
0.5038167938931297,0.8244274809160306,-2.16793893129771,-0.469970703125,0.00732421875,-0.1201171875,0.0561
0.7786259541984732,1.099236641221374,-2.3206106870229006,-0.4697265625,0.007080078125,-0.11376953125,0.0578
0.8396946564885496,1.0534351145038168,-2.122137404580153,-0.46240234375,0.0087890625,-0.118408203125,0.0595
0.8244274809160306,0.9770992366412213,-2.4885496183206106,-0.46533203125,0.00927734375,-0.12548828125,0.0612
1.1450381679389312,1.0687022900763359,-2.045801526717557,-0.468505859375,0.006103515625,-0.126220703125,0.0629
0.9770992366412213,1.0687022900763359,-2.1068702290076335,-0.465576171875,0.00439453125,-0.119873046875,0.06459999999999999
1.1450381679389312,0.9923664122137404,-1.9694656488549618,-0.4658203125,0.007568359375,-0.115234375,0.0663
1.1908396946564885,1.0534351145038168,-2.1068702290076335,-0.464599609375,0.012451171875,-0.12841796875,0.06799999999999999
1.2671755725190839,1.083969465648855,-2.0763358778625953,-0.465576171875,0.00830078125,-0.126708984375,0.0697
1.0687022900763359,0.9618320610687023,-2.351145038167939,-0.463134765625,0.00830078125,-0.123291015625,0.07139999999999999
1.1908396946564885,1.099236641221374,-1.9694656488549618,-0.4677734375,0.01123046875,-0.11328125,0.0731
1.4198473282442747,1.1755725190839694,-2.0610687022900764,-0.47021484375,0.01318359375,-0.123046875,0.07479999999999999
1.3129770992366412,0.9923664122137404,-2.045801526717557,-0.467041015625,0.00634765625,-0.11376953125,0.0765
1.2061068702290076,1.083969465648855,-1.984732824427481,-0.4638671875,0.0048828125,-0.119140625,0.07819999999999999
1.3587786259541985,1.0687022900763359,-1.9236641221374047,-0.4638671875,0.00634765625,-0.125732421875,0.0799
1.3435114503816794,1.0229007633587786,-2.0916030534351147,-0.46484375,0.008544921875,-0.11669921875,0.08159999999999999
1.3282442748091603,1.0534351145038168,-1.9541984732824427,-0.460693359375,0.007080078125,-0.12255859375,0.0833
1.251908396946565,0.9618320610687023,-2.045801526717557,-0.46630859375,0.0087890625,-0.125,0.08499999999999999
1.3282442748091603,0.9923664122137404,-1.8015267175572518,-0.46240234375,0.00830078125,-0.118408203125,0.0867
1.4045801526717556,1.1145038167938932,-2.16793893129771,-0.468017578125,0.00927734375,-0.116455078125,0.08839999999999999
1.2213740458015268,1.1603053435114503,-1.8778625954198473,-0.464599609375,0.006591796875,-0.11962890625,0.0901
1.3282442748091603,1.083969465648855,-1.7557251908396947,-0.4677734375,0.005615234375,-0.121826171875,0.09179999999999999
1.282442748091603,0.8854961832061069,-1.9236641221374047,-0.466796875,0.01220703125,-0.12060546875,0.0935
1.1297709923664123,0.9618320610687023,-2.0,-0.471435546875,0.005859375,-0.119384765625,0.09519999999999999
1.2061068702290076,0.9923664122137404,-1.7709923664122138,-0.468017578125,0.009033203125,-0.12255859375,0.0969
1.2213740458015268,1.2366412213740459,-1.9541984732824427,-0.468505859375,0.010986328125,-0.122802734375,0.0986
1.1755725190839694,1.0687022900763359,-1.8015267175572518,-0.466796875,0.002197265625,-0.119140625,0.1003
0.9923664122137404,1.0229007633587786,-1.984732824427481,-0.470458984375,0.005126953125,-0.128662109375,0.102
1.0687022900763359,1.0076335877862594,-1.7709923664122138,-0.4736328125,0.005859375,-0.12109375,0.1037
1.2671755725190839,1.0534351145038168,-1.7709923664122138,-0.465576171875,0.00830078125,-0.121826171875,0.1054
1.1603053435114503,1.1297709923664123,-1.9541984732824427,-0.471923828125,0.004638671875,-0.120361328125,0.1071
1.099236641221374,1.099236641221374,-1.9541984732824427,-0.468994140625,0.00244140625,-0.115966796875,0.1088
0.9923664122137404,1.1297709923664123,-1.6641221374045803,-0.46728515625,0.00341796875,-0.12158203125,0.11049999999999999
0.9465648854961832,1.1450381679389312,-1.8625954198473282,-0.466796875,0.003662109375,-0.115966796875,0.1122
1.1145038167938932,1.0381679389312977,-1.9541984732824427,-0.46728515625,0.00732421875,-0.11962890625,0.11389999999999999
1.1297709923664123,1.099236641221374,-1.8625954198473282,-0.468505859375,0.0078125,-0.12353515625,0.1156
0.8396946564885496,1.099236641221374,-1.9541984732824427,-0.471435546875,0.0029296875,-0.12646484375,0.11729999999999999
0.6870229007633588,1.1908396946564885,-1.9236641221374047,-0.469970703125,0.007568359375,-0.128173828125,0.119
0.7938931297709924,1.1450381679389312,-1.7251908396946565,-0.472412109375,0.0048828125,-0.123046875,0.12069999999999999
0.7480916030534351,1.099236641221374,-2.0610687022900764,-0.469970703125,0.0078125,-0.126220703125,0.1224
0.5954198473282443,1.1450381679389312,-1.9694656488549618,-0.469482421875,0.006591796875,-0.120849609375,0.12409999999999999
0.6717557251908397,1.0381679389312977,-1.786259541984733,-0.46728515625,0.006591796875,-0.1181640625,0.1258
0.5190839694656488,1.0229007633587786,-1.8015267175572518,-0.46728515625,0.01220703125,-0.125732421875,0.1275
0.5343511450381679,1.1908396946564885,-1.8625954198473282,-0.469970703125,0.002197265625,-0.12255859375,0.12919999999999998
0.7175572519083969,1.2213740458015268,-1.8625954198473282,-0.466796875,0.00439453125,-0.11962890625,0.1309
0.5954198473282443,1.1297709923664123,-1.8778625954198473,-0.470703125,0.01025390625,-0.129150390625,0.1326
0.3816793893129771,1.0687022900763359,-1.9389312977099236,-0.46826171875,0.009521484375,-0.12158203125,0.1343
0.4580152671755725,1.1145038167938932,-2.045801526717557,-0.468017578125,0.0068359375,-0.12109375,0.13599999999999998
0.3053435114503817,1.1755725190839694,-2.015267175572519,-0.466552734375,0.000732421875,-0.1279296875,0.1377
0.16793893129770993,1.2671755725190839,-1.816793893129771,-0.46728515625,0.003173828125,-0.133056640625,0.1394
0.2748091603053435,1.1450381679389312,-1.9083969465648856,-0.46630859375,0.01025390625,-0.12060546875,0.1411
0.15267175572519084,1.0381679389312977,-1.8473282442748091,-0.4658203125,0.005126953125,-0.1259765625,0.14279999999999998
0.16793893129770993,1.2061068702290076,-1.7251908396946565,-0.46630859375,0.011962890625,-0.119384765625,0.1445
0.2748091603053435,1.3740458015267176,-1.8778625954198473,-0.465576171875,0.005126953125,-0.12353515625,0.1462
0.24427480916030533,1.3435114503816794,-1.786259541984733,-0.47412109375,0.0048828125,-0.1201171875,0.1479
0.061068702290076333,1.2366412213740459,-1.8778625954198473,-0.46533203125,0.0068359375,-0.120849609375,0.14959999999999998
0.22900763358778625,1.083969465648855,-1.6946564885496183,-0.463134765625,0.003173828125,-0.11962890625,0.1513
0.2748091603053435,1.251908396946565,-1.7404580152671756,-0.46435546875,0.0078125,-0.121826171875,0.153
0.22900763358778625,1.3129770992366412,-1.816793893129771,-0.468994140625,0.008056640625,-0.121337890625,0.1547
0.2595419847328244,1.2366412213740459,-1.7709923664122138,-0.46337890625,0.01220703125,-0.124267578125,0.15639999999999998
0.2595419847328244,1.2671755725190839,-1.7404580152671756,-0.466552734375,0.00830078125,-0.130615234375,0.1581
0.1984732824427481,1.1145038167938932,-1.6946564885496183,-0.469482421875,0.010986328125,-0.126708984375,0.1598
0.16793893129770993,1.1755725190839694,-1.8931297709923665,-0.463134765625,0.009033203125,-0.115966796875,0.1615
0.04580152671755725,1.251908396946565,-1.8625954198473282,-0.46435546875,0.009521484375,-0.12109375,0.16319999999999998
0.04580152671755725,1.2213740458015268,-1.8015267175572518,-0.463134765625,0.0087890625,-0.120361328125,0.1649
0.33587786259541985,1.2671755725190839,-1.6488549618320612,-0.466064453125,0.007568359375,-0.1220703125,0.1666
0.07633587786259542,1.3435114503816794,-1.8015267175572518,-0.46533203125,0.00537109375,-0.117431640625,0.16829999999999998
0.3053435114503817,1.3129770992366412,-1.5877862595419847,-0.4658203125,0.010009765625,-0.11962890625,0.16999999999999998
0.13740458015267176,1.3893129770992367,-1.7099236641221374,-0.46484375,0.0087890625,-0.11962890625,0.1717
0.030534351145038167,1.450381679389313,-1.5114503816793894,-0.47021484375,0.009033203125,-0.12744140625,0.1734
0.07633587786259542,1.3129770992366412,-1.5419847328244274,-0.46240234375,0.008056640625,-0.123291015625,0.17509999999999998
0.183206106870229,1.465648854961832,-1.5725190839694656,-0.4677734375,0.0146484375,-0.121826171875,0.17679999999999998
0.183206106870229,1.465648854961832,-1.5877862595419847,-0.46533203125,0.00830078125,-0.130859375,0.1785
0.04580152671755725,1.2671755725190839,-1.6793893129770991,-0.4658203125,0.012939453125,-0.121337890625,0.1802
0.22900763358778625,1.2213740458015268,-1.7709923664122138,-0.465576171875,0.011474609375,-0.12451171875,0.18189999999999998
0.1984732824427481,1.2671755725190839,-1.5572519083969465,-0.463623046875,0.007080078125,-0.12548828125,0.18359999999999999
-0.015267175572519083,1.3282442748091603,-1.6946564885496183,-0.46435546875,0.0078125,-0.121337890625,0.1853
-0.015267175572519083,1.3129770992366412,-1.4961832061068703,-0.466552734375,0.004638671875,-0.120361328125,0.187
0.10687022900763359,1.3435114503816794,-1.6030534351145038,-0.46044921875,0.009033203125,-0.11376953125,0.18869999999999998
0.15267175572519084,1.297709923664122,-1.6793893129770991,-0.4609375,0.0126953125,-0.119384765625,0.19039999999999999
0.12213740458015267,1.1297709923664123,-1.6946564885496183,-0.46240234375,0.01318359375,-0.119384765625,0.1921
0.16793893129770993,1.1297709923664123,-1.3893129770992367,-0.462158203125,0.00390625,-0.11865234375,0.1938
0.04580152671755725,1.251908396946565,-1.618320610687023,-0.4638671875,0.011474609375,-0.1240234375,0.19549999999999998
0.015267175572519083,1.3129770992366412,-1.7099236641221374,-0.464111328125,0.00927734375,-0.119873046875,0.1972
-0.12213740458015267,1.297709923664122,-1.633587786259542,-0.46923828125,0.009521484375,-0.11962890625,0.1989
-0.3053435114503817,1.297709923664122,-1.6030534351145038,-0.465576171875,0.01123046875,-0.1181640625,0.2006
-0.22900763358778625,1.2061068702290076,-1.6946564885496183,-0.4638671875,0.010009765625,-0.12451171875,0.20229999999999998
-0.1984732824427481,1.1450381679389312,-1.618320610687023,-0.4599609375,0.009765625,-0.125244140625,0.204
-0.10687022900763359,1.3740458015267176,-1.6030534351145038,-0.467041015625,0.001953125,-0.125244140625,0.2057
-0.12213740458015267,1.2213740458015268,-1.618320610687023,-0.468994140625,0.003173828125,-0.12109375,0.2074
-0.4122137404580153,1.2213740458015268,-1.7251908396946565,-0.46337890625,0.0078125,-0.118896484375,0.20909999999999998
-0.33587786259541985,1.3435114503816794,-1.5572519083969465,-0.466064453125,0.011474609375,-0.123291015625,0.2108
-0.366412213740458,1.450381679389313,-1.6946564885496183,-0.462890625,0.009765625,-0.114990234375,0.2125
-0.3969465648854962,1.4045801526717556,-1.7709923664122138,-0.463623046875,0.005615234375,-0.120849609375,0.2142
-0.16793893129770993,1.297709923664122,-1.9083969465648856,-0.4638671875,0.0166015625,-0.124267578125,0.21589999999999998
-0.2900763358778626,1.2671755725190839,-1.633587786259542,-0.465087890625,0.010498046875,-0.11865234375,0.2176
-0.16793893129770993,1.3740458015267176,-1.8778625954198473,-0.466796875,0.009765625,-0.118408203125,0.2193
-0.21374045801526717,1.3282442748091603,-1.6030534351145038,-0.465576171875,0.01318359375,-0.130126953125,0.22099999999999997
-0.2748091603053435,1.4351145038167938,-1.7404580152671756,-0.462646484375,0.005615234375,-0.116943359375,0.22269999999999998
-0.183206106870229,1.1603053435114503,-1.7557251908396947,-0.4609375,0.01220703125,-0.11376953125,0.2244
-0.2595419847328244,1.465648854961832,-1.9541984732824427,-0.47021484375,0.01318359375,-0.1123046875,0.2261
-0.3053435114503817,1.3587786259541985,-1.816793893129771,-0.4677734375,0.009521484375,-0.1201171875,0.22779999999999997
-0.2595419847328244,1.297709923664122,-1.83206106870229,-0.462646484375,0.009521484375,-0.11962890625,0.22949999999999998
-0.22900763358778625,1.2213740458015268,-1.786259541984733,-0.461669921875,0.013427734375,-0.120361328125,0.2312
-0.183206106870229,1.1603053435114503,-1.9083969465648856,-0.466552734375,0.00634765625,-0.119873046875,0.2329
-0.13740458015267176,1.3740458015267176,-1.7557251908396947,-0.466796875,0.010498046875,-0.1259765625,0.23459999999999998
0.0,1.450381679389313,-1.9541984732824427,-0.46728515625,0.0126953125,-0.121826171875,0.23629999999999998
-0.04580152671755725,1.1603053435114503,-1.7709923664122138,-0.468017578125,0.01416015625,-0.130126953125,0.238
-0.183206106870229,1.282442748091603,-1.8625954198473282,-0.46533203125,0.008056640625,-0.124267578125,0.2397
-0.0916030534351145,1.3740458015267176,-1.6793893129770991,-0.4619140625,0.01416015625,-0.116455078125,0.24139999999999998
0.04580152671755725,1.3282442748091603,-1.8473282442748091,-0.467041015625,0.010986328125,-0.11962890625,0.24309999999999998
0.1984732824427481,1.3893129770992367,-1.9236641221374047,-0.4716796875,0.013916015625,-0.119140625,0.2448
-0.015267175572519083,1.465648854961832,-1.9389312977099236,-0.4658203125,0.009765625,-0.1220703125,0.2465
-0.015267175572519083,1.450381679389313,-1.8015267175572518,-0.46533203125,0.010986328125,-0.119873046875,0.24819999999999998
0.15267175572519084,1.5114503816793894,-1.9236641221374047,-0.465087890625,0.010009765625,-0.1181640625,0.24989999999999998
0.2595419847328244,1.5114503816793894,-1.8931297709923665,-0.4677734375,0.007568359375,-0.12353515625,0.2516
0.07633587786259542,1.3282442748091603,-2.015267175572519,-0.466796875,0.01025390625,-0.125732421875,0.25329999999999997
0.24427480916030533,1.4045801526717556,-2.0916030534351147,-0.46875,0.010498046875,-0.1279296875,0.255
0.3511450381679389,1.450381679389313,-1.8015267175572518,-0.4619140625,0.01025390625,-0.11865234375,0.2567
0.24427480916030533,1.465648854961832,-1.6946564885496183,-0.46533203125,0.012939453125,-0.124755859375,0.25839999999999996
0.22900763358778625,1.3740458015267176,-1.8473282442748091,-0.467041015625,0.01171875,-0.125244140625,0.2601
0.42748091603053434,1.3129770992366412,-1.7404580152671756,-0.466064453125,0.00830078125,-0.121337890625,0.2618
0.5801526717557252,1.2671755725190839,-1.9541984732824427,-0.46240234375,0.01025390625,-0.11376953125,0.2635
0.5038167938931297,1.3435114503816794,-1.9541984732824427,-0.459716796875,0.00830078125,-0.121826171875,0.2652
0.48854961832061067,1.3893129770992367,-1.8473282442748091,-0.468994140625,0.010009765625,-0.116943359375,0.26689999999999997
0.3816793893129771,1.3740458015267176,-1.83206106870229,-0.465576171875,0.01123046875,-0.11572265625,0.2686
0.42748091603053434,1.3587786259541985,-2.015267175572519,-0.464111328125,0.00830078125,-0.114990234375,0.2703
0.5343511450381679,1.4045801526717556,-1.9541984732824427,-0.46240234375,0.012451171875,-0.117431640625,0.27199999999999996
0.7480916030534351,1.4045801526717556,-2.015267175572519,-0.469482421875,0.009521484375,-0.1171875,0.2737
0.8549618320610687,1.4351145038167938,-1.9389312977099236,-0.471435546875,0.01123046875,-0.12353515625,0.2754
0.8396946564885496,1.4045801526717556,-1.9541984732824427,-0.465576171875,0.01171875,-0.119384765625,0.27709999999999996
0.6259541984732825,1.3587786259541985,-1.7557251908396947,-0.46533203125,0.005859375,-0.114013671875,0.2788
0.6412213740458015,1.251908396946565,-1.8778625954198473,-0.4677734375,0.010009765625,-0.124267578125,0.28049999999999997
0.9618320610687023,1.450381679389313,-1.786259541984733,-0.470703125,0.01025390625,-0.11669921875,0.2822
1.0381679389312977,1.2671755725190839,-2.015267175572519,-0.46533203125,0.0146484375,-0.124755859375,0.2839
1.0534351145038168,1.5419847328244274,-1.9236641221374047,-0.466552734375,0.0087890625,-0.114013671875,0.28559999999999997
1.0076335877862594,1.3435114503816794,-1.633587786259542,-0.456787109375,0.01123046875,-0.121337890625,0.2873
1.297709923664122,1.3282442748091603,-1.83206106870229,-0.464599609375,0.00927734375,-0.1171875,0.289
1.1755725190839694,1.4198473282442747,-1.9541984732824427,-0.465576171875,0.00732421875,-0.12255859375,0.29069999999999996
1.3282442748091603,1.5114503816793894,-1.6946564885496183,-0.462646484375,0.011962890625,-0.12158203125,0.2924
1.5114503816793894,1.5419847328244274,-1.7404580152671756,-0.46435546875,0.013671875,-0.123779296875,0.2941
1.5267175572519085,1.4351145038167938,-1.7099236641221374,-0.465087890625,0.01513671875,-0.12109375,0.2958
1.5419847328244274,1.4809160305343512,-1.8015267175572518,-0.4736328125,0.0107421875,-0.117431640625,0.2975
1.6030534351145038,1.3129770992366412,-1.83206106870229,-0.46484375,0.013671875,-0.117919921875,0.29919999999999997
1.5419847328244274,1.2671755725190839,-1.633587786259542,-0.467041015625,0.009033203125,-0.128173828125,0.3009
1.5114503816793894,1.4809160305343512,-1.6641221374045803,-0.46875,0.014892578125,-0.126953125,0.3026
1.6641221374045803,1.4198473282442747,-1.6030534351145038,-0.470947265625,0.009521484375,-0.1171875,0.30429999999999996
1.8015267175572518,1.4961832061068703,-1.5419847328244274,-0.4697265625,0.0126953125,-0.11767578125,0.306
1.7404580152671756,1.3893129770992367,-1.6030534351145038,-0.47265625,0.009033203125,-0.12548828125,0.3077
1.7099236641221374,1.3587786259541985,-1.618320610687023,-0.4658203125,0.009765625,-0.13037109375,0.3094
1.5419847328244274,1.3435114503816794,-1.5267175572519085,-0.468505859375,0.00732421875,-0.11767578125,0.3111
1.6793893129770991,1.465648854961832,-1.5725190839694656,-0.468505859375,0.00830078125,-0.122314453125,0.31279999999999997
1.6946564885496183,1.4045801526717556,-1.5572519083969465,-0.4619140625,0.011474609375,-0.118408203125,0.3145
1.8015267175572518,1.4351145038167938,-1.5114503816793894,-0.465576171875,0.0087890625,-0.117431640625,0.3162
1.633587786259542,1.2671755725190839,-1.5877862595419847,-0.4658203125,0.009765625,-0.119140625,0.31789999999999996
1.7251908396946565,1.465648854961832,-1.4198473282442747,-0.4697265625,0.009033203125,-0.11865234375,0.3196
1.7099236641221374,1.4351145038167938,-1.3129770992366412,-0.471923828125,0.008544921875,-0.12109375,0.3213
1.6793893129770991,1.4045801526717556,-1.251908396946565,-0.46630859375,0.00927734375,-0.119873046875,0.323
1.7709923664122138,1.4809160305343512,-1.282442748091603,-0.4716796875,0.006103515625,-0.116455078125,0.3247
1.618320610687023,1.5419847328244274,-1.4351145038167938,-0.46875,0.00439453125,-0.124755859375,0.32639999999999997
1.618320610687023,1.4198473282442747,-1.3129770992366412,-0.46337890625,0.00927734375,-0.1181640625,0.3281
1.6641221374045803,1.297709923664122,-1.450381679389313,-0.46728515625,0.00830078125,-0.121337890625,0.3298
1.4809160305343512,1.5572519083969465,-1.5419847328244274,-0.467529296875,0.0068359375,-0.119873046875,0.33149999999999996
1.3435114503816794,1.3893129770992367,-1.5419847328244274,-0.468994140625,0.007080078125,-0.121337890625,0.3332
1.450381679389313,1.5419847328244274,-1.2671755725190839,-0.466552734375,0.005615234375,-0.1240234375,0.3349
1.450381679389313,1.4045801526717556,-1.3587786259541985,-0.468994140625,0.006591796875,-0.1171875,0.33659999999999995
1.450381679389313,1.4045801526717556,-1.2213740458015268,-0.464599609375,0.009033203125,-0.113037109375,0.3383
1.4961832061068703,1.5877862595419847,-1.4198473282442747,-0.46435546875,0.0048828125,-0.12060546875,0.33999999999999997
1.4045801526717556,1.6793893129770991,-1.1908396946564885,-0.472412109375,0.0029296875,-0.120849609375,0.3417
1.3893129770992367,1.450381679389313,-1.3893129770992367,-0.469482421875,0.009765625,-0.12548828125,0.3434
1.083969465648855,1.3587786259541985,-1.3587786259541985,-0.46533203125,0.005126953125,-0.1162109375,0.34509999999999996
1.3587786259541985,1.5419847328244274,-1.297709923664122,-0.4658203125,0.0087890625,-0.12353515625,0.3468
1.0229007633587786,1.450381679389313,-1.1603053435114503,-0.46826171875,0.00341796875,-0.11669921875,0.3485
1.0229007633587786,1.4351145038167938,-1.2671755725190839,-0.4697265625,0.0078125,-0.130615234375,0.35019999999999996
1.3740458015267176,1.5725190839694656,-1.0381679389312977,-0.466064453125,0.0107421875,-0.12548828125,0.3519
1.2213740458015268,1.4961832061068703,-1.1755725190839694,-0.468017578125,0.009765625,-0.1181640625,0.35359999999999997
1.0381679389312977,1.4351145038167938,-1.3435114503816794,-0.46337890625,0.008544921875,-0.1162109375,0.3553
1.2061068702290076,1.5572519083969465,-1.1603053435114503,-0.46435546875,0.0048828125,-0.115478515625,0.357
1.1145038167938932,1.4198473282442747,-1.0534351145038168,-0.46142578125,0.00927734375,-0.11328125,0.35869999999999996
1.1450381679389312,1.465648854961832,-1.297709923664122,-0.463134765625,0.01220703125,-0.114501953125,0.3604
1.1603053435114503,1.3893129770992367,-1.1297709923664123,-0.468994140625,0.01318359375,-0.1240234375,0.3621
1.282442748091603,1.450381679389313,-1.1755725190839694,-0.465576171875,0.0087890625,-0.12109375,0.36379999999999996
1.1450381679389312,1.465648854961832,-1.0381679389312977,-0.467041015625,0.00830078125,-0.12353515625,0.3655
0.9923664122137404,1.4045801526717556,-1.0229007633587786,-0.467041015625,0.0078125,-0.126220703125,0.36719999999999997
1.0076335877862594,1.5572519083969465,-0.916030534351145,-0.46728515625,0.00830078125,-0.123291015625,0.3689
0.9770992366412213,1.5419847328244274,-1.099236641221374,-0.470458984375,0.004638671875,-0.11767578125,0.3706
0.9312977099236641,1.5877862595419847,-1.099236641221374,-0.463134765625,0.002197265625,-0.1162109375,0.37229999999999996
1.0229007633587786,1.465648854961832,-1.2061068702290076,-0.466796875,0.003662109375,-0.12646484375,0.374
1.2061068702290076,1.6030534351145038,-1.099236641221374,-0.462890625,0.008056640625,-0.11767578125,0.3757
0.9770992366412213,1.465648854961832,-1.0381679389312977,-0.4619140625,0.00732421875,-0.114501953125,0.37739999999999996
0.7480916030534351,1.6488549618320612,-1.0381679389312977,-0.467529296875,0.006591796875,-0.1279296875,0.3791
0.7175572519083969,1.4809160305343512,-1.1755725190839694,-0.4638671875,0.005615234375,-0.111572265625,0.38079999999999997
0.9618320610687023,1.4961832061068703,-1.0229007633587786,-0.464111328125,0.009033203125,-0.111328125,0.38249999999999995
0.9465648854961832,1.4045801526717556,-1.1603053435114503,-0.465576171875,0.0078125,-0.11669921875,0.3842
0.6870229007633588,1.4809160305343512,-0.9770992366412213,-0.46484375,0.008056640625,-0.122314453125,0.38589999999999997
0.5648854961832062,1.5114503816793894,-1.2366412213740459,-0.47021484375,0.009521484375,-0.11474609375,0.3876
0.8244274809160306,1.5419847328244274,-1.0076335877862594,-0.466796875,0.006103515625,-0.12353515625,0.3893
0.7786259541984732,1.633587786259542,-1.0687022900763359,-0.467041015625,0.00537109375,-0.113525390625,0.39099999999999996
0.732824427480916,1.5877862595419847,-1.2366412213740459,-0.464599609375,0.002197265625,-0.1123046875,0.3927
0.9007633587786259,1.4961832061068703,-1.297709923664122,-0.46337890625,0.00341796875,-0.123291015625,0.3944
0.8091603053435115,1.5877862595419847,-0.9312977099236641,-0.468017578125,0.00244140625,-0.12744140625,0.39609999999999995
0.7480916030534351,1.5877862595419847,-1.099236641221374,-0.46484375,0.0087890625,-0.1240234375,0.3978
0.8549618320610687,1.6793893129770991,-0.8702290076335878,-0.46337890625,0.001953125,-0.123779296875,0.39949999999999997
0.7786259541984732,1.5419847328244274,-1.083969465648855,-0.460205078125,0.0029296875,-0.118408203125,0.4012
0.9465648854961832,1.5267175572519085,-1.0229007633587786,-0.46337890625,0.00830078125,-0.12451171875,0.4029
0.7786259541984732,1.6488549618320612,-1.0534351145038168,-0.46435546875,0.00537109375,-0.12158203125,0.40459999999999996
0.8091603053435115,1.5267175572519085,-1.0076335877862594,-0.470703125,0.005126953125,-0.12158203125,0.4063
1.1450381679389312,1.450381679389313,-1.1755725190839694,-0.46826171875,0.00537109375,-0.12451171875,0.408
0.9618320610687023,1.5267175572519085,-0.9923664122137404,-0.46435546875,0.0048828125,-0.1259765625,0.40969999999999995
0.7786259541984732,1.4961832061068703,-1.2213740458015268,-0.4638671875,0.005615234375,-0.125,0.4114
1.2671755725190839,1.4045801526717556,-0.9312977099236641,-0.462890625,0.009033203125,-0.119140625,0.41309999999999997
1.2061068702290076,1.3282442748091603,-0.9465648854961832,-0.465576171875,0.005615234375,-0.121337890625,0.4148
1.0076335877862594,1.3435114503816794,-1.1450381679389312,-0.46533203125,0.005126953125,-0.120849609375,0.4165
1.0687022900763359,1.450381679389313,-0.9618320610687023,-0.4609375,0.002685546875,-0.125,0.41819999999999996
1.2061068702290076,1.3587786259541985,-0.7480916030534351,-0.462158203125,0.01220703125,-0.119873046875,0.4199
1.3282442748091603,1.1603053435114503,-0.9312977099236641,-0.468505859375,0.010498046875,-0.1318359375,0.4216
1.2366412213740459,1.3129770992366412,-0.9465648854961832,-0.46435546875,0.009765625,-0.12255859375,0.42329999999999995
0.8854961832061069,1.2213740458015268,-1.0534351145038168,-0.462158203125,0.006103515625,-0.12646484375,0.425
0.8244274809160306,1.0687022900763359,-0.9770992366412213,-0.465087890625,-0.00146484375,-0.130859375,0.42669999999999997
0.9312977099236641,1.1755725190839694,-1.083969465648855,-0.46240234375,0.004638671875,-0.12060546875,0.4284
0.9007633587786259,1.2366412213740459,-0.9770992366412213,-0.46533203125,0.007080078125,-0.1240234375,0.4301
0.9007633587786259,1.3129770992366412,-1.099236641221374,-0.463134765625,0.002197265625,-0.12744140625,0.43179999999999996
0.8396946564885496,1.1450381679389312,-0.8244274809160306,-0.46044921875,0.01318359375,-0.123779296875,0.4335
0.8854961832061069,1.4198473282442747,-0.9007633587786259,-0.46435546875,0.00537109375,-0.119140625,0.4352
0.8549618320610687,1.4198473282442747,-0.9618320610687023,-0.46435546875,0.004638671875,-0.11767578125,0.43689999999999996
0.6412213740458015,1.2366412213740459,-0.9770992366412213,-0.463623046875,0.004638671875,-0.11279296875,0.4386
0.7480916030534351,1.1297709923664123,-0.8396946564885496,-0.46240234375,0.00244140625,-0.122314453125,0.44029999999999997
0.7022900763358778,1.282442748091603,-1.0076335877862594,-0.462158203125,0.00634765625,-0.11962890625,0.44199999999999995
0.7480916030534351,1.3740458015267176,-1.0687022900763359,-0.46240234375,0.006591796875,-0.12255859375,0.4437
0.7938931297709924,1.1145038167938932,-0.9618320610687023,-0.462646484375,0.0048828125,-0.120849609375,0.44539999999999996
0.732824427480916,1.0381679389312977,-0.8549618320610687,-0.4609375,0.00634765625,-0.115966796875,0.4471
0.732824427480916,1.2366412213740459,-0.9007633587786259,-0.4619140625,0.01513671875,-0.112060546875,0.4488
0.6717557251908397,0.9465648854961832,-0.9618320610687023,-0.46533203125,0.00830078125,-0.121337890625,0.45049999999999996
0.7938931297709924,0.9465648854961832,-0.9465648854961832,-0.460693359375,0.0068359375,-0.111083984375,0.4522
0.7786259541984732,0.9007633587786259,-0.9007633587786259,-0.4638671875,0.003662109375,-0.120361328125,0.45389999999999997
0.6259541984732825,0.9312977099236641,-0.732824427480916,-0.46630859375,0.00830078125,-0.11572265625,0.45559999999999995
0.6564885496183206,0.7480916030534351,-1.0229007633587786,-0.464599609375,0.00439453125,-0.118896484375,0.4573
0.6564885496183206,0.7633587786259542,-0.916030534351145,-0.46435546875,0.005126953125,-0.12548828125,0.45899999999999996
0.4732824427480916,0.7786259541984732,-0.9312977099236641,-0.466552734375,0.009521484375,-0.122802734375,0.4607
0.5038167938931297,0.9618320610687023,-0.9465648854961832,-0.463134765625,0.004638671875,-0.126953125,0.4624
0.5648854961832062,1.0381679389312977,-0.9465648854961832,-0.46142578125,0.0087890625,-0.123779296875,0.46409999999999996
0.33587786259541985,1.099236641221374,-1.0381679389312977,-0.46484375,0.010009765625,-0.12109375,0.4658
0.2748091603053435,1.0229007633587786,-1.083969465648855,-0.4609375,0.00537109375,-0.12353515625,0.46749999999999997
0.366412213740458,1.0229007633587786,-0.9923664122137404,-0.4599609375,0.007080078125,-0.12060546875,0.46919999999999995
0.5038167938931297,0.9770992366412213,-1.0076335877862594,-0.455810546875,0.009033203125,-0.124267578125,0.4709
0.3969465648854962,1.083969465648855,-1.1297709923664123,-0.4609375,0.007568359375,-0.1162109375,0.47259999999999996
0.5038167938931297,1.0381679389312977,-1.0229007633587786,-0.46435546875,0.00634765625,-0.125,0.4743
0.549618320610687,0.9007633587786259,-0.8396946564885496,-0.46337890625,0.004150390625,-0.114501953125,0.476
0.3816793893129771,0.9465648854961832,-1.282442748091603,-0.46484375,0.0048828125,-0.11572265625,0.47769999999999996
0.732824427480916,1.083969465648855,-1.0534351145038168,-0.461669921875,0.011962890625,-0.121826171875,0.4794
0.6412213740458015,0.916030534351145,-1.083969465648855,-0.462890625,0.006103515625,-0.131103515625,0.48109999999999997
0.5801526717557252,0.8091603053435115,-1.1145038167938932,-0.4619140625,0.009765625,-0.11572265625,0.48279999999999995
0.8702290076335878,0.8396946564885496,-1.0076335877862594,-0.463623046875,0.00439453125,-0.11865234375,0.4845
0.5038167938931297,0.9923664122137404,-1.0229007633587786,-0.4677734375,0.01025390625,-0.1123046875,0.48619999999999997
0.6259541984732825,0.8854961832061069,-1.1297709923664123,-0.461669921875,0.008056640625,-0.124267578125,0.4879
0.7633587786259542,0.732824427480916,-0.9007633587786259,-0.463623046875,0.01025390625,-0.12158203125,0.4896
0.6564885496183206,0.7786259541984732,-0.9923664122137404,-0.46484375,0.009033203125,-0.119873046875,0.49129999999999996
0.7633587786259542,0.916030534351145,-0.9618320610687023,-0.46484375,0.0068359375,-0.115234375,0.493
0.8396946564885496,0.9465648854961832,-1.0381679389312977,-0.464599609375,0.006591796875,-0.113037109375,0.4947
0.9465648854961832,1.0076335877862594,-1.0381679389312977,-0.4609375,0.004150390625,-0.12109375,0.49639999999999995
1.0534351145038168,1.0687022900763359,-1.1755725190839694,-0.469482421875,0.0078125,-0.1142578125,0.4981
1.0534351145038168,0.9465648854961832,-1.099236641221374,-0.470703125,0.006591796875,-0.127197265625,0.49979999999999997
1.2213740458015268,0.8396946564885496,-1.1450381679389312,-0.46923828125,0.0087890625,-0.11962890625,0.5015
1.1297709923664123,1.0687022900763359,-1.0534351145038168,-0.46923828125,0.005615234375,-0.118896484375,0.5032
1.1145038167938932,1.1145038167938932,-1.0687022900763359,-0.465576171875,0.0087890625,-0.115478515625,0.5049
1.3435114503816794,1.1145038167938932,-0.9312977099236641,-0.465576171875,0.00390625,-0.120361328125,0.5065999999999999
1.251908396946565,1.0534351145038168,-1.083969465648855,-0.465576171875,0.001953125,-0.119140625,0.5083
1.2671755725190839,1.0381679389312977,-1.083969465648855,-0.46435546875,0.0078125,-0.114501953125,0.51
1.1908396946564885,1.1603053435114503,-1.1145038167938932,-0.46630859375,0.005126953125,-0.1162109375,0.5116999999999999
1.5877862595419847,1.251908396946565,-1.099236641221374,-0.46875,0.01025390625,-0.1123046875,0.5134
1.4351145038167938,1.0534351145038168,-1.083969465648855,-0.468505859375,0.008056640625,-0.1103515625,0.5151
1.5419847328244274,0.9770992366412213,-1.0076335877862594,-0.46875,0.00927734375,-0.115234375,0.5167999999999999
1.4045801526717556,1.0076335877862594,-1.0076335877862594,-0.468994140625,0.00732421875,-0.117431640625,0.5185
1.4961832061068703,1.099236641221374,-1.0076335877862594,-0.466796875,0.00927734375,-0.1171875,0.5202
1.465648854961832,0.9465648854961832,-1.1908396946564885,-0.4677734375,0.00830078125,-0.12451171875,0.5218999999999999
1.3282442748091603,1.0076335877862594,-1.0076335877862594,-0.46630859375,0.00048828125,-0.1162109375,0.5236
1.3740458015267176,1.0381679389312977,-1.0229007633587786,-0.46923828125,0.00439453125,-0.124267578125,0.5253
1.3893129770992367,0.7175572519083969,-1.1450381679389312,-0.46533203125,0.001708984375,-0.12353515625,0.527
1.1755725190839694,0.8396946564885496,-1.1145038167938932,-0.4677734375,0.001220703125,-0.124267578125,0.5287
1.1603053435114503,0.7175572519083969,-1.0381679389312977,-0.47119140625,0.007568359375,-0.129150390625,0.5304
1.0076335877862594,0.5648854961832062,-1.1297709923664123,-0.472900390625,0.000244140625,-0.119384765625,0.5321
0.9618320610687023,0.8244274809160306,-1.2213740458015268,-0.470703125,0.00927734375,-0.123046875,0.5337999999999999
0.8854961832061069,1.0076335877862594,-1.3740458015267176,-0.465087890625,0.005615234375,-0.119384765625,0.5355
0.732824427480916,0.6870229007633588,-1.0381679389312977,-0.467041015625,0.0087890625,-0.121337890625,0.5372
0.6259541984732825,0.6564885496183206,-1.1755725190839694,-0.466064453125,0.0087890625,-0.12158203125,0.5388999999999999
0.44274809160305345,0.6870229007633588,-1.3587786259541985,-0.465576171875,0.00244140625,-0.123046875,0.5406
0.42748091603053434,0.7022900763358778,-1.297709923664122,-0.47216796875,0.003173828125,-0.116455078125,0.5423
-0.04580152671755725,0.6259541984732825,-1.4045801526717556,-0.46630859375,0.003662109375,-0.123779296875,0.5439999999999999
0.07633587786259542,0.4732824427480916,-1.297709923664122,-0.4638671875,0.007568359375,-0.126708984375,0.5457
-0.10687022900763359,0.5343511450381679,-1.297709923664122,-0.46826171875,0.0078125,-0.124755859375,0.5474
0.0,0.42748091603053434,-1.4961832061068703,-0.46728515625,0.008544921875,-0.1240234375,0.5490999999999999
0.0,0.6106870229007634,-1.4045801526717556,-0.4677734375,0.005615234375,-0.123046875,0.5508
-0.5343511450381679,0.5343511450381679,-1.6030534351145038,-0.46533203125,0.00390625,-0.123779296875,0.5525
-0.6106870229007634,0.4580152671755725,-1.6488549618320612,-0.469970703125,0.00390625,-0.121826171875,0.5541999999999999
-0.42748091603053434,0.4122137404580153,-1.7557251908396947,-0.470947265625,0.002685546875,-0.1181640625,0.5559
-0.4732824427480916,0.42748091603053434,-1.5419847328244274,-0.464111328125,0.007568359375,-0.125732421875,0.5576
-0.7022900763358778,0.4732824427480916,-1.7404580152671756,-0.463134765625,0.00732421875,-0.1142578125,0.5593
-0.8854961832061069,0.7022900763358778,-1.7251908396946565,-0.460205078125,0.006591796875,-0.13037109375,0.5609999999999999
-0.7480916030534351,0.5038167938931297,-1.7404580152671756,-0.464599609375,0.00439453125,-0.120361328125,0.5627
-0.8244274809160306,0.4122137404580153,-1.6793893129770991,-0.4677734375,0.007080078125,-0.12109375,0.5644
-0.9312977099236641,0.4732824427480916,-1.633587786259542,-0.466552734375,0.009521484375,-0.1201171875,0.5660999999999999
-0.9007633587786259,0.3511450381679389,-1.7709923664122138,-0.4619140625,0.01025390625,-0.12451171875,0.5678
-0.9007633587786259,0.183206106870229,-1.7709923664122138,-0.4638671875,0.005126953125,-0.119384765625,0.5695
-0.9618320610687023,0.5038167938931297,-1.6030534351145038,-0.466552734375,0.013916015625,-0.120849609375,0.5711999999999999
-0.9770992366412213,0.4732824427480916,-1.7557251908396947,-0.46337890625,0.0029296875,-0.125,0.5729
-0.8702290076335878,0.42748091603053434,-1.6030534351145038,-0.461669921875,0.0078125,-0.1259765625,0.5746
-0.8702290076335878,0.42748091603053434,-1.633587786259542,-0.463134765625,0.009033203125,-0.120849609375,0.5762999999999999
-0.9618320610687023,0.3053435114503817,-1.6641221374045803,-0.463623046875,0.0078125,-0.1181640625,0.578
-0.7175572519083969,0.3969465648854962,-1.6488549618320612,-0.467041015625,0.00390625,-0.12060546875,0.5797
-0.7786259541984732,0.3816793893129771,-1.5419847328244274,-0.46484375,0.00244140625,-0.11962890625,0.5813999999999999
-0.8244274809160306,0.366412213740458,-1.5114503816793894,-0.461181640625,0.0048828125,-0.120849609375,0.5831
-0.8091603053435115,0.4580152671755725,-1.6030534351145038,-0.4658203125,0.0126953125,-0.122802734375,0.5848
-0.8854961832061069,0.3816793893129771,-1.6030534351145038,-0.4599609375,0.006103515625,-0.11962890625,0.5865
-1.0229007633587786,0.4732824427480916,-1.4351145038167938,-0.46435546875,0.007568359375,-0.123291015625,0.5882
-0.9770992366412213,0.4580152671755725,-1.450381679389313,-0.45849609375,0.01123046875,-0.11572265625,0.5899
-0.9007633587786259,0.4122137404580153,-1.3435114503816794,-0.467041015625,0.015869140625,-0.114990234375,0.5916
-0.9465648854961832,0.33587786259541985,-1.3587786259541985,-0.463623046875,0.01171875,-0.109130859375,0.5932999999999999
-0.6717557251908397,0.33587786259541985,-1.4961832061068703,-0.466064453125,0.007080078125,-0.115966796875,0.595
-0.6717557251908397,0.32061068702290074,-1.4198473282442747,-0.46826171875,0.006591796875,-0.121826171875,0.5967
-1.0229007633587786,0.5038167938931297,-1.3893129770992367,-0.465087890625,0.013671875,-0.119140625,0.5983999999999999
-0.732824427480916,0.48854961832061067,-1.5267175572519085,-0.466552734375,0.009521484375,-0.12451171875,0.6001
-0.6564885496183206,0.33587786259541985,-1.3893129770992367,-0.46240234375,0.006103515625,-0.125732421875,0.6018
-0.732824427480916,0.48854961832061067,-1.2366412213740459,-0.46435546875,0.001708984375,-0.121826171875,0.6034999999999999
-0.42748091603053434,0.6106870229007634,-1.4198473282442747,-0.46435546875,0.0087890625,-0.124755859375,0.6052
-0.6870229007633588,0.32061068702290074,-1.4045801526717556,-0.469970703125,0.01123046875,-0.124755859375,0.6069
-0.7480916030534351,0.4580152671755725,-1.3587786259541985,-0.466064453125,0.006591796875,-0.119140625,0.6085999999999999
-0.6564885496183206,0.5801526717557252,-1.465648854961832,-0.46484375,0.009765625,-0.126220703125,0.6103
-0.6106870229007634,0.42748091603053434,-1.450381679389313,-0.46240234375,0.00634765625,-0.122802734375,0.612
-0.5190839694656488,0.5801526717557252,-1.4351145038167938,-0.462890625,0.00439453125,-0.11962890625,0.6136999999999999
-0.4122137404580153,0.3053435114503817,-1.5419847328244274,-0.46533203125,0.00439453125,-0.125,0.6154
-0.3816793893129771,0.33587786259541985,-1.5877862595419847,-0.4638671875,0.00830078125,-0.123779296875,0.6171
-0.4732824427480916,0.3969465648854962,-1.6793893129770991,-0.46142578125,0.010498046875,-0.118896484375,0.6188
-0.3816793893129771,0.2748091603053435,-1.5572519083969465,-0.4658203125,0.01123046875,-0.11572265625,0.6204999999999999
-0.24427480916030533,0.3816793893129771,-1.3893129770992367,-0.462646484375,0.014892578125,-0.116943359375,0.6222
-0.44274809160305345,0.16793893129770993,-1.6793893129770991,-0.46630859375,0.003662109375,-0.116455078125,0.6239
-0.3511450381679389,0.366412213740458,-1.8015267175572518,-0.470458984375,0.009033203125,-0.119873046875,0.6255999999999999
-0.21374045801526717,0.2748091603053435,-1.5267175572519085,-0.467529296875,0.009765625,-0.1220703125,0.6273
-0.16793893129770993,0.24427480916030533,-1.4961832061068703,-0.4697265625,0.0087890625,-0.1103515625,0.629
-0.13740458015267176,0.21374045801526717,-1.7404580152671756,-0.46484375,0.010986328125,-0.12353515625,0.6306999999999999
-0.10687022900763359,0.2900763358778626,-1.9694656488549618,-0.462890625,0.009521484375,-0.122802734375,0.6324
-0.04580152671755725,0.32061068702290074,-1.9694656488549618,-0.46435546875,0.00927734375,-0.12109375,0.6341
-0.1984732824427481,0.0916030534351145,-2.045801526717557,-0.4677734375,0.009033203125,-0.11962890625,0.6357999999999999
-0.22900763358778625,0.183206106870229,-1.8778625954198473,-0.46728515625,0.0107421875,-0.113525390625,0.6375
-0.1984732824427481,0.1984732824427481,-2.0,-0.469482421875,0.009765625,-0.116455078125,0.6392
-0.15267175572519084,0.21374045801526717,-1.786259541984733,-0.466552734375,0.010986328125,-0.121337890625,0.6408999999999999
0.07633587786259542,0.32061068702290074,-2.0,-0.470947265625,0.005859375,-0.119140625,0.6426
-0.07633587786259542,0.2900763358778626,-1.9541984732824427,-0.472900390625,0.007080078125,-0.120849609375,0.6443
-0.015267175572519083,0.42748091603053434,-2.0610687022900764,-0.4697265625,0.01318359375,-0.121826171875,0.646
0.061068702290076333,0.4732824427480916,-1.984732824427481,-0.4716796875,0.009521484375,-0.12451171875,0.6476999999999999
0.0916030534351145,0.42748091603053434,-2.030534351145038,-0.46826171875,0.010986328125,-0.1171875,0.6494
0.10687022900763359,0.3053435114503817,-1.7557251908396947,-0.46630859375,0.00830078125,-0.121826171875,0.6511
0.0,0.4122137404580153,-1.9236641221374047,-0.467041015625,0.0126953125,-0.1162109375,0.6527999999999999
0.3816793893129771,0.549618320610687,-1.83206106870229,-0.463623046875,0.0126953125,-0.1220703125,0.6545
0.24427480916030533,0.4122137404580153,-1.8625954198473282,-0.46826171875,0.01220703125,-0.119873046875,0.6562
0.33587786259541985,0.5190839694656488,-1.83206106870229,-0.466552734375,0.0068359375,-0.117919921875,0.6578999999999999
0.2748091603053435,0.7022900763358778,-2.0,-0.45751953125,0.01025390625,-0.114990234375,0.6596
0.42748091603053434,0.3969465648854962,-1.9083969465648856,-0.4619140625,0.01025390625,-0.11962890625,0.6613
0.4122137404580153,0.3511450381679389,-1.9083969465648856,-0.471435546875,0.010498046875,-0.120849609375,0.6629999999999999
0.2595419847328244,0.42748091603053434,-1.8015267175572518,-0.4716796875,0.0087890625,-0.128173828125,0.6647
0.3816793893129771,0.5954198473282443,-1.9236641221374047,-0.468017578125,0.012451171875,-0.123046875,0.6664
0.5038167938931297,0.48854961832061067,-1.7709923664122138,-0.470703125,0.007568359375,-0.113037109375,0.6680999999999999
0.366412213740458,0.5038167938931297,-1.9694656488549618,-0.466796875,0.01171875,-0.113525390625,0.6698
0.5801526717557252,0.4580152671755725,-1.6946564885496183,-0.468994140625,0.005859375,-0.120361328125,0.6715
0.6870229007633588,0.3816793893129771,-1.9694656488549618,-0.471923828125,0.00341796875,-0.1162109375,0.6731999999999999
0.6259541984732825,0.4122137404580153,-1.9694656488549618,-0.464111328125,0.009521484375,-0.115234375,0.6748999999999999
0.6870229007633588,0.5954198473282443,-1.9694656488549618,-0.469970703125,0.009765625,-0.11962890625,0.6766
0.4580152671755725,0.5648854961832062,-1.6793893129770991,-0.47021484375,0.00927734375,-0.1142578125,0.6783
0.6717557251908397,0.6106870229007634,-1.9694656488549618,-0.468505859375,0.007568359375,-0.116943359375,0.6799999999999999
0.732824427480916,0.6564885496183206,-1.6488549618320612,-0.468994140625,0.00830078125,-0.116943359375,0.6817
0.9923664122137404,0.6564885496183206,-2.16793893129771,-0.46533203125,0.007568359375,-0.11865234375,0.6834
0.9618320610687023,0.6412213740458015,-1.984732824427481,-0.466064453125,0.01025390625,-0.123779296875,0.6850999999999999
0.9312977099236641,0.6259541984732825,-1.9236641221374047,-0.4697265625,0.00732421875,-0.123046875,0.6868
1.1908396946564885,0.7480916030534351,-1.83206106870229,-0.467529296875,0.01123046875,-0.114013671875,0.6885
1.1145038167938932,0.6106870229007634,-1.9389312977099236,-0.469482421875,0.0078125,-0.118408203125,0.6901999999999999
1.083969465648855,0.6717557251908397,-2.030534351145038,-0.47314453125,0.008056640625,-0.1103515625,0.6919
1.3435114503816794,0.5648854961832062,-2.0,-0.470947265625,0.01123046875,-0.115966796875,0.6936
1.297709923664122,0.3816793893129771,-1.83206106870229,-0.465576171875,0.0078125,-0.122802734375,0.6952999999999999
1.3587786259541985,0.6564885496183206,-1.9694656488549618,-0.473876953125,0.009765625,-0.12109375,0.697
1.2671755725190839,0.7022900763358778,-2.183206106870229,-0.46630859375,0.011474609375,-0.121826171875,0.6987
1.5725190839694656,0.5801526717557252,-2.122137404580153,-0.46533203125,0.010498046875,-0.117431640625,0.7003999999999999
1.6030534351145038,0.8244274809160306,-2.030534351145038,-0.466064453125,0.010498046875,-0.11669921875,0.7021
1.8931297709923665,0.5648854961832062,-2.0916030534351147,-0.466796875,0.01171875,-0.12109375,0.7038
2.122137404580153,0.5954198473282443,-2.213740458015267,-0.468017578125,0.01318359375,-0.115966796875,0.7055
2.0916030534351147,0.6717557251908397,-2.381679389312977,-0.470703125,0.003662109375,-0.12158203125,0.7071999999999999
1.7709923664122138,0.6106870229007634,-2.0916030534351147,-0.463134765625,0.007080078125,-0.11328125,0.7089
2.0610687022900764,0.7022900763358778,-2.198473282442748,-0.4658203125,0.010009765625,-0.11767578125,0.7106
2.030534351145038,0.6412213740458015,-2.183206106870229,-0.466064453125,0.012451171875,-0.114990234375,0.7122999999999999
2.16793893129771,0.5190839694656488,-2.198473282442748,-0.466552734375,0.008056640625,-0.11669921875,0.714
2.3053435114503817,0.6564885496183206,-2.1374045801526718,-0.4677734375,0.00830078125,-0.12158203125,0.7157
2.1374045801526718,0.7786259541984732,-2.198473282442748,-0.46728515625,0.011474609375,-0.117431640625,0.7173999999999999
2.1526717557251906,0.7022900763358778,-2.351145038167939,-0.4677734375,0.007568359375,-0.114501953125,0.7191
2.4732824427480917,0.5954198473282443,-2.3969465648854964,-0.469482421875,0.00927734375,-0.12109375,0.7208
2.4580152671755724,0.732824427480916,-2.1526717557251906,-0.465576171875,0.010498046875,-0.114990234375,0.7224999999999999
2.1526717557251906,0.6412213740458015,-2.3206106870229006,-0.46533203125,0.00732421875,-0.123779296875,0.7242
2.33587786259542,0.7022900763358778,-2.16793893129771,-0.46826171875,0.00732421875,-0.112548828125,0.7259
2.183206106870229,0.8091603053435115,-2.213740458015267,-0.46826171875,0.011474609375,-0.1171875,0.7275999999999999
2.549618320610687,0.9618320610687023,-2.183206106870229,-0.468994140625,0.009521484375,-0.111572265625,0.7293
2.2900763358778624,1.1603053435114503,-2.2595419847328246,-0.469970703125,0.00537109375,-0.114990234375,0.731
2.4122137404580153,0.9312977099236641,-2.1374045801526718,-0.467041015625,0.009521484375,-0.117431640625,0.7326999999999999
2.427480916030534,1.0687022900763359,-2.213740458015267,-0.470703125,0.007080078125,-0.121337890625,0.7343999999999999
2.3206106870229006,1.0687022900763359,-2.198473282442748,-0.473388671875,0.007080078125,-0.123046875,0.7361
2.519083969465649,1.2061068702290076,-2.183206106870229,-0.468017578125,0.0087890625,-0.112548828125,0.7378
2.6412213740458017,1.1755725190839694,-2.0916030534351147,-0.469482421875,0.006591796875,-0.106201171875,0.7394999999999999
2.6106870229007635,1.1908396946564885,-2.2748091603053435,-0.474853515625,0.0048828125,-0.115966796875,0.7412
2.8244274809160306,1.4961832061068703,-2.2290076335877864,-0.47119140625,0.0078125,-0.116943359375,0.7429
2.7938931297709924,1.297709923664122,-2.2748091603053435,-0.471923828125,0.00927734375,-0.122802734375,0.7445999999999999
2.931297709923664,1.3435114503816794,-2.198473282442748,-0.46630859375,0.01171875,-0.117919921875,0.7463
3.145038167938931,1.3893129770992367,-2.2290076335877864,-0.471435546875,0.01025390625,-0.117431640625,0.748
3.099236641221374,1.450381679389313,-2.122137404580153,-0.46728515625,0.01220703125,-0.11865234375,0.7496999999999999
3.2213740458015265,1.5572519083969465,-2.1068702290076335,-0.47119140625,0.012451171875,-0.115478515625,0.7514
3.053435114503817,1.5267175572519085,-2.0916030534351147,-0.4677734375,0.0068359375,-0.11474609375,0.7531
3.1908396946564888,1.5267175572519085,-2.16793893129771,-0.466064453125,0.007568359375,-0.121337890625,0.7547999999999999
3.2061068702290076,1.4809160305343512,-2.16793893129771,-0.46728515625,0.007080078125,-0.124755859375,0.7565
3.145038167938931,1.465648854961832,-2.0610687022900764,-0.468017578125,0.0107421875,-0.1181640625,0.7582
3.5267175572519083,1.465648854961832,-2.030534351145038,-0.472412109375,0.00830078125,-0.11865234375,0.7598999999999999
3.404580152671756,1.4045801526717556,-2.213740458015267,-0.474853515625,0.01123046875,-0.11083984375,0.7615999999999999
3.5267175572519083,1.4961832061068703,-2.16793893129771,-0.468505859375,0.005126953125,-0.12109375,0.7633
3.450381679389313,1.4809160305343512,-1.9236641221374047,-0.465576171875,0.010986328125,-0.11572265625,0.7649999999999999
3.6030534351145036,1.465648854961832,-2.0,-0.46435546875,0.011474609375,-0.115966796875,0.7666999999999999
3.7099236641221376,1.2061068702290076,-1.984732824427481,-0.4609375,0.012451171875,-0.110107421875,0.7684
3.83206106870229,1.3893129770992367,-1.984732824427481,-0.466064453125,0.012939453125,-0.122802734375,0.7701
3.6946564885496183,1.4198473282442747,-1.8625954198473282,-0.467529296875,0.010009765625,-0.125,0.7717999999999999
3.9083969465648853,1.3435114503816794,-1.8931297709923665,-0.469970703125,0.009521484375,-0.119873046875,0.7735
3.8931297709923665,1.2671755725190839,-1.8931297709923665,-0.466064453125,0.0087890625,-0.1220703125,0.7752
3.786259541984733,1.282442748091603,-1.816793893129771,-0.468994140625,0.003662109375,-0.117431640625,0.7768999999999999
3.954198473282443,1.3740458015267176,-1.8625954198473282,-0.46484375,0.00390625,-0.118896484375,0.7786
3.786259541984733,1.3282442748091603,-1.8778625954198473,-0.466064453125,0.013916015625,-0.12744140625,0.7803
3.8625954198473282,1.4045801526717556,-1.984732824427481,-0.46630859375,0.00634765625,-0.119140625,0.7819999999999999
3.9083969465648853,1.3282442748091603,-1.9083969465648856,-0.468994140625,0.008056640625,-0.119140625,0.7837
3.8931297709923665,1.4351145038167938,-1.9389312977099236,-0.467529296875,0.00927734375,-0.124755859375,0.7854
3.9083969465648853,1.3435114503816794,-1.984732824427481,-0.46533203125,0.012939453125,-0.1181640625,0.7870999999999999
4.061068702290076,1.3893129770992367,-1.9083969465648856,-0.464111328125,0.0068359375,-0.1171875,0.7888
4.0,1.4045801526717556,-1.8015267175572518,-0.463623046875,0.00439453125,-0.125732421875,0.7905
4.0458015267175576,1.450381679389313,-1.9083969465648856,-0.46630859375,0.007568359375,-0.122802734375,0.7921999999999999
4.0,1.5877862595419847,-1.7709923664122138,-0.466796875,0.009765625,-0.117919921875,0.7938999999999999
4.152671755725191,1.4351145038167938,-1.6946564885496183,-0.466796875,0.00927734375,-0.121826171875,0.7956
3.9389312977099236,1.5267175572519085,-1.7557251908396947,-0.46484375,0.006103515625,-0.122802734375,0.7973
4.244274809160306,1.5419847328244274,-1.6488549618320612,-0.46826171875,0.0078125,-0.1171875,0.7989999999999999
4.2748091603053435,1.4961832061068703,-1.8473282442748091,-0.467041015625,0.00439453125,-0.11474609375,0.8007
4.0458015267175576,1.4809160305343512,-1.5572519083969465,-0.468017578125,0.0048828125,-0.12158203125,0.8024
4.198473282442748,1.3893129770992367,-1.7251908396946565,-0.46484375,0.0068359375,-0.12451171875,0.8040999999999999
4.183206106870229,1.465648854961832,-1.6641221374045803,-0.46533203125,0.0078125,-0.122314453125,0.8058
3.801526717557252,1.5877862595419847,-1.5877862595419847,-0.4677734375,0.005126953125,-0.12158203125,0.8075
3.9389312977099236,1.5267175572519085,-1.6030534351145038,-0.46826171875,0.005615234375,-0.119384765625,0.8091999999999999
3.969465648854962,1.6641221374045803,-1.8015267175572518,-0.464599609375,0.00927734375,-0.124755859375,0.8109
3.7099236641221376,1.633587786259542,-1.5877862595419847,-0.469970703125,0.01025390625,-0.130615234375,0.8126
3.6030534351145036,1.5877862595419847,-1.633587786259542,-0.47265625,0.004638671875,-0.126220703125,0.8142999999999999
3.5419847328244276,1.450381679389313,-1.4351145038167938,-0.4638671875,0.0068359375,-0.128662109375,0.816
3.2061068702290076,1.5725190839694656,-1.450381679389313,-0.463134765625,0.004638671875,-0.125732421875,0.8177
3.1755725190839694,1.633587786259542,-1.5114503816793894,-0.4638671875,0.006103515625,-0.118408203125,0.8193999999999999
3.145038167938931,1.786259541984733,-1.465648854961832,-0.466552734375,0.0087890625,-0.12548828125,0.8210999999999999
3.0839694656488548,1.8778625954198473,-1.3893129770992367,-0.47021484375,0.0029296875,-0.126953125,0.8228
3.114503816793893,1.8778625954198473,-1.3893129770992367,-0.46240234375,0.002197265625,-0.118896484375,0.8244999999999999
2.885496183206107,1.7709923664122138,-1.3893129770992367,-0.466552734375,0.00830078125,-0.125,0.8261999999999999
2.6412213740458017,1.9541984732824427,-1.1908396946564885,-0.46630859375,0.0078125,-0.11669921875,0.8279
2.366412213740458,1.8625954198473282,-1.251908396946565,-0.462158203125,0.005126953125,-0.11767578125,0.8296
2.4732824427480917,1.9541984732824427,-1.3587786259541985,-0.47216796875,0.005859375,-0.125,0.8312999999999999
2.198473282442748,1.9389312977099236,-1.0381679389312977,-0.464111328125,0.004638671875,-0.128662109375,0.833
2.2595419847328246,1.9083969465648856,-1.3435114503816794,-0.462646484375,0.002685546875,-0.1328125,0.8347
2.198473282442748,1.9541984732824427,-1.1145038167938932,-0.466064453125,0.006103515625,-0.119384765625,0.8363999999999999
2.1068702290076335,2.0610687022900764,-1.2061068702290076,-0.46923828125,0.005126953125,-0.12548828125,0.8381
2.213740458015267,1.9236641221374047,-1.1908396946564885,-0.469970703125,0.00732421875,-0.127685546875,0.8398
1.9083969465648856,1.9694656488549618,-1.1450381679389312,-0.46728515625,-0.0009765625,-0.122802734375,0.8414999999999999
1.7557251908396947,2.0,-1.282442748091603,-0.4677734375,0.0,-0.1279296875,0.8432
1.9389312977099236,1.9694656488549618,-1.083969465648855,-0.470703125,0.006103515625,-0.12451171875,0.8449
1.9236641221374047,2.015267175572519,-1.0687022900763359,-0.4677734375,0.001953125,-0.12060546875,0.8465999999999999
1.8015267175572518,1.9236641221374047,-1.0076335877862594,-0.469970703125,0.0078125,-0.119873046875,0.8482999999999999
1.9083969465648856,2.122137404580153,-0.9618320610687023,-0.46484375,0.004150390625,-0.11962890625,0.85
1.8625954198473282,2.0763358778625953,-1.083969465648855,-0.46533203125,0.00341796875,-0.1201171875,0.8516999999999999
1.9389312977099236,1.9236641221374047,-1.0229007633587786,-0.467529296875,0.009033203125,-0.119140625,0.8533999999999999
1.5725190839694656,1.984732824427481,-1.1603053435114503,-0.467529296875,0.00830078125,-0.113037109375,0.8551
1.465648854961832,2.0763358778625953,-1.0687022900763359,-0.468017578125,0.006103515625,-0.109619140625,0.8568
1.816793893129771,2.045801526717557,-0.9923664122137404,-0.462890625,0.00390625,-0.113037109375,0.8584999999999999
1.6946564885496183,2.0610687022900764,-1.0687022900763359,-0.4677734375,0.008544921875,-0.119384765625,0.8602
1.4351145038167938,2.0763358778625953,-1.1908396946564885,-0.4638671875,0.008544921875,-0.116943359375,0.8619
1.465648854961832,2.1526717557251906,-1.099236641221374,-0.468994140625,0.010009765625,-0.120849609375,0.8635999999999999
1.3587786259541985,2.1068702290076335,-1.2671755725190839,-0.46484375,0.00439453125,-0.126953125,0.8653
1.251908396946565,2.213740458015267,-0.8854961832061069,-0.469970703125,0.003662109375,-0.117919921875,0.867
1.2061068702290076,2.198473282442748,-1.1603053435114503,-0.467041015625,0.002685546875,-0.123779296875,0.8686999999999999
1.1755725190839694,2.030534351145038,-1.1603053435114503,-0.466064453125,0.00830078125,-0.120361328125,0.8704
0.9312977099236641,2.122137404580153,-1.1755725190839694,-0.466552734375,0.00537109375,-0.126953125,0.8721
0.9465648854961832,2.198473282442748,-1.1908396946564885,-0.466796875,0.006103515625,-0.134521484375,0.8737999999999999
0.8396946564885496,2.2290076335877864,-1.2213740458015268,-0.46533203125,0.003662109375,-0.121337890625,0.8755
1.1297709923664123,2.2595419847328246,-1.0687022900763359,-0.461669921875,0.009521484375,-0.119140625,0.8772
1.0381679389312977,2.16793893129771,-1.0534351145038168,-0.46923828125,0.01171875,-0.122802734375,0.8788999999999999
0.9465648854961832,2.2442748091603053,-1.2671755725190839,-0.46826171875,0.00537109375,-0.12109375,0.8805999999999999
0.916030534351145,2.3206106870229006,-1.1145038167938932,-0.468505859375,0.00537109375,-0.121826171875,0.8823
0.8549618320610687,2.2442748091603053,-1.1908396946564885,-0.46923828125,0.004150390625,-0.118896484375,0.8839999999999999
0.6412213740458015,2.3053435114503817,-1.0381679389312977,-0.46728515625,0.0029296875,-0.12353515625,0.8856999999999999
0.7175572519083969,2.2290076335877864,-1.099236641221374,-0.466796875,0.001708984375,-0.1259765625,0.8874
0.732824427480916,2.351145038167939,-1.1450381679389312,-0.46484375,0.004150390625,-0.1142578125,0.8891
0.9007633587786259,2.351145038167939,-0.9923664122137404,-0.467529296875,-0.000732421875,-0.11962890625,0.8907999999999999
0.7938931297709924,2.3053435114503817,-1.0381679389312977,-0.467529296875,0.002197265625,-0.121826171875,0.8925
0.8854961832061069,2.4427480916030535,-1.1908396946564885,-0.46630859375,0.003173828125,-0.123291015625,0.8942
0.8854961832061069,2.366412213740458,-1.282442748091603,-0.463623046875,0.00634765625,-0.1171875,0.8958999999999999
0.8702290076335878,2.2442748091603053,-1.0229007633587786,-0.463623046875,0.0068359375,-0.123291015625,0.8976
0.8396946564885496,2.50381679389313,-1.0229007633587786,-0.4697265625,0.00048828125,-0.1142578125,0.8993
0.5038167938931297,2.351145038167939,-1.2061068702290076,-0.470458984375,0.00244140625,-0.1220703125,0.9009999999999999
0.7633587786259542,2.4580152671755724,-1.1297709923664123,-0.462646484375,0.00830078125,-0.129150390625,0.9027
0.8396946564885496,2.549618320610687,-1.0687022900763359,-0.470458984375,0.003173828125,-0.121337890625,0.9044
0.9923664122137404,2.4732824427480917,-1.0534351145038168,-0.47021484375,0.003662109375,-0.12451171875,0.9060999999999999
0.8549618320610687,2.595419847328244,-1.099236641221374,-0.466796875,0.004638671875,-0.114501953125,0.9077999999999999
0.732824427480916,2.4580152671755724,-0.8854961832061069,-0.46923828125,0.007568359375,-0.118896484375,0.9095
0.9007633587786259,2.50381679389313,-0.9770992366412213,-0.47119140625,0.010009765625,-0.11181640625,0.9111999999999999
0.6717557251908397,2.4580152671755724,-0.916030534351145,-0.46630859375,0.00830078125,-0.12060546875,0.9128999999999999
0.7175572519083969,2.6259541984732824,-1.0229007633587786,-0.46484375,0.00537109375,-0.1171875,0.9146
0.8854961832061069,2.6259541984732824,-1.1603053435114503,-0.461181640625,0.00634765625,-0.120849609375,0.9163
0.8244274809160306,2.6259541984732824,-0.9618320610687023,-0.465576171875,0.00537109375,-0.11962890625,0.9179999999999999
0.6870229007633588,2.3053435114503817,-0.9770992366412213,-0.467041015625,0.008544921875,-0.121826171875,0.9197
0.7022900763358778,2.5343511450381677,-1.1145038167938932,-0.461669921875,0.005859375,-0.1171875,0.9214
0.8091603053435115,2.6717557251908395,-1.0534351145038168,-0.46484375,0.00732421875,-0.121337890625,0.9230999999999999
0.8702290076335878,2.564885496183206,-1.0076335877862594,-0.46923828125,0.003662109375,-0.120849609375,0.9248
0.9312977099236641,2.4580152671755724,-0.9312977099236641,-0.463623046875,0.010009765625,-0.124755859375,0.9265
1.099236641221374,2.5343511450381677,-1.1145038167938932,-0.4658203125,0.012451171875,-0.1201171875,0.9281999999999999
1.1450381679389312,2.4122137404580153,-0.9465648854961832,-0.464111328125,0.007080078125,-0.122314453125,0.9299
0.9770992366412213,2.4122137404580153,-1.083969465648855,-0.464111328125,0.00390625,-0.124267578125,0.9316
1.1603053435114503,2.366412213740458,-0.9007633587786259,-0.469482421875,0.007568359375,-0.1220703125,0.9332999999999999
1.083969465648855,2.5343511450381677,-0.9312977099236641,-0.464111328125,0.00830078125,-0.119384765625,0.9349999999999999
1.083969465648855,2.3969465648854964,-1.0381679389312977,-0.46435546875,0.003173828125,-0.113525390625,0.9367
1.2366412213740459,2.4122137404580153,-1.083969465648855,-0.464599609375,0.011474609375,-0.1171875,0.9383999999999999
1.251908396946565,2.2442748091603053,-1.0229007633587786,-0.467529296875,0.00732421875,-0.119873046875,0.9400999999999999
1.1908396946564885,2.3969465648854964,-1.0534351145038168,-0.467041015625,0.00244140625,-0.1162109375,0.9418
1.5114503816793894,2.4580152671755724,-0.8244274809160306,-0.4638671875,0.00634765625,-0.123779296875,0.9434999999999999
1.6641221374045803,2.4122137404580153,-0.9770992366412213,-0.466796875,0.0087890625,-0.115966796875,0.9451999999999999
1.6488549618320612,2.549618320610687,-1.0229007633587786,-0.46728515625,0.004150390625,-0.123291015625,0.9469
1.5877862595419847,2.351145038167939,-1.0534351145038168,-0.464599609375,0.01123046875,-0.12646484375,0.9486
1.8625954198473282,2.4580152671755724,-0.9618320610687023,-0.47119140625,0.00439453125,-0.120361328125,0.9502999999999999
1.6946564885496183,2.427480916030534,-0.9770992366412213,-0.470947265625,0.009521484375,-0.125244140625,0.952
1.7251908396946565,2.2442748091603053,-0.7175572519083969,-0.467529296875,0.0068359375,-0.11865234375,0.9537
1.8625954198473282,2.381679389312977,-0.9770992366412213,-0.4658203125,0.003662109375,-0.124267578125,0.9553999999999999
1.9083969465648856,2.366412213740458,-0.9007633587786259,-0.464111328125,0.005859375,-0.12548828125,0.9571
1.8015267175572518,2.3053435114503817,-1.1145038167938932,-0.46435546875,0.006103515625,-0.120849609375,0.9588
2.0,2.564885496183206,-0.916030534351145,-0.464599609375,0.005126953125,-0.12109375,0.9604999999999999
2.0916030534351147,2.351145038167939,-0.9618320610687023,-0.468017578125,0.008544921875,-0.123779296875,0.9621999999999999
1.8778625954198473,2.381679389312977,-0.8854961832061069,-0.46484375,0.006103515625,-0.119140625,0.9639
1.83206106870229,2.427480916030534,-0.916030534351145,-0.46875,0.007568359375,-0.13232421875,0.9655999999999999
1.984732824427481,2.4427480916030535,-0.9312977099236641,-0.461669921875,0.00732421875,-0.128173828125,0.9672999999999999
2.0,2.3206106870229006,-0.9618320610687023,-0.468017578125,0.009765625,-0.12255859375,0.969
2.1068702290076335,2.213740458015267,-0.8702290076335878,-0.465576171875,0.011474609375,-0.123779296875,0.9706999999999999
1.9236641221374047,2.4427480916030535,-0.9312977099236641,-0.463134765625,0.0078125,-0.114013671875,0.9723999999999999
2.0610687022900764,2.4885496183206106,-0.6564885496183206,-0.4677734375,0.008544921875,-0.12353515625,0.9741
1.9236641221374047,2.5801526717557253,-1.0381679389312977,-0.46484375,0.00830078125,-0.127685546875,0.9758
1.8015267175572518,2.519083969465649,-0.8091603053435115,-0.4697265625,0.0078125,-0.118896484375,0.9774999999999999
1.9083969465648856,2.4580152671755724,-0.9312977099236641,-0.4658203125,0.00634765625,-0.11865234375,0.9792
2.045801526717557,2.366412213740458,-0.7022900763358778,-0.466064453125,0.008056640625,-0.1298828125,0.9809
1.8931297709923665,2.519083969465649,-0.8091603053435115,-0.468017578125,0.009765625,-0.123046875,0.9825999999999999
2.015267175572519,2.50381679389313,-0.7633587786259542,-0.46630859375,0.00146484375,-0.118408203125,0.9843
1.9236641221374047,2.519083969465649,-0.8091603053435115,-0.463623046875,0.007080078125,-0.120849609375,0.986
1.9236641221374047,2.519083969465649,-0.7633587786259542,-0.469482421875,0.0078125,-0.117919921875,0.9876999999999999
1.816793893129771,2.6106870229007635,-0.7633587786259542,-0.465087890625,0.007568359375,-0.119140625,0.9894
1.7709923664122138,2.5343511450381677,-0.5190839694656488,-0.462890625,0.009033203125,-0.127685546875,0.9911
1.83206106870229,2.6106870229007635,-0.8244274809160306,-0.468017578125,0.009521484375,-0.127685546875,0.9927999999999999
2.0,2.6564885496183206,-0.7022900763358778,-0.470458984375,0.013916015625,-0.118896484375,0.9944999999999999
1.8015267175572518,2.4580152671755724,-0.6717557251908397,-0.4697265625,0.0087890625,-0.122314453125,0.9962
1.786259541984733,2.595419847328244,-0.6106870229007634,-0.46630859375,0.0068359375,-0.123291015625,0.9978999999999999
1.3587786259541985,2.549618320610687,-0.6412213740458015,-0.46826171875,0.00830078125,-0.122802734375,0.9995999999999999
1.6488549618320612,2.5343511450381677,-0.7022900763358778,-0.465576171875,0.00537109375,-0.1123046875,1.0012999999999999
1.816793893129771,2.595419847328244,-0.549618320610687,-0.46923828125,0.0087890625,-0.12060546875,1.003
1.5877862595419847,2.6259541984732824,-0.5954198473282443,-0.46533203125,0.010986328125,-0.124755859375,1.0047
1.4809160305343512,2.564885496183206,-0.4122137404580153,-0.471435546875,0.0068359375,-0.122314453125,1.0064
1.5114503816793894,2.7938931297709924,-0.2595419847328244,-0.46826171875,0.01171875,-0.127685546875,1.0081
1.5419847328244274,2.7786259541984735,-0.5648854961832062,-0.46826171875,0.0048828125,-0.12255859375,1.0098
1.251908396946565,2.7480916030534353,-0.3969465648854962,-0.46728515625,0.007568359375,-0.133544921875,1.0114999999999998
1.3435114503816794,2.732824427480916,-0.5801526717557252,-0.468017578125,0.001708984375,-0.11962890625,1.0131999999999999
1.4961832061068703,2.687022900763359,-0.4122137404580153,-0.468017578125,0.004638671875,-0.12353515625,1.0149
1.3740458015267176,2.687022900763359,-0.3816793893129771,-0.468017578125,0.003173828125,-0.1240234375,1.0166
1.282442748091603,2.9160305343511452,-0.33587786259541985,-0.4736328125,0.009033203125,-0.1259765625,1.0183
1.282442748091603,2.900763358778626,-0.44274809160305345,-0.47021484375,0.01220703125,-0.1298828125,1.02
1.3740458015267176,2.9618320610687023,-0.3511450381679389,-0.467529296875,0.004638671875,-0.129638671875,1.0217
1.1755725190839694,2.900763358778626,-0.21374045801526717,-0.471923828125,0.004638671875,-0.12353515625,1.0233999999999999
1.1755725190839694,3.0076335877862594,-0.24427480916030533,-0.469482421875,0.003173828125,-0.12158203125,1.0251
1.282442748091603,2.900763358778626,-0.4732824427480916,-0.4716796875,0.009765625,-0.12109375,1.0268
1.1755725190839694,2.9923664122137406,-0.4122137404580153,-0.464599609375,0.00732421875,-0.11572265625,1.0285
1.282442748091603,2.946564885496183,-0.4122137404580153,-0.472412109375,0.0078125,-0.1181640625,1.0302
1.1755725190839694,2.687022900763359,-0.22900763358778625,-0.46630859375,0.00537109375,-0.126708984375,1.0319
1.1755725190839694,2.946564885496183,-0.1984732824427481,-0.4677734375,0.012451171875,-0.11669921875,1.0335999999999999
1.083969465648855,2.9770992366412212,-0.2595419847328244,-0.466796875,0.00830078125,-0.11962890625,1.0352999999999999
1.083969465648855,2.717557251908397,-0.3969465648854962,-0.4658203125,0.00439453125,-0.12060546875,1.037
1.0381679389312977,2.7786259541984735,-0.183206106870229,-0.470703125,0.001708984375,-0.125244140625,1.0387
1.1297709923664123,2.8091603053435112,-0.2748091603053435,-0.4677734375,0.007568359375,-0.117919921875,1.0404
0.916030534351145,3.0381679389312977,-0.21374045801526717,-0.471923828125,0.006103515625,-0.11083984375,1.0421
0.7633587786259542,2.9618320610687023,-0.15267175572519084,-0.466552734375,0.008056640625,-0.12255859375,1.0437999999999998
0.8549618320610687,3.0381679389312977,-0.21374045801526717,-0.465576171875,0.007080078125,-0.126708984375,1.0454999999999999
0.8702290076335878,2.900763358778626,-0.1984732824427481,-0.465576171875,0.010986328125,-0.121337890625,1.0472
0.7786259541984732,2.946564885496183,-0.0916030534351145,-0.472412109375,0.005615234375,-0.121337890625,1.0489
0.8091603053435115,2.885496183206107,-0.10687022900763359,-0.467041015625,0.0087890625,-0.1162109375,1.0506
0.5190839694656488,2.946564885496183,-0.07633587786259542,-0.462158203125,0.003662109375,-0.118408203125,1.0523
0.5648854961832062,3.0229007633587788,-0.04580152671755725,-0.468994140625,0.0078125,-0.12646484375,1.054
0.5343511450381679,3.145038167938931,-0.183206106870229,-0.46826171875,0.00927734375,-0.11962890625,1.0556999999999999
0.33587786259541985,2.885496183206107,-0.32061068702290074,-0.472900390625,0.0078125,-0.114990234375,1.0574
0.48854961832061067,2.885496183206107,-0.10687022900763359,-0.4658203125,0.006591796875,-0.119384765625,1.0591
0.3511450381679389,2.9618320610687023,-0.15267175572519084,-0.468994140625,0.00732421875,-0.121826171875,1.0608
0.21374045801526717,3.0839694656488548,-0.21374045801526717,-0.469482421875,0.00732421875,-0.11865234375,1.0625
0.3969465648854962,2.8091603053435112,-0.183206106870229,-0.46533203125,0.006591796875,-0.120849609375,1.0642
0.6412213740458015,2.8396946564885495,-0.07633587786259542,-0.466552734375,0.01123046875,-0.1259765625,1.0658999999999998
0.5343511450381679,3.0381679389312977,-0.061068702290076333,-0.4658203125,0.00634765625,-0.11572265625,1.0675999999999999
0.48854961832061067,2.8091603053435112,-0.22900763358778625,-0.4638671875,0.0078125,-0.130126953125,1.0693
0.6870229007633588,2.8244274809160306,-0.015267175572519083,-0.46826171875,0.00537109375,-0.114990234375,1.071
0.6412213740458015,2.900763358778626,-0.12213740458015267,-0.465576171875,0.00634765625,-0.118896484375,1.0727
0.6259541984732825,2.900763358778626,-0.015267175572519083,-0.46875,0.00390625,-0.125,1.0744
0.7175572519083969,2.7022900763358777,0.0916030534351145,-0.468017578125,0.00537109375,-0.12451171875,1.0760999999999998
0.7633587786259542,2.7786259541984735,-0.10687022900763359,-0.467041015625,0.010498046875,-0.125244140625,1.0777999999999999
0.6717557251908397,2.9923664122137406,0.015267175572519083,-0.46533203125,0.010498046875,-0.119140625,1.0795
0.7022900763358778,2.8091603053435112,0.21374045801526717,-0.46435546875,0.009765625,-0.1171875,1.0812
0.9007633587786259,2.931297709923664,0.183206106870229,-0.465576171875,0.007080078125,-0.11962890625,1.0829
0.6106870229007634,2.854961832061069,0.04580152671755725,-0.47265625,0.00927734375,-0.115478515625,1.0846
0.6717557251908397,2.7786259541984735,-0.030534351145038167,-0.47119140625,0.009033203125,-0.122314453125,1.0863
0.9465648854961832,2.6564885496183206,0.16793893129770993,-0.466064453125,0.00830078125,-0.123779296875,1.0879999999999999
0.9007633587786259,2.7480916030534353,-0.030534351145038167,-0.469482421875,0.008544921875,-0.12353515625,1.0897
0.732824427480916,2.595419847328244,0.10687022900763359,-0.464599609375,0.007568359375,-0.125,1.0914
0.7480916030534351,2.763358778625954,0.22900763358778625,-0.468017578125,0.0078125,-0.123779296875,1.0931
0.9923664122137404,2.763358778625954,0.2595419847328244,-0.46875,0.010498046875,-0.11962890625,1.0948
0.8396946564885496,2.732824427480916,-0.030534351145038167,-0.4658203125,0.01025390625,-0.123779296875,1.0965
0.6870229007633588,2.8702290076335877,0.2595419847328244,-0.462158203125,0.0078125,-0.120849609375,1.0981999999999998
1.083969465648855,2.687022900763359,-0.015267175572519083,-0.465087890625,0.009521484375,-0.122802734375,1.0998999999999999
1.251908396946565,2.564885496183206,0.10687022900763359,-0.470947265625,0.0087890625,-0.11962890625,1.1016
0.9770992366412213,2.6412213740458017,0.12213740458015267,-0.46728515625,0.0107421875,-0.118408203125,1.1033
1.1755725190839694,2.8091603053435112,0.3053435114503817,-0.46435546875,0.012451171875,-0.115966796875,1.105
1.1297709923664123,2.8702290076335877,0.16793893129770993,-0.469482421875,0.009033203125,-0.116455078125,1.1067
1.099236641221374,2.717557251908397,0.16793893129770993,-0.46875,0.007080078125,-0.121337890625,1.1083999999999998
1.3129770992366412,2.717557251908397,0.13740458015267176,-0.468505859375,0.007080078125,-0.12060546875,1.1100999999999999
1.2366412213740459,2.854961832061069,0.2748091603053435,-0.464599609375,0.013427734375,-0.1259765625,1.1118
1.297709923664122,2.854961832061069,0.24427480916030533,-0.468017578125,0.009765625,-0.117431640625,1.1135
1.465648854961832,2.7480916030534353,0.33587786259541985,-0.46728515625,0.005859375,-0.117431640625,1.1152
1.633587786259542,3.099236641221374,0.0916030534351145,-0.466796875,0.010009765625,-0.123291015625,1.1169
1.251908396946565,3.0076335877862594,0.24427480916030533,-0.46533203125,0.001953125,-0.12646484375,1.1186
1.7557251908396947,2.763358778625954,0.07633587786259542,-0.468505859375,0.0078125,-0.11328125,1.1202999999999999
1.633587786259542,2.900763358778626,0.32061068702290074,-0.466796875,0.0078125,-0.126220703125,1.1219999999999999
1.633587786259542,3.114503816793893,0.183206106870229,-0.473388671875,0.005615234375,-0.118408203125,1.1237
1.5877862595419847,3.145038167938931,0.3053435114503817,-0.469482421875,0.008544921875,-0.1279296875,1.1254
1.5419847328244274,3.0229007633587788,0.030534351145038167,-0.46826171875,0.0078125,-0.119873046875,1.1271
1.5877862595419847,3.114503816793893,-0.0916030534351145,-0.464599609375,0.00048828125,-0.12255859375,1.1288
2.0,3.236641221374046,0.12213740458015267,-0.466796875,0.00390625,-0.1279296875,1.1304999999999998
1.633587786259542,2.9923664122137406,0.16793893129770993,-0.465087890625,0.01025390625,-0.13134765625,1.1321999999999999
1.618320610687023,3.068702290076336,0.04580152671755725,-0.47021484375,0.014404296875,-0.117919921875,1.1339
1.6641221374045803,3.0229007633587788,0.1984732824427481,-0.468994140625,0.011962890625,-0.11865234375,1.1356
1.7099236641221374,3.0229007633587788,-0.10687022900763359,-0.466064453125,0.00732421875,-0.125732421875,1.1373
1.5419847328244274,3.0839694656488548,0.061068702290076333,-0.46728515625,0.01123046875,-0.118408203125,1.139
1.6488549618320612,3.0381679389312977,0.12213740458015267,-0.470458984375,0.01171875,-0.12353515625,1.1407
1.6488549618320612,3.0076335877862594,0.04580152671755725,-0.46826171875,0.00927734375,-0.1298828125,1.1423999999999999
1.5419847328244274,3.114503816793893,0.0916030534351145,-0.4638671875,0.01025390625,-0.11767578125,1.1441
1.618320610687023,3.068702290076336,0.10687022900763359,-0.467041015625,0.01025390625,-0.125244140625,1.1458
1.4198473282442747,3.1603053435114505,0.07633587786259542,-0.47119140625,0.00537109375,-0.135498046875,1.1475
1.3893129770992367,2.9770992366412212,0.0,-0.46875,0.010009765625,-0.127197265625,1.1492
1.450381679389313,3.0229007633587788,-0.04580152671755725,-0.468017578125,0.007080078125,-0.121337890625,1.1509
1.4809160305343512,3.282442748091603,0.1984732824427481,-0.468505859375,0.0078125,-0.1259765625,1.1525999999999998
1.297709923664122,3.312977099236641,0.12213740458015267,-0.46875,0.01318359375,-0.121337890625,1.1542999999999999
1.3435114503816794,3.068702290076336,0.0,-0.463623046875,0.001953125,-0.118408203125,1.156
1.2061068702290076,3.0839694656488548,-0.183206106870229,-0.463134765625,0.0068359375,-0.13427734375,1.1577
1.1755725190839694,3.145038167938931,-0.07633587786259542,-0.46240234375,0.008544921875,-0.1298828125,1.1594
1.2366412213740459,3.1755725190839694,-0.12213740458015267,-0.4658203125,0.008544921875,-0.118408203125,1.1611
0.9312977099236641,3.0381679389312977,0.15267175572519084,-0.463134765625,0.008056640625,-0.121337890625,1.1627999999999998
0.9618320610687023,3.068702290076336,-0.10687022900763359,-0.467041015625,0.008544921875,-0.12841796875,1.1644999999999999
1.2061068702290076,3.1755725190839694,-0.10687022900763359,-0.46533203125,0.012939453125,-0.121337890625,1.1662
1.2213740458015268,3.2061068702290076,-0.0916030534351145,-0.46875,0.00927734375,-0.113037109375,1.1679
0.9007633587786259,3.1603053435114505,-0.0916030534351145,-0.469482421875,0.01220703125,-0.120361328125,1.1696
0.8549618320610687,3.068702290076336,-0.24427480916030533,-0.467529296875,0.00634765625,-0.12060546875,1.1713
0.8702290076335878,2.946564885496183,-0.061068702290076333,-0.465576171875,0.008056640625,-0.128662109375,1.173
0.8396946564885496,2.9770992366412212,-0.15267175572519084,-0.4638671875,0.0078125,-0.1181640625,1.1746999999999999
0.8091603053435115,3.0229007633587788,-0.015267175572519083,-0.46337890625,0.0087890625,-0.122802734375,1.1764
0.9923664122137404,2.9770992366412212,-0.10687022900763359,-0.4619140625,0.0068359375,-0.123291015625,1.1781
0.7786259541984732,3.0381679389312977,-0.030534351145038167,-0.465087890625,0.010986328125,-0.1201171875,1.1798
0.7786259541984732,3.068702290076336,-0.12213740458015267,-0.47412109375,0.01171875,-0.121337890625,1.1815
0.5954198473282443,3.145038167938931,-0.32061068702290074,-0.4638671875,0.007568359375,-0.125,1.1832
0.7175572519083969,2.946564885496183,-0.1984732824427481,-0.466796875,0.01318359375,-0.122802734375,1.1848999999999998
0.9007633587786259,3.099236641221374,-0.15267175572519084,-0.464111328125,0.00244140625,-0.1220703125,1.1865999999999999
0.9007633587786259,2.9618320610687023,-0.10687022900763359,-0.467041015625,0.007080078125,-0.118408203125,1.1883
0.6259541984732825,2.9770992366412212,-0.061068702290076333,-0.46435546875,0.010498046875,-0.1171875,1.19
0.7633587786259542,3.145038167938931,-0.13740458015267176,-0.468017578125,0.009521484375,-0.13037109375,1.1917
0.4580152671755725,3.0839694656488548,-0.061068702290076333,-0.468505859375,0.005859375,-0.1181640625,1.1934
0.7786259541984732,2.9160305343511452,-0.24427480916030533,-0.466796875,0.006103515625,-0.1201171875,1.1950999999999998
0.7633587786259542,3.0076335877862594,-0.366412213740458,-0.462158203125,0.0078125,-0.12353515625,1.1967999999999999
0.6717557251908397,2.763358778625954,-0.12213740458015267,-0.462890625,0.008544921875,-0.125244140625,1.1985
0.6564885496183206,2.9618320610687023,-0.16793893129770993,-0.462890625,0.010498046875,-0.125,1.2002
0.732824427480916,2.9923664122137406,-0.16793893129770993,-0.464599609375,0.0107421875,-0.121337890625,1.2019
0.6717557251908397,3.053435114503817,-0.2900763358778626,-0.466552734375,0.00732421875,-0.117431640625,1.2036
0.5343511450381679,2.7786259541984735,-0.33587786259541985,-0.46435546875,0.007080078125,-0.126220703125,1.2053
0.5343511450381679,2.9160305343511452,-0.3053435114503817,-0.466064453125,0.00830078125,-0.12646484375,1.2069999999999999
0.44274809160305345,3.0229007633587788,-0.2900763358778626,-0.47021484375,0.009033203125,-0.12939453125,1.2086999999999999
0.5954198473282443,2.931297709923664,-0.4122137404580153,-0.46435546875,0.004638671875,-0.1220703125,1.2104
0.6870229007633588,2.885496183206107,-0.32061068702290074,-0.463623046875,0.0078125,-0.12744140625,1.2121
0.5190839694656488,2.8396946564885495,-0.2595419847328244,-0.466552734375,0.00927734375,-0.13232421875,1.2138
0.5343511450381679,2.9770992366412212,-0.32061068702290074,-0.463134765625,0.0068359375,-0.121337890625,1.2155
0.5343511450381679,2.7786259541984735,-0.33587786259541985,-0.4619140625,0.004638671875,-0.12158203125,1.2171999999999998
0.44274809160305345,2.763358778625954,-0.22900763358778625,-0.46337890625,0.01025390625,-0.12548828125,1.2188999999999999
0.48854961832061067,2.854961832061069,-0.3053435114503817,-0.460205078125,0.00634765625,-0.129150390625,1.2206
0.5190839694656488,2.9618320610687023,-0.015267175572519083,-0.4638671875,0.009033203125,-0.121826171875,1.2223
0.2748091603053435,2.8244274809160306,-0.3969465648854962,-0.4697265625,0.009521484375,-0.120361328125,1.224
0.366412213740458,2.854961832061069,-0.4732824427480916,-0.464599609375,0.006591796875,-0.1279296875,1.2257
0.3969465648854962,2.854961832061069,-0.3969465648854962,-0.465087890625,0.01025390625,-0.12548828125,1.2273999999999998
0.5343511450381679,2.732824427480916,-0.22900763358778625,-0.46142578125,0.00439453125,-0.124755859375,1.2290999999999999
0.2900763358778626,2.8244274809160306,-0.3511450381679389,-0.462158203125,0.010986328125,-0.1318359375,1.2308
0.3816793893129771,2.687022900763359,-0.4122137404580153,-0.46484375,0.00439453125,-0.12548828125,1.2325
0.4122137404580153,2.687022900763359,-0.32061068702290074,-0.464599609375,0.01025390625,-0.124267578125,1.2342
0.5648854961832062,2.7786259541984735,-0.3511450381679389,-0.458984375,0.008544921875,-0.1181640625,1.2359
0.3969465648854962,2.7022900763358777,-0.3511450381679389,-0.46142578125,0.009033203125,-0.11767578125,1.2376
0.366412213740458,2.6106870229007635,-0.3053435114503817,-0.45849609375,0.0068359375,-0.124267578125,1.2392999999999998
0.6564885496183206,2.4427480916030535,-0.366412213740458,-0.462890625,0.008056640625,-0.127685546875,1.2409999999999999
0.4122137404580153,2.4732824427480917,-0.44274809160305345,-0.46435546875,0.0078125,-0.12109375,1.2427
0.366412213740458,2.427480916030534,-0.3816793893129771,-0.4580078125,0.00927734375,-0.118408203125,1.2444
0.6412213740458015,2.519083969465649,-0.3816793893129771,-0.462158203125,0.008056640625,-0.13037109375,1.2461
0.7022900763358778,2.351145038167939,-0.4122137404580153,-0.46240234375,0.00830078125,-0.135009765625,1.2478
0.5190839694656488,2.4122137404580153,-0.22900763358778625,-0.462890625,0.010498046875,-0.12744140625,1.2494999999999998
0.42748091603053434,2.50381679389313,-0.33587786259541985,-0.45556640625,0.007080078125,-0.125,1.2511999999999999
0.16793893129770993,2.4122137404580153,-0.21374045801526717,-0.463623046875,0.0029296875,-0.127197265625,1.2529
0.6259541984732825,2.3206106870229006,-0.33587786259541985,-0.46630859375,0.001953125,-0.123046875,1.2546
0.5801526717557252,2.2900763358778624,-0.42748091603053434,-0.4697265625,0.003662109375,-0.122314453125,1.2563
0.549618320610687,2.3206106870229006,-0.183206106870229,-0.461669921875,0.005126953125,-0.121826171875,1.258
0.6412213740458015,2.4580152671755724,-0.10687022900763359,-0.46630859375,0.00341796875,-0.120361328125,1.2596999999999998
0.5190839694656488,2.427480916030534,-0.10687022900763359,-0.460205078125,0.007080078125,-0.128662109375,1.2613999999999999
0.5190839694656488,2.351145038167939,-0.24427480916030533,-0.465576171875,0.006103515625,-0.126953125,1.2631
0.48854961832061067,2.2900763358778624,-0.2595419847328244,-0.46923828125,0.007568359375,-0.118896484375,1.2648
0.44274809160305345,2.4885496183206106,-0.21374045801526717,-0.461181640625,0.00927734375,-0.123779296875,1.2665
0.44274809160305345,2.427480916030534,-0.04580152671755725,-0.463134765625,0.00390625,-0.11962890625,1.2682
0.5190839694656488,2.6412213740458017,0.15267175572519084,-0.465087890625,0.0068359375,-0.1259765625,1.2699
0.33587786259541985,2.595419847328244,0.015267175572519083,-0.46826171875,0.0087890625,-0.1201171875,1.2715999999999998
0.3053435114503817,2.519083969465649,0.030534351145038167,-0.462646484375,0.00830078125,-0.128173828125,1.2732999999999999
0.4732824427480916,2.7480916030534353,0.16793893129770993,-0.468505859375,0.01025390625,-0.135009765625,1.275
0.366412213740458,2.763358778625954,0.32061068702290074,-0.47021484375,0.00732421875,-0.13134765625,1.2767
0.13740458015267176,2.6412213740458017,0.21374045801526717,-0.46533203125,0.005615234375,-0.122802734375,1.2784
0.2900763358778626,2.732824427480916,0.4122137404580153,-0.46533203125,0.004638671875,-0.123779296875,1.2801
0.3511450381679389,2.7022900763358777,0.1984732824427481,-0.466796875,0.001220703125,-0.12548828125,1.2817999999999998
0.3511450381679389,2.687022900763359,0.42748091603053434,-0.46826171875,0.0048828125,-0.12109375,1.2834999999999999
0.24427480916030533,2.7022900763358777,0.2595419847328244,-0.466552734375,0.00439453125,-0.115234375,1.2852
0.4732824427480916,2.519083969465649,0.3816793893129771,-0.46484375,0.002685546875,-0.132080078125,1.2869
0.5343511450381679,2.549618320610687,0.4122137404580153,-0.46875,0.000244140625,-0.118896484375,1.2886
0.5801526717557252,2.6259541984732824,0.6106870229007634,-0.467529296875,0.00048828125,-0.118896484375,1.2903
0.6259541984732825,2.564885496183206,0.6717557251908397,-0.466796875,0.00439453125,-0.119873046875,1.292
0.44274809160305345,2.549618320610687,0.7175572519083969,-0.466064453125,0.000732421875,-0.123291015625,1.2936999999999999
0.5801526717557252,2.5343511450381677,0.6106870229007634,-0.464111328125,0.002197265625,-0.122802734375,1.2953999999999999
0.48854961832061067,2.3206106870229006,0.7480916030534351,-0.464111328125,0.00146484375,-0.119140625,1.2971
0.6106870229007634,2.366412213740458,0.6717557251908397,-0.46533203125,-0.003662109375,-0.124755859375,1.2988
0.4580152671755725,2.4580152671755724,0.8702290076335878,-0.4677734375,-0.00439453125,-0.122802734375,1.3005
0.5038167938931297,2.3206106870229006,0.7938931297709924,-0.460693359375,0.000732421875,-0.135498046875,1.3022
0.183206106870229,2.2442748091603053,0.9312977099236641,-0.461669921875,0.00390625,-0.125,1.3038999999999998
0.10687022900763359,2.3206106870229006,0.7633587786259542,-0.4677734375,0.0029296875,-0.125732421875,1.3055999999999999
-0.030534351145038167,2.381679389312977,0.9007633587786259,-0.469970703125,-0.00390625,-0.127197265625,1.3073
-0.12213740458015267,2.0763358778625953,0.8244274809160306,-0.468017578125,0.000732421875,-0.128662109375,1.309
-0.183206106870229,2.33587786259542,0.8549618320610687,-0.46923828125,0.002197265625,-0.132080078125,1.3107
-0.6106870229007634,2.213740458015267,0.9465648854961832,-0.465576171875,0.0048828125,-0.127197265625,1.3124
-0.7022900763358778,2.1526717557251906,0.8396946564885496,-0.46630859375,0.0029296875,-0.126220703125,1.3140999999999998
-0.7022900763358778,2.3969465648854964,0.7786259541984732,-0.465087890625,0.00390625,-0.12255859375,1.3157999999999999
-0.8091603053435115,2.122137404580153,1.083969465648855,-0.4658203125,-0.00341796875,-0.127197265625,1.3175
-1.1603053435114503,2.16793893129771,0.9312977099236641,-0.463134765625,0.00244140625,-0.119384765625,1.3192
-1.083969465648855,2.030534351145038,0.916030534351145,-0.464599609375,-0.001708984375,-0.127685546875,1.3209
-1.2366412213740459,2.0610687022900764,0.8091603053435115,-0.469970703125,0.00927734375,-0.126953125,1.3226
-1.3129770992366412,2.0610687022900764,0.9465648854961832,-0.4677734375,0.00732421875,-0.122314453125,1.3243
-1.3893129770992367,2.030534351145038,0.9312977099236641,-0.46630859375,0.01025390625,-0.119873046875,1.3259999999999998
-1.618320610687023,2.0763358778625953,0.916030534351145,-0.4697265625,0.003662109375,-0.12646484375,1.3276999999999999
-1.6488549618320612,2.1374045801526718,0.7480916030534351,-0.46728515625,0.00830078125,-0.125,1.3294
-2.030534351145038,2.0763358778625953,1.0076335877862594,-0.468017578125,0.007568359375,-0.1240234375,1.3311
-2.2442748091603053,1.9236641221374047,1.0687022900763359,-0.468017578125,0.00244140625,-0.12646484375,1.3328
-2.1068702290076335,2.0,1.0687022900763359,-0.470458984375,0.00634765625,-0.1240234375,1.3345
-2.2290076335877864,1.9694656488549618,0.7633587786259542,-0.46875,0.00634765625,-0.12744140625,1.3361999999999998
-2.381679389312977,1.9389312977099236,0.9618320610687023,-0.46435546875,0.005126953125,-0.123046875,1.3378999999999999
-2.427480916030534,2.030534351145038,0.9465648854961832,-0.472900390625,0.00439453125,-0.129150390625,1.3396
-2.3053435114503817,1.9694656488549618,0.8549618320610687,-0.466552734375,0.005615234375,-0.12646484375,1.3413
-2.763358778625954,1.984732824427481,0.8854961832061069,-0.47265625,0.009033203125,-0.1240234375,1.343
-2.519083969465649,1.9541984732824427,0.916030534351145,-0.466552734375,0.003173828125,-0.119384765625,1.3447
-2.519083969465649,2.213740458015267,0.9465648854961832,-0.472412109375,0.007568359375,-0.116455078125,1.3463999999999998
-2.549618320610687,1.984732824427481,0.9465648854961832,-0.46923828125,0.012939453125,-0.122314453125,1.3480999999999999
-2.6412213740458017,2.1068702290076335,0.8396946564885496,-0.467041015625,0.005126953125,-0.12158203125,1.3497999999999999
-2.6106870229007635,2.0610687022900764,1.0381679389312977,-0.474609375,0.002197265625,-0.1298828125,1.3515
-2.6412213740458017,2.213740458015267,0.9618320610687023,-0.4736328125,0.00439453125,-0.123291015625,1.3532
-2.6717557251908395,2.2442748091603053,0.7480916030534351,-0.472412109375,0.00830078125,-0.122802734375,1.3549
-2.6564885496183206,2.3206106870229006,0.7633587786259542,-0.46923828125,0.005859375,-0.12890625,1.3566
-2.595419847328244,2.4732824427480917,0.9007633587786259,-0.469970703125,0.007568359375,-0.12255859375,1.3582999999999998
-2.7480916030534353,2.4885496183206106,0.8549618320610687,-0.46484375,0.010986328125,-0.120849609375,1.3599999999999999
-2.6717557251908395,2.4122137404580153,0.7633587786259542,-0.468017578125,0.0068359375,-0.1357421875,1.3617
-2.6412213740458017,2.381679389312977,0.8854961832061069,-0.472900390625,0.001708984375,-0.11181640625,1.3634
-2.6106870229007635,2.3969465648854964,0.9007633587786259,-0.465576171875,0.002197265625,-0.1162109375,1.3651
-2.4122137404580153,2.381679389312977,0.8244274809160306,-0.47412109375,0.00537109375,-0.117919921875,1.3668
-2.351145038167939,2.351145038167939,0.916030534351145,-0.47021484375,0.008056640625,-0.1201171875,1.3684999999999998
-2.5343511450381677,2.2748091603053435,1.0229007633587786,-0.466796875,0.01171875,-0.115478515625,1.3701999999999999
-2.4732824427480917,2.213740458015267,0.916030534351145,-0.46826171875,0.00634765625,-0.11962890625,1.3719
-2.3206106870229006,2.4122137404580153,1.0076335877862594,-0.4697265625,0.01171875,-0.1201171875,1.3736
-2.2290076335877864,2.366412213740458,0.8091603053435115,-0.469482421875,0.010498046875,-0.119384765625,1.3753
-2.4427480916030535,2.33587786259542,0.8854961832061069,-0.470458984375,0.005859375,-0.1240234375,1.377
-2.213740458015267,2.2748091603053435,0.6259541984732825,-0.471435546875,0.013916015625,-0.122314453125,1.3786999999999998
-2.33587786259542,2.33587786259542,0.6106870229007634,-0.47119140625,0.009765625,-0.120849609375,1.3803999999999998
-2.0916030534351147,2.2748091603053435,0.7022900763358778,-0.47119140625,0.0048828125,-0.125244140625,1.3820999999999999
-2.1526717557251906,2.213740458015267,0.549618320610687,-0.475341796875,0.01220703125,-0.1181640625,1.3838
-1.9389312977099236,2.351145038167939,0.4580152671755725,-0.471435546875,0.012939453125,-0.122314453125,1.3855
-2.0763358778625953,2.4885496183206106,0.6717557251908397,-0.464599609375,0.006103515625,-0.12158203125,1.3872
-2.122137404580153,2.4427480916030535,0.42748091603053434,-0.4716796875,0.010986328125,-0.124755859375,1.3889
-2.16793893129771,2.5343511450381677,0.5648854961832062,-0.475341796875,0.01123046875,-0.128173828125,1.3905999999999998
-2.1526717557251906,2.50381679389313,0.3511450381679389,-0.469970703125,0.007080078125,-0.12548828125,1.3922999999999999
-2.045801526717557,2.33587786259542,0.44274809160305345,-0.4736328125,0.01123046875,-0.1162109375,1.394
-2.030534351145038,2.2748091603053435,0.4122137404580153,-0.472412109375,0.0146484375,-0.125,1.3957
-2.045801526717557,2.3206106870229006,0.4732824427480916,-0.4775390625,0.013916015625,-0.1240234375,1.3974
-2.0763358778625953,2.351145038167939,0.2595419847328244,-0.47119140625,0.014892578125,-0.115478515625,1.3991
-2.0763358778625953,2.366412213740458,0.15267175572519084,-0.470458984375,0.015380859375,-0.119873046875,1.4007999999999998
-2.183206106870229,2.4122137404580153,0.15267175572519084,-0.469482421875,0.01220703125,-0.114013671875,1.4024999999999999
-2.2900763358778624,2.351145038167939,0.13740458015267176,-0.468017578125,0.015869140625,-0.120849609375,1.4042
-2.1526717557251906,2.2442748091603053,-0.030534351145038167,-0.46630859375,0.01904296875,-0.129150390625,1.4059
-2.198473282442748,2.427480916030534,0.183206106870229,-0.46826171875,0.01708984375,-0.1298828125,1.4076
-2.213740458015267,2.33587786259542,0.0,-0.468017578125,0.01416015625,-0.135498046875,1.4093
-2.3969465648854964,2.2290076335877864,-0.16793893129770993,-0.4716796875,0.016357421875,-0.116943359375,1.411
-2.351145038167939,2.4427480916030535,-0.2595419847328244,-0.469970703125,0.023193359375,-0.122802734375,1.4126999999999998
-2.2290076335877864,2.381679389312977,-0.22900763358778625,-0.46826171875,0.018798828125,-0.116455078125,1.4143999999999999
-2.2595419847328246,2.2442748091603053,-0.3511450381679389,-0.4716796875,0.01806640625,-0.1162109375,1.4161
-1.83206106870229,2.381679389312977,-0.48854961832061067,-0.46630859375,0.02099609375,-0.127685546875,1.4178
-2.0610687022900764,2.4580152671755724,-0.44274809160305345,-0.47021484375,0.02197265625,-0.124755859375,1.4195
-2.0763358778625953,2.4885496183206106,-0.366412213740458,-0.46826171875,0.021484375,-0.12451171875,1.4212
-1.9694656488549618,2.50381679389313,-0.7938931297709924,-0.475830078125,0.026123046875,-0.130126953125,1.4228999999999998
-1.984732824427481,2.351145038167939,-0.5954198473282443,-0.4716796875,0.01708984375,-0.119140625,1.4245999999999999
-1.786259541984733,2.3969465648854964,-0.732824427480916,-0.475341796875,0.017822265625,-0.12255859375,1.4263
-1.5572519083969465,2.7786259541984735,-0.7633587786259542,-0.46875,0.02392578125,-0.12353515625,1.428
-1.7251908396946565,2.6259541984732824,-0.8091603053435115,-0.468017578125,0.016357421875,-0.1171875,1.4297
-1.6946564885496183,2.595419847328244,-0.6564885496183206,-0.4736328125,0.01611328125,-0.119873046875,1.4314
-1.3740458015267176,2.7938931297709924,-0.9465648854961832,-0.46923828125,0.018798828125,-0.123046875,1.4330999999999998
-1.3587786259541985,2.9923664122137406,-1.1145038167938932,-0.473876953125,0.01611328125,-0.12646484375,1.4347999999999999
-1.5267175572519085,2.931297709923664,-1.083969465648855,-0.471923828125,0.019775390625,-0.116455078125,1.4364999999999999
-1.618320610687023,2.9618320610687023,-1.0534351145038168,-0.47216796875,0.0166015625,-0.126220703125,1.4382
-1.3282442748091603,2.9923664122137406,-1.4045801526717556,-0.47314453125,0.0205078125,-0.1103515625,1.4399
-1.2366412213740459,3.2519083969465647,-1.2671755725190839,-0.47412109375,0.012939453125,-0.123046875,1.4416
-1.3435114503816794,3.3587786259541983,-1.465648854961832,-0.476318359375,0.013916015625,-0.132080078125,1.4433
-1.633587786259542,3.312977099236641,-1.3587786259541985,-0.469482421875,0.01513671875,-0.1162109375,1.4449999999999998
-1.3740458015267176,3.618320610687023,-1.633587786259542,-0.47412109375,0.0224609375,-0.1181640625,1.4466999999999999
-1.6030534351145038,3.7557251908396947,-1.6946564885496183,-0.472900390625,0.017822265625,-0.115966796875,1.4484
-1.5572519083969465,3.8625954198473282,-1.6488549618320612,-0.47705078125,0.018798828125,-0.12109375,1.4501
-1.618320610687023,3.801526717557252,-1.6641221374045803,-0.472412109375,0.019287109375,-0.12890625,1.4518
-1.633587786259542,3.83206106870229,-1.8625954198473282,-0.4697265625,0.016845703125,-0.120361328125,1.4535
-1.8015267175572518,3.816793893129771,-2.015267175572519,-0.463623046875,0.01708984375,-0.1201171875,1.4551999999999998
-1.816793893129771,3.9389312977099236,-1.8931297709923665,-0.46435546875,0.01220703125,-0.123046875,1.4568999999999999
-1.8473282442748091,3.6793893129770994,-2.0610687022900764,-0.46826171875,0.022216796875,-0.115478515625,1.4586
-1.7099236641221374,3.816793893129771,-2.2290076335877864,-0.465576171875,0.01904296875,-0.11865234375,1.4603
-1.9236641221374047,4.0,-2.030534351145038,-0.46728515625,0.024169921875,-0.12939453125,1.462
-2.030534351145038,3.7709923664122136,-2.2442748091603053,-0.4677734375,0.019775390625,-0.11669921875,1.4637
-2.0916030534351147,4.015267175572519,-2.549618320610687,-0.4677734375,0.022705078125,-0.120361328125,1.4653999999999998
-2.122137404580153,4.061068702290076,-2.366412213740458,-0.46630859375,0.02392578125,-0.12841796875,1.4670999999999998
-2.045801526717557,3.786259541984733,-2.50381679389313,-0.469482421875,0.031005859375,-0.1201171875,1.4687999999999999
-2.0916030534351147,3.6946564885496183,-2.519083969465649,-0.467529296875,0.023681640625,-0.118408203125,1.4705
-2.198473282442748,3.7251908396946565,-2.732824427480916,-0.46533203125,0.024169921875,-0.121826171875,1.4722
-1.9541984732824427,3.5419847328244276,-2.9618320610687023,-0.463623046875,0.022705078125,-0.126708984375,1.4739
-1.5725190839694656,3.66412213740458,-2.6412213740458017,-0.460205078125,0.019287109375,-0.119384765625,1.4756
-1.5419847328244274,3.633587786259542,-3.145038167938931,-0.46337890625,0.0224609375,-0.12109375,1.4772999999999998
-1.3587786259541985,3.6030534351145036,-3.1297709923664123,-0.468017578125,0.025390625,-0.118408203125,1.4789999999999999
-1.0229007633587786,3.7557251908396947,-3.1297709923664123,-0.46533203125,0.02392578125,-0.12353515625,1.4807
-0.7633587786259542,3.7251908396946565,-3.1755725190839694,-0.463134765625,0.02783203125,-0.11572265625,1.4824
-0.6717557251908397,3.572519083969466,-3.2977099236641223,-0.462890625,0.025390625,-0.12158203125,1.4841
-0.6106870229007634,3.816793893129771,-3.2213740458015265,-0.466796875,0.029052734375,-0.12841796875,1.4858
-0.24427480916030533,3.7404580152671754,-3.404580152671756,-0.458984375,0.02783203125,-0.123779296875,1.4874999999999998
-0.1984732824427481,3.6946564885496183,-3.3282442748091605,-0.45947265625,0.029052734375,-0.12939453125,1.4891999999999999
0.15267175572519084,3.8473282442748094,-3.5572519083969465,-0.454345703125,0.027587890625,-0.12646484375,1.4909
0.32061068702290074,4.061068702290076,-3.480916030534351,-0.4580078125,0.030517578125,-0.12548828125,1.4926
0.3816793893129771,3.954198473282443,-3.435114503816794,-0.4560546875,0.0302734375,-0.1259765625,1.4943
0.44274809160305345,4.106870229007634,-3.5572519083969465,-0.462158203125,0.031982421875,-0.12451171875,1.496
0.7938931297709924,3.969465648854962,-3.7251908396946565,-0.464111328125,0.03173828125,-0.117919921875,1.4976999999999998
1.0381679389312977,4.061068702290076,-3.7099236641221376,-0.454833984375,0.03173828125,-0.117431640625,1.4993999999999998
1.1297709923664123,4.091603053435114,-3.7099236641221376,-0.460205078125,0.032470703125,-0.119873046875,1.5010999999999999
1.2366412213740459,4.1679389312977095,-3.66412213740458,-0.46337890625,0.025634765625,-0.130126953125,1.5028
1.6030534351145038,4.183206106870229,-3.7099236641221376,-0.458984375,0.027099609375,-0.1279296875,1.5045
1.7099236641221374,4.305343511450381,-3.618320610687023,-0.455810546875,0.02880859375,-0.123779296875,1.5062
2.015267175572519,4.351145038167939,-3.7557251908396947,-0.457763671875,0.028564453125,-0.123291015625,1.5079
2.2900763358778624,4.564885496183206,-3.7709923664122136,-0.461181640625,0.025390625,-0.1259765625,1.5095999999999998
2.4580152671755724,4.580152671755725,-3.8625954198473282,-0.458984375,0.02685546875,-0.125732421875,1.5112999999999999
2.7022900763358777,4.412213740458015,-3.969465648854962,-0.4599609375,0.025390625,-0.1181640625,1.513
2.8702290076335877,4.305343511450381,-3.969465648854962,-0.457275390625,0.02587890625,-0.124755859375,1.5147
3.0229007633587788,4.412213740458015,-4.091603053435114,-0.4541015625,0.02490234375,-0.128173828125,1.5164
3.4198473282442747,4.33587786259542,-4.198473282442748,-0.457763671875,0.02783203125,-0.12451171875,1.5181
3.7709923664122136,4.5038167938931295,-4.183206106870229,-0.4560546875,0.032470703125,-0.1298828125,1.5197999999999998
3.6793893129770994,4.442748091603053,-4.030534351145038,-0.457275390625,0.034423828125,-0.12744140625,1.5214999999999999
3.9236641221374047,4.488549618320611,-4.488549618320611,-0.45947265625,0.025634765625,-0.135009765625,1.5231999999999999
4.259541984732825,4.549618320610687,-4.183206106870229,-0.455810546875,0.02783203125,-0.124755859375,1.5249
4.641221374045801,4.549618320610687,-4.458015267175573,-0.461669921875,0.03076171875,-0.12060546875,1.5266
4.641221374045801,4.33587786259542,-4.396946564885496,-0.46044921875,0.031005859375,-0.130615234375,1.5283
5.083969465648855,4.534351145038168,-4.717557251908397,-0.452880859375,0.0244140625,-0.11669921875,1.5299999999999998
5.114503816793893,4.519083969465649,-4.473282442748092,-0.457275390625,0.0234375,-0.126953125,1.5316999999999998
5.404580152671755,4.320610687022901,-4.763358778625954,-0.458984375,0.027587890625,-0.12939453125,1.5333999999999999
5.603053435114504,4.183206106870229,-4.641221374045801,-0.456298828125,0.024169921875,-0.133056640625,1.5351
6.030534351145038,4.412213740458015,-4.732824427480916,-0.458740234375,0.02685546875,-0.126953125,1.5368
5.969465648854962,4.519083969465649,-4.748091603053435,-0.459228515625,0.025390625,-0.13134765625,1.5385
6.290076335877862,4.2748091603053435,-4.885496183206107,-0.458251953125,0.028076171875,-0.12939453125,1.5402
6.702290076335878,4.229007633587786,-5.00763358778626,-0.4560546875,0.027099609375,-0.12646484375,1.5418999999999998
6.900763358778626,4.366412213740458,-4.99236641221374,-0.45703125,0.024658203125,-0.13232421875,1.5435999999999999
6.977099236641221,4.244274809160306,-5.0534351145038165,-0.46142578125,0.02587890625,-0.127197265625,1.5453
7.419847328244275,4.396946564885496,-5.129770992366412,-0.4580078125,0.023193359375,-0.135986328125,1.547
7.679389312977099,4.183206106870229,-5.099236641221374,-0.458740234375,0.023681640625,-0.123046875,1.5487
8.091603053435115,4.320610687022901,-5.206106870229007,-0.459228515625,0.024169921875,-0.1279296875,1.5504
8.381679389312977,4.412213740458015,-5.206106870229007,-0.45947265625,0.021240234375,-0.1298828125,1.5520999999999998
8.213740458015268,4.2748091603053435,-5.145038167938932,-0.45849609375,0.024658203125,-0.126220703125,1.5537999999999998
8.427480916030534,4.305343511450381,-5.236641221374046,-0.4580078125,0.023193359375,-0.1240234375,1.5554999999999999
8.778625954198473,4.366412213740458,-5.4961832061068705,-0.457763671875,0.021484375,-0.136474609375,1.5572
8.885496183206106,4.351145038167939,-5.450381679389313,-0.454345703125,0.023681640625,-0.132080078125,1.5589
9.297709923664122,4.427480916030534,-5.3893129770992365,-0.454833984375,0.018798828125,-0.14306640625,1.5606
9.419847328244275,4.33587786259542,-5.633587786259542,-0.46142578125,0.01904296875,-0.1328125,1.5623
9.557251908396946,4.33587786259542,-5.709923664122138,-0.459716796875,0.021240234375,-0.130126953125,1.5639999999999998
9.877862595419847,4.33587786259542,-5.572519083969466,-0.4599609375,0.01904296875,-0.1337890625,1.5656999999999999
10.030534351145038,4.366412213740458,-5.816793893129771,-0.45849609375,0.022216796875,-0.1357421875,1.5674
10.259541984732824,4.427480916030534,-5.709923664122138,-0.4638671875,0.0234375,-0.1328125,1.5691
10.442748091603054,4.2748091603053435,-5.770992366412214,-0.46484375,0.018310546875,-0.13525390625,1.5708
10.244274809160306,4.366412213740458,-5.541984732824427,-0.45556640625,0.021484375,-0.135009765625,1.5725
10.259541984732824,4.366412213740458,-5.709923664122138,-0.454345703125,0.017822265625,-0.13671875,1.5741999999999998
10.381679389312977,4.366412213740458,-5.6183206106870225,-0.459716796875,0.013916015625,-0.13427734375,1.5758999999999999
10.290076335877863,4.3816793893129775,-5.908396946564886,-0.4580078125,0.015625,-0.136962890625,1.5776
10.427480916030534,4.290076335877862,-5.740458015267175,-0.462890625,0.01513671875,-0.134033203125,1.5793
10.427480916030534,4.229007633587786,-5.847328244274809,-0.454833984375,0.019775390625,-0.138916015625,1.581
10.366412213740459,4.076335877862595,-5.755725190839694,-0.460205078125,0.0166015625,-0.134033203125,1.5827
10.534351145038167,4.229007633587786,-5.969465648854962,-0.449951171875,0.011962890625,-0.1416015625,1.5843999999999998
10.488549618320612,4.213740458015267,-5.740458015267175,-0.4619140625,0.01611328125,-0.1328125,1.5860999999999998
10.473282442748092,4.213740458015267,-5.801526717557252,-0.453857421875,0.017578125,-0.138916015625,1.5877999999999999
10.473282442748092,4.152671755725191,-5.7251908396946565,-0.456787109375,0.01611328125,-0.14599609375,1.5895
10.549618320610687,3.9389312977099236,-5.893129770992366,-0.457763671875,0.013427734375,-0.137939453125,1.5912
10.51908396946565,3.954198473282443,-5.786259541984733,-0.457275390625,0.01708984375,-0.137451171875,1.5929
10.274809160305344,3.954198473282443,-5.801526717557252,-0.457275390625,0.01220703125,-0.13818359375,1.5946
10.366412213740459,3.8625954198473282,-5.709923664122138,-0.453125,0.011962890625,-0.130859375,1.5962999999999998
10.427480916030534,3.801526717557252,-5.786259541984733,-0.458984375,0.011474609375,-0.148193359375,1.5979999999999999
10.16793893129771,3.7251908396946565,-5.648854961832061,-0.454833984375,0.009765625,-0.138916015625,1.5997
10.122137404580153,3.648854961832061,-5.633587786259542,-0.458984375,0.0078125,-0.142578125,1.6014
10.183206106870228,3.633587786259542,-5.465648854961832,-0.45556640625,0.0087890625,-0.13330078125,1.6031
9.98473282442748,3.49618320610687,-5.587786259541985,-0.458251953125,0.00439453125,-0.14599609375,1.6048
9.908396946564885,3.3740458015267176,-5.465648854961832,-0.460205078125,0.004150390625,-0.1328125,1.6064999999999998
9.893129770992367,3.3587786259541983,-5.312977099236641,-0.457275390625,0.010498046875,-0.128173828125,1.6081999999999999
9.83206106870229,3.435114503816794,-5.435114503816794,-0.462890625,0.00634765625,-0.13818359375,1.6098999999999999
9.435114503816793,3.4198473282442747,-5.465648854961832,-0.4609375,0.00634765625,-0.142822265625,1.6116
9.526717557251908,3.267175572519084,-5.1603053435114505,-0.457275390625,0.001953125,-0.14013671875,1.6133
9.725190839694656,3.1603053435114505,-5.251908396946565,-0.454833984375,0.002197265625,-0.135498046875,1.615
9.16030534351145,3.267175572519084,-5.221374045801527,-0.458740234375,0.001708984375,-0.140869140625,1.6166999999999998
9.083969465648854,3.1908396946564888,-5.129770992366412,-0.463134765625,0.003662109375,-0.143798828125,1.6183999999999998
8.992366412213741,3.2519083969465647,-4.977099236641221,-0.46240234375,0.000244140625,-0.134033203125,1.6200999999999999
9.038167938931299,3.1297709923664123,-4.885496183206107,-0.459716796875,0.004150390625,-0.137451171875,1.6218
8.763358778625955,3.1603053435114505,-4.763358778625954,-0.46044921875,0.004638671875,-0.1318359375,1.6235
8.51908396946565,3.1755725190839694,-4.67175572519084,-0.462890625,0.004150390625,-0.139404296875,1.6252
8.412213740458014,3.099236641221374,-4.625954198473282,-0.458251953125,0.0009765625,-0.143798828125,1.6269
7.984732824427481,3.068702290076336,-4.412213740458015,-0.45654296875,0.00341796875,-0.14111328125,1.6285999999999998
7.694656488549619,3.145038167938931,-4.396946564885496,-0.45947265625,0.006103515625,-0.133056640625,1.6302999999999999
7.526717557251908,3.1603053435114505,-4.244274809160306,-0.45703125,0.001708984375,-0.134521484375,1.632
7.190839694656488,2.931297709923664,-4.366412213740458,-0.456787109375,0.0068359375,-0.1376953125,1.6337
7.145038167938932,2.9618320610687023,-4.0,-0.455322265625,0.003173828125,-0.13818359375,1.6354
6.854961832061068,2.7786259541984735,-4.137404580152672,-0.45947265625,0.00341796875,-0.141845703125,1.6371
6.687022900763359,2.732824427480916,-4.091603053435114,-0.460693359375,-0.0068359375,-0.1474609375,1.6387999999999998
6.305343511450381,2.763358778625954,-3.9236641221374047,-0.4619140625,0.0009765625,-0.138671875,1.6404999999999998
5.801526717557252,2.8244274809160306,-3.786259541984733,-0.460205078125,-0.00048828125,-0.146728515625,1.6421999999999999
5.557251908396947,2.519083969465649,-3.8625954198473282,-0.4580078125,-0.00830078125,-0.139892578125,1.6439
5.66412213740458,2.4122137404580153,-3.786259541984733,-0.456787109375,-0.000732421875,-0.146240234375,1.6456
5.099236641221374,2.4885496183206106,-3.618320610687023,-0.461181640625,-0.0009765625,-0.13525390625,1.6473
4.9465648854961835,2.6106870229007635,-3.480916030534351,-0.453369140625,-0.004638671875,-0.146484375,1.6489999999999998
4.8396946564885495,2.366412213740458,-3.4656488549618323,-0.45703125,-0.0068359375,-0.143798828125,1.6506999999999998
4.351145038167939,2.16793893129771,-3.435114503816794,-0.460693359375,-0.007080078125,-0.14013671875,1.6523999999999999
3.9083969465648853,2.1374045801526718,-3.5572519083969465,-0.457763671875,-0.0048828125,-0.1435546875,1.6541
3.8473282442748094,1.83206106870229,-3.480916030534351,-0.460205078125,-0.007568359375,-0.14453125,1.6558
4.0,1.9541984732824427,-3.480916030534351,-0.46142578125,-0.00732421875,-0.142333984375,1.6575
3.4198473282442747,1.6793893129770991,-3.3435114503816794,-0.459716796875,-0.0107421875,-0.14306640625,1.6592
3.312977099236641,1.7709923664122138,-3.2519083969465647,-0.45654296875,-0.007080078125,-0.138916015625,1.6608999999999998
3.1908396946564888,1.7251908396946565,-3.3893129770992365,-0.45947265625,-0.00439453125,-0.14306640625,1.6625999999999999
3.0229007633587788,1.4961832061068703,-3.3435114503816794,-0.4541015625,-0.009765625,-0.14404296875,1.6643
2.6412213740458017,1.3740458015267176,-3.1603053435114505,-0.456298828125,-0.008544921875,-0.140869140625,1.666
2.427480916030534,1.5267175572519085,-3.282442748091603,-0.4541015625,-0.009521484375,-0.142333984375,1.6677
2.0610687022900764,1.3893129770992367,-3.267175572519084,-0.46044921875,-0.003662109375,-0.137939453125,1.6694
2.0763358778625953,1.297709923664122,-3.236641221374046,-0.462890625,-0.0087890625,-0.13916015625,1.6710999999999998
1.6641221374045803,1.251908396946565,-3.099236641221374,-0.45849609375,-0.0087890625,-0.140380859375,1.6727999999999998
1.3435114503816794,1.1755725190839694,-3.312977099236641,-0.454833984375,-0.00341796875,-0.137451171875,1.6744999999999999
1.083969465648855,1.3129770992366412,-3.114503816793893,-0.45654296875,0.00146484375,-0.14306640625,1.6762
0.9465648854961832,1.3587786259541985,-3.114503816793893,-0.459716796875,0.0009765625,-0.14453125,1.6779
0.7175572519083969,1.2213740458015268,-2.9770992366412212,-0.45703125,-0.008056640625,-0.140625,1.6796
0.5190839694656488,1.3129770992366412,-3.099236641221374,-0.46142578125,-0.00341796875,-0.13623046875,1.6813
0.04580152671755725,1.2671755725190839,-3.1755725190839694,-0.458251953125,-0.0029296875,-0.1328125,1.6829999999999998
-0.061068702290076333,1.297709923664122,-3.0381679389312977,-0.458740234375,-0.00439453125,-0.136474609375,1.6846999999999999
-0.2595419847328244,1.2213740458015268,-2.9923664122137406,-0.46044921875,-0.003662109375,-0.140625,1.6864
-0.366412213740458,1.2366412213740459,-3.2213740458015265,-0.460693359375,-0.008544921875,-0.13916015625,1.6881
-0.3969465648854962,1.251908396946565,-3.145038167938931,-0.462646484375,-0.00048828125,-0.134521484375,1.6898
-0.7633587786259542,1.3435114503816794,-3.1603053435114505,-0.458740234375,-0.00927734375,-0.139404296875,1.6915
-0.8549618320610687,1.2671755725190839,-3.1603053435114505,-0.45751953125,-0.007568359375,-0.14111328125,1.6931999999999998
-0.9312977099236641,1.0687022900763359,-3.2213740458015265,-0.462158203125,-0.004150390625,-0.1484375,1.6948999999999999
-1.2061068702290076,1.2061068702290076,-3.236641221374046,-0.4560546875,-0.004638671875,-0.13623046875,1.6965999999999999
-1.3282442748091603,1.251908396946565,-3.5114503816793894,-0.46240234375,-0.0068359375,-0.136474609375,1.6983
-1.5419847328244274,1.3282442748091603,-3.267175572519084,-0.4658203125,-0.00439453125,-0.13037109375,1.7
-1.6793893129770991,1.1145038167938932,-3.450381679389313,-0.46044921875,-0.00244140625,-0.135009765625,1.7017
-1.9389312977099236,0.8549618320610687,-3.2519083969465647,-0.45849609375,-0.002685546875,-0.13427734375,1.7033999999999998
-1.9694656488549618,0.9770992366412213,-3.4656488549618323,-0.4609375,0.0,-0.13818359375,1.7050999999999998
-2.2748091603053435,0.8702290076335878,-3.312977099236641,-0.459228515625,-0.000244140625,-0.131591796875,1.7067999999999999
-2.2290076335877864,0.9465648854961832,-3.404580152671756,-0.46142578125,0.0,-0.136962890625,1.7085
-2.4580152671755724,0.8244274809160306,-3.3740458015267176,-0.45947265625,-0.004150390625,-0.133544921875,1.7102
-2.5343511450381677,0.8854961832061069,-3.480916030534351,-0.462158203125,-0.004638671875,-0.128662109375,1.7119
-2.50381679389313,0.7175572519083969,-3.450381679389313,-0.460205078125,-0.003662109375,-0.133544921875,1.7136
-2.717557251908397,0.732824427480916,-3.5114503816793894,-0.4599609375,0.000244140625,-0.134521484375,1.7152999999999998
-2.5801526717557253,0.7786259541984732,-3.435114503816794,-0.4609375,0.001953125,-0.14111328125,1.7169999999999999
-2.519083969465649,0.7786259541984732,-3.66412213740458,-0.4609375,-0.003173828125,-0.13037109375,1.7187
-2.6412213740458017,0.9312977099236641,-3.66412213740458,-0.465087890625,0.002197265625,-0.12548828125,1.7204
-2.7022900763358777,0.8702290076335878,-3.7099236641221376,-0.457763671875,0.0,-0.1328125,1.7221
-2.5801526717557253,0.916030534351145,-3.572519083969466,-0.464111328125,-0.000732421875,-0.129638671875,1.7238
-2.4427480916030535,0.9312977099236641,-3.7557251908396947,-0.46240234375,-0.000244140625,-0.128173828125,1.7254999999999998
-2.564885496183206,0.732824427480916,-3.633587786259542,-0.46240234375,-0.000244140625,-0.140625,1.7271999999999998
-2.4427480916030535,0.8244274809160306,-3.6946564885496183,-0.460205078125,0.00244140625,-0.139892578125,1.7288999999999999
-2.687022900763359,0.7175572519083969,-3.6946564885496183,-0.461181640625,0.001708984375,-0.133544921875,1.7306
-2.732824427480916,0.5954198473282443,-3.984732824427481,-0.463134765625,0.001708984375,-0.13134765625,1.7323
-2.6564885496183206,0.8396946564885496,-3.8625954198473282,-0.46044921875,-0.003662109375,-0.128662109375,1.734
-2.519083969465649,0.6717557251908397,-3.9236641221374047,-0.460693359375,0.0029296875,-0.119873046875,1.7356999999999998
-2.732824427480916,0.6870229007633588,-4.061068702290076,-0.461181640625,-0.00146484375,-0.13037109375,1.7373999999999998
-2.50381679389313,0.7022900763358778,-3.9389312977099236,-0.4619140625,0.005615234375,-0.1357421875,1.7390999999999999
-2.4885496183206106,0.7633587786259542,-3.8931297709923665,-0.462646484375,0.000732421875,-0.1318359375,1.7408
-2.427480916030534,0.6106870229007634,-3.8473282442748094,-0.46630859375,0.003662109375,-0.13037109375,1.7425
-2.4885496183206106,0.7022900763358778,-3.7557251908396947,-0.46533203125,0.001220703125,-0.1259765625,1.7442
-2.381679389312977,0.6412213740458015,-3.8473282442748094,-0.466552734375,0.00390625,-0.126708984375,1.7459
-2.427480916030534,0.6259541984732825,-3.7709923664122136,-0.465576171875,0.001708984375,-0.122802734375,1.7475999999999998
-2.2900763358778624,0.4732824427480916,-3.7404580152671754,-0.46630859375,0.0029296875,-0.123779296875,1.7492999999999999
-2.1526717557251906,0.3511450381679389,-3.6946564885496183,-0.4619140625,0.000244140625,-0.127197265625,1.751
-2.16793893129771,0.5648854961832062,-3.6946564885496183,-0.464599609375,0.005859375,-0.12841796875,1.7527
-2.16793893129771,0.4732824427480916,-3.9236641221374047,-0.467529296875,0.001708984375,-0.1318359375,1.7544
-2.1068702290076335,0.5038167938931297,-3.49618320610687,-0.465087890625,0.00390625,-0.13330078125,1.7561
-2.030534351145038,0.3816793893129771,-3.633587786259542,-0.4638671875,0.006103515625,-0.124267578125,1.7577999999999998
-2.1068702290076335,0.4122137404580153,-3.954198473282443,-0.464599609375,0.0029296875,-0.133056640625,1.7594999999999998
-1.9389312977099236,0.10687022900763359,-3.5877862595419847,-0.470703125,0.000732421875,-0.135986328125,1.7611999999999999
-1.984732824427481,0.2748091603053435,-3.6793893129770994,-0.466064453125,0.004150390625,-0.13134765625,1.7629
-1.984732824427481,0.07633587786259542,-3.572519083969466,-0.465087890625,0.003662109375,-0.130126953125,1.7646
-2.0610687022900764,-0.030534351145038167,-3.7709923664122136,-0.46337890625,0.0087890625,-0.12646484375,1.7663
-1.9236641221374047,0.10687022900763359,-3.404580152671756,-0.46435546875,0.0087890625,-0.124267578125,1.7679999999999998
-1.786259541984733,0.24427480916030533,-3.6793893129770994,-0.46533203125,0.008544921875,-0.12939453125,1.7696999999999998
-1.7251908396946565,0.030534351145038167,-3.5419847328244276,-0.467041015625,0.00537109375,-0.132080078125,1.7713999999999999
-1.6641221374045803,-0.04580152671755725,-3.49618320610687,-0.469482421875,0.0078125,-0.12939453125,1.7731
-1.4961832061068703,-0.030534351145038167,-3.6030534351145036,-0.46533203125,0.0009765625,-0.125732421875,1.7748
-1.7099236641221374,-0.030534351145038167,-3.49618320610687,-0.46826171875,0.01025390625,-0.11962890625,1.7765
-1.6946564885496183,-0.22900763358778625,-3.5419847328244276,-0.466796875,0.0107421875,-0.128662109375,1.7782
-1.4045801526717556,-0.3053435114503817,-3.4656488549618323,-0.468017578125,0.00732421875,-0.1318359375,1.7798999999999998
-1.3893129770992367,-0.16793893129770993,-3.480916030534351,-0.4677734375,0.00634765625,-0.12548828125,1.7815999999999999
-1.3282442748091603,-0.22900763358778625,-3.5267175572519083,-0.468017578125,0.0068359375,-0.12646484375,1.7832999999999999
-1.297709923664122,-0.0916030534351145,-3.312977099236641,-0.469482421875,0.006103515625,-0.12451171875,1.785
-1.0076335877862594,-0.21374045801526717,-3.5419847328244276,-0.47607421875,0.005859375,-0.12353515625,1.7867
-0.7938931297709924,-0.42748091603053434,-3.450381679389313,-0.465087890625,0.00634765625,-0.129150390625,1.7884
-0.732824427480916,-0.3816793893129771,-3.236641221374046,-0.46826171875,0.005615234375,-0.124267578125,1.7900999999999998
-0.6412213740458015,-0.24427480916030533,-3.3587786259541983,-0.464111328125,0.008544921875,-0.12451171875,1.7917999999999998
-0.5343511450381679,-0.15267175572519084,-3.236641221374046,-0.466064453125,0.003662109375,-0.126708984375,1.7934999999999999
-0.3816793893129771,-0.15267175572519084,-3.2977099236641223,-0.4697265625,0.006591796875,-0.1279296875,1.7952
-0.1984732824427481,-0.030534351145038167,-3.1603053435114505,-0.46923828125,0.0029296875,-0.117431640625,1.7969
-0.13740458015267176,-0.04580152671755725,-3.099236641221374,-0.4697265625,0.010498046875,-0.122314453125,1.7986
-0.04580152671755725,0.15267175572519084,-3.068702290076336,-0.466552734375,0.01416015625,-0.127685546875,1.8002999999999998
0.0916030534351145,-0.12213740458015267,-3.053435114503817,-0.4658203125,0.011962890625,-0.1259765625,1.8019999999999998
0.12213740458015267,0.015267175572519083,-2.931297709923664,-0.47509765625,0.0107421875,-0.1240234375,1.8036999999999999
0.2595419847328244,-0.04580152671755725,-3.068702290076336,-0.472900390625,0.012451171875,-0.12548828125,1.8054
0.366412213740458,-0.183206106870229,-2.900763358778626,-0.473388671875,0.011474609375,-0.12451171875,1.8071
