gyrox1,gyroy1,gyroz1,accelx1,accely1,accelz1,Time
-0.8549618320610687,1.1145038167938932,-2.2748091603053435,-0.01953125,0.0634765625,-0.6064453125,0.0
-0.8091603053435115,1.0076335877862594,-2.351145038167939,-0.020263671875,0.063720703125,-0.6025390625,0.0017
-0.6412213740458015,0.8702290076335878,-2.2595419847328246,-0.02587890625,0.06396484375,-0.601318359375,0.0034
-0.6870229007633588,0.7938931297709924,-2.16793893129771,-0.02197265625,0.071044921875,-0.606201171875,0.0050999999999999995
-0.8091603053435115,0.8091603053435115,-2.1068702290076335,-0.0185546875,0.06982421875,-0.607421875,0.0068
-0.6106870229007634,0.8396946564885496,-2.2442748091603053,-0.015869140625,0.0693359375,-0.595458984375,0.008499999999999999
-0.3511450381679389,0.6717557251908397,-2.3206106870229006,-0.0185546875,0.071044921875,-0.60205078125,0.010199999999999999
-0.07633587786259542,0.732824427480916,-2.0916030534351147,-0.018798828125,0.070556640625,-0.588623046875,0.011899999999999999
0.07633587786259542,0.6412213740458015,-2.0763358778625953,-0.012939453125,0.071044921875,-0.605712890625,0.0136
0.1984732824427481,0.5954198473282443,-1.9083969465648856,-0.018798828125,0.075927734375,-0.598876953125,0.0153
0.33587786259541985,0.5343511450381679,-2.16793893129771,-0.017578125,0.072998046875,-0.605712890625,0.016999999999999998
0.6259541984732825,0.6106870229007634,-1.9083969465648856,-0.015869140625,0.076171875,-0.603271484375,0.018699999999999998
0.916030534351145,0.366412213740458,-1.8473282442748091,-0.021728515625,0.073486328125,-0.599609375,0.020399999999999998
1.1297709923664123,0.44274809160305345,-1.4961832061068703,-0.017333984375,0.07177734375,-0.589599609375,0.022099999999999998
1.083969465648855,0.3816793893129771,-1.6488549618320612,-0.01611328125,0.0673828125,-0.59326171875,0.023799999999999998
1.4961832061068703,0.44274809160305345,-1.4809160305343512,-0.023193359375,0.067138671875,-0.59521484375,0.0255
1.6793893129770991,0.22900763358778625,-1.5725190839694656,-0.025390625,0.06982421875,-0.596923828125,0.0272
2.0610687022900764,0.3969465648854962,-1.3587786259541985,-0.024658203125,0.070068359375,-0.59375,0.0289
2.1526717557251906,0.5801526717557252,-1.2366412213740459,-0.024658203125,0.067138671875,-0.59521484375,0.0306
2.4732824427480917,0.4122137404580153,-1.099236641221374,-0.019775390625,0.06591796875,-0.591552734375,0.032299999999999995
2.4427480916030535,0.2900763358778626,-1.1603053435114503,-0.021484375,0.066162109375,-0.597412109375,0.033999999999999996
3.0229007633587788,0.2595419847328244,-1.1908396946564885,-0.021484375,0.06005859375,-0.59814453125,0.035699999999999996
3.0381679389312977,0.6259541984732825,-1.099236641221374,-0.026123046875,0.060546875,-0.58935546875,0.037399999999999996
3.114503816793893,0.8091603053435115,-0.9465648854961832,-0.031005859375,0.060546875,-0.591796875,0.039099999999999996
3.3435114503816794,0.6564885496183206,-1.0229007633587786,-0.03076171875,0.064208984375,-0.59521484375,0.040799999999999996
3.3587786259541983,0.8549618320610687,-1.1603053435114503,-0.0283203125,0.0595703125,-0.597900390625,0.042499999999999996
3.3740458015267176,0.8854961832061069,-1.0687022900763359,-0.033203125,0.059814453125,-0.60498046875,0.044199999999999996
3.5267175572519083,0.8549618320610687,-1.1145038167938932,-0.0322265625,0.064208984375,-0.600830078125,0.045899999999999996
3.3587786259541983,0.9007633587786259,-1.0229007633587786,-0.02685546875,0.0546875,-0.597900390625,0.047599999999999996
3.1297709923664123,1.1145038167938932,-1.083969465648855,-0.03076171875,0.062255859375,-0.59814453125,0.0493
2.946564885496183,1.2366412213740459,-1.1297709923664123,-0.02734375,0.05419921875,-0.5927734375,0.051
3.053435114503817,1.3435114503816794,-0.9465648854961832,-0.032470703125,0.058349609375,-0.599853515625,0.0527
2.564885496183206,1.5267175572519085,-1.099236641221374,-0.03662109375,0.057373046875,-0.59912109375,0.0544
2.4885496183206106,1.8473282442748091,-1.0229007633587786,-0.03173828125,0.053955078125,-0.5986328125,0.0561
2.2595419847328246,1.8931297709923665,-0.732824427480916,-0.03564453125,0.054931640625,-0.5966796875,0.0578
2.015267175572519,2.045801526717557,-0.9312977099236641,-0.03271484375,0.053466796875,-0.597412109375,0.0595
1.7404580152671756,2.16793893129771,-1.083969465648855,-0.036865234375,0.052490234375,-0.6064453125,0.0612
1.8625954198473282,2.2748091603053435,-0.8702290076335878,-0.033935546875,0.052734375,-0.59814453125,0.0629
1.4809160305343512,2.381679389312977,-0.732824427480916,-0.031982421875,0.05419921875,-0.6015625,0.06459999999999999
1.5419847328244274,2.3206106870229006,-0.8244274809160306,-0.031005859375,0.05029296875,-0.602783203125,0.0663
1.0687022900763359,2.6412213740458017,-0.9618320610687023,-0.02490234375,0.050537109375,-0.59814453125,0.06799999999999999
0.8854961832061069,2.687022900763359,-1.0534351145038168,-0.028076171875,0.049072265625,-0.601806640625,0.0697
0.7022900763358778,2.6259541984732824,-1.1297709923664123,-0.02685546875,0.052490234375,-0.59228515625,0.07139999999999999
0.732824427480916,2.7786259541984735,-0.9007633587786259,-0.025146484375,0.054931640625,-0.59521484375,0.0731
0.3511450381679389,2.4732824427480917,-1.0687022900763359,-0.030517578125,0.055419921875,-0.5908203125,0.07479999999999999
0.4732824427480916,2.2748091603053435,-1.2061068702290076,-0.025146484375,0.059326171875,-0.593994140625,0.0765
0.2595419847328244,2.2748091603053435,-1.0381679389312977,-0.021484375,0.057373046875,-0.598388671875,0.07819999999999999
-0.07633587786259542,2.2442748091603053,-1.2366412213740459,-0.021484375,0.058349609375,-0.60498046875,0.0799
0.12213740458015267,2.122137404580153,-1.2366412213740459,-0.0234375,0.060791015625,-0.60107421875,0.08159999999999999
-0.0916030534351145,2.2595419847328246,-0.9770992366412213,-0.01953125,0.05908203125,-0.598876953125,0.0833
-0.04580152671755725,1.9083969465648856,-0.8702290076335878,-0.018310546875,0.0595703125,-0.599365234375,0.08499999999999999
0.10687022900763359,1.7099236641221374,-1.0229007633587786,-0.025390625,0.064697265625,-0.6123046875,0.0867
0.22900763358778625,1.9236641221374047,-0.8854961832061069,-0.01806640625,0.065673828125,-0.599609375,0.08839999999999999
0.183206106870229,1.7404580152671756,-0.6870229007633588,-0.016845703125,0.0625,-0.594970703125,0.0901
0.32061068702290074,1.4351145038167938,-0.8702290076335878,-0.0185546875,0.062255859375,-0.595458984375,0.09179999999999999
0.42748091603053434,1.5725190839694656,-0.9312977099236641,-0.0205078125,0.0654296875,-0.599365234375,0.0935
0.7175572519083969,1.3435114503816794,-0.8549618320610687,-0.0205078125,0.0693359375,-0.5986328125,0.09519999999999999
0.7480916030534351,1.1603053435114503,-0.8244274809160306,-0.020263671875,0.065673828125,-0.602783203125,0.0969
0.9465648854961832,1.282442748091603,-0.7480916030534351,-0.02099609375,0.063232421875,-0.6064453125,0.0986
1.1450381679389312,0.9618320610687023,-0.48854961832061067,-0.02001953125,0.06982421875,-0.600830078125,0.1003
1.2213740458015268,0.8244274809160306,-0.7480916030534351,-0.026123046875,0.069091796875,-0.596435546875,0.102
1.7557251908396947,0.9465648854961832,-0.8244274809160306,-0.027587890625,0.0654296875,-0.60791015625,0.1037
1.8778625954198473,0.8702290076335878,-0.7938931297709924,-0.02490234375,0.067138671875,-0.596923828125,0.1054
2.2290076335877864,0.8854961832061069,-0.9007633587786259,-0.0205078125,0.07080078125,-0.59033203125,0.1071
2.3969465648854964,0.7938931297709924,-0.732824427480916,-0.02197265625,0.07421875,-0.599609375,0.1088
2.4885496183206106,1.1603053435114503,-0.8396946564885496,-0.0234375,0.072265625,-0.600830078125,0.11049999999999999
2.595419847328244,1.0687022900763359,-0.8702290076335878,-0.021484375,0.0634765625,-0.59814453125,0.1122
2.8244274809160306,1.1297709923664123,-1.0076335877862594,-0.023193359375,0.06884765625,-0.5947265625,0.11389999999999999
2.9160305343511452,1.282442748091603,-0.916030534351145,-0.02392578125,0.068603515625,-0.597900390625,0.1156
3.2519083969465647,1.251908396946565,-0.8091603053435115,-0.027587890625,0.072021484375,-0.595703125,0.11729999999999999
3.3435114503816794,1.4351145038167938,-1.1450381679389312,-0.022216796875,0.071044921875,-0.593017578125,0.119
3.312977099236641,1.4198473282442747,-0.8854961832061069,-0.0283203125,0.06640625,-0.592041015625,0.12069999999999999
3.1755725190839694,1.7099236641221374,-0.8702290076335878,-0.028564453125,0.06494140625,-0.586669921875,0.1224
3.4198473282442747,1.633587786259542,-0.9770992366412213,-0.031005859375,0.066162109375,-0.591552734375,0.12409999999999999
3.633587786259542,1.618320610687023,-0.8549618320610687,-0.029052734375,0.062744140625,-0.592529296875,0.1258
3.2977099236641223,1.8931297709923665,-0.916030534351145,-0.0302734375,0.06689453125,-0.589111328125,0.1275
3.099236641221374,1.8015267175572518,-1.0534351145038168,-0.031494140625,0.0654296875,-0.600830078125,0.12919999999999998
3.2519083969465647,2.015267175572519,-1.1297709923664123,-0.032958984375,0.058349609375,-0.594482421875,0.1309
3.1603053435114505,2.198473282442748,-1.1908396946564885,-0.03515625,0.061767578125,-0.6005859375,0.1326
3.1297709923664123,2.2900763358778624,-1.2671755725190839,-0.0302734375,0.058837890625,-0.594482421875,0.1343
2.9923664122137406,2.6106870229007635,-1.1603053435114503,-0.031005859375,0.060791015625,-0.598388671875,0.13599999999999998
2.7938931297709924,2.549618320610687,-1.282442748091603,-0.032470703125,0.058349609375,-0.597900390625,0.1377
2.717557251908397,2.717557251908397,-1.1297709923664123,-0.026123046875,0.051513671875,-0.5986328125,0.1394
2.5343511450381677,2.7938931297709924,-1.3282442748091603,-0.032470703125,0.05810546875,-0.601318359375,0.1411
2.4122137404580153,3.0076335877862594,-1.450381679389313,-0.031005859375,0.056884765625,-0.592529296875,0.14279999999999998
2.015267175572519,3.0076335877862594,-1.4198473282442747,-0.03173828125,0.056396484375,-0.593505859375,0.1445
1.5572519083969465,3.145038167938931,-1.251908396946565,-0.03076171875,0.0576171875,-0.596435546875,0.1462
1.2671755725190839,3.0229007633587788,-1.5725190839694656,-0.025390625,0.05419921875,-0.5966796875,0.1479
0.9770992366412213,3.0381679389312977,-1.3893129770992367,-0.0283203125,0.0517578125,-0.58935546875,0.14959999999999998
0.5648854961832062,3.1297709923664123,-1.4961832061068703,-0.025634765625,0.051025390625,-0.60205078125,0.1513
0.5190839694656488,2.8091603053435112,-1.6946564885496183,-0.02978515625,0.0546875,-0.596923828125,0.153
0.0916030534351145,2.7786259541984735,-1.6793893129770991,-0.029541015625,0.062255859375,-0.59814453125,0.1547
0.030534351145038167,2.7480916030534353,-1.7557251908396947,-0.0244140625,0.060302734375,-0.597412109375,0.15639999999999998
-0.183206106870229,2.549618320610687,-1.8015267175572518,-0.0205078125,0.057861328125,-0.6005859375,0.1581
-0.4732824427480916,2.3969465648854964,-1.8625954198473282,-0.02685546875,0.060302734375,-0.593505859375,0.1598
-0.5801526717557252,2.2748091603053435,-1.9694656488549618,-0.02392578125,0.056640625,-0.601318359375,0.1615
-0.7938931297709924,2.2900763358778624,-1.9083969465648856,-0.02685546875,0.056396484375,-0.594970703125,0.16319999999999998
-0.9465648854961832,2.1374045801526718,-2.030534351145038,-0.021728515625,0.06005859375,-0.593994140625,0.1649
-0.9007633587786259,2.045801526717557,-2.183206106870229,-0.02392578125,0.060791015625,-0.601806640625,0.1666
-1.1297709923664123,1.7557251908396947,-2.2900763358778624,-0.02490234375,0.065673828125,-0.5966796875,0.16829999999999998
-1.1908396946564885,1.816793893129771,-2.045801526717557,-0.0205078125,0.0703125,-0.594482421875,0.16999999999999998
-1.1755725190839694,1.6641221374045803,-2.045801526717557,-0.0234375,0.063232421875,-0.59912109375,0.1717
-1.3740458015267176,1.6030534351145038,-2.0763358778625953,-0.014892578125,0.068115234375,-0.6005859375,0.1734
-1.1297709923664123,1.5419847328244274,-2.2442748091603053,-0.02392578125,0.068115234375,-0.602294921875,0.17509999999999998
-0.8702290076335878,1.3893129770992367,-1.9694656488549618,-0.02294921875,0.068603515625,-0.58740234375,0.17679999999999998
-0.5954198473282443,1.3129770992366412,-2.0,-0.015869140625,0.063232421875,-0.597900390625,0.1785
-0.5954198473282443,1.0076335877862594,-2.0610687022900764,-0.01513671875,0.066162109375,-0.604248046875,0.1802
-0.22900763358778625,1.2366412213740459,-1.984732824427481,-0.017333984375,0.068603515625,-0.5947265625,0.18189999999999998
0.0,1.2366412213740459,-1.786259541984733,-0.02001953125,0.07275390625,-0.6005859375,0.18359999999999999
0.12213740458015267,0.8854961832061069,-1.7709923664122138,-0.0224609375,0.068359375,-0.600341796875,0.1853
0.4732824427480916,1.0076335877862594,-1.6946564885496183,-0.01806640625,0.067138671875,-0.595703125,0.187
0.6564885496183206,0.9770992366412213,-1.7251908396946565,-0.021484375,0.069091796875,-0.595703125,0.18869999999999998
0.6564885496183206,0.7938931297709924,-1.618320610687023,-0.0244140625,0.072021484375,-0.5927734375,0.19039999999999999
1.099236641221374,0.8854961832061069,-1.5419847328244274,-0.0263671875,0.071044921875,-0.5908203125,0.1921
1.2213740458015268,0.7938931297709924,-1.3435114503816794,-0.0263671875,0.06591796875,-0.597900390625,0.1938
1.465648854961832,0.8549618320610687,-1.5725190839694656,-0.0234375,0.06591796875,-0.597900390625,0.19549999999999998
1.816793893129771,1.0229007633587786,-1.297709923664122,-0.025390625,0.065185546875,-0.59619140625,0.1972
1.7251908396946565,0.9465648854961832,-1.251908396946565,-0.0234375,0.06103515625,-0.592529296875,0.1989
1.9083969465648856,0.916030534351145,-1.0076335877862594,-0.026123046875,0.0654296875,-0.60107421875,0.2006
2.381679389312977,1.1450381679389312,-1.3129770992366412,-0.0244140625,0.061279296875,-0.595458984375,0.20229999999999998
2.4580152671755724,1.1145038167938932,-1.2671755725190839,-0.033203125,0.056640625,-0.594970703125,0.204
2.7480916030534353,1.099236641221374,-1.0534351145038168,-0.024658203125,0.055908203125,-0.595458984375,0.2057
2.717557251908397,1.465648854961832,-1.1145038167938932,-0.02685546875,0.058349609375,-0.6015625,0.2074
2.7938931297709924,1.4198473282442747,-1.1450381679389312,-0.029296875,0.06591796875,-0.599365234375,0.20909999999999998
3.053435114503817,1.4809160305343512,-1.2061068702290076,-0.03515625,0.060791015625,-0.59619140625,0.2108
2.9618320610687023,1.5725190839694656,-1.1755725190839694,-0.033447265625,0.063720703125,-0.587158203125,0.2125
2.732824427480916,1.5572519083969465,-1.0687022900763359,-0.031982421875,0.061279296875,-0.584716796875,0.2142
2.50381679389313,1.633587786259542,-1.3893129770992367,-0.033935546875,0.061279296875,-0.6025390625,0.21589999999999998
2.2748091603053435,1.5877862595419847,-1.1297709923664123,-0.033203125,0.056640625,-0.591064453125,0.2176
2.2442748091603053,1.984732824427481,-1.1908396946564885,-0.03125,0.06103515625,-0.58837890625,0.2193
1.984732824427481,2.030534351145038,-1.2213740458015268,-0.030029296875,0.0556640625,-0.5927734375,0.22099999999999997
1.786259541984733,1.8625954198473282,-1.2366412213740459,-0.03271484375,0.059326171875,-0.5966796875,0.22269999999999998
1.6946564885496183,1.9541984732824427,-1.251908396946565,-0.037353515625,0.056884765625,-0.5947265625,0.2244
1.251908396946565,1.8473282442748091,-1.6030534351145038,-0.033447265625,0.059814453125,-0.595703125,0.2261
1.083969465648855,1.8015267175572518,-1.3435114503816794,-0.028564453125,0.05517578125,-0.594482421875,0.22779999999999997
1.0229007633587786,1.7709923664122138,-1.6946564885496183,-0.024169921875,0.05419921875,-0.584716796875,0.22949999999999998
0.7938931297709924,1.7099236641221374,-1.816793893129771,-0.026123046875,0.051513671875,-0.58349609375,0.2312
0.8396946564885496,1.4961832061068703,-1.8931297709923665,-0.03125,0.054931640625,-0.593505859375,0.2329
0.9770992366412213,1.5572519083969465,-1.8778625954198473,-0.03125,0.062255859375,-0.591552734375,0.23459999999999998
0.9465648854961832,1.633587786259542,-2.1526717557251906,-0.02978515625,0.05712890625,-0.596923828125,0.23629999999999998
1.0381679389312977,1.5877862595419847,-2.030534351145038,-0.026123046875,0.059814453125,-0.598876953125,0.238
1.1145038167938932,1.5114503816793894,-2.2442748091603053,-0.02880859375,0.061767578125,-0.59423828125,0.2397
1.3282442748091603,1.5419847328244274,-2.198473282442748,-0.02392578125,0.06103515625,-0.59521484375,0.24139999999999998
1.3435114503816794,1.450381679389313,-2.183206106870229,-0.021484375,0.062255859375,-0.59912109375,0.24309999999999998
1.1755725190839694,1.3435114503816794,-2.122137404580153,-0.026123046875,0.05517578125,-0.592041015625,0.2448
1.297709923664122,1.2213740458015268,-2.33587786259542,-0.022216796875,0.0673828125,-0.59521484375,0.2465
1.465648854961832,1.0229007633587786,-2.351145038167939,-0.023681640625,0.06396484375,-0.59521484375,0.24819999999999998
1.5419847328244274,1.083969465648855,-2.213740458015267,-0.019287109375,0.06494140625,-0.597900390625,0.24989999999999998
1.5419847328244274,1.1145038167938932,-2.045801526717557,-0.018310546875,0.062744140625,-0.592041015625,0.2516
1.6641221374045803,1.1450381679389312,-2.2900763358778624,-0.023681640625,0.065185546875,-0.595458984375,0.25329999999999997
1.8778625954198473,0.9007633587786259,-2.0610687022900764,-0.0205078125,0.067138671875,-0.60400390625,0.255
2.1526717557251906,0.8244274809160306,-2.198473282442748,-0.022216796875,0.070068359375,-0.59765625,0.2567
2.1374045801526718,0.8702290076335878,-2.015267175572519,-0.020751953125,0.0693359375,-0.5966796875,0.25839999999999996
2.2595419847328246,0.48854961832061067,-1.9236641221374047,-0.02099609375,0.06689453125,-0.5927734375,0.2601
2.3969465648854964,0.48854961832061067,-2.015267175572519,-0.025390625,0.070556640625,-0.590576171875,0.2618
2.7938931297709924,0.6412213740458015,-2.030534351145038,-0.019775390625,0.071044921875,-0.594482421875,0.2635
2.900763358778626,0.42748091603053434,-1.83206106870229,-0.025390625,0.064697265625,-0.588623046875,0.2652
3.1908396946564888,0.3511450381679389,-2.213740458015267,-0.019287109375,0.06396484375,-0.593994140625,0.26689999999999997
3.2519083969465647,0.3511450381679389,-1.9236641221374047,-0.018798828125,0.061767578125,-0.59375,0.2686
3.5267175572519083,0.3816793893129771,-1.9236641221374047,-0.0234375,0.061279296875,-0.587646484375,0.2703
3.572519083969466,0.3969465648854962,-1.9236641221374047,-0.025146484375,0.061767578125,-0.588623046875,0.27199999999999996
3.83206106870229,0.3511450381679389,-1.9236641221374047,-0.02001953125,0.05859375,-0.58984375,0.2737
3.66412213740458,0.4580152671755725,-1.9236641221374047,-0.0234375,0.058837890625,-0.586181640625,0.2754
3.877862595419847,0.5190839694656488,-2.1526717557251906,-0.0234375,0.063232421875,-0.5966796875,0.27709999999999996
3.6030534351145036,0.3969465648854962,-1.8931297709923665,-0.02783203125,0.062255859375,-0.598388671875,0.2788
3.7709923664122136,0.32061068702290074,-1.9694656488549618,-0.0205078125,0.0634765625,-0.593505859375,0.28049999999999997
3.4198473282442747,0.42748091603053434,-1.9083969465648856,-0.0205078125,0.05908203125,-0.59375,0.2822
3.0839694656488548,0.5190839694656488,-2.030534351145038,-0.029296875,0.0556640625,-0.590087890625,0.2839
3.068702290076336,0.48854961832061067,-1.7557251908396947,-0.025146484375,0.0537109375,-0.590576171875,0.28559999999999997
2.9618320610687023,0.5801526717557252,-1.9389312977099236,-0.024169921875,0.05615234375,-0.598388671875,0.2873
2.687022900763359,0.8702290076335878,-1.7404580152671756,-0.030029296875,0.0546875,-0.5888671875,0.289
2.564885496183206,0.9007633587786259,-1.8473282442748091,-0.02685546875,0.05712890625,-0.59423828125,0.29069999999999996
2.2900763358778624,0.8854961832061069,-1.8015267175572518,-0.03173828125,0.056640625,-0.59814453125,0.2924
1.7557251908396947,0.9312977099236641,-1.8015267175572518,-0.024169921875,0.058349609375,-0.58837890625,0.2941
1.6946564885496183,0.9007633587786259,-1.6946564885496183,-0.030029296875,0.05517578125,-0.582763671875,0.2958
1.251908396946565,0.916030534351145,-1.7404580152671756,-0.0322265625,0.05126953125,-0.588134765625,0.2975
1.2061068702290076,1.0381679389312977,-1.7709923664122138,-0.02587890625,0.058837890625,-0.595458984375,0.29919999999999997
0.8091603053435115,1.251908396946565,-1.7557251908396947,-0.0244140625,0.05615234375,-0.5966796875,0.3009
0.6412213740458015,1.251908396946565,-1.8625954198473282,-0.0263671875,0.05908203125,-0.592041015625,0.3026
0.6259541984732825,1.3435114503816794,-1.984732824427481,-0.025634765625,0.05712890625,-0.593017578125,0.30429999999999996
0.2900763358778626,1.0687022900763359,-1.9389312977099236,-0.028564453125,0.056640625,-0.595458984375,0.306
0.3511450381679389,1.2061068702290076,-2.0916030534351147,-0.02490234375,0.0546875,-0.5966796875,0.3077
0.12213740458015267,1.1755725190839694,-1.8778625954198473,-0.03173828125,0.05517578125,-0.59619140625,0.3094
0.12213740458015267,1.2366412213740459,-1.984732824427481,-0.02978515625,0.058837890625,-0.591796875,0.3111
0.07633587786259542,1.2366412213740459,-2.198473282442748,-0.02978515625,0.05810546875,-0.59716796875,0.31279999999999997
-0.07633587786259542,1.2213740458015268,-2.16793893129771,-0.021728515625,0.0556640625,-0.601806640625,0.3145
0.0916030534351145,1.1755725190839694,-2.0,-0.026611328125,0.05419921875,-0.595947265625,0.3162
0.10687022900763359,1.099236641221374,-2.1526717557251906,-0.028076171875,0.066162109375,-0.592529296875,0.31789999999999996
0.24427480916030533,0.8702290076335878,-1.8473282442748091,-0.025146484375,0.064453125,-0.589599609375,0.3196
0.48854961832061067,0.8549618320610687,-2.0916030534351147,-0.0234375,0.06005859375,-0.600341796875,0.3213
0.6717557251908397,0.8549618320610687,-2.0763358778625953,-0.02685546875,0.061767578125,-0.596435546875,0.323
1.0229007633587786,0.8854961832061069,-2.122137404580153,-0.022216796875,0.05810546875,-0.59912109375,0.3247
1.4198473282442747,0.7938931297709924,-2.0763358778625953,-0.026123046875,0.062255859375,-0.596923828125,0.32639999999999997
1.8473282442748091,0.8091603053435115,-2.0916030534351147,-0.021728515625,0.057861328125,-0.592529296875,0.3281
2.183206106870229,0.8244274809160306,-2.122137404580153,-0.027099609375,0.062255859375,-0.596435546875,0.3298
2.0763358778625953,0.5190839694656488,-2.0916030534351147,-0.026611328125,0.060546875,-0.59619140625,0.33149999999999996
2.427480916030534,0.3053435114503817,-2.0916030534351147,-0.027587890625,0.063720703125,-0.591064453125,0.3332
2.9160305343511452,0.4580152671755725,-2.3969465648854964,-0.031494140625,0.06298828125,-0.595458984375,0.3349
3.1297709923664123,0.5648854961832062,-2.1068702290076335,-0.0302734375,0.06591796875,-0.592529296875,0.33659999999999995
3.2061068702290076,0.3969465648854962,-2.2290076335877864,-0.02783203125,0.06298828125,-0.586669921875,0.3383
3.099236641221374,0.33587786259541985,-2.2290076335877864,-0.02783203125,0.068603515625,-0.592529296875,0.33999999999999997
3.618320610687023,0.5648854961832062,-2.198473282442748,-0.0263671875,0.067138671875,-0.601318359375,0.3417
3.648854961832061,0.4580152671755725,-2.0,-0.0283203125,0.068115234375,-0.59326171875,0.3434
3.8473282442748094,0.5648854961832062,-2.0610687022900764,-0.02685546875,0.06298828125,-0.59814453125,0.34509999999999996
3.9389312977099236,0.5648854961832062,-2.1374045801526718,-0.0283203125,0.064453125,-0.597900390625,0.3468
4.015267175572519,0.5954198473282443,-2.366412213740458,-0.029296875,0.064208984375,-0.59375,0.3485
4.015267175572519,0.7480916030534351,-2.2900763358778624,-0.028076171875,0.066162109375,-0.60107421875,0.35019999999999996
4.183206106870229,0.7938931297709924,-2.16793893129771,-0.035888671875,0.0625,-0.59521484375,0.3519
4.290076335877862,0.549618320610687,-2.4885496183206106,-0.033935546875,0.0634765625,-0.594970703125,0.35359999999999997
4.0,0.8549618320610687,-2.33587786259542,-0.028564453125,0.06201171875,-0.592529296875,0.3553
4.0458015267175576,1.099236641221374,-2.427480916030534,-0.025634765625,0.063232421875,-0.60009765625,0.357
4.1679389312977095,1.1603053435114503,-2.6259541984732824,-0.030029296875,0.062744140625,-0.597900390625,0.35869999999999996
3.7709923664122136,1.1450381679389312,-2.549618320610687,-0.02880859375,0.062744140625,-0.602783203125,0.3604
3.83206106870229,1.2061068702290076,-2.50381679389313,-0.03173828125,0.062255859375,-0.603515625,0.3621
4.122137404580153,1.251908396946565,-2.519083969465649,-0.026123046875,0.06005859375,-0.595947265625,0.36379999999999996
3.633587786259542,1.251908396946565,-2.4122137404580153,-0.029052734375,0.064697265625,-0.59765625,0.3655
3.4656488549618323,1.2061068702290076,-2.3969465648854964,-0.029296875,0.06494140625,-0.59765625,0.36719999999999997
3.480916030534351,1.3129770992366412,-2.3206106870229006,-0.025146484375,0.066162109375,-0.59228515625,0.3689
3.0839694656488548,1.3893129770992367,-2.4732824427480917,-0.0244140625,0.063232421875,-0.58544921875,0.3706
2.9160305343511452,1.5114503816793894,-2.2748091603053435,-0.028076171875,0.059326171875,-0.59521484375,0.37229999999999996
2.7022900763358777,1.5419847328244274,-2.2900763358778624,-0.02490234375,0.060546875,-0.5966796875,0.374
2.6412213740458017,1.282442748091603,-2.1374045801526718,-0.028076171875,0.058837890625,-0.59814453125,0.3757
2.3969465648854964,1.1603053435114503,-2.0610687022900764,-0.024658203125,0.062255859375,-0.6005859375,0.37739999999999996
2.183206106870229,1.0381679389312977,-1.786259541984733,-0.02294921875,0.0556640625,-0.590576171875,0.3791
1.9083969465648856,0.9007633587786259,-1.9083969465648856,-0.02099609375,0.058349609375,-0.5966796875,0.38079999999999997
2.1526717557251906,0.916030534351145,-1.7404580152671756,-0.01904296875,0.053955078125,-0.593017578125,0.38249999999999995
1.8625954198473282,0.8702290076335878,-1.7404580152671756,-0.015625,0.061279296875,-0.59912109375,0.3842
1.3435114503816794,0.6717557251908397,-1.4809160305343512,-0.018798828125,0.056640625,-0.592041015625,0.38589999999999997
1.3282442748091603,0.5190839694656488,-1.465648854961832,-0.018798828125,0.058349609375,-0.59521484375,0.3876
1.4809160305343512,0.5038167938931297,-1.3129770992366412,-0.017333984375,0.061279296875,-0.604736328125,0.3893
1.1450381679389312,0.2595419847328244,-1.251908396946565,-0.02099609375,0.062255859375,-0.597900390625,0.39099999999999996
0.9465648854961832,0.2748091603053435,-1.2671755725190839,-0.02001953125,0.059814453125,-0.597900390625,0.3927
1.4198473282442747,-0.07633587786259542,-0.916030534351145,-0.02392578125,0.057373046875,-0.592041015625,0.3944
1.2366412213740459,0.030534351145038167,-0.9007633587786259,-0.019287109375,0.064453125,-0.593017578125,0.39609999999999995
0.916030534351145,-0.16793893129770993,-0.916030534351145,-0.021484375,0.0595703125,-0.599609375,0.3978
1.3893129770992367,-0.4580152671755725,-0.8091603053435115,-0.019775390625,0.06103515625,-0.5986328125,0.39949999999999997
1.297709923664122,-0.3816793893129771,-0.6564885496183206,-0.025390625,0.059814453125,-0.601318359375,0.4012
1.1450381679389312,-0.5343511450381679,-0.7022900763358778,-0.028076171875,0.058837890625,-0.598388671875,0.4029
1.3587786259541985,-0.732824427480916,-0.5801526717557252,-0.024169921875,0.057373046875,-0.5908203125,0.40459999999999996
1.4198473282442747,-0.6870229007633588,-0.6717557251908397,-0.023681640625,0.065673828125,-0.596923828125,0.4063
1.465648854961832,-0.7938931297709924,-0.7175572519083969,-0.022216796875,0.054443359375,-0.59619140625,0.408
1.6641221374045803,-1.1297709923664123,-0.6717557251908397,-0.0244140625,0.059814453125,-0.596923828125,0.40969999999999995
1.9236641221374047,-1.1603053435114503,-0.9465648854961832,-0.026611328125,0.059814453125,-0.593994140625,0.4114
2.0610687022900764,-1.251908396946565,-0.8549618320610687,-0.02294921875,0.0615234375,-0.59814453125,0.41309999999999997
2.16793893129771,-1.0229007633587786,-0.8702290076335878,-0.028564453125,0.0634765625,-0.6025390625,0.4148
2.3206106870229006,-1.297709923664122,-0.9007633587786259,-0.029052734375,0.057373046875,-0.59228515625,0.4165
2.4885496183206106,-1.4198473282442747,-0.916030534351145,-0.03369140625,0.0595703125,-0.59326171875,0.41819999999999996
2.33587786259542,-1.4045801526717556,-0.7633587786259542,-0.031005859375,0.058837890625,-0.589111328125,0.4199
2.366412213740458,-1.5114503816793894,-0.9923664122137404,-0.034423828125,0.06494140625,-0.603759765625,0.4216
2.717557251908397,-1.4961832061068703,-0.7175572519083969,-0.0244140625,0.06689453125,-0.59716796875,0.42329999999999995
2.763358778625954,-1.4809160305343512,-0.9007633587786259,-0.028564453125,0.059814453125,-0.587890625,0.425
3.0229007633587788,-1.5725190839694656,-0.6106870229007634,-0.028076171875,0.0615234375,-0.58984375,0.42669999999999997
2.9770992366412212,-1.7709923664122138,-0.8244274809160306,-0.030517578125,0.05810546875,-0.589111328125,0.4284
2.9923664122137406,-1.6946564885496183,-0.732824427480916,-0.0341796875,0.064697265625,-0.60595703125,0.4301
3.3435114503816794,-1.633587786259542,-0.8702290076335878,-0.030029296875,0.064453125,-0.6005859375,0.43179999999999996
3.633587786259542,-1.4198473282442747,-0.916030534351145,-0.0322265625,0.063720703125,-0.596923828125,0.4335
3.7404580152671754,-1.5419847328244274,-1.0076335877862594,-0.030517578125,0.06201171875,-0.601806640625,0.4352
4.106870229007634,-1.5725190839694656,-1.1755725190839694,-0.031494140625,0.06494140625,-0.594482421875,0.43689999999999996
4.3816793893129775,-1.6488549618320612,-1.3587786259541985,-0.034423828125,0.06005859375,-0.601806640625,0.4386
4.122137404580153,-1.618320610687023,-1.3435114503816794,-0.0322265625,0.062744140625,-0.601318359375,0.44029999999999997
4.473282442748092,-1.3740458015267176,-1.3740458015267176,-0.033447265625,0.0654296875,-0.6015625,0.44199999999999995
4.580152671755725,-1.6946564885496183,-1.5114503816793894,-0.023193359375,0.070556640625,-0.6005859375,0.4437
4.5038167938931295,-1.5725190839694656,-1.633587786259542,-0.030029296875,0.069580078125,-0.59375,0.44539999999999996
4.534351145038168,-1.6488549618320612,-1.4809160305343512,-0.025146484375,0.068603515625,-0.587890625,0.4471
4.732824427480916,-1.7251908396946565,-1.7557251908396947,-0.0244140625,0.06787109375,-0.586181640625,0.4488
4.687022900763359,-1.6030534351145038,-1.6793893129770991,-0.02783203125,0.066162109375,-0.59033203125,0.45049999999999996
4.595419847328245,-1.5572519083969465,-1.9389312977099236,-0.028076171875,0.062255859375,-0.59521484375,0.4522
4.412213740458015,-1.6488549618320612,-1.9541984732824427,-0.0283203125,0.06201171875,-0.591064453125,0.45389999999999997
4.229007633587786,-1.5267175572519085,-1.9694656488549618,-0.029541015625,0.067138671875,-0.598388671875,0.45559999999999995
4.122137404580153,-1.6946564885496183,-1.7557251908396947,-0.02734375,0.063720703125,-0.59375,0.4573
4.396946564885496,-1.7709923664122138,-2.183206106870229,-0.02294921875,0.063232421875,-0.595703125,0.45899999999999996
4.061068702290076,-1.6030534351145038,-2.122137404580153,-0.027099609375,0.05908203125,-0.609130859375,0.4607
3.6793893129770994,-1.4961832061068703,-2.2290076335877864,-0.02685546875,0.064697265625,-0.587890625,0.4624
3.618320610687023,-1.3129770992366412,-2.3053435114503817,-0.029296875,0.063720703125,-0.5966796875,0.46409999999999996
3.3893129770992365,-1.4198473282442747,-2.381679389312977,-0.0322265625,0.064453125,-0.5927734375,0.4658
3.4656488549618323,-1.3740458015267176,-2.2290076335877864,-0.02685546875,0.0654296875,-0.587890625,0.46749999999999997
3.2213740458015265,-1.083969465648855,-2.3053435114503817,-0.024169921875,0.06103515625,-0.60791015625,0.46919999999999995
2.687022900763359,-1.1450381679389312,-2.3206106870229006,-0.027099609375,0.063720703125,-0.59619140625,0.4709
2.732824427480916,-1.0229007633587786,-2.381679389312977,-0.033447265625,0.057373046875,-0.598876953125,0.47259999999999996
2.5801526717557253,-0.9618320610687023,-2.2748091603053435,-0.025634765625,0.064208984375,-0.60009765625,0.4743
2.213740458015267,-0.8854961832061069,-2.5343511450381677,-0.031005859375,0.058837890625,-0.602783203125,0.476
2.183206106870229,-0.7938931297709924,-2.427480916030534,-0.029541015625,0.0576171875,-0.59765625,0.47769999999999996
2.1068702290076335,-0.8091603053435115,-2.564885496183206,-0.03173828125,0.058837890625,-0.599853515625,0.4794
1.9236641221374047,-0.9618320610687023,-2.381679389312977,-0.033203125,0.06103515625,-0.596923828125,0.48109999999999997
1.8778625954198473,-0.7022900763358778,-2.519083969465649,-0.02685546875,0.054931640625,-0.599609375,0.48279999999999995
1.7251908396946565,-0.7175572519083969,-2.519083969465649,-0.02685546875,0.0556640625,-0.587890625,0.4845
1.3893129770992367,-0.6564885496183206,-2.366412213740458,-0.0302734375,0.056640625,-0.601318359375,0.48619999999999997
1.3435114503816794,-0.6564885496183206,-2.3053435114503817,-0.0263671875,0.06005859375,-0.598876953125,0.4879
1.1603053435114503,-0.366412213740458,-2.381679389312977,-0.029052734375,0.057373046875,-0.604736328125,0.4896
1.2213740458015268,-0.44274809160305345,-2.2595419847328246,-0.029296875,0.05712890625,-0.60400390625,0.49129999999999996
1.2366412213740459,-0.21374045801526717,-2.198473282442748,-0.030029296875,0.05615234375,-0.59228515625,0.493
1.1145038167938932,-0.12213740458015267,-2.030534351145038,-0.027587890625,0.05712890625,-0.596923828125,0.4947
0.9923664122137404,-0.15267175572519084,-2.2748091603053435,-0.030029296875,0.05419921875,-0.599365234375,0.49639999999999995
0.549618320610687,-0.04580152671755725,-2.183206106870229,-0.0283203125,0.057861328125,-0.5927734375,0.4981
0.3053435114503817,0.07633587786259542,-2.2442748091603053,-0.028076171875,0.05810546875,-0.5908203125,0.49979999999999997
0.3511450381679389,-0.04580152671755725,-2.2442748091603053,-0.028076171875,0.05224609375,-0.603759765625,0.5015
-0.22900763358778625,-0.13740458015267176,-2.2442748091603053,-0.03125,0.053466796875,-0.59716796875,0.5032
-0.4732824427480916,-0.0916030534351145,-2.381679389312977,-0.031982421875,0.05126953125,-0.5966796875,0.5049
-0.24427480916030533,0.061068702290076333,-2.5343511450381677,-0.0302734375,0.054931640625,-0.596923828125,0.5065999999999999
-0.7633587786259542,-0.183206106870229,-2.564885496183206,-0.03173828125,0.05810546875,-0.60693359375,0.5083
-0.6564885496183206,-0.183206106870229,-2.4580152671755724,-0.031982421875,0.062255859375,-0.596923828125,0.51
-0.8702290076335878,0.15267175572519084,-2.4427480916030535,-0.02880859375,0.0576171875,-0.600341796875,0.5116999999999999
-0.9770992366412213,-0.07633587786259542,-2.5343511450381677,-0.03125,0.05615234375,-0.604736328125,0.5134
-0.6412213740458015,0.0,-2.5343511450381677,-0.027099609375,0.054931640625,-0.595703125,0.5151
-0.5343511450381679,-0.13740458015267176,-2.687022900763359,-0.027099609375,0.05859375,-0.604736328125,0.5167999999999999
-0.2748091603053435,0.030534351145038167,-2.6106870229007635,-0.029296875,0.060791015625,-0.59619140625,0.5185
0.04580152671755725,-0.030534351145038167,-2.8702290076335877,-0.025390625,0.056396484375,-0.595703125,0.5202
0.07633587786259542,0.24427480916030533,-2.8244274809160306,-0.02880859375,0.0615234375,-0.601806640625,0.5218999999999999
0.3969465648854962,-0.0916030534351145,-2.854961832061069,-0.027587890625,0.06494140625,-0.59423828125,0.5236
0.4732824427480916,-0.10687022900763359,-2.8702290076335877,-0.031005859375,0.063232421875,-0.589111328125,0.5253
0.6564885496183206,-0.061068702290076333,-2.931297709923664,-0.02587890625,0.0703125,-0.588623046875,0.527
0.7480916030534351,0.1984732824427481,-2.7786259541984735,-0.027587890625,0.07080078125,-0.598876953125,0.5287
1.099236641221374,0.183206106870229,-2.8702290076335877,-0.0263671875,0.067138671875,-0.5888671875,0.5304
1.3587786259541985,0.22900763358778625,-2.7938931297709924,-0.02392578125,0.071533203125,-0.594482421875,0.5321
1.4045801526717556,0.24427480916030533,-2.7480916030534353,-0.025146484375,0.070556640625,-0.60107421875,0.5337999999999999
1.297709923664122,0.3511450381679389,-2.900763358778626,-0.026611328125,0.071044921875,-0.596923828125,0.5355
1.633587786259542,0.44274809160305345,-2.6259541984732824,-0.026611328125,0.069091796875,-0.59619140625,0.5372
1.6793893129770991,0.5343511450381679,-2.5801526717557253,-0.0263671875,0.068115234375,-0.600830078125,0.5388999999999999
1.8625954198473282,0.7022900763358778,-2.763358778625954,-0.0302734375,0.071533203125,-0.592529296875,0.5406
1.8473282442748091,0.6259541984732825,-2.595419847328244,-0.029296875,0.067138671875,-0.598876953125,0.5423
2.2595419847328246,0.8549618320610687,-2.33587786259542,-0.02734375,0.064697265625,-0.59716796875,0.5439999999999999
2.763358778625954,0.7633587786259542,-2.33587786259542,-0.02490234375,0.064453125,-0.585693359375,0.5457
3.0839694656488548,0.9618320610687023,-2.2900763358778624,-0.02392578125,0.06591796875,-0.592529296875,0.5474
3.3282442748091605,0.9770992366412213,-2.2442748091603053,-0.02490234375,0.0634765625,-0.591796875,0.5490999999999999
3.8931297709923665,0.9618320610687023,-2.183206106870229,-0.027587890625,0.062255859375,-0.589599609375,0.5508
4.061068702290076,1.1908396946564885,-2.015267175572519,-0.0244140625,0.064453125,-0.59033203125,0.5525
4.5038167938931295,1.0381679389312977,-2.3053435114503817,-0.030029296875,0.06201171875,-0.59228515625,0.5541999999999999
4.824427480916031,1.1450381679389312,-2.33587786259542,-0.025390625,0.066162109375,-0.5927734375,0.5559
5.114503816793893,1.251908396946565,-2.0,-0.0263671875,0.063232421875,-0.6005859375,0.5576
5.312977099236641,1.297709923664122,-1.8473282442748091,-0.0283203125,0.064453125,-0.59765625,0.5593
5.587786259541985,1.4961832061068703,-2.0610687022900764,-0.02734375,0.059814453125,-0.606201171875,0.5609999999999999
5.709923664122138,1.5725190839694656,-2.015267175572519,-0.025146484375,0.0546875,-0.59716796875,0.5627
5.648854961832061,1.5267175572519085,-1.9083969465648856,-0.027099609375,0.058349609375,-0.59423828125,0.5644
5.847328244274809,1.3435114503816794,-2.015267175572519,-0.02880859375,0.057373046875,-0.593017578125,0.5660999999999999
5.6183206106870225,1.4198473282442747,-1.984732824427481,-0.028564453125,0.0595703125,-0.59619140625,0.5678
5.8320610687022905,1.6488549618320612,-1.83206106870229,-0.032470703125,0.059326171875,-0.591796875,0.5695
5.786259541984733,1.6488549618320612,-1.5572519083969465,-0.027587890625,0.054443359375,-0.603759765625,0.5711999999999999
5.709923664122138,1.6488549618320612,-1.6946564885496183,-0.03076171875,0.051513671875,-0.597412109375,0.5729
5.358778625954199,1.3893129770992367,-1.6641221374045803,-0.031494140625,0.0546875,-0.597900390625,0.5746
5.435114503816794,1.5572519083969465,-1.6946564885496183,-0.02490234375,0.053466796875,-0.60009765625,0.5762999999999999
5.267175572519084,1.7099236641221374,-1.4351145038167938,-0.031494140625,0.056640625,-0.6064453125,0.578
5.00763358778626,1.7251908396946565,-1.3893129770992367,-0.032470703125,0.055419921875,-0.60107421875,0.5797
4.717557251908397,1.8473282442748091,-1.3893129770992367,-0.031494140625,0.058349609375,-0.595703125,0.5813999999999999
4.122137404580153,2.0,-1.4198473282442747,-0.033447265625,0.0556640625,-0.600341796875,0.5831
3.7557251908396947,2.030534351145038,-1.2213740458015268,-0.030029296875,0.05810546875,-0.605712890625,0.5848
3.0381679389312977,2.1068702290076335,-1.3129770992366412,-0.03076171875,0.05078125,-0.6103515625,0.5865
2.687022900763359,2.198473282442748,-1.4198473282442747,-0.037353515625,0.052978515625,-0.604736328125,0.5882
2.2595419847328246,2.3206106870229006,-1.099236641221374,-0.03125,0.0595703125,-0.5927734375,0.5899
1.984732824427481,2.7022900763358777,-1.2213740458015268,-0.033203125,0.05615234375,-0.601318359375,0.5916
1.4351145038167938,2.6564885496183206,-1.3129770992366412,-0.031005859375,0.053955078125,-0.59912109375,0.5932999999999999
1.1908396946564885,2.8091603053435112,-0.9923664122137404,-0.03125,0.058837890625,-0.60107421875,0.595
0.8549618320610687,2.6717557251908395,-1.3435114503816794,-0.0390625,0.060302734375,-0.59765625,0.5967
0.6564885496183206,2.8702290076335877,-1.3129770992366412,-0.0390625,0.056396484375,-0.593017578125,0.5983999999999999
0.2748091603053435,3.068702290076336,-1.1755725190839694,-0.032958984375,0.055908203125,-0.59814453125,0.6001
-0.15267175572519084,2.854961832061069,-1.099236641221374,-0.0322265625,0.0595703125,-0.60595703125,0.6018
-0.3969465648854962,3.053435114503817,-1.4351145038167938,-0.0322265625,0.06103515625,-0.60400390625,0.6034999999999999
-0.42748091603053434,3.053435114503817,-1.4961832061068703,-0.031494140625,0.06396484375,-0.602783203125,0.6052
-0.5190839694656488,3.145038167938931,-1.465648854961832,-0.033935546875,0.064697265625,-0.602783203125,0.6069
-0.48854961832061067,3.145038167938931,-1.4351145038167938,-0.034423828125,0.06298828125,-0.60595703125,0.6085999999999999
-0.24427480916030533,3.068702290076336,-1.7251908396946565,-0.0361328125,0.06103515625,-0.611328125,0.6103
-0.3053435114503817,3.2061068702290076,-1.5419847328244274,-0.03076171875,0.06884765625,-0.598388671875,0.612
-0.24427480916030533,3.267175572519084,-1.6793893129770991,-0.033447265625,0.07177734375,-0.592041015625,0.6136999999999999
-0.030534351145038167,3.068702290076336,-1.7251908396946565,-0.03076171875,0.068359375,-0.59716796875,0.6154
0.0916030534351145,3.236641221374046,-1.8778625954198473,-0.02685546875,0.0654296875,-0.609375,0.6171
0.24427480916030533,3.2977099236641223,-1.8473282442748091,-0.03173828125,0.064697265625,-0.602783203125,0.6188
0.5190839694656488,3.236641221374046,-1.6793893129770991,-0.0283203125,0.06591796875,-0.601318359375,0.6204999999999999
0.7633587786259542,2.9770992366412212,-1.7099236641221374,-0.02734375,0.069580078125,-0.6083984375,0.6222
0.9923664122137404,3.1908396946564888,-1.8931297709923665,-0.02978515625,0.0693359375,-0.591064453125,0.6239
1.5419847328244274,3.053435114503817,-1.7099236641221374,-0.02880859375,0.071533203125,-0.59423828125,0.6255999999999999
1.8015267175572518,2.9618320610687023,-1.9541984732824427,-0.029296875,0.07177734375,-0.593017578125,0.6273
2.1374045801526718,2.8396946564885495,-1.8931297709923665,-0.02734375,0.068115234375,-0.590576171875,0.629
2.6106870229007635,2.885496183206107,-1.7709923664122138,-0.027099609375,0.072265625,-0.5947265625,0.6306999999999999
2.900763358778626,2.763358778625954,-1.83206106870229,-0.02587890625,0.072021484375,-0.59375,0.6324
2.8091603053435112,2.7786259541984735,-1.9236641221374047,-0.029296875,0.066162109375,-0.59765625,0.6341
3.480916030534351,2.732824427480916,-1.6030534351145038,-0.02734375,0.07177734375,-0.5986328125,0.6357999999999999
3.66412213740458,2.6259541984732824,-1.8473282442748091,-0.022216796875,0.06982421875,-0.603759765625,0.6375
3.83206106870229,2.6106870229007635,-1.7404580152671756,-0.02197265625,0.066650390625,-0.60302734375,0.6392
3.572519083969466,2.6259541984732824,-1.7099236641221374,-0.025146484375,0.0712890625,-0.59619140625,0.6408999999999999
3.801526717557252,2.4122137404580153,-1.3893129770992367,-0.015869140625,0.068603515625,-0.593017578125,0.6426
3.6793893129770994,2.717557251908397,-1.4198473282442747,-0.023193359375,0.06982421875,-0.59814453125,0.6443
3.786259541984733,2.5801526717557253,-1.297709923664122,-0.02978515625,0.06591796875,-0.6015625,0.646
3.6793893129770994,2.7938931297709924,-1.0687022900763359,-0.022216796875,0.062255859375,-0.597900390625,0.6476999999999999
3.66412213740458,2.519083969465649,-1.2061068702290076,-0.0244140625,0.05859375,-0.59521484375,0.6494
3.7099236641221376,2.6412213740458017,-1.1450381679389312,-0.025634765625,0.06591796875,-0.601318359375,0.6511
3.6946564885496183,2.6564885496183206,-1.0229007633587786,-0.024658203125,0.066162109375,-0.6005859375,0.6527999999999999
3.480916030534351,2.5801526717557253,-0.9923664122137404,-0.027099609375,0.059326171875,-0.5966796875,0.6545
3.236641221374046,2.366412213740458,-1.0381679389312977,-0.0322265625,0.06005859375,-0.603759765625,0.6562
3.4198473282442747,2.4885496183206106,-1.1908396946564885,-0.0224609375,0.0625,-0.600341796875,0.6578999999999999
3.4198473282442747,2.2595419847328246,-1.2061068702290076,-0.0205078125,0.05859375,-0.603759765625,0.6596
3.2977099236641223,2.2748091603053435,-1.297709923664122,-0.022216796875,0.06005859375,-0.599853515625,0.6613
3.1603053435114505,2.015267175572519,-1.0229007633587786,-0.0302734375,0.0576171875,-0.599853515625,0.6629999999999999
3.1297709923664123,1.83206106870229,-1.4198473282442747,-0.024169921875,0.0595703125,-0.6025390625,0.6647
3.0839694656488548,1.9389312977099236,-1.3435114503816794,-0.0205078125,0.0595703125,-0.6005859375,0.6664
2.6717557251908395,1.9236641221374047,-1.6030534351145038,-0.02099609375,0.05712890625,-0.605224609375,0.6680999999999999
2.351145038167939,1.9236641221374047,-1.633587786259542,-0.0283203125,0.058837890625,-0.59521484375,0.6698
2.8091603053435112,1.450381679389313,-1.7557251908396947,-0.025146484375,0.059326171875,-0.5947265625,0.6715
2.2748091603053435,1.6641221374045803,-1.4351145038167938,-0.028076171875,0.05810546875,-0.593017578125,0.6731999999999999
2.015267175572519,1.4961832061068703,-1.5419847328244274,-0.027587890625,0.058837890625,-0.602783203125,0.6748999999999999
1.7251908396946565,1.3740458015267176,-1.5572519083969465,-0.026123046875,0.058837890625,-0.603759765625,0.6766
1.4045801526717556,1.5267175572519085,-1.450381679389313,-0.025390625,0.063232421875,-0.597900390625,0.6783
1.099236641221374,1.5419847328244274,-1.450381679389313,-0.022705078125,0.063720703125,-0.598388671875,0.6799999999999999
0.8549618320610687,1.5572519083969465,-1.5419847328244274,-0.0263671875,0.059814453125,-0.599365234375,0.6817
0.7480916030534351,1.3435114503816794,-1.3435114503816794,-0.02734375,0.064453125,-0.595703125,0.6834
0.8702290076335878,1.3129770992366412,-1.4045801526717556,-0.02880859375,0.0615234375,-0.59521484375,0.6850999999999999
0.8244274809160306,1.5267175572519085,-1.3587786259541985,-0.0244140625,0.064208984375,-0.599853515625,0.6868
0.44274809160305345,1.3893129770992367,-1.3740458015267176,-0.019287109375,0.068359375,-0.599853515625,0.6885
0.7480916030534351,1.282442748091603,-1.0381679389312977,-0.02490234375,0.064453125,-0.593505859375,0.6901999999999999
0.7480916030534351,1.282442748091603,-1.0687022900763359,-0.0244140625,0.0654296875,-0.607177734375,0.6919
0.7022900763358778,1.083969465648855,-1.1450381679389312,-0.02392578125,0.065673828125,-0.598388671875,0.6936
0.6717557251908397,1.2213740458015268,-1.1450381679389312,-0.0234375,0.06494140625,-0.59619140625,0.6952999999999999
0.9465648854961832,1.4045801526717556,-1.0229007633587786,-0.021728515625,0.06494140625,-0.595703125,0.697
0.8854961832061069,1.1450381679389312,-1.1755725190839694,-0.021484375,0.0654296875,-0.598388671875,0.6987
0.9312977099236641,0.9923664122137404,-0.8549618320610687,-0.0205078125,0.062255859375,-0.60107421875,0.7003999999999999
1.0076335877862594,0.8091603053435115,-1.282442748091603,-0.021484375,0.066162109375,-0.595458984375,0.7021
1.2366412213740459,1.0381679389312977,-1.0687022900763359,-0.02392578125,0.06982421875,-0.59814453125,0.7038
1.5114503816793894,0.8854961832061069,-0.9618320610687023,-0.021728515625,0.068359375,-0.595458984375,0.7055
1.8015267175572518,0.7786259541984732,-0.8091603053435115,-0.02392578125,0.0673828125,-0.6005859375,0.7071999999999999
1.6793893129770991,0.9465648854961832,-1.1145038167938932,-0.020751953125,0.065185546875,-0.6015625,0.7089
1.9389312977099236,0.732824427480916,-1.0534351145038168,-0.0234375,0.066162109375,-0.598388671875,0.7106
1.9694656488549618,0.916030534351145,-0.9312977099236641,-0.02197265625,0.062744140625,-0.598876953125,0.7122999999999999
2.015267175572519,0.7022900763358778,-0.8396946564885496,-0.018798828125,0.067626953125,-0.602294921875,0.714
2.3053435114503817,0.48854961832061067,-0.9007633587786259,-0.02294921875,0.066162109375,-0.59326171875,0.7157
1.9694656488549618,0.549618320610687,-0.9312977099236641,-0.0244140625,0.06005859375,-0.59814453125,0.7173999999999999
2.198473282442748,0.6259541984732825,-0.9465648854961832,-0.02587890625,0.06396484375,-0.59375,0.7191
2.381679389312977,0.6412213740458015,-0.9923664122137404,-0.02490234375,0.063720703125,-0.61083984375,0.7208
1.9236641221374047,0.4580152671755725,-1.0229007633587786,-0.02490234375,0.067626953125,-0.5947265625,0.7224999999999999
1.984732824427481,0.6717557251908397,-0.8091603053435115,-0.0263671875,0.066162109375,-0.60205078125,0.7242
2.045801526717557,0.7633587786259542,-0.8549618320610687,-0.026123046875,0.0634765625,-0.604736328125,0.7259
2.122137404580153,0.6870229007633588,-0.8091603053435115,-0.02490234375,0.060546875,-0.6005859375,0.7275999999999999
1.7099236641221374,0.549618320610687,-0.9007633587786259,-0.026123046875,0.058349609375,-0.6015625,0.7293
1.6946564885496183,0.6717557251908397,-0.8854961832061069,-0.025634765625,0.06005859375,-0.60009765625,0.731
1.6030534351145038,0.6259541984732825,-0.8702290076335878,-0.026123046875,0.061767578125,-0.600341796875,0.7326999999999999
1.5572519083969465,0.7480916030534351,-0.8549618320610687,-0.03125,0.064697265625,-0.599609375,0.7343999999999999
1.5114503816793894,0.9312977099236641,-0.9923664122137404,-0.0263671875,0.051513671875,-0.601318359375,0.7361
1.1145038167938932,0.8702290076335878,-0.8396946564885496,-0.032470703125,0.059814453125,-0.595703125,0.7378
1.1755725190839694,1.0381679389312977,-0.8396946564885496,-0.029541015625,0.056640625,-0.600830078125,0.7394999999999999
1.0076335877862594,1.1908396946564885,-0.7633587786259542,-0.02392578125,0.0615234375,-0.612060546875,0.7412
0.9312977099236641,1.083969465648855,-0.7480916030534351,-0.02783203125,0.059326171875,-0.590576171875,0.7429
0.9312977099236641,1.282442748091603,-0.6717557251908397,-0.0283203125,0.063720703125,-0.591552734375,0.7445999999999999
0.8091603053435115,1.1755725190839694,-0.7938931297709924,-0.029541015625,0.05517578125,-0.598876953125,0.7463
0.8854961832061069,1.1908396946564885,-0.7938931297709924,-0.029296875,0.0556640625,-0.599853515625,0.748
0.6259541984732825,1.297709923664122,-1.0076335877862594,-0.0322265625,0.055419921875,-0.599853515625,0.7496999999999999
0.4732824427480916,1.450381679389313,-0.7175572519083969,-0.024658203125,0.05322265625,-0.598876953125,0.7514
0.5648854961832062,1.2671755725190839,-0.732824427480916,-0.02392578125,0.0498046875,-0.598388671875,0.7531
0.33587786259541985,1.251908396946565,-0.7022900763358778,-0.0234375,0.05322265625,-0.5966796875,0.7547999999999999
0.2595419847328244,1.282442748091603,-0.7633587786259542,-0.026611328125,0.05517578125,-0.60693359375,0.7565
0.3053435114503817,1.4045801526717556,-0.5954198473282443,-0.023681640625,0.0556640625,-0.604736328125,0.7582
0.4122137404580153,1.251908396946565,-0.6412213740458015,-0.020751953125,0.061279296875,-0.60009765625,0.7598999999999999
0.22900763358778625,1.2213740458015268,-0.9007633587786259,-0.02587890625,0.057373046875,-0.602783203125,0.7615999999999999
0.5038167938931297,1.0687022900763359,-0.9618320610687023,-0.0224609375,0.061279296875,-0.596923828125,0.7633
0.5343511450381679,0.9007633587786259,-0.8549618320610687,-0.0263671875,0.060546875,-0.607421875,0.7649999999999999
0.5954198473282443,0.6564885496183206,-0.7633587786259542,-0.024658203125,0.0595703125,-0.595947265625,0.7666999999999999
0.8854961832061069,0.5954198473282443,-0.9465648854961832,-0.019775390625,0.05810546875,-0.59423828125,0.7684
0.8702290076335878,0.549618320610687,-0.8549618320610687,-0.019287109375,0.06396484375,-0.59716796875,0.7701
1.0229007633587786,0.549618320610687,-1.083969465648855,-0.021484375,0.062255859375,-0.59912109375,0.7717999999999999
0.9618320610687023,0.5954198473282443,-1.083969465648855,-0.0234375,0.058349609375,-0.5986328125,0.7735
1.2366412213740459,0.5038167938931297,-0.9007633587786259,-0.02392578125,0.05859375,-0.59912109375,0.7752
1.6488549618320612,0.549618320610687,-1.0534351145038168,-0.0224609375,0.06396484375,-0.595458984375,0.7768999999999999
1.8015267175572518,0.3969465648854962,-1.2366412213740459,-0.0244140625,0.064208984375,-0.5986328125,0.7786
1.786259541984733,0.3816793893129771,-1.083969465648855,-0.0263671875,0.059814453125,-0.59912109375,0.7803
1.9694656488549618,0.3053435114503817,-0.9923664122137404,-0.02392578125,0.05712890625,-0.60498046875,0.7819999999999999
2.16793893129771,0.2748091603053435,-1.251908396946565,-0.025146484375,0.060546875,-0.598388671875,0.7837
2.519083969465649,0.07633587786259542,-1.1450381679389312,-0.024658203125,0.06005859375,-0.601806640625,0.7854
2.7786259541984735,0.1984732824427481,-1.0229007633587786,-0.02392578125,0.06494140625,-0.60498046875,0.7870999999999999
3.1603053435114505,0.22900763358778625,-1.1145038167938932,-0.03125,0.063720703125,-0.599365234375,0.7888
3.3282442748091605,0.12213740458015267,-0.9618320610687023,-0.026611328125,0.063232421875,-0.595458984375,0.7905
3.4656488549618323,0.4122137404580153,-1.0076335877862594,-0.028564453125,0.06005859375,-0.58837890625,0.7921999999999999
3.3740458015267176,0.3511450381679389,-1.1603053435114503,-0.03173828125,0.063232421875,-0.59326171875,0.7938999999999999
3.6030534351145036,0.3053435114503817,-0.8396946564885496,-0.031005859375,0.06396484375,-0.592529296875,0.7956
3.5114503816793894,0.4580152671755725,-0.916030534351145,-0.0322265625,0.0625,-0.59326171875,0.7973
3.404580152671756,0.4732824427480916,-0.8396946564885496,-0.029296875,0.0625,-0.595458984375,0.7989999999999999
2.9923664122137406,0.6412213740458015,-0.5648854961832062,-0.0283203125,0.064208984375,-0.605712890625,0.8007
2.854961832061069,0.5038167938931297,-0.6412213740458015,-0.03076171875,0.062744140625,-0.597900390625,0.8024
2.946564885496183,0.6259541984732825,-0.7938931297709924,-0.0322265625,0.06005859375,-0.595947265625,0.8040999999999999
2.595419847328244,0.5801526717557252,-0.8244274809160306,-0.03125,0.057861328125,-0.592041015625,0.8058
2.3206106870229006,0.8549618320610687,-0.8091603053435115,-0.035888671875,0.054931640625,-0.598876953125,0.8075
2.16793893129771,0.7633587786259542,-0.7480916030534351,-0.03662109375,0.05859375,-0.608154296875,0.8091999999999999
2.183206106870229,0.8396946564885496,-0.8091603053435115,-0.03515625,0.052001953125,-0.598876953125,0.8109
2.366412213740458,0.7633587786259542,-0.9465648854961832,-0.03955078125,0.0537109375,-0.599365234375,0.8126
1.984732824427481,0.9312977099236641,-1.0229007633587786,-0.035888671875,0.05419921875,-0.59619140625,0.8142999999999999
2.122137404580153,1.0687022900763359,-1.0076335877862594,-0.035888671875,0.053955078125,-0.60205078125,0.816
2.030534351145038,1.2213740458015268,-1.1908396946564885,-0.0419921875,0.05224609375,-0.611328125,0.8177
1.6793893129770991,1.2213740458015268,-1.4961832061068703,-0.037109375,0.05126953125,-0.60107421875,0.8193999999999999
1.465648854961832,1.0534351145038168,-1.4809160305343512,-0.03369140625,0.04833984375,-0.595947265625,0.8210999999999999
1.1450381679389312,1.450381679389313,-1.3435114503816794,-0.034423828125,0.0498046875,-0.597900390625,0.8228
1.1755725190839694,1.4809160305343512,-1.297709923664122,-0.03564453125,0.050537109375,-0.603759765625,0.8244999999999999
0.8244274809160306,1.633587786259542,-1.5572519083969465,-0.034912109375,0.049560546875,-0.598388671875,0.8261999999999999
0.13740458015267176,1.633587786259542,-1.4809160305343512,-0.03564453125,0.055908203125,-0.603271484375,0.8279
0.1984732824427481,1.7404580152671756,-1.633587786259542,-0.031982421875,0.0517578125,-0.60205078125,0.8296
-0.366412213740458,1.8473282442748091,-1.5419847328244274,-0.03369140625,0.053955078125,-0.598388671875,0.8312999999999999
-0.3969465648854962,1.786259541984733,-1.3435114503816794,-0.033447265625,0.058837890625,-0.592529296875,0.833
-0.21374045801526717,1.9389312977099236,-1.3587786259541985,-0.03662109375,0.054443359375,-0.59619140625,0.8347
-0.8549618320610687,2.16793893129771,-1.4961832061068703,-0.031494140625,0.058837890625,-0.60107421875,0.8363999999999999
-1.1603053435114503,2.122137404580153,-1.3740458015267176,-0.034912109375,0.061279296875,-0.59912109375,0.8381
-0.9770992366412213,2.213740458015267,-1.3740458015267176,-0.034423828125,0.056640625,-0.594970703125,0.8398
-0.732824427480916,2.198473282442748,-1.2213740458015268,-0.034423828125,0.057373046875,-0.603759765625,0.8414999999999999
-1.099236641221374,2.2290076335877864,-1.3587786259541985,-0.031982421875,0.056396484375,-0.606201171875,0.8432
-1.1603053435114503,2.2748091603053435,-1.1755725190839694,-0.034423828125,0.049560546875,-0.60205078125,0.8449
-1.083969465648855,2.2290076335877864,-1.0229007633587786,-0.032470703125,0.051513671875,-0.6005859375,0.8465999999999999
-1.0381679389312977,2.549618320610687,-1.0229007633587786,-0.0341796875,0.055419921875,-0.58984375,0.8482999999999999
-1.1755725190839694,2.5801526717557253,-1.297709923664122,-0.03271484375,0.058349609375,-0.588134765625,0.85
-1.0076335877862594,2.427480916030534,-1.2061068702290076,-0.0380859375,0.060791015625,-0.59765625,0.8516999999999999
-0.9923664122137404,2.4732824427480917,-1.4961832061068703,-0.03173828125,0.055419921875,-0.5927734375,0.8533999999999999
-1.2061068702290076,2.366412213740458,-1.297709923664122,-0.02978515625,0.05712890625,-0.602783203125,0.8551
-1.1603053435114503,2.5343511450381677,-1.618320610687023,-0.02978515625,0.0576171875,-0.60400390625,0.8568
-0.9007633587786259,2.3053435114503817,-1.5877862595419847,-0.025634765625,0.060546875,-0.606201171875,0.8584999999999999
-1.0076335877862594,2.2290076335877864,-1.6946564885496183,-0.031982421875,0.05615234375,-0.597900390625,0.8602
-1.282442748091603,2.2900763358778624,-1.5419847328244274,-0.030517578125,0.05517578125,-0.60400390625,0.8619
-1.282442748091603,2.50381679389313,-1.7251908396946565,-0.03271484375,0.052734375,-0.595703125,0.8635999999999999
-1.2213740458015268,2.519083969465649,-1.7251908396946565,-0.029052734375,0.061767578125,-0.59716796875,0.8653
-1.282442748091603,2.427480916030534,-1.83206106870229,-0.029541015625,0.064697265625,-0.59912109375,0.867
-1.3587786259541985,2.4885496183206106,-1.8473282442748091,-0.025146484375,0.062744140625,-0.597412109375,0.8686999999999999
-1.282442748091603,2.5801526717557253,-1.9541984732824427,-0.031982421875,0.062744140625,-0.598388671875,0.8704
-1.450381679389313,2.6106870229007635,-2.015267175572519,-0.029296875,0.06494140625,-0.59521484375,0.8721
-1.2061068702290076,2.4580152671755724,-2.0763358778625953,-0.0322265625,0.063720703125,-0.597412109375,0.8737999999999999
-1.4961832061068703,2.7480916030534353,-1.8625954198473282,-0.030029296875,0.0556640625,-0.595458984375,0.8755
-1.3435114503816794,2.732824427480916,-2.0763358778625953,-0.03076171875,0.068603515625,-0.59521484375,0.8772
-1.3282442748091603,2.50381679389313,-2.0916030534351147,-0.030517578125,0.063232421875,-0.60205078125,0.8788999999999999
-1.099236641221374,2.50381679389313,-2.16793893129771,-0.03466796875,0.064453125,-0.594970703125,0.8805999999999999
-0.9923664122137404,2.6259541984732824,-2.16793893129771,-0.03173828125,0.064208984375,-0.6005859375,0.8823
-0.7480916030534351,2.381679389312977,-2.1526717557251906,-0.028564453125,0.060546875,-0.599853515625,0.8839999999999999
-0.7175572519083969,2.4122137404580153,-1.9236641221374047,-0.03271484375,0.065185546875,-0.595947265625,0.8856999999999999
-0.5648854961832062,2.1374045801526718,-2.1068702290076335,-0.031494140625,0.064208984375,-0.5888671875,0.8874
-0.5190839694656488,2.0763358778625953,-1.9541984732824427,-0.025390625,0.0654296875,-0.591064453125,0.8891
-0.4122137404580153,2.0916030534351147,-1.83206106870229,-0.023681640625,0.0673828125,-0.600830078125,0.8907999999999999
-0.3511450381679389,2.0610687022900764,-1.8625954198473282,-0.02734375,0.070556640625,-0.594970703125,0.8925
-0.10687022900763359,2.0610687022900764,-2.198473282442748,-0.019287109375,0.06640625,-0.593994140625,0.8942
-0.10687022900763359,2.0916030534351147,-2.0,-0.026123046875,0.071044921875,-0.592041015625,0.8958999999999999
0.12213740458015267,2.0,-1.816793893129771,-0.0263671875,0.064453125,-0.606201171875,0.8976
0.0,1.8625954198473282,-1.9083969465648856,-0.024169921875,0.06591796875,-0.599365234375,0.8993
0.15267175572519084,1.984732824427481,-1.8778625954198473,-0.02685546875,0.05810546875,-0.60009765625,0.9009999999999999
0.12213740458015267,2.0610687022900764,-1.6488549618320612,-0.023193359375,0.064697265625,-0.593017578125,0.9027
0.24427480916030533,1.8015267175572518,-1.8931297709923665,-0.025634765625,0.06298828125,-0.6015625,0.9044
0.2595419847328244,1.8473282442748091,-1.6641221374045803,-0.02587890625,0.0595703125,-0.59912109375,0.9060999999999999
0.8549618320610687,1.8015267175572518,-1.9694656488549618,-0.02587890625,0.064697265625,-0.602294921875,0.9077999999999999
1.1450381679389312,1.633587786259542,-1.7404580152671756,-0.017333984375,0.062255859375,-0.595947265625,0.9095
1.083969465648855,1.633587786259542,-1.7099236641221374,-0.0263671875,0.0595703125,-0.588623046875,0.9111999999999999
1.251908396946565,1.5419847328244274,-1.3435114503816794,-0.02294921875,0.063232421875,-0.599609375,0.9128999999999999
1.8625954198473282,1.3129770992366412,-1.8015267175572518,-0.0224609375,0.06201171875,-0.595947265625,0.9146
2.015267175572519,1.2671755725190839,-1.4198473282442747,-0.0205078125,0.055908203125,-0.59130859375,0.9163
2.183206106870229,1.297709923664122,-1.4961832061068703,-0.02490234375,0.059326171875,-0.593994140625,0.9179999999999999
2.427480916030534,1.1450381679389312,-1.4198473282442747,-0.03076171875,0.058349609375,-0.5966796875,0.9197
2.5801526717557253,1.0076335877862594,-1.3435114503816794,-0.02490234375,0.059814453125,-0.592041015625,0.9214
2.732824427480916,0.8854961832061069,-1.3435114503816794,-0.024169921875,0.0595703125,-0.5888671875,0.9230999999999999
2.6259541984732824,0.8549618320610687,-1.3740458015267176,-0.02783203125,0.062744140625,-0.608154296875,0.9248
2.4885496183206106,0.732824427480916,-1.2061068702290076,-0.02197265625,0.060791015625,-0.592041015625,0.9265
2.7022900763358777,0.5954198473282443,-1.297709923664122,-0.02490234375,0.0546875,-0.586181640625,0.9281999999999999
2.50381679389313,0.48854961832061067,-0.916030534351145,-0.0244140625,0.059814453125,-0.6025390625,0.9299
2.1526717557251906,0.3969465648854962,-1.1145038167938932,-0.02587890625,0.061767578125,-0.599609375,0.9316
2.2442748091603053,0.2595419847328244,-1.0076335877862594,-0.023193359375,0.058837890625,-0.595458984375,0.9332999999999999
2.519083969465649,0.1984732824427481,-1.1603053435114503,-0.02734375,0.05224609375,-0.600830078125,0.9349999999999999
2.3053435114503817,0.10687022900763359,-0.9312977099236641,-0.0322265625,0.05712890625,-0.595703125,0.9367
2.564885496183206,0.183206106870229,-1.1450381679389312,-0.031005859375,0.05810546875,-0.5908203125,0.9383999999999999
2.549618320610687,0.2595419847328244,-1.0229007633587786,-0.0302734375,0.056396484375,-0.58544921875,0.9400999999999999
2.4580152671755724,0.07633587786259542,-0.9770992366412213,-0.02685546875,0.054443359375,-0.59423828125,0.9418
2.6564885496183206,0.183206106870229,-0.7938931297709924,-0.031982421875,0.055419921875,-0.60009765625,0.9434999999999999
2.9160305343511452,0.22900763358778625,-0.9312977099236641,-0.025634765625,0.048583984375,-0.593017578125,0.9451999999999999
2.6259541984732824,0.0916030534351145,-0.916030534351145,-0.032470703125,0.05419921875,-0.603759765625,0.9469
2.4580152671755724,0.22900763358778625,-0.9618320610687023,-0.028076171875,0.0546875,-0.5947265625,0.9486
2.4732824427480917,0.366412213740458,-0.9923664122137404,-0.03466796875,0.0576171875,-0.589111328125,0.9502999999999999
2.213740458015267,0.549618320610687,-0.9923664122137404,-0.027587890625,0.051513671875,-0.587890625,0.952
1.9083969465648856,0.4732824427480916,-0.9770992366412213,-0.023193359375,0.05224609375,-0.600341796875,0.9537
1.6488549618320612,0.366412213740458,-0.9312977099236641,-0.03564453125,0.05078125,-0.59423828125,0.9553999999999999
1.450381679389313,0.732824427480916,-1.1450381679389312,-0.0341796875,0.052490234375,-0.59423828125,0.9571
1.465648854961832,0.5190839694656488,-1.3587786259541985,-0.031982421875,0.056884765625,-0.591552734375,0.9588
1.450381679389313,0.7022900763358778,-1.297709923664122,-0.029052734375,0.052978515625,-0.59814453125,0.9604999999999999
0.916030534351145,0.7175572519083969,-1.3740458015267176,-0.034423828125,0.056884765625,-0.599365234375,0.9621999999999999
0.916030534351145,0.7175572519083969,-1.2671755725190839,-0.02734375,0.054931640625,-0.589111328125,0.9639
1.0076335877862594,1.099236641221374,-1.4809160305343512,-0.030517578125,0.056640625,-0.59521484375,0.9655999999999999
0.8396946564885496,0.8549618320610687,-1.5267175572519085,-0.0244140625,0.053955078125,-0.597412109375,0.9672999999999999
0.4580152671755725,0.7938931297709924,-1.7251908396946565,-0.02978515625,0.052734375,-0.590576171875,0.969
0.549618320610687,1.2213740458015268,-1.4045801526717556,-0.0263671875,0.054443359375,-0.597900390625,0.9706999999999999
0.2900763358778626,1.2213740458015268,-1.4198473282442747,-0.031982421875,0.054931640625,-0.58837890625,0.9723999999999999
0.04580152671755725,1.2366412213740459,-1.3435114503816794,-0.030029296875,0.05029296875,-0.593017578125,0.9741
-0.12213740458015267,1.297709923664122,-1.5877862595419847,-0.031494140625,0.061767578125,-0.593994140625,0.9758
0.030534351145038167,1.450381679389313,-1.4045801526717556,-0.02734375,0.057861328125,-0.6064453125,0.9774999999999999
0.22900763358778625,1.3893129770992367,-1.1603053435114503,-0.024169921875,0.0615234375,-0.60595703125,0.9792
-0.21374045801526717,1.618320610687023,-1.1603053435114503,-0.024169921875,0.061279296875,-0.594482421875,0.9809
-0.16793893129770993,1.7557251908396947,-1.4045801526717556,-0.024169921875,0.060546875,-0.58935546875,0.9825999999999999
0.0916030534351145,1.7099236641221374,-1.282442748091603,-0.02734375,0.05908203125,-0.597900390625,0.9843
0.22900763358778625,1.3587786259541985,-1.3740458015267176,-0.022216796875,0.064208984375,-0.59423828125,0.986
0.3816793893129771,1.633587786259542,-1.251908396946565,-0.02587890625,0.058837890625,-0.59326171875,0.9876999999999999
0.366412213740458,1.5877862595419847,-1.251908396946565,-0.023681640625,0.0625,-0.590087890625,0.9894
0.6259541984732825,1.3587786259541985,-1.1450381679389312,-0.021240234375,0.066162109375,-0.5908203125,0.9911
0.6870229007633588,1.3282442748091603,-1.3893129770992367,-0.02685546875,0.060791015625,-0.57666015625,0.9927999999999999
0.8396946564885496,1.465648854961832,-1.3740458015267176,-0.02685546875,0.060302734375,-0.58984375,0.9944999999999999
0.9618320610687023,1.297709923664122,-1.4809160305343512,-0.018798828125,0.062744140625,-0.592041015625,0.9962
0.9923664122137404,1.2366412213740459,-1.3282442748091603,-0.01806640625,0.062255859375,-0.591796875,0.9978999999999999
0.8244274809160306,1.282442748091603,-1.3129770992366412,-0.025390625,0.061279296875,-0.588623046875,0.9995999999999999
1.1603053435114503,1.1297709923664123,-1.450381679389313,-0.0224609375,0.064697265625,-0.593017578125,1.0012999999999999
1.251908396946565,1.099236641221374,-1.6488549618320612,-0.025146484375,0.065673828125,-0.59228515625,1.003
1.2213740458015268,1.1297709923664123,-1.5725190839694656,-0.02880859375,0.06103515625,-0.592041015625,1.0047
1.5114503816793894,1.3282442748091603,-1.5725190839694656,-0.0244140625,0.06005859375,-0.587646484375,1.0064
1.9083969465648856,1.2671755725190839,-1.6488549618320612,-0.021484375,0.058837890625,-0.585205078125,1.0081
1.7709923664122138,1.2671755725190839,-1.7557251908396947,-0.018798828125,0.06396484375,-0.5966796875,1.0098
1.5572519083969465,1.1297709923664123,-1.618320610687023,-0.026123046875,0.065673828125,-0.59375,1.0114999999999998
2.030534351145038,1.1603053435114503,-1.7557251908396947,-0.02880859375,0.064208984375,-0.595458984375,1.0131999999999999
2.50381679389313,1.282442748091603,-1.465648854961832,-0.022705078125,0.0625,-0.60205078125,1.0149
2.2595419847328246,1.2366412213740459,-1.6488549618320612,-0.024658203125,0.056396484375,-0.59619140625,1.0166
2.50381679389313,1.3587786259541985,-1.83206106870229,-0.03173828125,0.05224609375,-0.601318359375,1.0183
2.931297709923664,1.0687022900763359,-1.6793893129770991,-0.02294921875,0.058349609375,-0.603759765625,1.02
3.0381679389312977,0.8091603053435115,-1.633587786259542,-0.029541015625,0.056396484375,-0.589599609375,1.0217
3.0839694656488548,0.7786259541984732,-1.7251908396946565,-0.0234375,0.0556640625,-0.595703125,1.0233999999999999
3.068702290076336,0.9465648854961832,-1.7557251908396947,-0.0263671875,0.05908203125,-0.593017578125,1.0251
3.2061068702290076,0.7022900763358778,-1.8473282442748091,-0.027099609375,0.05126953125,-0.5849609375,1.0268
3.236641221374046,0.732824427480916,-1.8473282442748091,-0.02685546875,0.052490234375,-0.5927734375,1.0285
3.2519083969465647,0.42748091603053434,-2.045801526717557,-0.02294921875,0.053466796875,-0.587646484375,1.0302
2.9160305343511452,0.3969465648854962,-2.045801526717557,-0.02392578125,0.055908203125,-0.593017578125,1.0319
2.931297709923664,0.4732824427480916,-2.16793893129771,-0.026611328125,0.0498046875,-0.59033203125,1.0335999999999999
3.0076335877862594,0.32061068702290074,-2.122137404580153,-0.026611328125,0.052734375,-0.59423828125,1.0352999999999999
2.732824427480916,0.21374045801526717,-2.4122137404580153,-0.025634765625,0.055908203125,-0.59375,1.037
2.6106870229007635,0.2900763358778626,-2.519083969465649,-0.019775390625,0.053466796875,-0.591552734375,1.0387
2.519083969465649,0.21374045801526717,-2.3053435114503817,-0.02490234375,0.053466796875,-0.58642578125,1.0404
2.1068702290076335,0.33587786259541985,-2.4732824427480917,-0.024658203125,0.055419921875,-0.59619140625,1.0421
1.8625954198473282,0.44274809160305345,-2.549618320610687,-0.025146484375,0.0576171875,-0.603759765625,1.0437999999999998
1.9083969465648856,0.183206106870229,-2.717557251908397,-0.0244140625,0.056884765625,-0.5986328125,1.0454999999999999
1.5419847328244274,-0.04580152671755725,-2.6412213740458017,-0.02490234375,0.056640625,-0.596923828125,1.0472
1.3587786259541985,0.15267175572519084,-2.4122137404580153,-0.024658203125,0.054443359375,-0.5966796875,1.0489
1.297709923664122,0.07633587786259542,-2.7480916030534353,-0.029052734375,0.052001953125,-0.59814453125,1.0506
0.9312977099236641,0.12213740458015267,-2.732824427480916,-0.028076171875,0.057861328125,-0.5966796875,1.0523
0.8396946564885496,0.16793893129770993,-2.7480916030534353,-0.0205078125,0.05419921875,-0.5986328125,1.054
0.6412213740458015,0.2748091603053435,-2.6717557251908395,-0.025634765625,0.06005859375,-0.5888671875,1.0556999999999999
0.6106870229007634,0.1984732824427481,-2.4580152671755724,-0.02685546875,0.060302734375,-0.5927734375,1.0574
0.6259541984732825,0.183206106870229,-2.4885496183206106,-0.02490234375,0.05908203125,-0.59375,1.0591
0.6564885496183206,0.030534351145038167,-2.6564885496183206,-0.022705078125,0.054931640625,-0.60205078125,1.0608
0.5648854961832062,0.0,-2.4122137404580153,-0.0224609375,0.054931640625,-0.59814453125,1.0625
0.4580152671755725,0.16793893129770993,-2.2900763358778624,-0.02099609375,0.06103515625,-0.595703125,1.0642
0.44274809160305345,0.030534351145038167,-2.2595419847328246,-0.0234375,0.05810546875,-0.604248046875,1.0658999999999998
0.3511450381679389,0.04580152671755725,-2.2748091603053435,-0.017578125,0.06103515625,-0.5947265625,1.0675999999999999
0.3511450381679389,-0.015267175572519083,-2.183206106870229,-0.02001953125,0.0556640625,-0.59130859375,1.0693
0.24427480916030533,-0.061068702290076333,-2.3053435114503817,-0.02392578125,0.05859375,-0.59423828125,1.071
0.16793893129770993,-0.32061068702290074,-2.2442748091603053,-0.01904296875,0.06005859375,-0.597900390625,1.0727
-0.030534351145038167,-0.07633587786259542,-2.1374045801526718,-0.018310546875,0.056640625,-0.591796875,1.0744
0.183206106870229,-0.12213740458015267,-2.16793893129771,-0.023193359375,0.057861328125,-0.59716796875,1.0760999999999998
0.32061068702290074,-0.22900763358778625,-2.1068702290076335,-0.02587890625,0.06103515625,-0.59912109375,1.0777999999999999
0.183206106870229,-0.2595419847328244,-2.198473282442748,-0.0185546875,0.06005859375,-0.59130859375,1.0795
0.24427480916030533,-0.2595419847328244,-2.015267175572519,-0.021728515625,0.056640625,-0.60009765625,1.0812
0.44274809160305345,-0.42748091603053434,-2.213740458015267,-0.025634765625,0.0546875,-0.59619140625,1.0829
0.6717557251908397,-0.42748091603053434,-1.8625954198473282,-0.023681640625,0.059326171875,-0.591796875,1.0846
1.0076335877862594,-0.5038167938931297,-1.9541984732824427,-0.02197265625,0.054443359375,-0.59619140625,1.0863
1.3282442748091603,-0.549618320610687,-1.7099236641221374,-0.026611328125,0.055419921875,-0.59521484375,1.0879999999999999
1.4961832061068703,-0.4732824427480916,-1.8778625954198473,-0.028076171875,0.05615234375,-0.590576171875,1.0897
1.633587786259542,-0.5190839694656488,-1.6488549618320612,-0.02734375,0.0556640625,-0.5966796875,1.0914
1.786259541984733,-0.5801526717557252,-1.6946564885496183,-0.021728515625,0.058837890625,-0.5927734375,1.0931
1.6641221374045803,-0.44274809160305345,-1.6030534351145038,-0.030029296875,0.05615234375,-0.595947265625,1.0948
1.786259541984733,-0.5801526717557252,-1.6793893129770991,-0.0283203125,0.058349609375,-0.596435546875,1.0965
1.7557251908396947,-0.5801526717557252,-1.5877862595419847,-0.031005859375,0.05810546875,-0.595703125,1.0981999999999998
1.6641221374045803,-0.6106870229007634,-1.4961832061068703,-0.03369140625,0.059326171875,-0.601318359375,1.0998999999999999
1.816793893129771,-0.5343511450381679,-1.7099236641221374,-0.03173828125,0.057861328125,-0.592041015625,1.1016
1.7709923664122138,-0.5343511450381679,-1.8931297709923665,-0.0361328125,0.05517578125,-0.59228515625,1.1033
1.5267175572519085,-0.5343511450381679,-1.7099236641221374,-0.026611328125,0.064208984375,-0.594482421875,1.105
1.6488549618320612,-0.5190839694656488,-1.9236641221374047,-0.02978515625,0.063232421875,-0.599609375,1.1067
1.4809160305343512,-0.4580152671755725,-1.8473282442748091,-0.033447265625,0.0595703125,-0.59375,1.1083999999999998
1.633587786259542,-0.44274809160305345,-2.213740458015267,-0.035888671875,0.058837890625,-0.60791015625,1.1100999999999999
1.8625954198473282,-0.3969465648854962,-2.2595419847328246,-0.0322265625,0.0556640625,-0.596923828125,1.1118
1.7251908396946565,0.07633587786259542,-2.2900763358778624,-0.033447265625,0.057373046875,-0.596923828125,1.1135
1.5725190839694656,0.07633587786259542,-2.4427480916030535,-0.0341796875,0.05810546875,-0.592529296875,1.1152
1.633587786259542,-0.183206106870229,-2.7480916030534353,-0.03076171875,0.0634765625,-0.589111328125,1.1169
1.7557251908396947,0.15267175572519084,-2.595419847328244,-0.033203125,0.06396484375,-0.593017578125,1.1186
1.9236641221374047,0.42748091603053434,-2.9618320610687023,-0.036376953125,0.06005859375,-0.595947265625,1.1202999999999999
1.8473282442748091,0.21374045801526717,-2.946564885496183,-0.034912109375,0.06005859375,-0.59619140625,1.1219999999999999
1.8015267175572518,0.33587786259541985,-2.885496183206107,-0.031005859375,0.06103515625,-0.598876953125,1.1237
1.9694656488549618,0.3511450381679389,-3.0076335877862594,-0.032470703125,0.059814453125,-0.6025390625,1.1254
2.183206106870229,0.4122137404580153,-3.114503816793893,-0.031005859375,0.06884765625,-0.6044921875,1.1271
2.1374045801526718,0.6106870229007634,-3.0839694656488548,-0.0302734375,0.0654296875,-0.59765625,1.1288
2.030534351145038,0.6870229007633588,-2.9923664122137406,-0.030029296875,0.06982421875,-0.59521484375,1.1304999999999998
2.2748091603053435,0.549618320610687,-2.9770992366412212,-0.033203125,0.06884765625,-0.597412109375,1.1321999999999999
2.50381679389313,0.8396946564885496,-3.1908396946564888,-0.032470703125,0.071044921875,-0.59619140625,1.1339
2.5801526717557253,0.8244274809160306,-2.8702290076335877,-0.026611328125,0.06982421875,-0.598876953125,1.1356
2.6412213740458017,0.8702290076335878,-3.099236641221374,-0.028564453125,0.067626953125,-0.59375,1.1373
2.7480916030534353,0.8854961832061069,-3.053435114503817,-0.02490234375,0.0751953125,-0.592041015625,1.139
3.236641221374046,0.9770992366412213,-3.0076335877862594,-0.0234375,0.066650390625,-0.58935546875,1.1407
3.2519083969465647,1.0229007633587786,-2.8091603053435112,-0.02587890625,0.066162109375,-0.58837890625,1.1423999999999999
3.480916030534351,0.8396946564885496,-3.0381679389312977,-0.0205078125,0.065185546875,-0.595947265625,1.1441
3.5419847328244276,0.8244274809160306,-2.7480916030534353,-0.02294921875,0.071044921875,-0.59619140625,1.1458
3.5572519083969465,0.916030534351145,-2.717557251908397,-0.023193359375,0.069091796875,-0.60302734375,1.1475
3.6030534351145036,1.0687022900763359,-2.351145038167939,-0.029296875,0.06396484375,-0.601806640625,1.1492
3.480916030534351,1.0076335877862594,-2.4885496183206106,-0.026611328125,0.061767578125,-0.605224609375,1.1509
3.450381679389313,0.9312977099236641,-2.3206106870229006,-0.025634765625,0.06298828125,-0.602783203125,1.1525999999999998
3.282442748091603,0.8702290076335878,-2.3053435114503817,-0.02392578125,0.06005859375,-0.600830078125,1.1542999999999999
3.3893129770992365,1.0534351145038168,-1.984732824427481,-0.021728515625,0.063720703125,-0.603271484375,1.156
2.9770992366412212,0.9923664122137404,-2.0610687022900764,-0.0205078125,0.06005859375,-0.6015625,1.1577
2.854961832061069,0.9007633587786259,-1.8778625954198473,-0.022705078125,0.061279296875,-0.603515625,1.1594
2.717557251908397,0.9312977099236641,-1.9389312977099236,-0.02197265625,0.05419921875,-0.59423828125,1.1611
2.6717557251908395,0.8702290076335878,-1.7251908396946565,-0.0166015625,0.05712890625,-0.59912109375,1.1627999999999998
2.366412213740458,1.1755725190839694,-1.618320610687023,-0.025634765625,0.055908203125,-0.59375,1.1644999999999999
2.4427480916030535,1.0229007633587786,-1.5725190839694656,-0.0234375,0.0576171875,-0.5966796875,1.1662
2.0916030534351147,1.1603053435114503,-1.4809160305343512,-0.02490234375,0.05029296875,-0.595947265625,1.1679
1.9541984732824427,1.0381679389312977,-1.5267175572519085,-0.022705078125,0.055908203125,-0.597412109375,1.1696
1.9236641221374047,0.9465648854961832,-1.3282442748091603,-0.03271484375,0.054443359375,-0.601806640625,1.1713
1.6946564885496183,0.8549618320610687,-1.3129770992366412,-0.027099609375,0.05615234375,-0.605712890625,1.173
1.4045801526717556,0.8854961832061069,-1.1908396946564885,-0.026123046875,0.054443359375,-0.60009765625,1.1746999999999999
1.3587786259541985,0.6412213740458015,-1.1603053435114503,-0.02880859375,0.05322265625,-0.6015625,1.1764
0.9923664122137404,0.8549618320610687,-1.3587786259541985,-0.02197265625,0.0556640625,-0.60546875,1.1781
1.0687022900763359,0.7022900763358778,-1.0229007633587786,-0.02490234375,0.05322265625,-0.599609375,1.1798
0.8702290076335878,0.5648854961832062,-1.1755725190839694,-0.029296875,0.054931640625,-0.59912109375,1.1815
0.8244274809160306,0.5038167938931297,-0.9923664122137404,-0.0263671875,0.051025390625,-0.5947265625,1.1832
0.8702290076335878,0.6106870229007634,-1.0229007633587786,-0.02734375,0.0517578125,-0.60498046875,1.1848999999999998
1.0534351145038168,0.4122137404580153,-1.1297709923664123,-0.028564453125,0.055908203125,-0.60205078125,1.1865999999999999
0.3816793893129771,0.32061068702290074,-1.2213740458015268,-0.022705078125,0.05078125,-0.599365234375,1.1883
0.5038167938931297,0.22900763358778625,-1.1755725190839694,-0.032958984375,0.0556640625,-0.59375,1.19
0.5648854961832062,0.0916030534351145,-1.4809160305343512,-0.0302734375,0.05908203125,-0.596923828125,1.1917
0.33587786259541985,0.1984732824427481,-1.4198473282442747,-0.029296875,0.057861328125,-0.59619140625,1.1934
0.22900763358778625,0.07633587786259542,-1.5267175572519085,-0.029296875,0.053466796875,-0.605224609375,1.1950999999999998
0.16793893129770993,0.10687022900763359,-1.6793893129770991,-0.03125,0.055419921875,-0.607666015625,1.1967999999999999
0.1984732824427481,-0.10687022900763359,-1.6946564885496183,-0.02783203125,0.064453125,-0.609619140625,1.1985
-0.015267175572519083,0.10687022900763359,-1.816793893129771,-0.033203125,0.062255859375,-0.605712890625,1.2002
0.13740458015267176,-0.015267175572519083,-2.1526717557251906,-0.035400390625,0.06689453125,-0.60595703125,1.2019
-0.22900763358778625,-0.15267175572519084,-2.015267175572519,-0.0263671875,0.063232421875,-0.593505859375,1.2036
-0.12213740458015267,-0.15267175572519084,-2.122137404580153,-0.031982421875,0.068359375,-0.604736328125,1.2053
-0.33587786259541985,-0.1984732824427481,-2.2290076335877864,-0.024169921875,0.065185546875,-0.60302734375,1.2069999999999999
-0.183206106870229,-0.04580152671755725,-2.4427480916030535,-0.029296875,0.0703125,-0.607421875,1.2086999999999999
-0.2748091603053435,-0.07633587786259542,-2.3053435114503817,-0.026611328125,0.066650390625,-0.598876953125,1.2104
0.1984732824427481,0.04580152671755725,-2.427480916030534,-0.02392578125,0.065673828125,-0.609375,1.2121
0.16793893129770993,-0.030534351145038167,-2.549618320610687,-0.02783203125,0.06591796875,-0.60302734375,1.2138
0.183206106870229,-0.15267175572519084,-2.717557251908397,-0.02685546875,0.068359375,-0.6025390625,1.2155
0.4122137404580153,-0.15267175572519084,-2.732824427480916,-0.029541015625,0.072021484375,-0.60400390625,1.2171999999999998
0.9618320610687023,-0.21374045801526717,-2.9160305343511452,-0.03076171875,0.072509765625,-0.611572265625,1.2188999999999999
1.0229007633587786,-0.12213740458015267,-2.763358778625954,-0.03173828125,0.07421875,-0.59765625,1.2206
1.3282442748091603,-0.0916030534351145,-2.9618320610687023,-0.027099609375,0.076904296875,-0.60791015625,1.2223
1.618320610687023,-0.22900763358778625,-2.8244274809160306,-0.027099609375,0.073486328125,-0.60107421875,1.224
2.030534351145038,-0.10687022900763359,-2.931297709923664,-0.034912109375,0.07421875,-0.605712890625,1.2257
2.213740458015267,-0.10687022900763359,-2.9923664122137406,-0.029052734375,0.078125,-0.60107421875,1.2273999999999998
2.549618320610687,0.04580152671755725,-2.946564885496183,-0.032470703125,0.0751953125,-0.60498046875,1.2290999999999999
3.0839694656488548,0.10687022900763359,-3.0381679389312977,-0.02783203125,0.0703125,-0.604736328125,1.2308
3.1755725190839694,-0.030534351145038167,-3.1755725190839694,-0.028564453125,0.073974609375,-0.603759765625,1.2325
3.3282442748091605,0.1984732824427481,-3.3740458015267176,-0.033203125,0.073486328125,-0.60009765625,1.2342
3.2213740458015265,0.015267175572519083,-3.0229007633587788,-0.030029296875,0.0732421875,-0.59912109375,1.2359
3.5267175572519083,0.21374045801526717,-3.1603053435114505,-0.033203125,0.071044921875,-0.607421875,1.2376
3.5114503816793894,0.48854961832061067,-2.9770992366412212,-0.03369140625,0.0703125,-0.605224609375,1.2392999999999998
3.6030534351145036,0.5343511450381679,-2.9618320610687023,-0.035400390625,0.066650390625,-0.60107421875,1.2409999999999999
3.633587786259542,0.5801526717557252,-3.1297709923664123,-0.03515625,0.066162109375,-0.600341796875,1.2427
3.312977099236641,0.9007633587786259,-3.099236641221374,-0.03759765625,0.063232421875,-0.603759765625,1.2444
3.145038167938931,0.732824427480916,-2.946564885496183,-0.03515625,0.057861328125,-0.608154296875,1.2461
3.0381679389312977,0.7633587786259542,-3.1297709923664123,-0.033203125,0.0576171875,-0.6005859375,1.2478
3.114503816793893,0.8702290076335878,-2.931297709923664,-0.033447265625,0.058837890625,-0.598876953125,1.2494999999999998
2.5343511450381677,1.1297709923664123,-3.145038167938931,-0.032470703125,0.05712890625,-0.606201171875,1.2511999999999999
1.984732824427481,1.297709923664122,-2.9923664122137406,-0.037841796875,0.054931640625,-0.6025390625,1.2529
1.7404580152671756,1.0076335877862594,-3.1297709923664123,-0.035400390625,0.054931640625,-0.59619140625,1.2546
1.5572519083969465,1.1450381679389312,-3.0076335877862594,-0.033935546875,0.05029296875,-0.607177734375,1.2563
0.8244274809160306,1.3129770992366412,-3.0076335877862594,-0.0302734375,0.0498046875,-0.60009765625,1.258
0.33587786259541985,1.465648854961832,-2.9160305343511452,-0.033935546875,0.05078125,-0.604248046875,1.2596999999999998
0.13740458015267176,1.2671755725190839,-3.0839694656488548,-0.03759765625,0.053466796875,-0.60595703125,1.2613999999999999
-0.7175572519083969,1.3587786259541985,-3.0381679389312977,-0.0302734375,0.05078125,-0.60302734375,1.2631
-0.916030534351145,1.6030534351145038,-3.145038167938931,-0.03271484375,0.048583984375,-0.60693359375,1.2648
-1.297709923664122,1.465648854961832,-3.0076335877862594,-0.03662109375,0.049560546875,-0.593505859375,1.2665
-1.618320610687023,1.5419847328244274,-3.1297709923664123,-0.033447265625,0.048828125,-0.603271484375,1.2682
-2.030534351145038,1.5419847328244274,-3.0229007633587788,-0.038330078125,0.051025390625,-0.598388671875,1.2699
-2.2748091603053435,1.5419847328244274,-3.1908396946564888,-0.03662109375,0.049560546875,-0.599609375,1.2715999999999998
-2.885496183206107,1.6030534351145038,-3.068702290076336,-0.03369140625,0.05126953125,-0.5986328125,1.2732999999999999
-3.053435114503817,1.5877862595419847,-3.2213740458015265,-0.029541015625,0.054443359375,-0.59912109375,1.275
-2.9923664122137406,1.450381679389313,-3.053435114503817,-0.03271484375,0.05615234375,-0.6064453125,1.2767
-2.900763358778626,1.4198473282442747,-3.0381679389312977,-0.0322265625,0.05078125,-0.585205078125,1.2784
-3.1755725190839694,1.5572519083969465,-2.885496183206107,-0.031982421875,0.0546875,-0.595947265625,1.2801
-3.1603053435114505,1.3893129770992367,-3.099236641221374,-0.03076171875,0.057861328125,-0.598876953125,1.2817999999999998
-3.114503816793893,1.465648854961832,-2.8396946564885495,-0.032958984375,0.06201171875,-0.5986328125,1.2834999999999999
-3.0076335877862594,1.5572519083969465,-2.9160305343511452,-0.034912109375,0.0615234375,-0.6005859375,1.2852
-3.267175572519084,1.297709923664122,-2.763358778625954,-0.028076171875,0.058837890625,-0.593994140625,1.2869
-2.9923664122137406,1.7404580152671756,-2.732824427480916,-0.028564453125,0.05859375,-0.601806640625,1.2886
-3.053435114503817,1.618320610687023,-2.6259541984732824,-0.034423828125,0.063232421875,-0.604736328125,1.2903
-3.1603053435114505,1.633587786259542,-2.7480916030534353,-0.02978515625,0.064453125,-0.6005859375,1.292
-3.312977099236641,1.7709923664122138,-2.6564885496183206,-0.0361328125,0.0634765625,-0.60693359375,1.2936999999999999
-2.9618320610687023,1.6793893129770991,-2.6564885496183206,-0.02734375,0.065185546875,-0.59765625,1.2953999999999999
-2.900763358778626,1.83206106870229,-2.732824427480916,-0.02587890625,0.065185546875,-0.593505859375,1.2971
-2.8091603053435112,1.7251908396946565,-2.8396946564885495,-0.03564453125,0.0693359375,-0.606689453125,1.2988
-2.763358778625954,1.8778625954198473,-2.8396946564885495,-0.02685546875,0.06884765625,-0.59814453125,1.3005
-2.4427480916030535,1.7251908396946565,-2.9160305343511452,-0.0263671875,0.063720703125,-0.599365234375,1.3022
-2.198473282442748,1.6946564885496183,-2.854961832061069,-0.032958984375,0.068359375,-0.600830078125,1.3038999999999998
-1.5725190839694656,1.6641221374045803,-2.8244274809160306,-0.027587890625,0.072509765625,-0.60107421875,1.3055999999999999
-1.0229007633587786,1.5267175572519085,-2.931297709923664,-0.034423828125,0.0703125,-0.59814453125,1.3073
-0.9465648854961832,1.633587786259542,-3.0839694656488548,-0.02783203125,0.072509765625,-0.5986328125,1.309
-0.5648854961832062,1.4351145038167938,-2.900763358778626,-0.030029296875,0.076416015625,-0.60107421875,1.3107
0.07633587786259542,1.1908396946564885,-2.900763358778626,-0.025634765625,0.06689453125,-0.597900390625,1.3124
0.12213740458015267,1.4809160305343512,-2.885496183206107,-0.028564453125,0.076904296875,-0.59521484375,1.3140999999999998
0.44274809160305345,1.1755725190839694,-2.8396946564885495,-0.0244140625,0.0771484375,-0.594970703125,1.3157999999999999
0.732824427480916,1.3129770992366412,-2.6564885496183206,-0.02783203125,0.069091796875,-0.59375,1.3175
0.8854961832061069,1.3587786259541985,-2.6106870229007635,-0.028564453125,0.071533203125,-0.592041015625,1.3192
1.1297709923664123,1.4198473282442747,-2.6564885496183206,-0.03125,0.07275390625,-0.595458984375,1.3209
0.916030534351145,1.4198473282442747,-2.4732824427480917,-0.031005859375,0.072509765625,-0.600341796875,1.3226
1.282442748091603,1.4351145038167938,-2.50381679389313,-0.03173828125,0.071533203125,-0.596435546875,1.3243
1.4045801526717556,1.618320610687023,-2.4580152671755724,-0.033203125,0.0732421875,-0.600830078125,1.3259999999999998
1.2366412213740459,1.6641221374045803,-2.198473282442748,-0.03271484375,0.06982421875,-0.59619140625,1.3276999999999999
1.4351145038167938,1.6641221374045803,-2.213740458015267,-0.03564453125,0.0673828125,-0.594970703125,1.3294
1.465648854961832,1.8778625954198473,-2.1374045801526718,-0.0341796875,0.069091796875,-0.598388671875,1.3311
1.8625954198473282,2.1068702290076335,-2.0916030534351147,-0.032470703125,0.0634765625,-0.5986328125,1.3328
1.816793893129771,2.198473282442748,-2.015267175572519,-0.037841796875,0.065185546875,-0.600830078125,1.3345
2.0916030534351147,2.381679389312977,-2.0610687022900764,-0.037353515625,0.05908203125,-0.59619140625,1.3361999999999998
2.3053435114503817,2.2290076335877864,-1.9236641221374047,-0.033203125,0.066162109375,-0.599853515625,1.3378999999999999
2.198473282442748,2.33587786259542,-1.9083969465648856,-0.03271484375,0.06787109375,-0.593017578125,1.3396
2.3053435114503817,2.687022900763359,-2.0763358778625953,-0.033203125,0.063720703125,-0.59423828125,1.3413
2.045801526717557,2.885496183206107,-2.0763358778625953,-0.035400390625,0.0546875,-0.6025390625,1.343
2.16793893129771,2.854961832061069,-1.7251908396946565,-0.031982421875,0.05615234375,-0.60205078125,1.3447
1.8931297709923665,3.068702290076336,-1.9694656488549618,-0.037841796875,0.061279296875,-0.59521484375,1.3463999999999998
1.83206106870229,3.0229007633587788,-1.7557251908396947,-0.0322265625,0.0576171875,-0.59619140625,1.3480999999999999
1.5725190839694656,2.931297709923664,-1.7709923664122138,-0.032470703125,0.057373046875,-0.587646484375,1.3497999999999999
1.5114503816793894,2.931297709923664,-1.8473282442748091,-0.034423828125,0.059326171875,-0.598388671875,1.3515
1.3740458015267176,3.053435114503817,-1.7557251908396947,-0.030517578125,0.053466796875,-0.59619140625,1.3532
0.916030534351145,3.0839694656488548,-1.5572519083969465,-0.03173828125,0.05419921875,-0.59326171875,1.3549
0.8854961832061069,3.2061068702290076,-1.5572519083969465,-0.032470703125,0.059326171875,-0.597412109375,1.3566
0.7022900763358778,3.2519083969465647,-1.465648854961832,-0.03125,0.05712890625,-0.5927734375,1.3582999999999998
0.4122137404580153,3.1755725190839694,-1.1297709923664123,-0.029296875,0.056640625,-0.595947265625,1.3599999999999999
0.2595419847328244,3.236641221374046,-1.1297709923664123,-0.0302734375,0.06298828125,-0.591796875,1.3617
-0.0916030534351145,3.3587786259541983,-1.3587786259541985,-0.030517578125,0.061767578125,-0.592041015625,1.3634
-0.1984732824427481,3.2977099236641223,-0.9618320610687023,-0.02685546875,0.064208984375,-0.5947265625,1.3651
-0.030534351145038167,3.3740458015267176,-0.8244274809160306,-0.03466796875,0.06201171875,-0.59375,1.3668
-0.4732824427480916,3.6030534351145036,-0.6717557251908397,-0.028076171875,0.05908203125,-0.588623046875,1.3684999999999998
-0.44274809160305345,3.6946564885496183,-0.5190839694656488,-0.03125,0.054443359375,-0.5888671875,1.3701999999999999
-0.549618320610687,3.66412213740458,-0.5648854961832062,-0.030517578125,0.05517578125,-0.599365234375,1.3719
-0.366412213740458,3.4656488549618323,-0.4122137404580153,-0.028076171875,0.06005859375,-0.59716796875,1.3736
-0.5343511450381679,3.6793893129770994,-0.07633587786259542,-0.02734375,0.059326171875,-0.602294921875,1.3753
-0.6259541984732825,3.6030534351145036,-0.13740458015267176,-0.02685546875,0.0595703125,-0.595458984375,1.377
-0.6106870229007634,3.816793893129771,-0.10687022900763359,-0.027099609375,0.055419921875,-0.597412109375,1.3786999999999998
-0.48854961832061067,3.8473282442748094,-0.04580152671755725,-0.029541015625,0.05908203125,-0.595458984375,1.3803999999999998
-0.015267175572519083,3.7251908396946565,-0.030534351145038167,-0.027587890625,0.063720703125,-0.603515625,1.3820999999999999
-0.061068702290076333,3.49618320610687,-0.015267175572519083,-0.027587890625,0.061279296875,-0.592529296875,1.3838
0.15267175572519084,3.5877862595419847,0.42748091603053434,-0.0234375,0.063232421875,-0.598388671875,1.3855
0.5343511450381679,3.7557251908396947,0.015267175572519083,-0.02685546875,0.060791015625,-0.595703125,1.3872
0.549618320610687,3.618320610687023,0.16793893129770993,-0.029296875,0.063232421875,-0.59423828125,1.3889
1.099236641221374,3.5877862595419847,0.3511450381679389,-0.03564453125,0.061767578125,-0.591064453125,1.3905999999999998
1.4198473282442747,3.4656488549618323,0.4580152671755725,-0.030029296875,0.06640625,-0.586669921875,1.3922999999999999
1.5725190839694656,3.4198473282442747,0.22900763358778625,-0.031982421875,0.068115234375,-0.595947265625,1.394
1.5267175572519085,3.480916030534351,0.2900763358778626,-0.02880859375,0.06689453125,-0.597412109375,1.3957
1.8778625954198473,3.5267175572519083,0.3511450381679389,-0.03271484375,0.07177734375,-0.6025390625,1.3974
1.9236641221374047,3.4656488549618323,0.44274809160305345,-0.028076171875,0.071533203125,-0.59423828125,1.3991
1.9694656488549618,3.7709923664122136,0.44274809160305345,-0.031982421875,0.066650390625,-0.598876953125,1.4007999999999998
2.0763358778625953,3.7557251908396947,0.6564885496183206,-0.027587890625,0.0712890625,-0.5859375,1.4024999999999999
2.213740458015267,3.801526717557252,0.5038167938931297,-0.033447265625,0.07275390625,-0.5908203125,1.4042
2.351145038167939,4.0458015267175576,0.6564885496183206,-0.029296875,0.064453125,-0.592041015625,1.4059
2.6259541984732824,4.030534351145038,0.5648854961832062,-0.030517578125,0.064697265625,-0.58544921875,1.4076
2.763358778625954,4.244274809160306,0.7786259541984732,-0.03076171875,0.065185546875,-0.59619140625,1.4093
3.1755725190839694,4.152671755725191,0.7633587786259542,-0.03515625,0.061767578125,-0.602783203125,1.411
3.1755725190839694,4.351145038167939,0.7022900763358778,-0.03564453125,0.066162109375,-0.600341796875,1.4126999999999998
3.404580152671756,4.564885496183206,0.8091603053435115,-0.036376953125,0.063232421875,-0.599365234375,1.4143999999999999
3.633587786259542,4.6106870229007635,0.8396946564885496,-0.029052734375,0.062744140625,-0.58837890625,1.4161
3.450381679389313,4.656488549618321,0.6717557251908397,-0.0322265625,0.059326171875,-0.58837890625,1.4178
3.572519083969466,4.778625954198473,1.0076335877862594,-0.03515625,0.061767578125,-0.60205078125,1.4195
3.6030534351145036,4.656488549618321,0.9312977099236641,-0.028076171875,0.056640625,-0.59521484375,1.4212
3.4656488549618323,4.824427480916031,1.0076335877862594,-0.03369140625,0.0595703125,-0.60107421875,1.4228999999999998
3.572519083969466,4.641221374045801,0.7175572519083969,-0.031005859375,0.059814453125,-0.60302734375,1.4245999999999999
3.572519083969466,4.778625954198473,0.7175572519083969,-0.025634765625,0.0615234375,-0.599609375,1.4263
3.0381679389312977,4.793893129770993,0.6564885496183206,-0.0322265625,0.053466796875,-0.595458984375,1.428
2.595419847328244,4.778625954198473,0.8244274809160306,-0.0322265625,0.05517578125,-0.597900390625,1.4297
2.7786259541984735,5.038167938931298,0.6564885496183206,-0.028564453125,0.053955078125,-0.598876953125,1.4314
2.519083969465649,4.67175572519084,0.549618320610687,-0.028564453125,0.052490234375,-0.6025390625,1.4330999999999998
2.2442748091603053,4.427480916030534,0.5801526717557252,-0.026611328125,0.0576171875,-0.592041015625,1.4347999999999999
2.0763358778625953,4.473282442748092,0.3969465648854962,-0.02685546875,0.054931640625,-0.59765625,1.4364999999999999
2.0916030534351147,4.3816793893129775,0.2900763358778626,-0.025634765625,0.0537109375,-0.600830078125,1.4382
1.6793893129770991,4.488549618320611,0.24427480916030533,-0.02490234375,0.056396484375,-0.602294921875,1.4399
1.7099236641221374,4.122137404580153,0.21374045801526717,-0.022216796875,0.053466796875,-0.6005859375,1.4416
1.3893129770992367,3.9083969465648853,-0.1984732824427481,-0.020751953125,0.054931640625,-0.59912109375,1.4433
1.6030534351145038,3.801526717557252,-0.2900763358778626,-0.023681640625,0.061767578125,-0.59619140625,1.4449999999999998
1.1908396946564885,3.5114503816793894,-0.1984732824427481,-0.02197265625,0.060546875,-0.59228515625,1.4466999999999999
1.099236641221374,3.83206106870229,-0.15267175572519084,-0.028076171875,0.060302734375,-0.60302734375,1.4484
1.0229007633587786,3.4198473282442747,-0.10687022900763359,-0.023193359375,0.05615234375,-0.600830078125,1.4501
0.8396946564885496,3.282442748091603,-0.13740458015267176,-0.023193359375,0.065185546875,-0.604248046875,1.4518
0.5954198473282443,3.3435114503816794,-0.15267175572519084,-0.023681640625,0.062744140625,-0.60009765625,1.4535
0.33587786259541985,3.0076335877862594,-0.16793893129770993,-0.0205078125,0.06396484375,-0.595947265625,1.4551999999999998
0.24427480916030533,3.2213740458015265,0.015267175572519083,-0.02587890625,0.065185546875,-0.586181640625,1.4568999999999999
0.1984732824427481,3.1755725190839694,0.015267175572519083,-0.026123046875,0.06591796875,-0.583740234375,1.4586
-0.0916030534351145,3.068702290076336,0.030534351145038167,-0.0185546875,0.066650390625,-0.589599609375,1.4603
0.10687022900763359,3.0076335877862594,-0.0916030534351145,-0.0244140625,0.063720703125,-0.59228515625,1.462
-0.12213740458015267,2.7480916030534353,0.15267175572519084,-0.022216796875,0.06396484375,-0.597412109375,1.4637
-0.3816793893129771,2.6564885496183206,0.015267175572519083,-0.021240234375,0.061767578125,-0.59326171875,1.4653999999999998
-0.3816793893129771,2.564885496183206,-0.04580152671755725,-0.01708984375,0.0654296875,-0.5966796875,1.4670999999999998
-0.061068702290076333,2.3206106870229006,-0.16793893129770993,-0.023193359375,0.060302734375,-0.59912109375,1.4687999999999999
0.2748091603053435,2.213740458015267,-0.2748091603053435,-0.025146484375,0.0634765625,-0.602294921875,1.4705
0.32061068702290074,1.9541984732824427,-0.3053435114503817,-0.021240234375,0.06005859375,-0.597412109375,1.4722
0.549618320610687,1.6641221374045803,-0.4732824427480916,-0.0224609375,0.063232421875,-0.5966796875,1.4739
0.7938931297709924,1.618320610687023,-0.5343511450381679,-0.0224609375,0.06005859375,-0.591552734375,1.4756
0.8091603053435115,1.5267175572519085,-0.6412213740458015,-0.021484375,0.064208984375,-0.596923828125,1.4772999999999998
0.916030534351145,1.3435114503816794,-0.7633587786259542,-0.0244140625,0.062255859375,-0.603759765625,1.4789999999999999
1.0381679389312977,1.099236641221374,-0.8702290076335878,-0.02197265625,0.06787109375,-0.59033203125,1.4807
1.2671755725190839,1.251908396946565,-1.0076335877862594,-0.02587890625,0.0693359375,-0.58642578125,1.4824
1.3129770992366412,1.1450381679389312,-1.1145038167938932,-0.02197265625,0.067138671875,-0.590576171875,1.4841
1.083969465648855,1.0687022900763359,-1.083969465648855,-0.01953125,0.068359375,-0.587158203125,1.4858
1.0534351145038168,1.0534351145038168,-1.099236641221374,-0.021240234375,0.063720703125,-0.595947265625,1.4874999999999998
1.1145038167938932,1.0534351145038168,-1.0687022900763359,-0.022705078125,0.0634765625,-0.588623046875,1.4891999999999999
0.9465648854961832,1.0381679389312977,-1.1145038167938932,-0.0234375,0.0673828125,-0.58349609375,1.4909
0.8091603053435115,0.9923664122137404,-1.2061068702290076,-0.027587890625,0.065673828125,-0.585205078125,1.4926
1.1145038167938932,0.8396946564885496,-1.3282442748091603,-0.024169921875,0.063720703125,-0.57861328125,1.4943
1.1603053435114503,0.8702290076335878,-1.251908396946565,-0.029052734375,0.0576171875,-0.590576171875,1.496
1.1297709923664123,0.7938931297709924,-1.1603053435114503,-0.030029296875,0.05908203125,-0.59326171875,1.4976999999999998
1.1145038167938932,0.9770992366412213,-1.1908396946564885,-0.0283203125,0.06201171875,-0.592041015625,1.4993999999999998
1.4045801526717556,0.8244274809160306,-1.282442748091603,-0.029296875,0.05810546875,-0.59130859375,1.5010999999999999
1.7251908396946565,0.9007633587786259,-1.2213740458015268,-0.026611328125,0.057373046875,-0.595703125,1.5028
1.7557251908396947,0.916030534351145,-0.9923664122137404,-0.02978515625,0.058349609375,-0.59375,1.5045
1.7404580152671756,0.9465648854961832,-1.0687022900763359,-0.027587890625,0.057861328125,-0.592529296875,1.5062
1.8931297709923665,0.9618320610687023,-1.3129770992366412,-0.027587890625,0.052490234375,-0.60009765625,1.5079
1.7251908396946565,0.8702290076335878,-0.9923664122137404,-0.031494140625,0.05517578125,-0.60546875,1.5095999999999998
1.618320610687023,0.7480916030534351,-0.9007633587786259,-0.02880859375,0.05712890625,-0.593994140625,1.5112999999999999
1.3435114503816794,0.7175572519083969,-1.0687022900763359,-0.031982421875,0.052490234375,-0.595458984375,1.513
1.3587786259541985,0.5190839694656488,-1.2213740458015268,-0.032470703125,0.054931640625,-0.59619140625,1.5147
1.2213740458015268,0.3511450381679389,-1.1603053435114503,-0.029541015625,0.051025390625,-0.5888671875,1.5164
1.1603053435114503,0.48854961832061067,-1.5267175572519085,-0.027587890625,0.049560546875,-0.5869140625,1.5181
1.099236641221374,0.2900763358778626,-1.2366412213740459,-0.030029296875,0.05078125,-0.591552734375,1.5197999999999998
0.7786259541984732,0.10687022900763359,-1.3129770992366412,-0.029296875,0.04638671875,-0.59375,1.5214999999999999
1.0381679389312977,-0.07633587786259542,-1.4198473282442747,-0.02685546875,0.057861328125,-0.588623046875,1.5231999999999999
0.8702290076335878,-0.13740458015267176,-1.5877862595419847,-0.03271484375,0.0498046875,-0.593505859375,1.5249
0.7175572519083969,-0.2595419847328244,-1.8015267175572518,-0.0283203125,0.050537109375,-0.599853515625,1.5266
0.5648854961832062,-0.3816793893129771,-1.786259541984733,-0.0263671875,0.05419921875,-0.599853515625,1.5283
0.32061068702290074,-0.13740458015267176,-1.786259541984733,-0.024169921875,0.052001953125,-0.596435546875,1.5299999999999998
0.48854961832061067,-0.4122137404580153,-2.015267175572519,-0.022705078125,0.057373046875,-0.5947265625,1.5316999999999998
0.10687022900763359,-0.48854961832061067,-2.0,-0.025390625,0.0537109375,-0.596923828125,1.5333999999999999
-0.22900763358778625,-0.732824427480916,-1.8931297709923665,-0.022216796875,0.053466796875,-0.60009765625,1.5351
-0.42748091603053434,-0.9007633587786259,-2.015267175572519,-0.0234375,0.05224609375,-0.593505859375,1.5368
-0.48854961832061067,-0.8244274809160306,-2.366412213740458,-0.02197265625,0.05810546875,-0.594482421875,1.5385
-0.8244274809160306,-0.8091603053435115,-2.183206106870229,-0.0234375,0.064453125,-0.591552734375,1.5402
-0.9465648854961832,-0.8854961832061069,-2.0763358778625953,-0.024169921875,0.06201171875,-0.596923828125,1.5418999999999998
-0.7938931297709924,-0.9618320610687023,-2.0916030534351147,-0.020751953125,0.06396484375,-0.602783203125,1.5435999999999999
-0.8091603053435115,-1.1603053435114503,-1.9236641221374047,-0.01904296875,0.06396484375,-0.584228515625,1.5453
-0.8702290076335878,-1.3740458015267176,-1.984732824427481,-0.0205078125,0.06201171875,-0.590087890625,1.547
-0.732824427480916,-1.282442748091603,-2.1068702290076335,-0.02197265625,0.062744140625,-0.5908203125,1.5487
-0.5343511450381679,-1.282442748091603,-2.1374045801526718,-0.021484375,0.068359375,-0.589599609375,1.5504
-0.6412213740458015,-1.465648854961832,-2.2442748091603053,-0.0244140625,0.068359375,-0.5908203125,1.5520999999999998
-0.32061068702290074,-1.6946564885496183,-2.381679389312977,-0.02392578125,0.068603515625,-0.591796875,1.5537999999999998
-0.1984732824427481,-1.5419847328244274,-2.381679389312977,-0.024658203125,0.064697265625,-0.590576171875,1.5554999999999999
-0.15267175572519084,-1.450381679389313,-2.183206106870229,-0.025146484375,0.067138671875,-0.5986328125,1.5572
0.2595419847328244,-1.4351145038167938,-2.4885496183206106,-0.0263671875,0.0654296875,-0.59912109375,1.5589
-0.015267175572519083,-1.4809160305343512,-2.351145038167939,-0.0302734375,0.07421875,-0.593505859375,1.5606
0.3816793893129771,-1.5267175572519085,-2.213740458015267,-0.0224609375,0.068603515625,-0.59716796875,1.5623
0.5343511450381679,-1.465648854961832,-2.3206106870229006,-0.026611328125,0.06591796875,-0.5947265625,1.5639999999999998
0.6259541984732825,-1.6030534351145038,-2.564885496183206,-0.029052734375,0.066650390625,-0.59228515625,1.5656999999999999
1.1145038167938932,-1.5267175572519085,-2.4885496183206106,-0.025390625,0.0654296875,-0.591796875,1.5674
1.099236641221374,-1.4351145038167938,-2.2595419847328246,-0.03271484375,0.0673828125,-0.599853515625,1.5691
1.6030534351145038,-1.2061068702290076,-2.16793893129771,-0.032470703125,0.06982421875,-0.596923828125,1.5708
1.7709923664122138,-1.2213740458015268,-2.381679389312977,-0.031005859375,0.067138671875,-0.597412109375,1.5725
2.122137404580153,-1.3129770992366412,-2.3206106870229006,-0.03466796875,0.066650390625,-0.599609375,1.5741999999999998
2.2290076335877864,-1.0381679389312977,-2.2290076335877864,-0.031005859375,0.066162109375,-0.58984375,1.5758999999999999
2.122137404580153,-0.9618320610687023,-2.122137404580153,-0.023193359375,0.060546875,-0.59228515625,1.5776
1.9389312977099236,-0.7938931297709924,-2.2595419847328246,-0.024169921875,0.064208984375,-0.60009765625,1.5793
2.3969465648854964,-0.7175572519083969,-2.045801526717557,-0.025634765625,0.066162109375,-0.59619140625,1.581
2.2900763358778624,-0.6106870229007634,-1.8931297709923665,-0.02685546875,0.066650390625,-0.597412109375,1.5827
2.198473282442748,-0.6717557251908397,-1.9083969465648856,-0.0263671875,0.060791015625,-0.59423828125,1.5843999999999998
2.6106870229007635,-0.6564885496183206,-2.0610687022900764,-0.029296875,0.063232421875,-0.5947265625,1.5860999999999998
2.366412213740458,-0.3816793893129771,-2.122137404580153,-0.03173828125,0.05810546875,-0.59521484375,1.5877999999999999
2.6412213740458017,-0.2900763358778626,-2.1526717557251906,-0.022216796875,0.057861328125,-0.589599609375,1.5895
2.549618320610687,-0.22900763358778625,-1.8931297709923665,-0.029052734375,0.056640625,-0.595703125,1.5912
2.519083969465649,-0.16793893129770993,-1.9389312977099236,-0.027099609375,0.056396484375,-0.593017578125,1.5929
2.885496183206107,-0.04580152671755725,-1.9694656488549618,-0.02294921875,0.05419921875,-0.59619140625,1.5946
2.885496183206107,0.030534351145038167,-1.9541984732824427,-0.026123046875,0.054443359375,-0.597900390625,1.5962999999999998
2.5343511450381677,0.04580152671755725,-1.786259541984733,-0.028076171875,0.053466796875,-0.59375,1.5979999999999999
2.366412213740458,-0.030534351145038167,-1.7709923664122138,-0.0244140625,0.054443359375,-0.590087890625,1.5997
2.6412213740458017,-0.0916030534351145,-1.8931297709923665,-0.028076171875,0.0556640625,-0.59375,1.6014
2.4885496183206106,0.16793893129770993,-1.6793893129770991,-0.02392578125,0.052978515625,-0.5927734375,1.6031
2.381679389312977,0.16793893129770993,-1.5877862595419847,-0.0234375,0.05517578125,-0.5888671875,1.6048
2.549618320610687,0.183206106870229,-1.5419847328244274,-0.025390625,0.0517578125,-0.592529296875,1.6064999999999998
2.519083969465649,0.2900763358778626,-1.251908396946565,-0.02294921875,0.0595703125,-0.594970703125,1.6081999999999999
2.198473282442748,0.4732824427480916,-1.1603053435114503,-0.022216796875,0.053955078125,-0.603271484375,1.6098999999999999
2.519083969465649,0.3969465648854962,-1.2061068702290076,-0.02197265625,0.057861328125,-0.605224609375,1.6116
2.351145038167939,0.549618320610687,-1.1145038167938932,-0.0146484375,0.058349609375,-0.592529296875,1.6133
2.0763358778625953,0.5038167938931297,-0.9770992366412213,-0.0205078125,0.056884765625,-0.59716796875,1.615
2.1374045801526718,0.4580152671755725,-1.2366412213740459,-0.02197265625,0.059814453125,-0.591064453125,1.6166999999999998
1.9389312977099236,0.48854961832061067,-0.9923664122137404,-0.0322265625,0.05517578125,-0.599853515625,1.6183999999999998
1.9236641221374047,0.4580152671755725,-1.083969465648855,-0.0224609375,0.056884765625,-0.593017578125,1.6200999999999999
1.6793893129770991,0.6259541984732825,-0.9007633587786259,-0.018310546875,0.0595703125,-0.593505859375,1.6218
1.8931297709923665,0.6564885496183206,-1.1603053435114503,-0.025390625,0.05908203125,-0.5966796875,1.6235
1.6488549618320612,0.5954198473282443,-0.8396946564885496,-0.021728515625,0.054443359375,-0.592041015625,1.6252
1.7251908396946565,0.8396946564885496,-0.9618320610687023,-0.016845703125,0.055419921875,-0.58935546875,1.6269
1.6030534351145038,0.916030534351145,-0.7786259541984732,-0.023681640625,0.052001953125,-0.59619140625,1.6285999999999998
1.3435114503816794,0.7633587786259542,-0.8549618320610687,-0.025390625,0.0615234375,-0.595458984375,1.6302999999999999
1.450381679389313,0.7938931297709924,-1.0381679389312977,-0.026611328125,0.056396484375,-0.59619140625,1.632
1.4961832061068703,0.8854961832061069,-0.9312977099236641,-0.025146484375,0.061767578125,-0.600341796875,1.6337
1.3435114503816794,0.732824427480916,-0.6106870229007634,-0.025146484375,0.05517578125,-0.599365234375,1.6354
1.5877862595419847,0.549618320610687,-0.732824427480916,-0.023681640625,0.061767578125,-0.59423828125,1.6371
1.4045801526717556,0.4580152671755725,-0.6717557251908397,-0.02490234375,0.056640625,-0.605712890625,1.6387999999999998
1.4351145038167938,0.44274809160305345,-0.7175572519083969,-0.029296875,0.06494140625,-0.60205078125,1.6404999999999998
1.7099236641221374,0.5038167938931297,-0.5801526717557252,-0.031005859375,0.0625,-0.601318359375,1.6421999999999999
1.3435114503816794,0.48854961832061067,-0.42748091603053434,-0.0283203125,0.063232421875,-0.604248046875,1.6439
1.5572519083969465,0.48854961832061067,-0.3969465648854962,-0.030029296875,0.06982421875,-0.6015625,1.6456
1.6946564885496183,0.6106870229007634,-0.44274809160305345,-0.025634765625,0.064453125,-0.611083984375,1.6473
1.5419847328244274,0.44274809160305345,-0.366412213740458,-0.029296875,0.067626953125,-0.61474609375,1.6489999999999998
1.5877862595419847,0.8854961832061069,-0.4732824427480916,-0.0283203125,0.064453125,-0.597900390625,1.6506999999999998
1.6488549618320612,0.8396946564885496,-0.5343511450381679,-0.03173828125,0.064208984375,-0.5947265625,1.6523999999999999
1.6488549618320612,0.9923664122137404,-0.4122137404580153,-0.02880859375,0.066162109375,-0.595947265625,1.6541
1.8473282442748091,1.3435114503816794,-0.5801526717557252,-0.02685546875,0.0703125,-0.6015625,1.6558
1.7404580152671756,1.3435114503816794,-0.5954198473282443,-0.029052734375,0.069580078125,-0.601318359375,1.6575
2.198473282442748,1.4045801526717556,-0.732824427480916,-0.02685546875,0.068115234375,-0.59765625,1.6592
2.015267175572519,1.7251908396946565,-0.8091603053435115,-0.0322265625,0.066650390625,-0.59423828125,1.6608999999999998
2.381679389312977,1.9083969465648856,-0.8549618320610687,-0.027587890625,0.068115234375,-0.598876953125,1.6625999999999999
2.6259541984732824,1.83206106870229,-0.9007633587786259,-0.032958984375,0.06884765625,-0.600341796875,1.6643
2.5801526717557253,2.213740458015267,-1.297709923664122,-0.033203125,0.0673828125,-0.602783203125,1.666
2.7786259541984735,2.198473282442748,-1.1603053435114503,-0.03076171875,0.068359375,-0.597900390625,1.6677
2.7938931297709924,2.198473282442748,-1.3129770992366412,-0.029541015625,0.064453125,-0.6025390625,1.6694
3.068702290076336,2.3206106870229006,-1.4351145038167938,-0.028564453125,0.0634765625,-0.608642578125,1.6710999999999998
2.8702290076335877,2.16793893129771,-1.6488549618320612,-0.02783203125,0.06591796875,-0.6015625,1.6727999999999998
2.9923664122137406,2.3969465648854964,-1.5877862595419847,-0.029541015625,0.062255859375,-0.598388671875,1.6744999999999999
2.885496183206107,2.4122137404580153,-1.618320610687023,-0.02392578125,0.0615234375,-0.60400390625,1.6762
2.7938931297709924,2.763358778625954,-1.7557251908396947,-0.028564453125,0.06494140625,-0.6025390625,1.6779
3.053435114503817,2.6106870229007635,-1.7709923664122138,-0.024169921875,0.06640625,-0.613037109375,1.6796
2.6717557251908395,2.4885496183206106,-1.9389312977099236,-0.026123046875,0.064697265625,-0.599853515625,1.6813
2.717557251908397,2.6412213740458017,-1.9541984732824427,-0.026123046875,0.067138671875,-0.597412109375,1.6829999999999998
2.595419847328244,2.549618320610687,-1.9541984732824427,-0.021484375,0.062255859375,-0.6005859375,1.6846999999999999
2.564885496183206,2.6412213740458017,-1.9236641221374047,-0.02685546875,0.06005859375,-0.605712890625,1.6864
2.732824427480916,2.7022900763358777,-1.984732824427481,-0.023193359375,0.062255859375,-0.59912109375,1.6881
2.6564885496183206,2.717557251908397,-2.030534351145038,-0.02685546875,0.05712890625,-0.593505859375,1.6898
2.427480916030534,2.6259541984732824,-2.0610687022900764,-0.020751953125,0.054931640625,-0.613037109375,1.6915
2.2900763358778624,2.4580152671755724,-1.9694656488549618,-0.023193359375,0.0615234375,-0.607666015625,1.6931999999999998
2.519083969465649,2.6259541984732824,-2.015267175572519,-0.025634765625,0.057373046875,-0.59765625,1.6948999999999999
2.16793893129771,2.50381679389313,-2.015267175572519,-0.021484375,0.056396484375,-0.596435546875,1.6965999999999999
2.030534351145038,2.4427480916030535,-1.8473282442748091,-0.020751953125,0.05419921875,-0.60205078125,1.6983
2.1526717557251906,2.3969465648854964,-2.0763358778625953,-0.02587890625,0.05810546875,-0.5986328125,1.7
1.7709923664122138,2.2595419847328246,-2.045801526717557,-0.018798828125,0.059326171875,-0.60693359375,1.7017
1.816793893129771,2.2900763358778624,-2.0763358778625953,-0.019775390625,0.056640625,-0.607666015625,1.7033999999999998
1.6030534351145038,2.122137404580153,-1.7251908396946565,-0.020751953125,0.06005859375,-0.6064453125,1.7050999999999998
1.4961832061068703,2.1526717557251906,-1.8931297709923665,-0.0244140625,0.060302734375,-0.604736328125,1.7067999999999999
1.4198473282442747,1.9389312977099236,-2.1068702290076335,-0.0205078125,0.055419921875,-0.604736328125,1.7085
1.4198473282442747,1.7709923664122138,-2.015267175572519,-0.022216796875,0.0546875,-0.60205078125,1.7102
1.5114503816793894,1.8931297709923665,-2.0916030534351147,-0.026611328125,0.064208984375,-0.59765625,1.7119
1.1755725190839694,1.5267175572519085,-1.8473282442748091,-0.0244140625,0.060302734375,-0.602294921875,1.7136
0.8244274809160306,1.5725190839694656,-1.8473282442748091,-0.026123046875,0.059814453125,-0.59814453125,1.7152999999999998
0.7786259541984732,1.3587786259541985,-2.122137404580153,-0.022216796875,0.05517578125,-0.60791015625,1.7169999999999999
0.5343511450381679,1.297709923664122,-1.9389312977099236,-0.02587890625,0.06005859375,-0.6025390625,1.7187
0.33587786259541985,1.251908396946565,-2.0916030534351147,-0.02734375,0.057861328125,-0.6005859375,1.7204
0.12213740458015267,1.083969465648855,-2.16793893129771,-0.02685546875,0.061767578125,-0.597412109375,1.7221
0.1984732824427481,0.9465648854961832,-2.0610687022900764,-0.025146484375,0.05859375,-0.598388671875,1.7238
-0.1984732824427481,1.0076335877862594,-2.0763358778625953,-0.0263671875,0.062744140625,-0.602294921875,1.7254999999999998
-0.1984732824427481,0.7633587786259542,-2.33587786259542,-0.026123046875,0.064697265625,-0.602783203125,1.7271999999999998
-0.183206106870229,0.6259541984732825,-2.0610687022900764,-0.02392578125,0.061767578125,-0.6064453125,1.7288999999999999
-0.48854961832061067,0.549618320610687,-2.122137404580153,-0.0302734375,0.067138671875,-0.603515625,1.7306
-0.6564885496183206,0.4580152671755725,-2.4427480916030535,-0.025634765625,0.064697265625,-0.600341796875,1.7323
-0.42748091603053434,0.549618320610687,-2.4122137404580153,-0.025146484375,0.064208984375,-0.598876953125,1.734
-0.7022900763358778,0.3511450381679389,-2.4885496183206106,-0.02392578125,0.0634765625,-0.603759765625,1.7356999999999998
-0.7480916030534351,0.4122137404580153,-2.6564885496183206,-0.025634765625,0.06689453125,-0.598388671875,1.7373999999999998
-1.083969465648855,0.1984732824427481,-2.687022900763359,-0.02587890625,0.068115234375,-0.59716796875,1.7390999999999999
-1.2213740458015268,0.4580152671755725,-2.7938931297709924,-0.029541015625,0.068359375,-0.598876953125,1.7408
-1.1450381679389312,0.33587786259541985,-2.7938931297709924,-0.02783203125,0.0712890625,-0.5947265625,1.7425
-1.3740458015267176,0.21374045801526717,-3.0381679389312977,-0.026611328125,0.07470703125,-0.590087890625,1.7442
-1.1603053435114503,0.3816793893129771,-3.114503816793893,-0.026611328125,0.075927734375,-0.5986328125,1.7459
-1.0534351145038168,0.4732824427480916,-3.114503816793893,-0.026611328125,0.07177734375,-0.60107421875,1.7475999999999998
-0.9618320610687023,0.42748091603053434,-3.1755725190839694,-0.030517578125,0.07421875,-0.600830078125,1.7492999999999999
-0.9770992366412213,0.6564885496183206,-3.1755725190839694,-0.027099609375,0.0732421875,-0.613037109375,1.751
-0.6412213740458015,0.6106870229007634,-3.0076335877862594,-0.030029296875,0.07373046875,-0.601318359375,1.7527
-0.2900763358778626,0.5343511450381679,-2.946564885496183,-0.0283203125,0.071044921875,-0.599609375,1.7544
-0.3511450381679389,0.48854961832061067,-2.7938931297709924,-0.02880859375,0.075439453125,-0.60107421875,1.7561
0.0916030534351145,0.5801526717557252,-2.946564885496183,-0.030517578125,0.072509765625,-0.596923828125,1.7577999999999998
0.3816793893129771,0.6412213740458015,-3.068702290076336,-0.02587890625,0.075927734375,-0.596923828125,1.7594999999999998
0.6412213740458015,0.5190839694656488,-2.9160305343511452,-0.030517578125,0.0732421875,-0.6015625,1.7611999999999999
1.1450381679389312,0.4122137404580153,-2.7480916030534353,-0.031494140625,0.069091796875,-0.604248046875,1.7629
1.083969465648855,0.6870229007633588,-2.7938931297709924,-0.0322265625,0.068359375,-0.602294921875,1.7646
1.1297709923664123,0.7175572519083969,-2.946564885496183,-0.029052734375,0.068359375,-0.604248046875,1.7663
1.2061068702290076,0.7022900763358778,-2.946564885496183,-0.031494140625,0.07568359375,-0.599365234375,1.7679999999999998
1.5419847328244274,0.6259541984732825,-2.854961832061069,-0.028564453125,0.072509765625,-0.602783203125,1.7696999999999998
1.8015267175572518,0.5801526717557252,-2.885496183206107,-0.0341796875,0.07177734375,-0.59326171875,1.7713999999999999
1.6641221374045803,0.549618320610687,-2.595419847328244,-0.03662109375,0.06494140625,-0.6005859375,1.7731
2.015267175572519,0.5954198473282443,-2.9923664122137406,-0.0283203125,0.061279296875,-0.602294921875,1.7748
2.0763358778625953,0.42748091603053434,-2.8244274809160306,-0.028564453125,0.063720703125,-0.6005859375,1.7765
2.1068702290076335,0.3511450381679389,-2.946564885496183,-0.031494140625,0.059326171875,-0.59814453125,1.7782
2.381679389312977,0.6259541984732825,-2.854961832061069,-0.030029296875,0.056640625,-0.5947265625,1.7798999999999998
2.213740458015267,0.7175572519083969,-2.8702290076335877,-0.031982421875,0.054931640625,-0.595703125,1.7815999999999999
2.50381679389313,0.7175572519083969,-2.8702290076335877,-0.033203125,0.055419921875,-0.60302734375,1.7832999999999999
2.4732824427480917,0.6564885496183206,-2.9160305343511452,-0.028564453125,0.05712890625,-0.5908203125,1.785
2.2290076335877864,0.8244274809160306,-2.5801526717557253,-0.02880859375,0.05517578125,-0.593017578125,1.7867
2.0,1.0381679389312977,-2.8396946564885495,-0.031005859375,0.05810546875,-0.603759765625,1.7884
2.045801526717557,0.9465648854961832,-2.4885496183206106,-0.03173828125,0.04443359375,-0.59912109375,1.7900999999999998
1.4809160305343512,1.0229007633587786,-2.564885496183206,-0.033447265625,0.052490234375,-0.59521484375,1.7917999999999998
1.2061068702290076,1.1908396946564885,-2.2595419847328246,-0.029541015625,0.0537109375,-0.592041015625,1.7934999999999999
0.8091603053435115,1.2671755725190839,-2.549618320610687,-0.036376953125,0.05029296875,-0.59423828125,1.7952
0.732824427480916,1.2671755725190839,-2.4427480916030535,-0.031005859375,0.056396484375,-0.59619140625,1.7969
0.22900763358778625,1.4351145038167938,-2.33587786259542,-0.031494140625,0.052001953125,-0.595458984375,1.7986
-0.3816793893129771,1.465648854961832,-2.045801526717557,-0.030029296875,0.05224609375,-0.590087890625,1.8002999999999998
