gyrox1,gyroy1,gyroz1,accelx1,accely1,accelz1,Time
7.709923664122138,6.1679389312977095,-12.198473282442748,0.04345703125,-0.080322265625,-0.596435546875,0.0
7.786259541984733,5.923664122137405,-12.290076335877863,0.042236328125,-0.07861328125,-0.592529296875,0.0017
8.0,5.694656488549619,-12.381679389312977,0.046142578125,-0.076171875,-0.599609375,0.0034
7.9541984732824424,5.740458015267175,-12.473282442748092,0.038330078125,-0.07666015625,-0.597412109375,0.0050999999999999995
7.648854961832061,5.755725190839694,-12.381679389312977,0.047607421875,-0.077880859375,-0.595947265625,0.0068
7.358778625954199,5.9541984732824424,-12.442748091603054,0.04248046875,-0.078857421875,-0.598388671875,0.008499999999999999
7.633587786259542,5.679389312977099,-12.473282442748092,0.045166015625,-0.0810546875,-0.60009765625,0.010199999999999999
7.480916030534351,5.404580152671755,-12.244274809160306,0.04541015625,-0.080810546875,-0.604736328125,0.011899999999999999
7.190839694656488,5.419847328244275,-12.381679389312977,0.047607421875,-0.0810546875,-0.608154296875,0.0136
7.282442748091603,5.465648854961832,-12.198473282442748,0.047119140625,-0.073974609375,-0.605712890625,0.0153
7.236641221374046,5.267175572519084,-12.229007633587786,0.042724609375,-0.0810546875,-0.59619140625,0.016999999999999998
7.00763358778626,5.0534351145038165,-12.229007633587786,0.045166015625,-0.08056640625,-0.600830078125,0.018699999999999998
6.9465648854961835,5.038167938931298,-12.229007633587786,0.049560546875,-0.078369140625,-0.601318359375,0.020399999999999998
6.870229007633588,4.916030534351145,-11.923664122137405,0.04931640625,-0.07958984375,-0.59814453125,0.022099999999999998
6.977099236641221,4.977099236641221,-11.954198473282442,0.044677734375,-0.080810546875,-0.6044921875,0.023799999999999998
6.931297709923665,4.717557251908397,-11.572519083969466,0.0439453125,-0.08056640625,-0.6064453125,0.0255
6.442748091603053,4.473282442748092,-11.679389312977099,0.046630859375,-0.08154296875,-0.60595703125,0.0272
6.717557251908397,4.183206106870229,-11.526717557251908,0.04638671875,-0.074951171875,-0.60888671875,0.0289
6.595419847328245,4.152671755725191,-11.251908396946565,0.051513671875,-0.080810546875,-0.606689453125,0.0306
6.305343511450381,3.816793893129771,-11.114503816793894,0.04833984375,-0.080078125,-0.602294921875,0.032299999999999995
6.320610687022901,3.450381679389313,-10.854961832061068,0.05078125,-0.0810546875,-0.610107421875,0.033999999999999996
6.076335877862595,3.099236641221374,-10.83969465648855,0.05078125,-0.08056640625,-0.604248046875,0.035699999999999996
6.229007633587786,2.931297709923664,-10.610687022900763,0.047607421875,-0.081787109375,-0.603271484375,0.037399999999999996
5.862595419847328,2.519083969465649,-10.274809160305344,0.048828125,-0.08154296875,-0.6064453125,0.039099999999999996
5.923664122137405,2.4580152671755724,-10.427480916030534,0.051513671875,-0.079345703125,-0.602294921875,0.040799999999999996
5.7251908396946565,2.122137404580153,-10.13740458015267,0.04833984375,-0.083740234375,-0.601806640625,0.042499999999999996
5.511450381679389,1.4809160305343512,-9.98473282442748,0.05029296875,-0.07763671875,-0.607421875,0.044199999999999996
5.816793893129771,1.1297709923664123,-9.954198473282442,0.053955078125,-0.078369140625,-0.60986328125,0.045899999999999996
5.694656488549619,0.7480916030534351,-9.770992366412214,0.048583984375,-0.077880859375,-0.60498046875,0.047599999999999996
5.343511450381679,0.3511450381679389,-9.801526717557252,0.04541015625,-0.080078125,-0.60302734375,0.0493
5.4961832061068705,0.0916030534351145,-9.679389312977099,0.05078125,-0.08154296875,-0.601806640625,0.051
5.3893129770992365,-0.6412213740458015,-9.633587786259541,0.051025390625,-0.080078125,-0.606201171875,0.0527
5.709923664122138,-1.1297709923664123,-9.770992366412214,0.04931640625,-0.07763671875,-0.600830078125,0.0544
5.603053435114504,-1.4809160305343512,-9.740458015267176,0.05224609375,-0.074462890625,-0.59912109375,0.0561
5.908396946564886,-1.8778625954198473,-9.603053435114504,0.046630859375,-0.073974609375,-0.605712890625,0.0578
6.015267175572519,-2.366412213740458,-9.679389312977099,0.044189453125,-0.07421875,-0.592041015625,0.0595
5.8320610687022905,-2.7480916030534353,-9.725190839694656,0.048095703125,-0.082763671875,-0.6005859375,0.0612
5.8320610687022905,-3.2061068702290076,-9.801526717557252,0.04345703125,-0.075439453125,-0.601806640625,0.0629
5.770992366412214,-3.3893129770992365,-9.755725190839694,0.0458984375,-0.077880859375,-0.597900390625,0.06459999999999999
5.8320610687022905,-3.572519083969466,-9.923664122137405,0.04638671875,-0.0751953125,-0.60205078125,0.0663
5.816793893129771,-4.076335877862595,-9.770992366412214,0.046630859375,-0.076416015625,-0.602294921875,0.06799999999999999
5.862595419847328,-4.0458015267175576,-9.98473282442748,0.044921875,-0.073486328125,-0.605224609375,0.0697
5.801526717557252,-4.213740458015267,-9.877862595419847,0.0439453125,-0.070556640625,-0.60009765625,0.07139999999999999
5.603053435114504,-4.183206106870229,-10.091603053435115,0.041748046875,-0.07177734375,-0.60546875,0.0731
5.374045801526718,-4.015267175572519,-9.877862595419847,0.041748046875,-0.068603515625,-0.600341796875,0.07479999999999999
5.404580152671755,-4.122137404580153,-10.061068702290076,0.042236328125,-0.069091796875,-0.597412109375,0.0765
5.282442748091603,-4.229007633587786,-9.755725190839694,0.044189453125,-0.072265625,-0.59716796875,0.07819999999999999
5.206106870229007,-4.0,-9.938931297709924,0.0458984375,-0.0693359375,-0.6005859375,0.0799
5.145038167938932,-3.9083969465648853,-9.648854961832061,0.046875,-0.0654296875,-0.599609375,0.08159999999999999
4.99236641221374,-3.6793893129770994,-9.526717557251908,0.04345703125,-0.071533203125,-0.601318359375,0.0833
5.068702290076335,-3.66412213740458,-9.114503816793894,0.038818359375,-0.071044921875,-0.60302734375,0.08499999999999999
4.8396946564885495,-3.5877862595419847,-8.931297709923664,0.045166015625,-0.068115234375,-0.60693359375,0.0867
4.641221374045801,-3.099236641221374,-8.885496183206106,0.043701171875,-0.072265625,-0.605224609375,0.08839999999999999
4.870229007633588,-3.114503816793893,-8.717557251908397,0.044189453125,-0.072021484375,-0.60888671875,0.0901
5.145038167938932,-2.9770992366412212,-8.351145038167939,0.04248046875,-0.070068359375,-0.606689453125,0.09179999999999999
4.778625954198473,-3.0381679389312977,-8.244274809160306,0.0458984375,-0.074951171875,-0.60302734375,0.0935
4.809160305343512,-2.687022900763359,-7.9541984732824424,0.0458984375,-0.065185546875,-0.605224609375,0.09519999999999999
4.67175572519084,-2.7786259541984735,-7.847328244274809,0.047607421875,-0.072021484375,-0.608642578125,0.0969
4.824427480916031,-2.687022900763359,-7.603053435114504,0.04931640625,-0.076171875,-0.6015625,0.0986
4.732824427480916,-2.6564885496183206,-7.435114503816794,0.048583984375,-0.0712890625,-0.60205078125,0.1003
4.9465648854961835,-2.7022900763358777,-7.083969465648855,0.048583984375,-0.077880859375,-0.6171875,0.102
5.190839694656488,-2.6106870229007635,-6.900763358778626,0.052490234375,-0.07763671875,-0.600830078125,0.1037
5.038167938931298,-2.7786259541984735,-6.809160305343512,0.0458984375,-0.076904296875,-0.607666015625,0.1054
5.251908396946565,-2.9770992366412212,-6.778625954198473,0.044921875,-0.0751953125,-0.60107421875,0.1071
5.32824427480916,-3.0839694656488548,-6.717557251908397,0.05126953125,-0.075439453125,-0.599853515625,0.1088
5.190839694656488,-3.1297709923664123,-6.351145038167939,0.051513671875,-0.08251953125,-0.607666015625,0.11049999999999999
5.236641221374046,-3.404580152671756,-6.183206106870229,0.05126953125,-0.08056640625,-0.609619140625,0.1122
5.297709923664122,-3.450381679389313,-6.259541984732825,0.052734375,-0.081787109375,-0.60107421875,0.11389999999999999
5.1603053435114505,-3.7404580152671754,-6.183206106870229,0.050537109375,-0.0751953125,-0.607421875,0.1156
5.32824427480916,-3.648854961832061,-5.893129770992366,0.05224609375,-0.072998046875,-0.598388671875,0.11729999999999999
5.038167938931298,-3.969465648854962,-5.9541984732824424,0.0517578125,-0.077392578125,-0.599853515625,0.119
5.114503816793893,-4.458015267175573,-5.7251908396946565,0.0498046875,-0.078125,-0.59912109375,0.12069999999999999
5.00763358778626,-4.885496183206107,-5.801526717557252,0.049560546875,-0.08447265625,-0.60546875,0.1224
4.809160305343512,-4.961832061068702,-5.923664122137405,0.051513671875,-0.07958984375,-0.602783203125,0.12409999999999999
4.748091603053435,-5.129770992366412,-5.587786259541985,0.0517578125,-0.08056640625,-0.59765625,0.1258
4.793893129770993,-5.32824427480916,-5.893129770992366,0.04736328125,-0.07958984375,-0.59619140625,0.1275
4.564885496183206,-5.511450381679389,-5.419847328244275,0.051513671875,-0.083251953125,-0.60107421875,0.12919999999999998
4.320610687022901,-5.8320610687022905,-5.7251908396946565,0.049560546875,-0.082763671875,-0.599365234375,0.1309
4.549618320610687,-5.847328244274809,-5.465648854961832,0.051513671875,-0.0830078125,-0.602294921875,0.1326
4.3816793893129775,-6.030534351145038,-5.343511450381679,0.045166015625,-0.076416015625,-0.6103515625,0.1343
4.625954198473282,-6.198473282442748,-5.343511450381679,0.040283203125,-0.078125,-0.61279296875,0.13599999999999998
4.67175572519084,-6.152671755725191,-5.312977099236641,0.04736328125,-0.078857421875,-0.596435546875,0.1377
4.854961832061068,-6.106870229007634,-5.221374045801527,0.04931640625,-0.0771484375,-0.591064453125,0.1394
4.824427480916031,-5.923664122137405,-5.221374045801527,0.042236328125,-0.077392578125,-0.595703125,0.1411
4.641221374045801,-6.061068702290076,-4.885496183206107,0.0419921875,-0.075439453125,-0.60009765625,0.14279999999999998
4.549618320610687,-6.122137404580153,-4.778625954198473,0.04296875,-0.076171875,-0.594970703125,0.1445
4.549618320610687,-5.9541984732824424,-4.656488549618321,0.043701171875,-0.074951171875,-0.6015625,0.1462
4.778625954198473,-5.801526717557252,-4.717557251908397,0.04296875,-0.07958984375,-0.60693359375,0.1479
4.809160305343512,-5.847328244274809,-4.5038167938931295,0.049072265625,-0.071533203125,-0.60791015625,0.14959999999999998
4.702290076335878,-5.511450381679389,-4.427480916030534,0.0390625,-0.06787109375,-0.599365234375,0.1513
4.809160305343512,-5.358778625954199,-4.091603053435114,0.0439453125,-0.0703125,-0.600830078125,0.153
4.793893129770993,-5.511450381679389,-4.061068702290076,0.04443359375,-0.07861328125,-0.598876953125,0.1547
5.038167938931298,-5.267175572519084,-3.954198473282443,0.04638671875,-0.072998046875,-0.5947265625,0.15639999999999998
5.221374045801527,-4.99236641221374,-4.106870229007634,0.043212890625,-0.07080078125,-0.5947265625,0.1581
5.221374045801527,-4.977099236641221,-3.8473282442748094,0.041259765625,-0.06982421875,-0.599365234375,0.1598
5.190839694656488,-4.793893129770993,-3.66412213740458,0.042724609375,-0.072998046875,-0.598876953125,0.1615
5.190839694656488,-4.580152671755725,-3.4198473282442747,0.03955078125,-0.070556640625,-0.597412109375,0.16319999999999998
5.221374045801527,-4.396946564885496,-3.572519083969466,0.043701171875,-0.072998046875,-0.603271484375,0.1649
5.343511450381679,-4.351145038167939,-3.2977099236641223,0.043701171875,-0.081298828125,-0.6005859375,0.1666
5.557251908396947,-4.091603053435114,-3.2213740458015265,0.04296875,-0.070556640625,-0.604248046875,0.16829999999999998
5.7251908396946565,-3.7557251908396947,-2.9618320610687023,0.04345703125,-0.072509765625,-0.601806640625,0.16999999999999998
5.679389312977099,-3.572519083969466,-2.931297709923664,0.047607421875,-0.071533203125,-0.601318359375,0.1717
5.801526717557252,-3.236641221374046,-2.6717557251908395,0.047607421875,-0.075439453125,-0.60498046875,0.1734
5.740458015267175,-3.0076335877862594,-2.519083969465649,0.05224609375,-0.072265625,-0.598388671875,0.17509999999999998
5.587786259541985,-2.763358778625954,-2.3206106870229006,0.048583984375,-0.069580078125,-0.596923828125,0.17679999999999998
5.8320610687022905,-2.2290076335877864,-2.2900763358778624,0.048583984375,-0.075439453125,-0.595703125,0.1785
5.847328244274809,-2.33587786259542,-2.0916030534351147,0.044677734375,-0.069091796875,-0.601806640625,0.1802
5.801526717557252,-2.122137404580153,-1.8625954198473282,0.045166015625,-0.0732421875,-0.60205078125,0.18189999999999998
5.526717557251908,-1.816793893129771,-1.5114503816793894,0.047607421875,-0.071533203125,-0.595703125,0.18359999999999999
5.465648854961832,-1.7251908396946565,-1.3893129770992367,0.0537109375,-0.081787109375,-0.592041015625,0.1853
5.603053435114504,-1.8015267175572518,-1.2366412213740459,0.0498046875,-0.076416015625,-0.6005859375,0.187
5.343511450381679,-1.618320610687023,-1.0534351145038168,0.052490234375,-0.08203125,-0.6044921875,0.18869999999999998
5.526717557251908,-1.6641221374045803,-0.7938931297709924,0.046630859375,-0.075927734375,-0.59521484375,0.19039999999999999
5.511450381679389,-1.5419847328244274,-0.7938931297709924,0.051025390625,-0.083251953125,-0.60205078125,0.1921
5.786259541984733,-1.282442748091603,-0.5038167938931297,0.04833984375,-0.08251953125,-0.60009765625,0.1938
5.7251908396946565,-1.2366412213740459,-0.2900763358778626,0.050048828125,-0.085693359375,-0.59814453125,0.19549999999999998
5.984732824427481,-1.465648854961832,-0.21374045801526717,0.0546875,-0.0849609375,-0.6015625,0.1972
6.2748091603053435,-1.5725190839694656,-0.07633587786259542,0.060546875,-0.0859375,-0.59765625,0.1989
6.305343511450381,-1.5725190839694656,0.0,0.052001953125,-0.08642578125,-0.597412109375,0.2006
6.213740458015267,-1.5725190839694656,0.21374045801526717,0.056884765625,-0.08642578125,-0.601318359375,0.20229999999999998
6.6106870229007635,-1.4809160305343512,0.4122137404580153,0.05224609375,-0.087890625,-0.599609375,0.204
6.793893129770993,-1.786259541984733,0.3969465648854962,0.05322265625,-0.088134765625,-0.602294921875,0.2057
6.870229007633588,-1.7404580152671756,0.549618320610687,0.048095703125,-0.0888671875,-0.595458984375,0.2074
6.854961832061068,-1.6641221374045803,0.5648854961832062,0.04931640625,-0.089111328125,-0.595703125,0.20909999999999998
6.824427480916031,-1.7404580152671756,0.8244274809160306,0.052978515625,-0.084716796875,-0.6005859375,0.2108
6.977099236641221,-1.9389312977099236,0.8244274809160306,0.05126953125,-0.083984375,-0.602783203125,0.2125
6.656488549618321,-2.0610687022900764,0.6564885496183206,0.0556640625,-0.082763671875,-0.60205078125,0.2142
6.3816793893129775,-1.9389312977099236,1.0076335877862594,0.0517578125,-0.086181640625,-0.59619140625,0.21589999999999998
6.1679389312977095,-1.8625954198473282,0.9770992366412213,0.05224609375,-0.087890625,-0.609375,0.2176
6.183206106870229,-2.0763358778625953,0.8854961832061069,0.049560546875,-0.087158203125,-0.6015625,0.2193
5.66412213740458,-1.984732824427481,1.099236641221374,0.048583984375,-0.084228515625,-0.59912109375,0.22099999999999997
5.587786259541985,-2.0763358778625953,0.8244274809160306,0.046875,-0.0830078125,-0.6142578125,0.22269999999999998
5.465648854961832,-2.0763358778625953,1.0381679389312977,0.050048828125,-0.08447265625,-0.608154296875,0.2244
5.175572519083969,-1.9694656488549618,1.1297709923664123,0.0458984375,-0.0849609375,-0.608642578125,0.2261
4.900763358778626,-1.7709923664122138,0.8549618320610687,0.045166015625,-0.073486328125,-0.60400390625,0.22779999999999997
4.473282442748092,-1.7557251908396947,1.1755725190839694,0.044921875,-0.08154296875,-0.603759765625,0.22949999999999998
4.473282442748092,-1.786259541984733,1.0381679389312977,0.0498046875,-0.0849609375,-0.60498046875,0.2312
4.488549618320611,-1.633587786259542,1.1908396946564885,0.0458984375,-0.08203125,-0.598388671875,0.2329
4.396946564885496,-1.3282442748091603,1.1297709923664123,0.042236328125,-0.077392578125,-0.60107421875,0.23459999999999998
4.137404580152672,-1.3435114503816794,1.2213740458015268,0.045166015625,-0.078125,-0.603515625,0.23629999999999998
3.969465648854962,-1.3129770992366412,1.0229007633587786,0.045654296875,-0.082275390625,-0.60546875,0.238
4.183206106870229,-1.1908396946564885,1.099236641221374,0.041748046875,-0.078125,-0.59912109375,0.2397
4.152671755725191,-0.8854961832061069,1.0381679389312977,0.041259765625,-0.08447265625,-0.60009765625,0.24139999999999998
4.0458015267175576,-0.9007633587786259,1.1755725190839694,0.043701171875,-0.08056640625,-0.602783203125,0.24309999999999998
4.0,-0.732824427480916,1.1603053435114503,0.050048828125,-0.0830078125,-0.598388671875,0.2448
4.290076335877862,-0.4580152671755725,1.297709923664122,0.046875,-0.081787109375,-0.60498046875,0.2465
4.198473282442748,-0.5954198473282443,1.465648854961832,0.046142578125,-0.0791015625,-0.6044921875,0.24819999999999998
4.290076335877862,-0.24427480916030533,1.251908396946565,0.045166015625,-0.0751953125,-0.59912109375,0.24989999999999998
4.412213740458015,-0.16793893129770993,1.3282442748091603,0.047607421875,-0.07763671875,-0.60546875,0.2516
4.519083969465649,-0.2748091603053435,1.2366412213740459,0.049560546875,-0.078857421875,-0.602783203125,0.25329999999999997
4.732824427480916,0.04580152671755725,1.3740458015267176,0.051513671875,-0.07861328125,-0.600341796875,0.255
4.6106870229007635,-0.030534351145038167,1.4961832061068703,0.04541015625,-0.081787109375,-0.605224609375,0.2567
4.6106870229007635,0.030534351145038167,1.6030534351145038,0.054443359375,-0.076171875,-0.604248046875,0.25839999999999996
4.977099236641221,0.1984732824427481,1.633587786259542,0.05029296875,-0.07666015625,-0.60595703125,0.2601
5.083969465648855,0.2900763358778626,1.6488549618320612,0.0556640625,-0.0791015625,-0.60205078125,0.2618
5.099236641221374,0.366412213740458,1.618320610687023,0.051025390625,-0.0830078125,-0.598876953125,0.2635
5.236641221374046,0.15267175572519084,1.633587786259542,0.054443359375,-0.080322265625,-0.605224609375,0.2652
5.068702290076335,0.4580152671755725,1.7557251908396947,0.05224609375,-0.082275390625,-0.61181640625,0.26689999999999997
5.1603053435114505,0.4732824427480916,1.6641221374045803,0.060302734375,-0.07666015625,-0.5986328125,0.2686
5.206106870229007,0.5038167938931297,2.0916030534351147,0.05810546875,-0.079345703125,-0.60693359375,0.2703
5.374045801526718,0.3816793893129771,1.9694656488549618,0.053466796875,-0.07666015625,-0.607421875,0.27199999999999996
5.221374045801527,0.3816793893129771,1.984732824427481,0.052978515625,-0.079345703125,-0.609619140625,0.2737
5.221374045801527,0.6870229007633588,2.045801526717557,0.052978515625,-0.083740234375,-0.60791015625,0.2754
5.206106870229007,0.2595419847328244,2.1526717557251906,0.052734375,-0.080810546875,-0.60546875,0.27709999999999996
5.3893129770992365,0.3816793893129771,2.1374045801526718,0.0576171875,-0.080078125,-0.608642578125,0.2788
5.374045801526718,0.4580152671755725,2.198473282442748,0.05078125,-0.081787109375,-0.6083984375,0.28049999999999997
5.374045801526718,0.21374045801526717,2.198473282442748,0.053955078125,-0.0810546875,-0.611572265625,0.2822
5.450381679389313,0.16793893129770993,2.183206106870229,0.0556640625,-0.085693359375,-0.60107421875,0.2839
5.267175572519084,0.3816793893129771,2.213740458015267,0.052978515625,-0.084716796875,-0.609619140625,0.28559999999999997
5.282442748091603,0.42748091603053434,2.351145038167939,0.05126953125,-0.081787109375,-0.611083984375,0.2873
5.312977099236641,0.2900763358778626,2.198473282442748,0.0556640625,-0.086669921875,-0.612548828125,0.289
5.221374045801527,0.13740458015267176,2.1374045801526718,0.057373046875,-0.08349609375,-0.603515625,0.29069999999999996
5.236641221374046,0.22900763358778625,2.0,0.0556640625,-0.08447265625,-0.607177734375,0.2924
5.175572519083969,0.21374045801526717,2.045801526717557,0.052001953125,-0.09228515625,-0.60986328125,0.2941
5.068702290076335,0.0916030534351145,1.8778625954198473,0.04833984375,-0.089111328125,-0.608642578125,0.2958
4.870229007633588,0.0,2.183206106870229,0.058837890625,-0.08642578125,-0.60888671875,0.2975
4.931297709923665,0.3053435114503817,1.5419847328244274,0.05810546875,-0.089111328125,-0.60693359375,0.29919999999999997
4.748091603053435,-0.0916030534351145,1.5725190839694656,0.05908203125,-0.094970703125,-0.60400390625,0.3009
4.549618320610687,0.0916030534351145,1.251908396946565,0.056396484375,-0.09228515625,-0.606689453125,0.3026
4.442748091603053,0.22900763358778625,1.465648854961832,0.0517578125,-0.089599609375,-0.603271484375,0.30429999999999996
4.213740458015267,0.16793893129770993,1.1908396946564885,0.055908203125,-0.089599609375,-0.60986328125,0.306
4.015267175572519,0.0,1.2366412213740459,0.052734375,-0.08740234375,-0.612060546875,0.3077
3.648854961832061,0.15267175572519084,1.2061068702290076,0.051513671875,-0.092041015625,-0.61279296875,0.3094
3.6946564885496183,0.5038167938931297,1.1450381679389312,0.0556640625,-0.087646484375,-0.609130859375,0.3111
3.618320610687023,0.4732824427480916,1.0687022900763359,0.05322265625,-0.085693359375,-0.606201171875,0.31279999999999997
3.3587786259541983,0.5038167938931297,1.282442748091603,0.05126953125,-0.087890625,-0.60595703125,0.3145
2.9923664122137406,0.6564885496183206,1.297709923664122,0.053955078125,-0.092041015625,-0.60595703125,0.3162
3.1297709923664123,0.7633587786259542,1.083969465648855,0.0546875,-0.091064453125,-0.603759765625,0.31789999999999996
2.931297709923664,0.7633587786259542,1.099236641221374,0.053955078125,-0.090576171875,-0.602294921875,0.3196
2.8091603053435112,0.732824427480916,1.4045801526717556,0.054931640625,-0.08447265625,-0.6015625,0.3213
2.946564885496183,0.7633587786259542,1.1450381679389312,0.053466796875,-0.087158203125,-0.6083984375,0.323
2.732824427480916,0.6412213740458015,1.3282442748091603,0.056640625,-0.083984375,-0.609375,0.3247
2.854961832061069,0.8396946564885496,1.4198473282442747,0.056640625,-0.091064453125,-0.603759765625,0.32639999999999997
2.763358778625954,0.6870229007633588,1.3740458015267176,0.0556640625,-0.09130859375,-0.604248046875,0.3281
2.885496183206107,0.8244274809160306,1.297709923664122,0.059814453125,-0.088623046875,-0.598388671875,0.3298
2.9160305343511452,0.6412213740458015,1.4351145038167938,0.05810546875,-0.088134765625,-0.597900390625,0.33149999999999996
2.9160305343511452,0.8702290076335878,1.3435114503816794,0.059814453125,-0.087890625,-0.600830078125,0.3332
2.6717557251908395,0.7175572519083969,1.3282442748091603,0.0556640625,-0.093505859375,-0.60107421875,0.3349
2.7480916030534353,0.549618320610687,1.3587786259541985,0.06005859375,-0.088623046875,-0.605224609375,0.33659999999999995
2.7022900763358777,0.7175572519083969,1.5267175572519085,0.056640625,-0.0888671875,-0.609375,0.3383
2.8244274809160306,0.5954198473282443,1.4351145038167938,0.06005859375,-0.08544921875,-0.601806640625,0.33999999999999997
2.6717557251908395,0.7022900763358778,1.4045801526717556,0.064208984375,-0.085693359375,-0.611572265625,0.3417
2.519083969465649,0.5038167938931297,1.4045801526717556,0.060302734375,-0.0869140625,-0.609375,0.3434
2.366412213740458,0.4732824427480916,1.4961832061068703,0.056640625,-0.086669921875,-0.60107421875,0.34509999999999996
2.0,0.24427480916030533,1.5572519083969465,0.057373046875,-0.09228515625,-0.5986328125,0.3468
1.9389312977099236,0.4732824427480916,1.6030534351145038,0.05126953125,-0.09033203125,-0.604736328125,0.3485
2.0,0.2595419847328244,1.6488549618320612,0.057373046875,-0.091064453125,-0.602783203125,0.35019999999999996
1.6488549618320612,0.0916030534351145,1.5572519083969465,0.060791015625,-0.091796875,-0.599365234375,0.3519
1.3435114503816794,0.061068702290076333,1.450381679389313,0.0615234375,-0.087158203125,-0.601806640625,0.35359999999999997
1.083969465648855,0.07633587786259542,1.5572519083969465,0.06201171875,-0.0859375,-0.60546875,0.3553
1.3129770992366412,0.04580152671755725,1.4045801526717556,0.058349609375,-0.08544921875,-0.595458984375,0.357
1.2366412213740459,-0.1984732824427481,1.5877862595419847,0.05908203125,-0.08642578125,-0.603515625,0.35869999999999996
1.0381679389312977,-0.10687022900763359,1.5877862595419847,0.057861328125,-0.08544921875,-0.60302734375,0.3604
1.0534351145038168,-0.13740458015267176,1.5114503816793894,0.056884765625,-0.09130859375,-0.594970703125,0.3621
1.3282442748091603,-0.22900763358778625,1.4198473282442747,0.057373046875,-0.087158203125,-0.601806640625,0.36379999999999996
1.4045801526717556,-0.15267175572519084,1.6030534351145038,0.061279296875,-0.090576171875,-0.60302734375,0.3655
1.2213740458015268,-0.3816793893129771,1.5267175572519085,0.05908203125,-0.087158203125,-0.603271484375,0.36719999999999997
1.1908396946564885,-0.2748091603053435,1.450381679389313,0.06103515625,-0.087890625,-0.597412109375,0.3689
1.2366412213740459,-0.1984732824427481,1.4351145038167938,0.061767578125,-0.0859375,-0.6015625,0.3706
1.618320610687023,-0.0916030534351145,1.4045801526717556,0.0576171875,-0.08447265625,-0.608642578125,0.37229999999999996
1.7404580152671756,-0.2595419847328244,1.3435114503816794,0.060791015625,-0.087158203125,-0.6083984375,0.374
1.7099236641221374,0.0,1.3129770992366412,0.053955078125,-0.08544921875,-0.6015625,0.3757
1.7557251908396947,-0.12213740458015267,1.282442748091603,0.056640625,-0.0849609375,-0.5947265625,0.37739999999999996
1.786259541984733,0.030534351145038167,1.2671755725190839,0.053466796875,-0.08056640625,-0.60302734375,0.3791
1.6641221374045803,-0.061068702290076333,1.3129770992366412,0.05322265625,-0.0810546875,-0.600830078125,0.38079999999999997
1.5877862595419847,0.030534351145038167,1.1755725190839694,0.054443359375,-0.0849609375,-0.605712890625,0.38249999999999995
1.7404580152671756,0.07633587786259542,1.2366412213740459,0.05615234375,-0.086669921875,-0.596435546875,0.3842
1.4045801526717556,0.061068702290076333,1.1908396946564885,0.052490234375,-0.0810546875,-0.602783203125,0.38589999999999997
1.4809160305343512,0.13740458015267176,1.297709923664122,0.05419921875,-0.08203125,-0.59814453125,0.3876
1.450381679389313,0.366412213740458,1.099236641221374,0.05224609375,-0.082763671875,-0.596923828125,0.3893
1.0534351145038168,0.3969465648854962,1.0534351145038168,0.053955078125,-0.088134765625,-0.606201171875,0.39099999999999996
1.1297709923664123,0.2595419847328244,1.2061068702290076,0.05419921875,-0.08154296875,-0.59912109375,0.3927
1.4351145038167938,0.3511450381679389,1.3129770992366412,0.054931640625,-0.083251953125,-0.600830078125,0.3944
1.4351145038167938,0.366412213740458,1.282442748091603,0.05908203125,-0.0830078125,-0.59375,0.39609999999999995
1.297709923664122,0.549618320610687,1.3282442748091603,0.05908203125,-0.086181640625,-0.600341796875,0.3978
1.4198473282442747,0.7022900763358778,1.251908396946565,0.056396484375,-0.087890625,-0.595703125,0.39949999999999997
1.5114503816793894,0.8244274809160306,1.2366412213740459,0.056884765625,-0.086181640625,-0.606689453125,0.4012
1.4045801526717556,0.9312977099236641,1.4198473282442747,0.056640625,-0.085693359375,-0.60205078125,0.4029
1.7251908396946565,0.916030534351145,1.5114503816793894,0.056640625,-0.088623046875,-0.602783203125,0.40459999999999996
1.8473282442748091,1.1145038167938932,1.1450381679389312,0.052978515625,-0.0859375,-0.598388671875,0.4063
2.1068702290076335,1.0534351145038168,1.3587786259541985,0.05859375,-0.09228515625,-0.59619140625,0.408
2.2442748091603053,1.1145038167938932,1.5267175572519085,0.056884765625,-0.090576171875,-0.602294921875,0.40969999999999995
2.50381679389313,1.2061068702290076,1.450381679389313,0.058837890625,-0.086181640625,-0.60205078125,0.4114
2.6564885496183206,1.1145038167938932,1.1908396946564885,0.05859375,-0.08642578125,-0.600830078125,0.41309999999999997
2.9770992366412212,1.0687022900763359,1.2366412213740459,0.058837890625,-0.091064453125,-0.596435546875,0.4148
3.0229007633587788,1.1450381679389312,1.1450381679389312,0.056884765625,-0.08935546875,-0.595703125,0.4165
3.145038167938931,1.1908396946564885,1.2671755725190839,0.06005859375,-0.09619140625,-0.5986328125,0.41819999999999996
2.9923664122137406,0.8854961832061069,1.0381679389312977,0.05908203125,-0.09033203125,-0.595703125,0.4199
3.2519083969465647,1.0381679389312977,1.0076335877862594,0.061767578125,-0.090087890625,-0.59814453125,0.4216
3.1755725190839694,0.7633587786259542,1.0687022900763359,0.059326171875,-0.09033203125,-0.591552734375,0.42329999999999995
2.9618320610687023,0.7633587786259542,1.1297709923664123,0.057373046875,-0.089599609375,-0.598876953125,0.425
3.0839694656488548,0.7633587786259542,0.9465648854961832,0.05615234375,-0.086181640625,-0.593017578125,0.42669999999999997
2.900763358778626,0.7480916030534351,0.732824427480916,0.056884765625,-0.0859375,-0.60009765625,0.4284
2.8702290076335877,0.5648854961832062,0.9007633587786259,0.0576171875,-0.08984375,-0.6025390625,0.4301
2.549618320610687,0.33587786259541985,1.0534351145038168,0.0576171875,-0.092041015625,-0.6044921875,0.43179999999999996
2.366412213740458,0.4732824427480916,0.9312977099236641,0.062255859375,-0.090087890625,-0.598388671875,0.4335
2.0916030534351147,0.366412213740458,0.9007633587786259,0.05712890625,-0.0849609375,-0.59326171875,0.4352
1.9083969465648856,0.2595419847328244,0.6412213740458015,0.059814453125,-0.0888671875,-0.603759765625,0.43689999999999996
1.5877862595419847,0.4732824427480916,0.8396946564885496,0.057861328125,-0.093994140625,-0.602783203125,0.4386
1.3435114503816794,0.2900763358778626,0.9312977099236641,0.05859375,-0.090576171875,-0.6044921875,0.44029999999999997
1.3587786259541985,0.21374045801526717,0.8244274809160306,0.05810546875,-0.091796875,-0.606689453125,0.44199999999999995
1.2061068702290076,0.48854961832061067,0.6717557251908397,0.057373046875,-0.092529296875,-0.6015625,0.4437
0.7938931297709924,0.3053435114503817,0.8091603053435115,0.0556640625,-0.0888671875,-0.60205078125,0.44539999999999996
0.6870229007633588,0.16793893129770993,0.732824427480916,0.05615234375,-0.0869140625,-0.6005859375,0.4471
0.7480916030534351,0.12213740458015267,0.7938931297709924,0.050048828125,-0.0869140625,-0.603271484375,0.4488
0.8091603053435115,0.3053435114503817,0.7022900763358778,0.059814453125,-0.087890625,-0.59326171875,0.45049999999999996
0.33587786259541985,-0.030534351145038167,0.5648854961832062,0.0546875,-0.08349609375,-0.60302734375,0.4522
0.3969465648854962,-0.015267175572519083,0.6717557251908397,0.054443359375,-0.086669921875,-0.596923828125,0.45389999999999997
0.6564885496183206,-0.061068702290076333,0.6564885496183206,0.054931640625,-0.08349609375,-0.5986328125,0.45559999999999995
0.549618320610687,-0.04580152671755725,0.3816793893129771,0.056640625,-0.08544921875,-0.604248046875,0.4573
0.6870229007633588,0.04580152671755725,0.32061068702290074,0.0576171875,-0.082763671875,-0.604736328125,0.45899999999999996
0.7022900763358778,0.015267175572519083,0.15267175572519084,0.05908203125,-0.086181640625,-0.595947265625,0.4607
0.5801526717557252,-0.04580152671755725,0.183206106870229,0.05908203125,-0.0849609375,-0.60302734375,0.4624
0.6412213740458015,-0.13740458015267176,0.10687022900763359,0.06005859375,-0.092041015625,-0.600830078125,0.46409999999999996
0.7022900763358778,-0.10687022900763359,0.1984732824427481,0.055908203125,-0.0859375,-0.60693359375,0.4658
1.0381679389312977,-0.12213740458015267,-0.15267175572519084,0.05810546875,-0.08251953125,-0.60546875,0.46749999999999997
0.6870229007633588,0.061068702290076333,-0.16793893129770993,0.056884765625,-0.088623046875,-0.60693359375,0.46919999999999995
0.7480916030534351,-0.015267175572519083,-0.366412213740458,0.06396484375,-0.087890625,-0.597900390625,0.4709
0.8396946564885496,0.15267175572519084,-0.2748091603053435,0.060791015625,-0.08642578125,-0.61181640625,0.47259999999999996
0.7633587786259542,0.1984732824427481,-0.5343511450381679,0.064208984375,-0.086181640625,-0.604736328125,0.4743
0.6564885496183206,0.061068702290076333,-0.6106870229007634,0.06103515625,-0.087158203125,-0.611572265625,0.476
0.5954198473282443,0.0,-0.6259541984732825,0.0625,-0.08935546875,-0.60595703125,0.47769999999999996
0.5954198473282443,0.2900763358778626,-0.8244274809160306,0.059326171875,-0.088134765625,-0.603271484375,0.4794
0.916030534351145,0.5343511450381679,-0.732824427480916,0.063232421875,-0.0908203125,-0.599365234375,0.48109999999999997
0.8854961832061069,0.21374045801526717,-0.8091603053435115,0.056884765625,-0.08642578125,-0.601318359375,0.48279999999999995
0.8854961832061069,0.2900763358778626,-0.9923664122137404,0.057373046875,-0.0888671875,-0.599853515625,0.4845
0.9312977099236641,0.6870229007633588,-0.7938931297709924,0.053955078125,-0.08740234375,-0.59912109375,0.48619999999999997
0.8244274809160306,0.48854961832061067,-1.0229007633587786,0.0595703125,-0.08935546875,-0.590576171875,0.4879
0.7786259541984732,0.5648854961832062,-0.9770992366412213,0.063232421875,-0.08349609375,-0.604248046875,0.4896
0.7175572519083969,0.7633587786259542,-1.1908396946564885,0.05908203125,-0.087646484375,-0.59716796875,0.49129999999999996
0.9312977099236641,0.8854961832061069,-0.8702290076335878,0.060546875,-0.091552734375,-0.599853515625,0.493
0.9007633587786259,0.9007633587786259,-1.1297709923664123,0.061279296875,-0.091796875,-0.6025390625,0.4947
0.6412213740458015,1.1450381679389312,-0.8549618320610687,0.062744140625,-0.097412109375,-0.5986328125,0.49639999999999995
0.366412213740458,1.0381679389312977,-0.9465648854961832,0.0615234375,-0.091552734375,-0.601318359375,0.4981
0.4122137404580153,1.2061068702290076,-0.9465648854961832,0.060791015625,-0.088134765625,-0.598876953125,0.49979999999999997
0.44274809160305345,1.099236641221374,-0.9618320610687023,0.0595703125,-0.093017578125,-0.60302734375,0.5015
0.3969465648854962,1.4351145038167938,-0.8854961832061069,0.0576171875,-0.095458984375,-0.600830078125,0.5032
0.16793893129770993,1.5877862595419847,-1.099236641221374,0.062744140625,-0.094482421875,-0.601318359375,0.5049
0.2900763358778626,1.3435114503816794,-0.8091603053435115,0.059814453125,-0.094970703125,-0.6044921875,0.5065999999999999
0.4122137404580153,1.6641221374045803,-0.8244274809160306,0.059814453125,-0.09912109375,-0.592041015625,0.5083
0.2595419847328244,1.8778625954198473,-0.8396946564885496,0.06494140625,-0.098876953125,-0.59765625,0.51
0.15267175572519084,1.816793893129771,-0.916030534351145,0.0625,-0.095947265625,-0.595703125,0.5116999999999999
0.24427480916030533,1.816793893129771,-0.8396946564885496,0.060302734375,-0.098876953125,-0.59130859375,0.5134
0.33587786259541985,1.7709923664122138,-0.9618320610687023,0.058837890625,-0.1015625,-0.5947265625,0.5151
0.5190839694656488,1.6030534351145038,-0.8244274809160306,0.061279296875,-0.09765625,-0.59814453125,0.5167999999999999
0.4122137404580153,1.8778625954198473,-0.9465648854961832,0.064697265625,-0.096435546875,-0.59814453125,0.5185
0.5648854961832062,1.8473282442748091,-0.9618320610687023,0.062744140625,-0.100341796875,-0.59619140625,0.5202
0.4732824427480916,1.7404580152671756,-0.9923664122137404,0.05810546875,-0.10595703125,-0.593017578125,0.5218999999999999
0.4732824427480916,1.9236641221374047,-0.9312977099236641,0.056884765625,-0.096435546875,-0.596435546875,0.5236
0.4122137404580153,1.5877862595419847,-1.251908396946565,0.0595703125,-0.0947265625,-0.6005859375,0.5253
0.183206106870229,1.7557251908396947,-1.0687022900763359,0.057373046875,-0.09716796875,-0.59716796875,0.527
0.3053435114503817,1.816793893129771,-1.1755725190839694,0.06005859375,-0.092529296875,-0.593017578125,0.5287
-0.1984732824427481,1.5419847328244274,-1.251908396946565,0.054443359375,-0.099609375,-0.60009765625,0.5304
-0.13740458015267176,1.5267175572519085,-1.2366412213740459,0.060791015625,-0.090576171875,-0.600830078125,0.5321
-0.33587786259541985,1.3893129770992367,-1.297709923664122,0.0615234375,-0.09326171875,-0.59228515625,0.5337999999999999
-0.7022900763358778,1.3893129770992367,-1.6030534351145038,0.0595703125,-0.091552734375,-0.594482421875,0.5355
-1.0534351145038168,1.3893129770992367,-1.5572519083969465,0.061279296875,-0.093994140625,-0.59814453125,0.5372
-0.8702290076335878,1.6030534351145038,-1.251908396946565,0.057861328125,-0.093994140625,-0.595458984375,0.5388999999999999
-1.0687022900763359,1.450381679389313,-1.4045801526717556,0.05615234375,-0.093994140625,-0.599609375,0.5406
-1.5419847328244274,1.3282442748091603,-1.4198473282442747,0.056640625,-0.090087890625,-0.597900390625,0.5423
-1.282442748091603,1.465648854961832,-1.450381679389313,0.058349609375,-0.090087890625,-0.59619140625,0.5439999999999999
-1.297709923664122,1.465648854961832,-1.4809160305343512,0.056640625,-0.09326171875,-0.598876953125,0.5457
-1.2366412213740459,1.5419847328244274,-1.465648854961832,0.062255859375,-0.08740234375,-0.596923828125,0.5474
-1.0534351145038168,1.618320610687023,-1.3587786259541985,0.0556640625,-0.090576171875,-0.6025390625,0.5490999999999999
-1.0076335877862594,1.633587786259542,-1.6030534351145038,0.057861328125,-0.089599609375,-0.59765625,0.5508
-0.7786259541984732,1.618320610687023,-1.3740458015267176,0.0556640625,-0.093017578125,-0.5908203125,0.5525
-0.549618320610687,1.618320610687023,-1.4198473282442747,0.06103515625,-0.0849609375,-0.60205078125,0.5541999999999999
-0.3969465648854962,1.8473282442748091,-1.5572519083969465,0.05908203125,-0.084228515625,-0.6015625,0.5559
-0.04580152671755725,1.8931297709923665,-1.465648854961832,0.056640625,-0.0869140625,-0.594482421875,0.5576
0.4732824427480916,1.8778625954198473,-1.5877862595419847,0.05322265625,-0.0888671875,-0.601318359375,0.5593
0.7480916030534351,2.030534351145038,-1.6946564885496183,0.056640625,-0.0849609375,-0.598876953125,0.5609999999999999
1.0229007633587786,2.0610687022900764,-1.633587786259542,0.06005859375,-0.0888671875,-0.59521484375,0.5627
1.2366412213740459,2.2442748091603053,-1.618320610687023,0.05419921875,-0.0859375,-0.59326171875,0.5644
1.6641221374045803,2.2900763358778624,-1.7099236641221374,0.0546875,-0.08935546875,-0.592041015625,0.5660999999999999
1.786259541984733,2.4427480916030535,-1.7709923664122138,0.057373046875,-0.088623046875,-0.6005859375,0.5678
1.9541984732824427,2.5801526717557253,-1.6641221374045803,0.050048828125,-0.087158203125,-0.5908203125,0.5695
2.213740458015267,2.900763358778626,-1.6641221374045803,0.05078125,-0.0849609375,-0.5927734375,0.5711999999999999
2.2748091603053435,2.9618320610687023,-1.9236641221374047,0.05712890625,-0.083740234375,-0.593505859375,0.5729
2.33587786259542,3.404580152671756,-1.816793893129771,0.0556640625,-0.088134765625,-0.594482421875,0.5746
2.6564885496183206,3.2977099236641223,-1.8625954198473282,0.053466796875,-0.082763671875,-0.591552734375,0.5762999999999999
2.5801526717557253,3.3587786259541983,-2.16793893129771,0.05126953125,-0.0849609375,-0.590576171875,0.578
2.717557251908397,3.6030534351145036,-2.045801526717557,0.053955078125,-0.085205078125,-0.592529296875,0.5797
2.717557251908397,3.7404580152671754,-1.984732824427481,0.051025390625,-0.0859375,-0.584716796875,0.5813999999999999
2.595419847328244,3.877862595419847,-2.030534351145038,0.05078125,-0.084716796875,-0.59033203125,0.5831
2.7022900763358777,4.030534351145038,-2.0610687022900764,0.05126953125,-0.083740234375,-0.58935546875,0.5848
3.0076335877862594,4.152671755725191,-2.030534351145038,0.05078125,-0.08447265625,-0.59521484375,0.5865
2.7938931297709924,4.305343511450381,-2.0610687022900764,0.055908203125,-0.083740234375,-0.59521484375,0.5882
2.7786259541984735,4.290076335877862,-2.015267175572519,0.0556640625,-0.083740234375,-0.59033203125,0.5899
2.885496183206107,4.519083969465649,-2.16793893129771,0.05322265625,-0.08251953125,-0.58984375,0.5916
2.946564885496183,4.732824427480916,-1.9389312977099236,0.058837890625,-0.087646484375,-0.58935546875,0.5932999999999999
3.0381679389312977,5.099236641221374,-2.0610687022900764,0.057861328125,-0.091552734375,-0.592529296875,0.595
3.145038167938931,4.961832061068702,-1.9236641221374047,0.058349609375,-0.0908203125,-0.593994140625,0.5967
3.3282442748091605,5.267175572519084,-1.9389312977099236,0.061279296875,-0.090576171875,-0.60595703125,0.5983999999999999
3.145038167938931,5.358778625954199,-1.8473282442748091,0.063720703125,-0.090576171875,-0.601806640625,0.6001
3.450381679389313,5.419847328244275,-1.9083969465648856,0.062744140625,-0.09423828125,-0.5849609375,0.6018
3.3740458015267176,5.480916030534351,-1.6641221374045803,0.05419921875,-0.091064453125,-0.585205078125,0.6034999999999999
3.572519083969466,5.557251908396947,-1.618320610687023,0.054931640625,-0.087158203125,-0.592041015625,0.6052
3.648854961832061,5.358778625954199,-1.8473282442748091,0.060546875,-0.091064453125,-0.58837890625,0.6069
3.6793893129770994,5.541984732824427,-1.8015267175572518,0.06005859375,-0.0966796875,-0.591064453125,0.6085999999999999
3.618320610687023,5.358778625954199,-1.7557251908396947,0.06298828125,-0.09326171875,-0.592529296875,0.6103
3.435114503816794,5.206106870229007,-1.7709923664122138,0.059326171875,-0.09130859375,-0.5908203125,0.612
3.3740458015267176,5.358778625954199,-1.7404580152671756,0.062255859375,-0.091796875,-0.586181640625,0.6136999999999999
3.6030534351145036,5.267175572519084,-1.633587786259542,0.059326171875,-0.092041015625,-0.58984375,0.6154
3.3740458015267176,5.221374045801527,-1.4351145038167938,0.056640625,-0.094482421875,-0.591796875,0.6171
3.5267175572519083,5.206106870229007,-1.5267175572519085,0.06298828125,-0.092529296875,-0.59423828125,0.6188
3.618320610687023,4.824427480916031,-1.5572519083969465,0.060302734375,-0.092041015625,-0.592529296875,0.6204999999999999
3.4198473282442747,4.900763358778626,-1.8015267175572518,0.059326171875,-0.09423828125,-0.59033203125,0.6222
3.3740458015267176,4.793893129770993,-1.633587786259542,0.060791015625,-0.090576171875,-0.59326171875,0.6239
3.068702290076336,4.870229007633588,-1.618320610687023,0.06298828125,-0.093017578125,-0.5888671875,0.6255999999999999
3.1297709923664123,4.595419847328245,-1.4198473282442747,0.06591796875,-0.0927734375,-0.603515625,0.6273
3.2061068702290076,4.3816793893129775,-1.633587786259542,0.068359375,-0.093505859375,-0.592529296875,0.629
2.931297709923664,4.290076335877862,-1.3893129770992367,0.059814453125,-0.095703125,-0.593505859375,0.6306999999999999
2.885496183206107,4.076335877862595,-1.5267175572519085,0.061767578125,-0.090087890625,-0.593017578125,0.6324
2.7938931297709924,4.076335877862595,-1.5572519083969465,0.062744140625,-0.0849609375,-0.59423828125,0.6341
3.099236641221374,3.7099236641221376,-1.7557251908396947,0.064208984375,-0.08935546875,-0.600341796875,0.6357999999999999
2.885496183206107,3.816793893129771,-1.6946564885496183,0.062744140625,-0.089111328125,-0.6015625,0.6375
2.717557251908397,3.6793893129770994,-1.633587786259542,0.057861328125,-0.092041015625,-0.601806640625,0.6392
2.6259541984732824,3.3893129770992365,-1.4351145038167938,0.061279296875,-0.087890625,-0.592041015625,0.6408999999999999
2.381679389312977,3.480916030534351,-1.7099236641221374,0.060791015625,-0.088134765625,-0.596923828125,0.6426
2.427480916030534,3.5267175572519083,-1.6946564885496183,0.06005859375,-0.08740234375,-0.601806640625,0.6443
2.3206106870229006,3.2977099236641223,-1.8015267175572518,0.0595703125,-0.0849609375,-0.593017578125,0.646
1.9694656488549618,3.648854961832061,-1.5419847328244274,0.056640625,-0.089111328125,-0.602783203125,0.6476999999999999
2.16793893129771,3.618320610687023,-1.7557251908396947,0.055908203125,-0.08984375,-0.600341796875,0.6494
2.1068702290076335,3.5572519083969465,-1.633587786259542,0.057861328125,-0.086181640625,-0.598876953125,0.6511
1.9389312977099236,3.6946564885496183,-1.8625954198473282,0.05517578125,-0.0859375,-0.592529296875,0.6527999999999999
2.0610687022900764,3.83206106870229,-1.6030534351145038,0.053466796875,-0.08447265625,-0.5908203125,0.6545
2.2748091603053435,4.106870229007634,-1.7557251908396947,0.05859375,-0.07666015625,-0.594970703125,0.6562
2.16793893129771,3.969465648854962,-1.450381679389313,0.055908203125,-0.081298828125,-0.602294921875,0.6578999999999999
2.0610687022900764,4.030534351145038,-1.6641221374045803,0.054931640625,-0.08544921875,-0.60595703125,0.6596
1.8473282442748091,4.183206106870229,-1.7404580152671756,0.055419921875,-0.088623046875,-0.602294921875,0.6613
2.1526717557251906,4.122137404580153,-1.4198473282442747,0.053466796875,-0.085205078125,-0.600341796875,0.6629999999999999
2.2442748091603053,4.259541984732825,-1.4961832061068703,0.054443359375,-0.083984375,-0.59912109375,0.6647
2.1526717557251906,4.198473282442748,-1.6793893129770991,0.051025390625,-0.08935546875,-0.58984375,0.6664
2.4580152671755724,4.366412213740458,-1.4809160305343512,0.057861328125,-0.08984375,-0.60009765625,0.6680999999999999
2.4732824427480917,4.213740458015267,-1.4961832061068703,0.056884765625,-0.090087890625,-0.59814453125,0.6698
2.3969465648854964,4.412213740458015,-1.1755725190839694,0.052490234375,-0.0888671875,-0.60107421875,0.6715
2.8244274809160306,4.625954198473282,-1.4961832061068703,0.054931640625,-0.09033203125,-0.6015625,0.6731999999999999
3.0229007633587788,4.717557251908397,-1.4045801526717556,0.059326171875,-0.088623046875,-0.594970703125,0.6748999999999999
3.1908396946564888,4.885496183206107,-1.2671755725190839,0.05615234375,-0.09033203125,-0.590087890625,0.6766
3.3893129770992365,4.656488549618321,-1.2366412213740459,0.061767578125,-0.08837890625,-0.59619140625,0.6783
3.3893129770992365,4.6106870229007635,-1.4198473282442747,0.056640625,-0.08984375,-0.58837890625,0.6799999999999999
3.5877862595419847,4.717557251908397,-1.3282442748091603,0.058349609375,-0.09130859375,-0.6005859375,0.6817
3.83206106870229,4.564885496183206,-1.3587786259541985,0.05517578125,-0.0908203125,-0.608154296875,0.6834
3.9083969465648853,4.580152671755725,-1.3893129770992367,0.05517578125,-0.08642578125,-0.602783203125,0.6850999999999999
3.450381679389313,4.458015267175573,-1.3435114503816794,0.057861328125,-0.085693359375,-0.594482421875,0.6868
3.7557251908396947,4.3816793893129775,-1.1145038167938932,0.0595703125,-0.091064453125,-0.5947265625,0.6885
3.83206106870229,4.3816793893129775,-1.3282442748091603,0.062255859375,-0.09423828125,-0.59130859375,0.6901999999999999
3.6030534351145036,4.2748091603053435,-1.251908396946565,0.063232421875,-0.08984375,-0.59375,0.6919
3.66412213740458,4.213740458015267,-1.3893129770992367,0.06005859375,-0.09326171875,-0.59326171875,0.6936
3.7099236641221376,3.9083969465648853,-1.1908396946564885,0.059326171875,-0.091064453125,-0.5888671875,0.6952999999999999
3.450381679389313,4.061068702290076,-1.1297709923664123,0.0654296875,-0.08984375,-0.592529296875,0.697
3.450381679389313,3.7557251908396947,-1.251908396946565,0.0625,-0.088134765625,-0.592529296875,0.6987
3.633587786259542,3.648854961832061,-1.2671755725190839,0.062744140625,-0.089111328125,-0.59375,0.7003999999999999
3.8473282442748094,3.7709923664122136,-1.0381679389312977,0.06298828125,-0.089111328125,-0.601318359375,0.7021
3.5267175572519083,3.6946564885496183,-1.0229007633587786,0.055908203125,-0.093994140625,-0.59326171875,0.7038
3.816793893129771,3.450381679389313,-1.1297709923664123,0.059326171875,-0.08935546875,-0.59033203125,0.7055
3.954198473282443,3.49618320610687,-1.1297709923664123,0.058349609375,-0.093994140625,-0.58837890625,0.7071999999999999
3.984732824427481,3.282442748091603,-0.9618320610687023,0.057861328125,-0.090576171875,-0.6005859375,0.7089
3.786259541984733,3.053435114503817,-0.9007633587786259,0.064208984375,-0.092041015625,-0.60205078125,0.7106
3.984732824427481,3.0076335877862594,-0.9770992366412213,0.064208984375,-0.087646484375,-0.60546875,0.7122999999999999
4.061068702290076,2.946564885496183,-1.0534351145038168,0.0625,-0.08984375,-0.597900390625,0.714
3.9389312977099236,2.931297709923664,-1.099236641221374,0.0615234375,-0.092041015625,-0.59912109375,0.7157
3.7404580152671754,2.7022900763358777,-1.0381679389312977,0.06103515625,-0.09033203125,-0.60302734375,0.7173999999999999
3.7709923664122136,2.6259541984732824,-1.297709923664122,0.063232421875,-0.08251953125,-0.60107421875,0.7191
3.4656488549618323,2.4122137404580153,-1.2213740458015268,0.064453125,-0.090087890625,-0.59716796875,0.7208
3.236641221374046,2.5343511450381677,-1.1908396946564885,0.064208984375,-0.08837890625,-0.59423828125,0.7224999999999999
3.1755725190839694,2.4732824427480917,-1.297709923664122,0.0556640625,-0.08837890625,-0.599365234375,0.7242
2.9770992366412212,2.33587786259542,-1.251908396946565,0.0576171875,-0.093017578125,-0.608642578125,0.7259
2.9618320610687023,2.2442748091603053,-1.282442748091603,0.05810546875,-0.083251953125,-0.603759765625,0.7275999999999999
2.8244274809160306,2.213740458015267,-1.282442748091603,0.06103515625,-0.08447265625,-0.6025390625,0.7293
2.6412213740458017,2.1526717557251906,-1.1450381679389312,0.059326171875,-0.089111328125,-0.6044921875,0.731
2.366412213740458,2.045801526717557,-0.9923664122137404,0.060791015625,-0.088623046875,-0.594970703125,0.7326999999999999
2.3206106870229006,2.1526717557251906,-0.9923664122137404,0.0615234375,-0.092041015625,-0.5986328125,0.7343999999999999
2.6106870229007635,1.8473282442748091,-0.7786259541984732,0.059814453125,-0.08837890625,-0.60009765625,0.7361
2.381679389312977,1.8778625954198473,-0.7175572519083969,0.060302734375,-0.090087890625,-0.609375,0.7378
2.381679389312977,1.8015267175572518,-0.732824427480916,0.05810546875,-0.08447265625,-0.610107421875,0.7394999999999999
2.3206106870229006,1.786259541984733,-0.7786259541984732,0.056884765625,-0.087158203125,-0.603759765625,0.7412
2.3206106870229006,1.6488549618320612,-0.5038167938931297,0.054931640625,-0.082763671875,-0.598388671875,0.7429
2.3206106870229006,1.5725190839694656,-0.5954198473282443,0.061767578125,-0.08642578125,-0.603759765625,0.7445999999999999
2.381679389312977,1.6030534351145038,-0.6717557251908397,0.060791015625,-0.08984375,-0.60546875,0.7463
2.5801526717557253,1.5725190839694656,-0.7480916030534351,0.060302734375,-0.08447265625,-0.60107421875,0.748
2.33587786259542,1.3129770992366412,-0.8549618320610687,0.064208984375,-0.087158203125,-0.601806640625,0.7496999999999999
2.2290076335877864,1.4351145038167938,-0.7175572519083969,0.060546875,-0.08935546875,-0.6015625,0.7514
2.6259541984732824,1.3740458015267176,-0.6564885496183206,0.05908203125,-0.0888671875,-0.6005859375,0.7531
2.8244274809160306,1.3740458015267176,-0.7480916030534351,0.05419921875,-0.090087890625,-0.60205078125,0.7547999999999999
2.8091603053435112,1.3129770992366412,-0.8091603053435115,0.06005859375,-0.086181640625,-0.604736328125,0.7565
2.9160305343511452,1.3435114503816794,-0.6717557251908397,0.0615234375,-0.090576171875,-0.6025390625,0.7582
3.1603053435114505,1.465648854961832,-0.6106870229007634,0.055908203125,-0.0869140625,-0.605712890625,0.7598999999999999
3.114503816793893,1.3893129770992367,-0.6259541984732825,0.056396484375,-0.08837890625,-0.599609375,0.7615999999999999
3.3435114503816794,1.4045801526717556,-0.7022900763358778,0.063720703125,-0.089599609375,-0.607666015625,0.7633
3.618320610687023,1.297709923664122,-0.5648854961832062,0.057861328125,-0.087890625,-0.603271484375,0.7649999999999999
3.6030534351145036,1.1908396946564885,-0.4580152671755725,0.056396484375,-0.085693359375,-0.602783203125,0.7666999999999999
3.648854961832061,1.3740458015267176,-0.549618320610687,0.058837890625,-0.091064453125,-0.6083984375,0.7684
3.8473282442748094,1.4351145038167938,-0.5801526717557252,0.059326171875,-0.093017578125,-0.60009765625,0.7701
3.83206106870229,1.2061068702290076,-0.4732824427480916,0.0576171875,-0.086181640625,-0.6044921875,0.7717999999999999
3.786259541984733,1.2671755725190839,-0.6259541984732825,0.06005859375,-0.08740234375,-0.606201171875,0.7735
3.954198473282443,1.297709923664122,-0.3511450381679389,0.060546875,-0.0888671875,-0.6025390625,0.7752
3.801526717557252,1.1908396946564885,-0.5190839694656488,0.0576171875,-0.091796875,-0.597412109375,0.7768999999999999
3.8473282442748094,1.3435114503816794,-0.33587786259541985,0.055908203125,-0.0927734375,-0.591796875,0.7786
3.572519083969466,1.3587786259541985,-0.366412213740458,0.06103515625,-0.0966796875,-0.6015625,0.7803
3.5877862595419847,1.1603053435114503,-0.061068702290076333,0.058349609375,-0.090576171875,-0.604248046875,0.7819999999999999
3.4656488549618323,1.251908396946565,-0.16793893129770993,0.055908203125,-0.08984375,-0.607177734375,0.7837
3.3587786259541983,1.4809160305343512,-0.10687022900763359,0.05419921875,-0.091064453125,-0.601806640625,0.7854
3.2061068702290076,1.2061068702290076,-0.0916030534351145,0.0546875,-0.094970703125,-0.597900390625,0.7870999999999999
3.0229007633587788,1.3435114503816794,0.10687022900763359,0.054931640625,-0.092041015625,-0.599609375,0.7888
3.267175572519084,1.4809160305343512,0.04580152671755725,0.057861328125,-0.09619140625,-0.59423828125,0.7905
2.854961832061069,1.4961832061068703,0.3816793893129771,0.060302734375,-0.0927734375,-0.6005859375,0.7921999999999999
2.519083969465649,1.4045801526717556,0.16793893129770993,0.058349609375,-0.097412109375,-0.605712890625,0.7938999999999999
2.6106870229007635,1.5267175572519085,0.2595419847328244,0.05810546875,-0.095703125,-0.609375,0.7956
2.4122137404580153,1.4809160305343512,0.12213740458015267,0.0556640625,-0.094482421875,-0.59375,0.7973
2.4732824427480917,1.5267175572519085,0.32061068702290074,0.058837890625,-0.097412109375,-0.599365234375,0.7989999999999999
2.0763358778625953,1.5114503816793894,0.13740458015267176,0.05517578125,-0.09765625,-0.59375,0.8007
2.0916030534351147,1.4198473282442747,0.2748091603053435,0.057861328125,-0.09375,-0.598876953125,0.8024
2.0610687022900764,1.4351145038167938,0.33587786259541985,0.05322265625,-0.09521484375,-0.592041015625,0.8040999999999999
1.9236641221374047,1.3282442748091603,0.366412213740458,0.0517578125,-0.099609375,-0.599609375,0.8058
1.8015267175572518,1.3587786259541985,0.183206106870229,0.05712890625,-0.0966796875,-0.597900390625,0.8075
1.7099236641221374,0.9923664122137404,0.3969465648854962,0.0546875,-0.0908203125,-0.60498046875,0.8091999999999999
1.5419847328244274,1.1603053435114503,0.3511450381679389,0.054931640625,-0.093017578125,-0.592529296875,0.8109
1.3893129770992367,1.083969465648855,0.16793893129770993,0.051025390625,-0.097900390625,-0.601806640625,0.8126
1.2061068702290076,1.1145038167938932,0.12213740458015267,0.05517578125,-0.0927734375,-0.596923828125,0.8142999999999999
1.2366412213740459,0.9923664122137404,0.1984732824427481,0.059326171875,-0.091552734375,-0.587890625,0.816
1.0381679389312977,0.9923664122137404,0.15267175572519084,0.05615234375,-0.09765625,-0.597412109375,0.8177
1.0076335877862594,1.0229007633587786,0.3816793893129771,0.055419921875,-0.095458984375,-0.601806640625,0.8193999999999999
1.1603053435114503,0.9618320610687023,0.10687022900763359,0.056640625,-0.096923828125,-0.60693359375,0.8210999999999999
0.8854961832061069,0.8549618320610687,0.33587786259541985,0.055908203125,-0.090087890625,-0.6005859375,0.8228
0.9770992366412213,1.1908396946564885,0.32061068702290074,0.054931640625,-0.090087890625,-0.599609375,0.8244999999999999
0.9312977099236641,1.1450381679389312,0.549618320610687,0.05419921875,-0.090576171875,-0.604248046875,0.8261999999999999
0.7938931297709924,1.2061068702290076,0.2748091603053435,0.04931640625,-0.091552734375,-0.609130859375,0.8279
0.8854961832061069,1.3282442748091603,0.42748091603053434,0.04931640625,-0.089599609375,-0.6083984375,0.8296
0.8854961832061069,1.3893129770992367,0.3969465648854962,0.055419921875,-0.09033203125,-0.599609375,0.8312999999999999
0.7175572519083969,1.3129770992366412,0.5190839694656488,0.055419921875,-0.093017578125,-0.605224609375,0.833
0.916030534351145,1.4809160305343512,0.5343511450381679,0.054443359375,-0.094970703125,-0.602783203125,0.8347
0.9618320610687023,1.618320610687023,0.5190839694656488,0.052490234375,-0.088134765625,-0.607177734375,0.8363999999999999
1.1603053435114503,1.5725190839694656,0.22900763358778625,0.053955078125,-0.08642578125,-0.610107421875,0.8381
1.099236641221374,1.816793893129771,0.4732824427480916,0.053955078125,-0.09375,-0.61328125,0.8398
1.2213740458015268,1.7251908396946565,0.33587786259541985,0.0517578125,-0.08642578125,-0.599365234375,0.8414999999999999
1.4045801526717556,1.6641221374045803,0.5648854961832062,0.0537109375,-0.088134765625,-0.599853515625,0.8432
1.5419847328244274,1.618320610687023,0.42748091603053434,0.057861328125,-0.08837890625,-0.611328125,0.8449
1.3740458015267176,1.7099236641221374,0.183206106870229,0.05419921875,-0.085205078125,-0.60986328125,0.8465999999999999
1.7251908396946565,1.8778625954198473,0.3816793893129771,0.050537109375,-0.08984375,-0.593505859375,0.8482999999999999
1.7709923664122138,2.0763358778625953,0.366412213740458,0.052734375,-0.08544921875,-0.604248046875,0.85
1.7557251908396947,2.183206106870229,0.015267175572519083,0.06103515625,-0.085693359375,-0.599853515625,0.8516999999999999
1.6946564885496183,2.183206106870229,0.16793893129770993,0.05224609375,-0.086669921875,-0.602294921875,0.8533999999999999
1.9083969465648856,2.366412213740458,0.061068702290076333,0.054931640625,-0.0849609375,-0.6064453125,0.8551
1.9541984732824427,2.381679389312977,0.030534351145038167,0.05810546875,-0.08447265625,-0.605712890625,0.8568
1.8015267175572518,2.2748091603053435,0.2595419847328244,0.054443359375,-0.08837890625,-0.60888671875,0.8584999999999999
2.0610687022900764,2.519083969465649,0.13740458015267176,0.05078125,-0.08349609375,-0.605224609375,0.8602
1.9694656488549618,2.6412213740458017,-0.061068702290076333,0.05322265625,-0.085693359375,-0.607421875,0.8619
1.8931297709923665,2.717557251908397,0.0,0.054931640625,-0.090087890625,-0.604248046875,0.8635999999999999
2.1068702290076335,2.7022900763358777,-0.030534351145038167,0.05419921875,-0.091552734375,-0.611328125,0.8653
1.984732824427481,2.6412213740458017,0.0916030534351145,0.06005859375,-0.09423828125,-0.60595703125,0.867
1.9389312977099236,2.5343511450381677,0.015267175572519083,0.05859375,-0.09375,-0.611083984375,0.8686999999999999
1.8931297709923665,2.4732824427480917,0.2900763358778626,0.059326171875,-0.091552734375,-0.604736328125,0.8704
1.9541984732824427,2.5343511450381677,0.1984732824427481,0.05419921875,-0.09375,-0.6044921875,0.8721
2.0,2.4732824427480917,0.2595419847328244,0.0615234375,-0.089111328125,-0.606201171875,0.8737999999999999
2.0,2.519083969465649,0.22900763358778625,0.058349609375,-0.087646484375,-0.60498046875,0.8755
2.0763358778625953,2.5801526717557253,0.15267175572519084,0.056640625,-0.091552734375,-0.60595703125,0.8772
2.16793893129771,2.366412213740458,0.2595419847328244,0.06005859375,-0.098876953125,-0.610595703125,0.8788999999999999
2.1526717557251906,2.213740458015267,0.366412213740458,0.05712890625,-0.093505859375,-0.6015625,0.8805999999999999
2.0,2.045801526717557,0.2595419847328244,0.059326171875,-0.093017578125,-0.605712890625,0.8823
2.0610687022900764,1.9083969465648856,0.22900763358778625,0.05517578125,-0.0966796875,-0.596435546875,0.8839999999999999
2.030534351145038,1.8473282442748091,0.32061068702290074,0.055908203125,-0.095947265625,-0.603759765625,0.8856999999999999
1.9694656488549618,1.8625954198473282,0.3053435114503817,0.0615234375,-0.099609375,-0.593505859375,0.8874
1.5267175572519085,1.7099236641221374,0.1984732824427481,0.06005859375,-0.095947265625,-0.592041015625,0.8891
1.297709923664122,1.5419847328244274,-0.04580152671755725,0.060791015625,-0.093505859375,-0.603759765625,0.8907999999999999
1.2366412213740459,1.5419847328244274,0.10687022900763359,0.056640625,-0.09375,-0.60107421875,0.8925
1.1908396946564885,1.3282442748091603,0.32061068702290074,0.060302734375,-0.092041015625,-0.59814453125,0.8942
0.9923664122137404,1.1297709923664123,0.12213740458015267,0.060302734375,-0.090576171875,-0.599853515625,0.8958999999999999
0.6870229007633588,0.916030534351145,0.15267175572519084,0.0576171875,-0.093505859375,-0.6025390625,0.8976
0.8244274809160306,0.9923664122137404,0.1984732824427481,0.05859375,-0.095947265625,-0.600830078125,0.8993
0.8244274809160306,0.9770992366412213,0.2900763358778626,0.05078125,-0.094970703125,-0.597900390625,0.9009999999999999
0.5954198473282443,0.8244274809160306,0.21374045801526717,0.05322265625,-0.09716796875,-0.599609375,0.9027
0.15267175572519084,0.6412213740458015,0.3053435114503817,0.05810546875,-0.09375,-0.596435546875,0.9044
0.3053435114503817,0.549618320610687,0.32061068702290074,0.062744140625,-0.089111328125,-0.593017578125,0.9060999999999999
0.2748091603053435,0.5038167938931297,0.16793893129770993,0.0595703125,-0.095458984375,-0.6015625,0.9077999999999999
0.015267175572519083,0.3969465648854962,0.22900763358778625,0.052978515625,-0.095458984375,-0.601318359375,0.9095
-0.2748091603053435,0.5343511450381679,0.24427480916030533,0.05517578125,-0.09619140625,-0.6015625,0.9111999999999999
-0.42748091603053434,0.6259541984732825,0.24427480916030533,0.05078125,-0.093017578125,-0.60595703125,0.9128999999999999
-0.6870229007633588,0.5038167938931297,0.22900763358778625,0.0556640625,-0.085693359375,-0.60205078125,0.9146
-0.8854961832061069,0.7022900763358778,0.10687022900763359,0.05859375,-0.094482421875,-0.607177734375,0.9163
-1.1908396946564885,0.9312977099236641,0.061068702290076333,0.056640625,-0.087646484375,-0.60400390625,0.9179999999999999
-1.1755725190839694,0.6717557251908397,0.10687022900763359,0.0546875,-0.09033203125,-0.59814453125,0.9197
-1.5419847328244274,0.6564885496183206,0.2900763358778626,0.05908203125,-0.091796875,-0.602783203125,0.9214
-1.8778625954198473,0.7480916030534351,0.0916030534351145,0.058349609375,-0.087158203125,-0.610107421875,0.9230999999999999
-1.8625954198473282,0.6870229007633588,0.15267175572519084,0.05615234375,-0.08837890625,-0.601806640625,0.9248
-2.1068702290076335,0.7175572519083969,0.44274809160305345,0.059814453125,-0.08349609375,-0.59716796875,0.9265
-2.366412213740458,0.6259541984732825,0.10687022900763359,0.06201171875,-0.0927734375,-0.607421875,0.9281999999999999
-2.2748091603053435,0.6259541984732825,0.33587786259541985,0.059326171875,-0.087646484375,-0.60400390625,0.9299
-2.3969465648854964,0.6870229007633588,0.3816793893129771,0.053955078125,-0.08349609375,-0.607421875,0.9316
-2.564885496183206,0.3511450381679389,0.4122137404580153,0.059814453125,-0.090576171875,-0.602783203125,0.9332999999999999
-2.717557251908397,0.4580152671755725,0.3053435114503817,0.05908203125,-0.085693359375,-0.60009765625,0.9349999999999999
-2.5801526717557253,0.2595419847328244,0.5038167938931297,0.056640625,-0.087646484375,-0.602294921875,0.9367
-2.564885496183206,0.10687022900763359,0.6564885496183206,0.05615234375,-0.08642578125,-0.6025390625,0.9383999999999999
-2.5801526717557253,-0.07633587786259542,0.7022900763358778,0.060302734375,-0.085693359375,-0.603515625,0.9400999999999999
-2.519083969465649,-0.366412213740458,0.42748091603053434,0.057373046875,-0.086181640625,-0.607177734375,0.9418
-2.5801526717557253,-0.4580152671755725,0.5343511450381679,0.059326171875,-0.085693359375,-0.60888671875,0.9434999999999999
-2.4885496183206106,-0.6717557251908397,0.7480916030534351,0.054931640625,-0.081298828125,-0.607421875,0.9451999999999999
-2.33587786259542,-0.8702290076335878,0.732824427480916,0.05810546875,-0.084716796875,-0.60791015625,0.9469
-2.1526717557251906,-0.9923664122137404,0.732824427480916,0.05908203125,-0.08544921875,-0.60595703125,0.9486
-1.984732824427481,-1.2366412213740459,0.916030534351145,0.063232421875,-0.090087890625,-0.595703125,0.9502999999999999
-2.122137404580153,-1.282442748091603,0.8854961832061069,0.06201171875,-0.08837890625,-0.60693359375,0.952
-2.0763358778625953,-1.5419847328244274,1.2671755725190839,0.0625,-0.08984375,-0.607421875,0.9537
-1.9389312977099236,-1.6946564885496183,1.0381679389312977,0.06201171875,-0.094482421875,-0.604736328125,0.9553999999999999
-2.0916030534351147,-1.816793893129771,1.099236641221374,0.056884765625,-0.08837890625,-0.60498046875,0.9571
-2.0,-2.1526717557251906,1.3435114503816794,0.060546875,-0.084716796875,-0.60205078125,0.9588
-1.6641221374045803,-2.4732824427480917,1.282442748091603,0.060302734375,-0.095703125,-0.59912109375,0.9604999999999999
-1.9389312977099236,-2.7022900763358777,1.5267175572519085,0.065185546875,-0.087158203125,-0.603759765625,0.9621999999999999
-1.5267175572519085,-2.900763358778626,1.6030534351145038,0.06201171875,-0.086669921875,-0.597412109375,0.9639
-1.4045801526717556,-3.236641221374046,1.3282442748091603,0.05908203125,-0.085693359375,-0.60546875,0.9655999999999999
-1.5419847328244274,-3.312977099236641,1.465648854961832,0.05859375,-0.0966796875,-0.59716796875,0.9672999999999999
-1.3282442748091603,-3.648854961832061,1.450381679389313,0.057861328125,-0.08837890625,-0.60400390625,0.969
-1.4045801526717556,-4.213740458015267,1.4809160305343512,0.0556640625,-0.08984375,-0.5986328125,0.9706999999999999
-1.5419847328244274,-4.259541984732825,1.5114503816793894,0.051025390625,-0.091796875,-0.60546875,0.9723999999999999
-1.099236641221374,-4.5038167938931295,1.4198473282442747,0.056396484375,-0.089599609375,-0.599609375,0.9741
-1.2671755725190839,-4.580152671755725,1.251908396946565,0.060546875,-0.08837890625,-0.602294921875,0.9758
-1.1755725190839694,-4.824427480916031,1.5877862595419847,0.05859375,-0.088623046875,-0.59912109375,0.9774999999999999
-1.4045801526717556,-4.961832061068702,1.5877862595419847,0.04736328125,-0.087890625,-0.604248046875,0.9792
-1.3587786259541985,-5.4961832061068705,1.3740458015267176,0.053955078125,-0.085205078125,-0.6064453125,0.9809
-1.4961832061068703,-5.404580152671755,1.3282442748091603,0.052001953125,-0.08642578125,-0.602294921875,0.9825999999999999
-1.5877862595419847,-5.557251908396947,1.450381679389313,0.052978515625,-0.080322265625,-0.594970703125,0.9843
-1.6793893129770991,-5.694656488549619,1.4351145038167938,0.0546875,-0.082763671875,-0.593017578125,0.986
-1.7251908396946565,-5.694656488549619,1.3435114503816794,0.05712890625,-0.08056640625,-0.598876953125,0.9876999999999999
-1.8473282442748091,-5.786259541984733,1.3587786259541985,0.053466796875,-0.080810546875,-0.59375,0.9894
-2.0763358778625953,-5.908396946564886,1.5267175572519085,0.05322265625,-0.081787109375,-0.596923828125,0.9911
-2.015267175572519,-5.938931297709924,1.6030534351145038,0.044677734375,-0.082275390625,-0.60693359375,0.9927999999999999
-2.1526717557251906,-5.969465648854962,1.6946564885496183,0.0517578125,-0.077392578125,-0.597900390625,0.9944999999999999
-1.816793893129771,-6.076335877862595,1.5419847328244274,0.057373046875,-0.078125,-0.595947265625,0.9962
-2.030534351145038,-6.198473282442748,1.7251908396946565,0.05859375,-0.07568359375,-0.598388671875,0.9978999999999999
-1.984732824427481,-6.061068702290076,1.5725190839694656,0.05322265625,-0.078857421875,-0.599609375,0.9995999999999999
-1.7251908396946565,-6.229007633587786,1.6488549618320612,0.05517578125,-0.08251953125,-0.59326171875,1.0012999999999999
-1.8625954198473282,-6.229007633587786,1.8015267175572518,0.0576171875,-0.075927734375,-0.60009765625,1.003
-1.3435114503816794,-6.625954198473282,1.8015267175572518,0.055908203125,-0.087890625,-0.59423828125,1.0047
-1.1145038167938932,-6.641221374045801,1.6793893129770991,0.0576171875,-0.07958984375,-0.6005859375,1.0064
-1.0229007633587786,-6.625954198473282,1.6641221374045803,0.055419921875,-0.0791015625,-0.59716796875,1.0081
-0.8396946564885496,-6.809160305343512,1.5419847328244274,0.052001953125,-0.08154296875,-0.603515625,1.0098
-0.4580152671755725,-6.9465648854961835,1.6946564885496183,0.05810546875,-0.083984375,-0.60009765625,1.0114999999999998
-0.2748091603053435,-7.099236641221374,1.4045801526717556,0.057373046875,-0.08447265625,-0.599853515625,1.0131999999999999
-0.12213740458015267,-7.603053435114504,1.7099236641221374,0.056640625,-0.08740234375,-0.597900390625,1.0149
0.12213740458015267,-7.66412213740458,1.618320610687023,0.059326171875,-0.086181640625,-0.597900390625,1.0166
0.2595419847328244,-7.862595419847328,1.6030534351145038,0.0576171875,-0.083984375,-0.6015625,1.0183
0.366412213740458,-7.893129770992366,1.5572519083969465,0.057861328125,-0.08203125,-0.59716796875,1.02
0.4732824427480916,-8.030534351145038,1.7099236641221374,0.062255859375,-0.087646484375,-0.60107421875,1.0217
0.44274809160305345,-8.15267175572519,1.3740458015267176,0.0546875,-0.090087890625,-0.607666015625,1.0233999999999999
0.4580152671755725,-8.442748091603054,1.450381679389313,0.058837890625,-0.087890625,-0.607666015625,1.0251
0.5343511450381679,-8.778625954198473,1.5114503816793894,0.0546875,-0.08642578125,-0.602783203125,1.0268
0.6259541984732825,-8.82442748091603,1.786259541984733,0.052734375,-0.0888671875,-0.601806640625,1.0285
0.6259541984732825,-8.748091603053435,1.465648854961832,0.0556640625,-0.090087890625,-0.594970703125,1.0302
0.3053435114503817,-8.778625954198473,1.450381679389313,0.05419921875,-0.091796875,-0.596435546875,1.0319
0.33587786259541985,-8.946564885496183,1.4198473282442747,0.058837890625,-0.0869140625,-0.599609375,1.0335999999999999
0.32061068702290074,-9.083969465648854,1.3587786259541985,0.05322265625,-0.0888671875,-0.59326171875,1.0352999999999999
0.16793893129770993,-9.17557251908397,1.4198473282442747,0.053955078125,-0.093505859375,-0.59521484375,1.037
0.33587786259541985,-9.236641221374045,1.4198473282442747,0.05224609375,-0.09619140625,-0.59912109375,1.0387
0.3969465648854962,-9.282442748091603,1.3587786259541985,0.05126953125,-0.09326171875,-0.594482421875,1.0404
0.33587786259541985,-9.145038167938932,1.4809160305343512,0.047607421875,-0.09814453125,-0.5927734375,1.0421
0.549618320610687,-9.022900763358779,1.4351145038167938,0.052490234375,-0.091552734375,-0.59375,1.0437999999999998
0.33587786259541985,-9.129770992366412,1.450381679389313,0.05126953125,-0.094482421875,-0.591064453125,1.0454999999999999
0.22900763358778625,-9.007633587786259,1.4351145038167938,0.047119140625,-0.09326171875,-0.601318359375,1.0472
0.2595419847328244,-9.007633587786259,1.3587786259541985,0.05078125,-0.093994140625,-0.593017578125,1.0489
-0.04580152671755725,-8.82442748091603,1.5877862595419847,0.048828125,-0.09912109375,-0.594482421875,1.0506
0.015267175572519083,-9.022900763358779,1.5419847328244274,0.04345703125,-0.100341796875,-0.588134765625,1.0523
0.0,-8.641221374045802,1.5114503816793894,0.043212890625,-0.099609375,-0.587646484375,1.054
0.061068702290076333,-8.687022900763358,1.4045801526717556,0.042236328125,-0.101806640625,-0.596435546875,1.0556999999999999
-0.1984732824427481,-8.580152671755725,1.3740458015267176,0.044189453125,-0.0986328125,-0.58935546875,1.0574
-0.2595419847328244,-8.366412213740459,1.633587786259542,0.04296875,-0.10302734375,-0.58642578125,1.0591
-0.2595419847328244,-8.122137404580153,1.3740458015267176,0.04248046875,-0.098876953125,-0.591064453125,1.0608
-0.9007633587786259,-7.893129770992366,1.4961832061068703,0.048583984375,-0.097412109375,-0.58544921875,1.0625
-0.7786259541984732,-7.786259541984733,1.4809160305343512,0.046630859375,-0.097412109375,-0.583251953125,1.0642
-1.0381679389312977,-7.6183206106870225,1.2061068702290076,0.038330078125,-0.09912109375,-0.586669921875,1.0658999999999998
-1.2213740458015268,-7.541984732824427,1.1603053435114503,0.04345703125,-0.101806640625,-0.586669921875,1.0675999999999999
-1.1297709923664123,-7.145038167938932,1.4198473282442747,0.043212890625,-0.103271484375,-0.592529296875,1.0693
-1.7099236641221374,-7.068702290076335,1.099236641221374,0.03857421875,-0.09912109375,-0.59521484375,1.071
-1.3740458015267176,-6.977099236641221,1.1450381679389312,0.048583984375,-0.102294921875,-0.592041015625,1.0727
-1.3740458015267176,-6.763358778625954,1.083969465648855,0.0478515625,-0.0986328125,-0.592041015625,1.0744
-1.6793893129770991,-6.549618320610687,1.0687022900763359,0.042724609375,-0.1015625,-0.585693359375,1.0760999999999998
-1.6793893129770991,-6.320610687022901,1.1145038167938932,0.037841796875,-0.100341796875,-0.586181640625,1.0777999999999999
-1.5267175572519085,-6.213740458015267,1.1603053435114503,0.040771484375,-0.100341796875,-0.5908203125,1.0795
-1.6793893129770991,-6.244274809160306,1.1297709923664123,0.046142578125,-0.099365234375,-0.593994140625,1.0812
-1.8625954198473282,-6.015267175572519,0.9923664122137404,0.0439453125,-0.098876953125,-0.579833984375,1.0829
-1.8015267175572518,-5.984732824427481,0.916030534351145,0.045654296875,-0.09423828125,-0.582763671875,1.0846
-1.7099236641221374,-6.122137404580153,0.7786259541984732,0.04638671875,-0.0927734375,-0.5859375,1.0863
-1.816793893129771,-6.061068702290076,0.7633587786259542,0.041259765625,-0.09228515625,-0.58544921875,1.0879999999999999
-1.6641221374045803,-6.076335877862595,0.7938931297709924,0.040771484375,-0.0986328125,-0.58935546875,1.0897
-1.6488549618320612,-6.106870229007634,0.6564885496183206,0.0439453125,-0.093505859375,-0.589599609375,1.0914
-1.8931297709923665,-6.1679389312977095,0.44274809160305345,0.048583984375,-0.093505859375,-0.58984375,1.0931
-1.7557251908396947,-6.229007633587786,0.32061068702290074,0.046875,-0.095458984375,-0.57958984375,1.0948
-1.7709923664122138,-6.320610687022901,0.366412213740458,0.049072265625,-0.0927734375,-0.592041015625,1.0965
-2.1374045801526718,-6.564885496183206,0.16793893129770993,0.048828125,-0.091552734375,-0.589111328125,1.0981999999999998
-1.8015267175572518,-6.473282442748092,-0.061068702290076333,0.048828125,-0.089111328125,-0.591552734375,1.0998999999999999
-1.83206106870229,-6.442748091603053,0.07633587786259542,0.047607421875,-0.087890625,-0.599365234375,1.1016
-2.0610687022900764,-6.687022900763359,-0.04580152671755725,0.047119140625,-0.085205078125,-0.596435546875,1.1033
-1.9083969465648856,-6.641221374045801,-0.1984732824427481,0.047119140625,-0.0927734375,-0.60107421875,1.105
-1.7709923664122138,-6.5038167938931295,-0.3511450381679389,0.048583984375,-0.092041015625,-0.588623046875,1.1067
-1.7404580152671756,-6.748091603053435,-0.13740458015267176,0.047607421875,-0.09375,-0.5966796875,1.1083999999999998
-1.6641221374045803,-6.458015267175573,-0.1984732824427481,0.043701171875,-0.08642578125,-0.5966796875,1.1100999999999999
-1.4809160305343512,-6.519083969465649,-0.33587786259541985,0.0439453125,-0.08984375,-0.60009765625,1.1118
-1.2213740458015268,-6.564885496183206,-0.2595419847328244,0.049560546875,-0.085693359375,-0.60791015625,1.1135
-0.9923664122137404,-6.625954198473282,-0.22900763358778625,0.049072265625,-0.08642578125,-0.596435546875,1.1152
-0.5648854961832062,-6.6106870229007635,-0.4580152671755725,0.048828125,-0.08642578125,-0.605224609375,1.1169
-0.42748091603053434,-6.824427480916031,-0.549618320610687,0.05126953125,-0.08544921875,-0.598388671875,1.1186
-0.1984732824427481,-6.885496183206107,-0.5801526717557252,0.050048828125,-0.08251953125,-0.5986328125,1.1202999999999999
0.07633587786259542,-6.732824427480916,-0.4732824427480916,0.048583984375,-0.086181640625,-0.592041015625,1.1219999999999999
0.4122137404580153,-6.809160305343512,-0.44274809160305345,0.0439453125,-0.088623046875,-0.5986328125,1.1237
0.732824427480916,-6.99236641221374,-0.4732824427480916,0.047607421875,-0.09033203125,-0.600341796875,1.1254
0.916030534351145,-7.145038167938932,-0.8702290076335878,0.04833984375,-0.08984375,-0.595458984375,1.1271
0.9770992366412213,-7.022900763358779,-0.6717557251908397,0.04931640625,-0.092529296875,-0.598388671875,1.1288
1.1908396946564885,-7.0534351145038165,-0.7175572519083969,0.046630859375,-0.0888671875,-0.58935546875,1.1304999999999998
1.5267175572519085,-7.267175572519084,-0.7938931297709924,0.050048828125,-0.079833984375,-0.597900390625,1.1321999999999999
1.7251908396946565,-7.022900763358779,-1.099236641221374,0.04833984375,-0.09033203125,-0.598388671875,1.1339
1.8473282442748091,-7.404580152671755,-1.1908396946564885,0.04541015625,-0.088134765625,-0.594482421875,1.1356
1.7099236641221374,-7.297709923664122,-1.1450381679389312,0.0400390625,-0.08740234375,-0.595703125,1.1373
2.045801526717557,-7.175572519083969,-1.297709923664122,0.0478515625,-0.085205078125,-0.591064453125,1.139
2.2900763358778624,-7.465648854961832,-1.5419847328244274,0.0439453125,-0.086181640625,-0.596923828125,1.1407
2.030534351145038,-7.251908396946565,-1.5725190839694656,0.04736328125,-0.084716796875,-0.59912109375,1.1423999999999999
1.7709923664122138,-7.099236641221374,-1.6488549618320612,0.044921875,-0.08837890625,-0.60009765625,1.1441
2.0610687022900764,-7.022900763358779,-1.618320610687023,0.04541015625,-0.08935546875,-0.60205078125,1.1458
1.9236641221374047,-6.916030534351145,-1.5419847328244274,0.04736328125,-0.081298828125,-0.59716796875,1.1475
1.9236641221374047,-6.748091603053435,-1.6641221374045803,0.050048828125,-0.0908203125,-0.595947265625,1.1492
1.7251908396946565,-6.534351145038168,-1.786259541984733,0.047119140625,-0.090087890625,-0.6064453125,1.1509
2.015267175572519,-6.427480916030534,-1.9083969465648856,0.045654296875,-0.085693359375,-0.597900390625,1.1525999999999998
1.8778625954198473,-6.290076335877862,-2.0763358778625953,0.044189453125,-0.089599609375,-0.587890625,1.1542999999999999
2.045801526717557,-6.259541984732825,-2.0,0.04736328125,-0.091064453125,-0.59521484375,1.156
1.9083969465648856,-6.0,-1.9541984732824427,0.043212890625,-0.09228515625,-0.59033203125,1.1577
1.8625954198473282,-5.877862595419847,-1.9389312977099236,0.044189453125,-0.099365234375,-0.595947265625,1.1594
1.9083969465648856,-6.061068702290076,-1.984732824427481,0.041259765625,-0.091064453125,-0.587158203125,1.1611
2.0,-5.9541984732824424,-2.198473282442748,0.04443359375,-0.093505859375,-0.591796875,1.1627999999999998
1.8625954198473282,-5.816793893129771,-2.045801526717557,0.045166015625,-0.0908203125,-0.588134765625,1.1644999999999999
1.83206106870229,-5.6183206106870225,-1.786259541984733,0.04150390625,-0.099853515625,-0.59619140625,1.1662
1.8931297709923665,-5.923664122137405,-1.9236641221374047,0.04931640625,-0.09326171875,-0.60009765625,1.1679
2.0,-5.755725190839694,-1.9694656488549618,0.046875,-0.099365234375,-0.5888671875,1.1696
1.7404580152671756,-5.435114503816794,-1.9389312977099236,0.0478515625,-0.1005859375,-0.590576171875,1.1713
2.030534351145038,-5.633587786259542,-1.786259541984733,0.048583984375,-0.09619140625,-0.58837890625,1.173
2.1374045801526718,-5.755725190839694,-1.6946564885496183,0.04833984375,-0.099609375,-0.59765625,1.1746999999999999
2.0,-5.572519083969466,-1.7099236641221374,0.0537109375,-0.10302734375,-0.58984375,1.1764
2.045801526717557,-5.648854961832061,-1.6488549618320612,0.048095703125,-0.100830078125,-0.583740234375,1.1781
1.816793893129771,-5.603053435114504,-1.3740458015267176,0.048095703125,-0.09716796875,-0.59130859375,1.1798
1.9083969465648856,-5.740458015267175,-1.633587786259542,0.050537109375,-0.1025390625,-0.58935546875,1.1815
1.8778625954198473,-5.923664122137405,-1.6030534351145038,0.05224609375,-0.099853515625,-0.59521484375,1.1832
1.7099236641221374,-5.847328244274809,-1.6641221374045803,0.0498046875,-0.100830078125,-0.58837890625,1.1848999999999998
1.4961832061068703,-5.923664122137405,-1.5419847328244274,0.048828125,-0.10009765625,-0.586181640625,1.1865999999999999
1.450381679389313,-6.137404580152672,-1.816793893129771,0.050048828125,-0.099853515625,-0.592529296875,1.1883
1.4809160305343512,-6.33587786259542,-1.5725190839694656,0.046142578125,-0.10205078125,-0.60009765625,1.19
1.2671755725190839,-6.67175572519084,-1.4045801526717556,0.0498046875,-0.09619140625,-0.59521484375,1.1917
0.916030534351145,-6.778625954198473,-1.7557251908396947,0.048583984375,-0.09423828125,-0.589111328125,1.1934
0.7633587786259542,-7.0534351145038165,-1.83206106870229,0.055419921875,-0.09375,-0.596923828125,1.1950999999999998
1.099236641221374,-7.129770992366412,-1.6641221374045803,0.048095703125,-0.099853515625,-0.587646484375,1.1967999999999999
0.6259541984732825,-7.3893129770992365,-1.83206106870229,0.046630859375,-0.097412109375,-0.591552734375,1.1985
0.44274809160305345,-7.66412213740458,-1.9236641221374047,0.047607421875,-0.0966796875,-0.59326171875,1.2002
0.2900763358778626,-7.740458015267175,-1.9541984732824427,0.050048828125,-0.09375,-0.590576171875,1.2019
0.21374045801526717,-7.908396946564886,-2.0,0.044677734375,-0.09619140625,-0.59521484375,1.2036
-0.12213740458015267,-7.9541984732824424,-2.33587786259542,0.041748046875,-0.0927734375,-0.59033203125,1.2053
-0.07633587786259542,-8.15267175572519,-2.1526717557251906,0.04638671875,-0.08740234375,-0.599365234375,1.2069999999999999
-0.21374045801526717,-8.106870229007633,-2.33587786259542,0.04541015625,-0.090576171875,-0.59912109375,1.2086999999999999
-0.366412213740458,-8.320610687022901,-2.2595419847328246,0.0439453125,-0.081298828125,-0.601318359375,1.2104
-0.5038167938931297,-8.458015267175572,-2.5343511450381677,0.0419921875,-0.09521484375,-0.59619140625,1.2121
-0.366412213740458,-8.564885496183207,-2.366412213740458,0.044677734375,-0.08837890625,-0.590576171875,1.2138
-0.48854961832061067,-8.534351145038167,-2.4427480916030535,0.046142578125,-0.08544921875,-0.59033203125,1.2155
-0.4122137404580153,-8.595419847328245,-2.5343511450381677,0.0478515625,-0.0830078125,-0.6044921875,1.2171999999999998
-0.32061068702290074,-8.625954198473282,-2.6717557251908395,0.046142578125,-0.08154296875,-0.58935546875,1.2188999999999999
-0.5038167938931297,-8.67175572519084,-2.519083969465649,0.047607421875,-0.0810546875,-0.594482421875,1.2206
-0.12213740458015267,-8.793893129770993,-2.5801526717557253,0.04248046875,-0.083251953125,-0.598876953125,1.2223
-0.1984732824427481,-8.717557251908397,-2.763358778625954,0.043701171875,-0.0869140625,-0.611083984375,1.224
-0.0916030534351145,-8.442748091603054,-2.6564885496183206,0.044921875,-0.083984375,-0.59716796875,1.2257
0.21374045801526717,-8.687022900763358,-2.549618320610687,0.037353515625,-0.080078125,-0.59521484375,1.2273999999999998
0.2595419847328244,-8.763358778625955,-2.519083969465649,0.04248046875,-0.083740234375,-0.590576171875,1.2290999999999999
0.33587786259541985,-8.885496183206106,-2.6717557251908395,0.0390625,-0.083740234375,-0.59130859375,1.2308
0.6870229007633588,-8.65648854961832,-2.8244274809160306,0.040283203125,-0.078857421875,-0.593505859375,1.2325
0.7175572519083969,-8.67175572519084,-2.6412213740458017,0.046142578125,-0.082763671875,-0.59326171875,1.2342
1.1145038167938932,-8.564885496183207,-2.8396946564885495,0.04345703125,-0.080078125,-0.605712890625,1.2359
1.6030534351145038,-8.717557251908397,-2.6412213740458017,0.04443359375,-0.084716796875,-0.598876953125,1.2376
1.4809160305343512,-8.473282442748092,-2.6106870229007635,0.04443359375,-0.0810546875,-0.59521484375,1.2392999999999998
1.8473282442748091,-8.335877862595419,-2.6412213740458017,0.036376953125,-0.081787109375,-0.5986328125,1.2409999999999999
1.9236641221374047,-8.229007633587786,-2.7480916030534353,0.037353515625,-0.082275390625,-0.59814453125,1.2427
2.1374045801526718,-8.061068702290076,-2.3969465648854964,0.045166015625,-0.082763671875,-0.5986328125,1.2444
2.5343511450381677,-7.969465648854962,-2.381679389312977,0.046630859375,-0.082763671875,-0.59619140625,1.2461
2.564885496183206,-7.908396946564886,-2.427480916030534,0.042236328125,-0.08349609375,-0.602783203125,1.2478
2.549618320610687,-7.7251908396946565,-2.198473282442748,0.0400390625,-0.080078125,-0.600830078125,1.2494999999999998
2.6717557251908395,-7.572519083969466,-2.33587786259542,0.041748046875,-0.08154296875,-0.593017578125,1.2511999999999999
2.900763358778626,-7.312977099236641,-2.4427480916030535,0.042236328125,-0.078125,-0.60205078125,1.2529
3.068702290076336,-7.175572519083969,-2.351145038167939,0.04443359375,-0.085205078125,-0.59912109375,1.2546
3.0076335877862594,-7.267175572519084,-2.2595419847328246,0.0458984375,-0.086181640625,-0.59716796875,1.2563
3.1755725190839694,-7.00763358778626,-2.2595419847328246,0.04248046875,-0.087890625,-0.59619140625,1.258
3.068702290076336,-6.885496183206107,-2.198473282442748,0.043212890625,-0.0849609375,-0.595458984375,1.2596999999999998
3.0229007633587788,-6.885496183206107,-1.8778625954198473,0.041259765625,-0.087158203125,-0.595703125,1.2613999999999999
3.450381679389313,-6.854961832061068,-1.9389312977099236,0.042236328125,-0.093994140625,-0.5966796875,1.2631
3.114503816793893,-6.6106870229007635,-2.0,0.03955078125,-0.09423828125,-0.60107421875,1.2648
3.1908396946564888,-6.580152671755725,-1.83206106870229,0.0458984375,-0.087890625,-0.59521484375,1.2665
3.3587786259541983,-6.3816793893129775,-1.7709923664122138,0.038330078125,-0.093994140625,-0.590576171875,1.2682
3.145038167938931,-6.2748091603053435,-1.9083969465648856,0.042236328125,-0.0888671875,-0.59130859375,1.2699
3.4198473282442747,-6.320610687022901,-1.6946564885496183,0.04541015625,-0.091064453125,-0.59521484375,1.2715999999999998
3.312977099236641,-6.33587786259542,-1.7099236641221374,0.04443359375,-0.09326171875,-0.592041015625,1.2732999999999999
3.099236641221374,-6.106870229007634,-1.5267175572519085,0.04248046875,-0.09375,-0.593017578125,1.275
2.931297709923664,-6.290076335877862,-1.8015267175572518,0.037109375,-0.090576171875,-0.594970703125,1.2767
2.8396946564885495,-6.396946564885496,-1.7557251908396947,0.041748046875,-0.093017578125,-0.59765625,1.2784
2.900763358778626,-6.183206106870229,-1.4809160305343512,0.044189453125,-0.09716796875,-0.59521484375,1.2801
2.6717557251908395,-6.305343511450381,-1.4045801526717556,0.04736328125,-0.094970703125,-0.59423828125,1.2817999999999998
2.2290076335877864,-6.320610687022901,-1.5725190839694656,0.042236328125,-0.09228515625,-0.590576171875,1.2834999999999999
2.015267175572519,-6.213740458015267,-1.465648854961832,0.039306640625,-0.09033203125,-0.598388671875,1.2852
2.015267175572519,-6.229007633587786,-1.282442748091603,0.03662109375,-0.092041015625,-0.59619140625,1.2869
1.6488549618320612,-6.351145038167939,-1.2671755725190839,0.038330078125,-0.092041015625,-0.5966796875,1.2886
1.3587786259541985,-6.244274809160306,-1.083969465648855,0.0380859375,-0.084716796875,-0.60009765625,1.2903
1.5877862595419847,-6.183206106870229,-1.083969465648855,0.03759765625,-0.09130859375,-0.598876953125,1.292
0.9923664122137404,-6.0458015267175576,-1.0534351145038168,0.040283203125,-0.09033203125,-0.607177734375,1.2936999999999999
0.9007633587786259,-6.122137404580153,-0.916030534351145,0.04296875,-0.093017578125,-0.594970703125,1.2953999999999999
0.549618320610687,-6.091603053435114,-0.9007633587786259,0.041015625,-0.092529296875,-0.59326171875,1.2971
0.183206106870229,-5.893129770992366,-0.7786259541984732,0.042236328125,-0.089599609375,-0.603759765625,1.2988
0.33587786259541985,-6.0,-0.3969465648854962,0.0341796875,-0.091796875,-0.59912109375,1.3005
0.183206106870229,-6.091603053435114,-0.5801526717557252,0.038818359375,-0.08740234375,-0.609375,1.3022
-0.04580152671755725,-6.061068702290076,-0.366412213740458,0.03564453125,-0.08984375,-0.599853515625,1.3038999999999998
0.10687022900763359,-5.893129770992366,-0.4732824427480916,0.03955078125,-0.090576171875,-0.6015625,1.3055999999999999
0.015267175572519083,-5.847328244274809,-0.22900763358778625,0.03662109375,-0.087158203125,-0.598876953125,1.3073
-0.04580152671755725,-5.908396946564886,-0.33587786259541985,0.037841796875,-0.083984375,-0.598876953125,1.309
-0.030534351145038167,-5.862595419847328,-0.32061068702290074,0.037353515625,-0.08935546875,-0.60546875,1.3107
0.0,-6.0458015267175576,-0.33587786259541985,0.0419921875,-0.081787109375,-0.599609375,1.3124
0.22900763358778625,-5.847328244274809,-0.24427480916030533,0.03564453125,-0.080078125,-0.610595703125,1.3140999999999998
0.3511450381679389,-5.893129770992366,-0.4122137404580153,0.0361328125,-0.08642578125,-0.610107421875,1.3157999999999999
0.4122137404580153,-5.893129770992366,-0.3053435114503817,0.033935546875,-0.081298828125,-0.6044921875,1.3175
0.7633587786259542,-5.984732824427481,-0.6870229007633588,0.033935546875,-0.078857421875,-0.607421875,1.3192
1.0229007633587786,-6.015267175572519,-0.2900763358778626,0.03369140625,-0.078125,-0.603759765625,1.3209
1.282442748091603,-5.908396946564886,-0.4122137404580153,0.037353515625,-0.080322265625,-0.615966796875,1.3226
1.4351145038167938,-5.679389312977099,-0.5038167938931297,0.033203125,-0.078857421875,-0.602783203125,1.3243
1.5572519083969465,-5.740458015267175,-0.6412213740458015,0.033203125,-0.08154296875,-0.605712890625,1.3259999999999998
1.83206106870229,-5.709923664122138,-0.5648854961832062,0.02783203125,-0.08056640625,-0.60009765625,1.3276999999999999
1.6946564885496183,-5.572519083969466,-0.8091603053435115,0.030029296875,-0.081298828125,-0.605224609375,1.3294
2.0,-5.450381679389313,-0.732824427480916,0.03466796875,-0.077880859375,-0.61376953125,1.3311
2.2290076335877864,-5.038167938931298,-0.7786259541984732,0.0283203125,-0.078857421875,-0.604248046875,1.3328
2.519083969465649,-4.870229007633588,-0.5954198473282443,0.03125,-0.080322265625,-0.605224609375,1.3345
2.519083969465649,-4.8396946564885495,-0.8702290076335878,0.031005859375,-0.078857421875,-0.605224609375,1.3361999999999998
3.0076335877862594,-4.641221374045801,-0.5038167938931297,0.027099609375,-0.073486328125,-0.610595703125,1.3378999999999999
2.931297709923664,-4.015267175572519,-0.7175572519083969,0.030029296875,-0.083251953125,-0.599609375,1.3396
3.267175572519084,-3.969465648854962,-0.7633587786259542,0.031005859375,-0.07373046875,-0.6044921875,1.3413
3.3740458015267176,-3.6030534351145036,-0.6106870229007634,0.0341796875,-0.07666015625,-0.60546875,1.343
3.480916030534351,-3.282442748091603,-0.3816793893129771,0.0283203125,-0.08349609375,-0.60498046875,1.3447
3.66412213740458,-3.1297709923664123,-0.6564885496183206,0.028076171875,-0.079345703125,-0.60595703125,1.3463999999999998
3.816793893129771,-2.687022900763359,-0.4580152671755725,0.031982421875,-0.081787109375,-0.6044921875,1.3480999999999999
3.8473282442748094,-2.213740458015267,-0.42748091603053434,0.0283203125,-0.08056640625,-0.612060546875,1.3497999999999999
3.9236641221374047,-1.9694656488549618,-0.42748091603053434,0.02978515625,-0.0830078125,-0.60302734375,1.3515
4.122137404580153,-1.5114503816793894,-0.2900763358778626,0.02880859375,-0.085205078125,-0.609619140625,1.3532
3.816793893129771,-1.3129770992366412,-0.21374045801526717,0.029052734375,-0.081298828125,-0.609130859375,1.3549
3.954198473282443,-0.9770992366412213,-0.33587786259541985,0.033203125,-0.085205078125,-0.595703125,1.3566
4.0,-0.6564885496183206,-0.16793893129770993,0.032470703125,-0.084228515625,-0.6005859375,1.3582999999999998
3.66412213740458,-0.42748091603053434,-0.16793893129770993,0.030029296875,-0.08837890625,-0.60009765625,1.3599999999999999
3.633587786259542,-0.2748091603053435,0.061068702290076333,0.02978515625,-0.0927734375,-0.6015625,1.3617
3.3893129770992365,0.0,-0.24427480916030533,0.03173828125,-0.09130859375,-0.602294921875,1.3634
3.236641221374046,0.15267175572519084,0.061068702290076333,0.030029296875,-0.093994140625,-0.603515625,1.3651
3.1603053435114505,-0.015267175572519083,0.015267175572519083,0.034912109375,-0.0908203125,-0.60107421875,1.3668
2.9770992366412212,0.3053435114503817,-0.061068702290076333,0.0322265625,-0.0986328125,-0.601318359375,1.3684999999999998
2.763358778625954,0.3816793893129771,0.04580152671755725,0.029296875,-0.094482421875,-0.594970703125,1.3701999999999999
2.7022900763358777,0.3511450381679389,-0.16793893129770993,0.03076171875,-0.09716796875,-0.60400390625,1.3719
2.3969465648854964,0.6259541984732825,-0.32061068702290074,0.029541015625,-0.09521484375,-0.602783203125,1.3736
2.198473282442748,0.6564885496183206,0.12213740458015267,0.031005859375,-0.1044921875,-0.609130859375,1.3753
1.9236641221374047,0.7480916030534351,-0.061068702290076333,0.032470703125,-0.099365234375,-0.61181640625,1.377
1.8015267175572518,0.7938931297709924,-0.22900763358778625,0.03076171875,-0.101806640625,-0.602783203125,1.3786999999999998
1.9236641221374047,1.0534351145038168,-0.13740458015267176,0.03173828125,-0.1015625,-0.60498046875,1.3803999999999998
1.5419847328244274,1.1603053435114503,-0.10687022900763359,0.031982421875,-0.104248046875,-0.603271484375,1.3820999999999999
1.2366412213740459,0.9618320610687023,-0.3511450381679389,0.032470703125,-0.101318359375,-0.614013671875,1.3838
1.099236641221374,1.1297709923664123,-0.33587786259541985,0.029296875,-0.10205078125,-0.607666015625,1.3855
1.1755725190839694,1.282442748091603,-0.44274809160305345,0.033203125,-0.0966796875,-0.6015625,1.3872
0.6564885496183206,1.3282442748091603,-0.42748091603053434,0.033203125,-0.098388671875,-0.602783203125,1.3889
0.2900763358778626,1.4045801526717556,-0.6259541984732825,0.03076171875,-0.096435546875,-0.5986328125,1.3905999999999998
0.04580152671755725,1.282442748091603,-0.5190839694656488,0.029052734375,-0.096923828125,-0.60693359375,1.3922999999999999
-0.10687022900763359,1.2213740458015268,-0.8244274809160306,0.027099609375,-0.09716796875,-0.60595703125,1.394
-0.183206106870229,0.9923664122137404,-0.8549618320610687,0.03076171875,-0.09326171875,-0.60107421875,1.3957
-0.3816793893129771,1.297709923664122,-1.1603053435114503,0.03466796875,-0.093994140625,-0.602783203125,1.3974
-0.6412213740458015,1.297709923664122,-1.0687022900763359,0.03466796875,-0.093505859375,-0.602783203125,1.3991
-0.7633587786259542,1.0229007633587786,-1.1297709923664123,0.02880859375,-0.09326171875,-0.60400390625,1.4007999999999998
-0.6106870229007634,1.0229007633587786,-1.1603053435114503,0.032958984375,-0.088134765625,-0.612548828125,1.4024999999999999
-0.8091603053435115,1.0076335877862594,-1.5419847328244274,0.0302734375,-0.089111328125,-0.603515625,1.4042
-0.6106870229007634,1.1297709923664123,-1.4198473282442747,0.031494140625,-0.087158203125,-0.611083984375,1.4059
-0.6870229007633588,0.916030534351145,-1.3587786259541985,0.02734375,-0.08251953125,-0.606689453125,1.4076
-0.916030534351145,0.916030534351145,-1.4045801526717556,0.033935546875,-0.083251953125,-0.607177734375,1.4093
-0.8702290076335878,0.7633587786259542,-1.4809160305343512,0.033447265625,-0.0869140625,-0.610107421875,1.411
-0.5038167938931297,1.0076335877862594,-1.5572519083969465,0.031494140625,-0.081787109375,-0.61083984375,1.4126999999999998
-0.5038167938931297,1.2671755725190839,-1.7099236641221374,0.03369140625,-0.079345703125,-0.608154296875,1.4143999999999999
-0.42748091603053434,1.1450381679389312,-1.786259541984733,0.036376953125,-0.08447265625,-0.608154296875,1.4161
-0.3969465648854962,1.4961832061068703,-1.618320610687023,0.030029296875,-0.084716796875,-0.60693359375,1.4178
0.061068702290076333,1.6946564885496183,-1.618320610687023,0.029296875,-0.080078125,-0.604248046875,1.4195
0.04580152671755725,1.6030534351145038,-1.6030534351145038,0.02734375,-0.0810546875,-0.59716796875,1.4212
0.030534351145038167,1.8473282442748091,-1.4198473282442747,0.02880859375,-0.08544921875,-0.61279296875,1.4228999999999998
0.22900763358778625,2.183206106870229,-1.3435114503816794,0.032958984375,-0.083740234375,-0.605712890625,1.4245999999999999
0.5038167938931297,2.2748091603053435,-1.1908396946564885,0.035400390625,-0.083984375,-0.60595703125,1.4263
0.7938931297709924,2.50381679389313,-1.1450381679389312,0.03125,-0.0830078125,-0.60107421875,1.428
0.8549618320610687,2.6717557251908395,-1.0229007633587786,0.0361328125,-0.08837890625,-0.6064453125,1.4297
1.2366412213740459,2.854961832061069,-0.9618320610687023,0.033447265625,-0.079345703125,-0.609130859375,1.4314
1.251908396946565,3.0229007633587788,-0.8702290076335878,0.032958984375,-0.084228515625,-0.607421875,1.4330999999999998
1.5267175572519085,3.145038167938931,-0.7938931297709924,0.039306640625,-0.08935546875,-0.600830078125,1.4347999999999999
1.6030534351145038,3.3282442748091605,-0.7175572519083969,0.031005859375,-0.078857421875,-0.602783203125,1.4364999999999999
1.5267175572519085,3.282442748091603,-0.8396946564885496,0.0302734375,-0.07958984375,-0.6044921875,1.4382
1.8625954198473282,3.3587786259541983,-0.9312977099236641,0.032470703125,-0.087646484375,-0.60205078125,1.4399
1.9694656488549618,3.450381679389313,-0.8854961832061069,0.032470703125,-0.092529296875,-0.595458984375,1.4416
1.9541984732824427,3.49618320610687,-0.8244274809160306,0.03759765625,-0.09130859375,-0.603271484375,1.4433
1.816793893129771,3.633587786259542,-0.9770992366412213,0.040283203125,-0.086669921875,-0.59814453125,1.4449999999999998
1.8931297709923665,3.3282442748091605,-0.9770992366412213,0.03662109375,-0.090087890625,-0.597900390625,1.4466999999999999
1.8778625954198473,3.3282442748091605,-1.1755725190839694,0.0341796875,-0.092041015625,-0.60205078125,1.4484
1.83206106870229,3.5419847328244276,-1.251908396946565,0.03515625,-0.0888671875,-0.60009765625,1.4501
1.786259541984733,3.312977099236641,-1.2061068702290076,0.0302734375,-0.08935546875,-0.597900390625,1.4518
1.7709923664122138,3.2519083969465647,-1.3435114503816794,0.03515625,-0.091064453125,-0.6005859375,1.4535
1.5267175572519085,3.3740458015267176,-1.3740458015267176,0.0380859375,-0.0947265625,-0.6015625,1.4551999999999998
1.5877862595419847,3.2213740458015265,-1.4961832061068703,0.03564453125,-0.090087890625,-0.603515625,1.4568999999999999
1.3893129770992367,3.1755725190839694,-1.5114503816793894,0.03271484375,-0.095458984375,-0.59716796875,1.4586
1.297709923664122,3.312977099236641,-1.633587786259542,0.035888671875,-0.09326171875,-0.60302734375,1.4603
1.3129770992366412,3.099236641221374,-1.5725190839694656,0.036376953125,-0.094482421875,-0.60302734375,1.462
1.633587786259542,2.931297709923664,-1.7404580152671756,0.03369140625,-0.0927734375,-0.599609375,1.4637
1.3893129770992367,2.9160305343511452,-1.8473282442748091,0.0322265625,-0.09716796875,-0.6044921875,1.4653999999999998
1.3129770992366412,3.053435114503817,-2.0,0.037109375,-0.09912109375,-0.599365234375,1.4670999999999998
1.297709923664122,3.0076335877862594,-1.786259541984733,0.0400390625,-0.096435546875,-0.60107421875,1.4687999999999999
1.3740458015267176,2.854961832061069,-2.183206106870229,0.033935546875,-0.0966796875,-0.591552734375,1.4705
1.2671755725190839,3.053435114503817,-2.1374045801526718,0.03564453125,-0.097412109375,-0.60009765625,1.4722
1.3740458015267176,2.885496183206107,-2.16793893129771,0.03271484375,-0.095703125,-0.60205078125,1.4739
1.1297709923664123,2.8702290076335877,-2.0763358778625953,0.031494140625,-0.09326171875,-0.596923828125,1.4756
1.1603053435114503,2.9160305343511452,-2.122137404580153,0.036376953125,-0.096923828125,-0.602294921875,1.4772999999999998
0.916030534351145,2.717557251908397,-2.16793893129771,0.029296875,-0.09716796875,-0.597412109375,1.4789999999999999
0.9770992366412213,2.8396946564885495,-2.3053435114503817,0.032958984375,-0.09619140625,-0.610107421875,1.4807
0.916030534351145,3.0076335877862594,-2.3053435114503817,0.031982421875,-0.095703125,-0.597900390625,1.4824
0.5648854961832062,2.8244274809160306,-2.2290076335877864,0.030517578125,-0.096923828125,-0.59765625,1.4841
0.2595419847328244,2.8702290076335877,-2.0763358778625953,0.034423828125,-0.098388671875,-0.610107421875,1.4858
0.2748091603053435,2.900763358778626,-2.3206106870229006,0.031494140625,-0.094970703125,-0.6015625,1.4874999999999998
-0.24427480916030533,3.0381679389312977,-2.122137404580153,0.029541015625,-0.099853515625,-0.593505859375,1.4891999999999999
0.0916030534351145,3.2213740458015265,-2.015267175572519,0.033935546875,-0.095703125,-0.59375,1.4909
-0.13740458015267176,3.099236641221374,-1.9236641221374047,0.03466796875,-0.093505859375,-0.6005859375,1.4926
-0.3816793893129771,3.1603053435114505,-2.2290076335877864,0.031982421875,-0.095703125,-0.60693359375,1.4943
-0.5343511450381679,3.2977099236641223,-1.8473282442748091,0.036865234375,-0.09375,-0.594970703125,1.496
-0.48854961832061067,3.1908396946564888,-2.0,0.029296875,-0.09716796875,-0.593505859375,1.4976999999999998
-0.6412213740458015,3.0381679389312977,-1.9541984732824427,0.030029296875,-0.08740234375,-0.5888671875,1.4993999999999998
-0.6870229007633588,3.068702290076336,-1.9083969465648856,0.034912109375,-0.0908203125,-0.595703125,1.5010999999999999
-0.9465648854961832,3.114503816793893,-1.8931297709923665,0.02978515625,-0.09228515625,-0.598876953125,1.5028
-0.916030534351145,2.946564885496183,-1.9694656488549618,0.031982421875,-0.089111328125,-0.596923828125,1.5045
-0.9312977099236641,3.0076335877862594,-1.9389312977099236,0.032470703125,-0.087646484375,-0.6044921875,1.5062
-0.8854961832061069,2.9923664122137406,-1.984732824427481,0.03125,-0.08984375,-0.596923828125,1.5079
-1.0229007633587786,2.7022900763358777,-2.030534351145038,0.029541015625,-0.0888671875,-0.59814453125,1.5095999999999998
-1.1603053435114503,2.717557251908397,-2.0916030534351147,0.034912109375,-0.09375,-0.59912109375,1.5112999999999999
-1.099236641221374,2.732824427480916,-1.83206106870229,0.037109375,-0.09326171875,-0.58984375,1.513
-1.0229007633587786,2.6259541984732824,-2.015267175572519,0.032958984375,-0.087158203125,-0.597900390625,1.5147
-0.9465648854961832,2.3969465648854964,-1.7709923664122138,0.033447265625,-0.086181640625,-0.599853515625,1.5164
-1.1603053435114503,2.2595419847328246,-1.83206106870229,0.028564453125,-0.087158203125,-0.584716796875,1.5181
-0.9770992366412213,2.2900763358778624,-1.8625954198473282,0.0341796875,-0.087890625,-0.60205078125,1.5197999999999998
-0.916030534351145,2.33587786259542,-1.9083969465648856,0.033935546875,-0.086669921875,-0.58935546875,1.5214999999999999
-0.8244274809160306,2.213740458015267,-1.7099236641221374,0.029541015625,-0.084228515625,-0.592041015625,1.5231999999999999
-0.549618320610687,2.2290076335877864,-2.0,0.036376953125,-0.08837890625,-0.599853515625,1.5249
-0.6412213740458015,1.984732824427481,-1.9694656488549618,0.033447265625,-0.087158203125,-0.599853515625,1.5266
-0.4122137404580153,1.6793893129770991,-1.83206106870229,0.033203125,-0.08056640625,-0.604248046875,1.5283
-0.16793893129770993,1.7251908396946565,-1.8931297709923665,0.0322265625,-0.083740234375,-0.58984375,1.5299999999999998
-0.15267175572519084,1.5114503816793894,-2.0,0.033447265625,-0.08251953125,-0.601318359375,1.5316999999999998
-0.030534351145038167,1.297709923664122,-1.7557251908396947,0.034912109375,-0.082275390625,-0.592529296875,1.5333999999999999
0.061068702290076333,1.282442748091603,-1.9694656488549618,0.03369140625,-0.086181640625,-0.599853515625,1.5351
0.4122137404580153,1.1603053435114503,-1.9389312977099236,0.03369140625,-0.083740234375,-0.591552734375,1.5368
0.061068702290076333,1.0534351145038168,-2.0916030534351147,0.034423828125,-0.08349609375,-0.591552734375,1.5385
0.3969465648854962,0.916030534351145,-1.9694656488549618,0.03271484375,-0.082275390625,-0.5966796875,1.5402
0.33587786259541985,0.9465648854961832,-2.1374045801526718,0.034912109375,-0.083740234375,-0.5947265625,1.5418999999999998
0.5190839694656488,0.8396946564885496,-2.015267175572519,0.0361328125,-0.083740234375,-0.588134765625,1.5435999999999999
0.549618320610687,0.549618320610687,-2.0610687022900764,0.03662109375,-0.08349609375,-0.592529296875,1.5453
0.6412213740458015,0.3816793893129771,-1.7709923664122138,0.03173828125,-0.086181640625,-0.601318359375,1.547
0.0916030534351145,0.549618320610687,-1.8931297709923665,0.038330078125,-0.084716796875,-0.5908203125,1.5487
0.2595419847328244,0.366412213740458,-1.9694656488549618,0.0380859375,-0.083984375,-0.598876953125,1.5504
0.5343511450381679,0.3511450381679389,-2.0,0.03173828125,-0.082763671875,-0.590576171875,1.5520999999999998
0.42748091603053434,-0.061068702290076333,-1.786259541984733,0.03271484375,-0.078857421875,-0.58837890625,1.5537999999999998
0.48854961832061067,0.15267175572519084,-1.816793893129771,0.033447265625,-0.080322265625,-0.595947265625,1.5554999999999999
0.5190839694656488,0.07633587786259542,-1.6488549618320612,0.03662109375,-0.086181640625,-0.596435546875,1.5572
0.5954198473282443,-0.061068702290076333,-2.015267175572519,0.035400390625,-0.086669921875,-0.596923828125,1.5589
0.8396946564885496,-0.3816793893129771,-1.8625954198473282,0.033935546875,-0.080810546875,-0.59375,1.5606
0.6259541984732825,-0.1984732824427481,-1.7099236641221374,0.03125,-0.090087890625,-0.6005859375,1.5623
0.8091603053435115,-0.5648854961832062,-1.786259541984733,0.032470703125,-0.087158203125,-0.60107421875,1.5639999999999998
1.1297709923664123,-0.6564885496183206,-1.8778625954198473,0.03125,-0.08837890625,-0.5888671875,1.5656999999999999
1.1297709923664123,-0.6259541984732825,-1.6946564885496183,0.029052734375,-0.092529296875,-0.586181640625,1.5674
1.2061068702290076,-0.9312977099236641,-1.8473282442748091,0.03173828125,-0.08740234375,-0.592041015625,1.5691
1.1297709923664123,-1.3129770992366412,-1.8778625954198473,0.02880859375,-0.092529296875,-0.597412109375,1.5708
1.297709923664122,-1.4198473282442747,-1.984732824427481,0.0341796875,-0.091552734375,-0.6044921875,1.5725
1.4351145038167938,-1.6946564885496183,-1.9541984732824427,0.031982421875,-0.087158203125,-0.591064453125,1.5741999999999998
1.6793893129770991,-1.8015267175572518,-2.030534351145038,0.03076171875,-0.091552734375,-0.595947265625,1.5758999999999999
1.4809160305343512,-1.8625954198473282,-1.9541984732824427,0.032470703125,-0.09228515625,-0.59228515625,1.5776
1.618320610687023,-2.3053435114503817,-2.0763358778625953,0.031982421875,-0.09130859375,-0.5888671875,1.5793
1.8625954198473282,-2.4732824427480917,-2.1526717557251906,0.026611328125,-0.09375,-0.595458984375,1.581
1.6946564885496183,-2.6259541984732824,-2.2748091603053435,0.028564453125,-0.095947265625,-0.591796875,1.5827
1.6641221374045803,-2.6412213740458017,-2.1374045801526718,0.0302734375,-0.095458984375,-0.58837890625,1.5843999999999998
1.618320610687023,-2.885496183206107,-2.183206106870229,0.030517578125,-0.0888671875,-0.58935546875,1.5860999999999998
1.8778625954198473,-3.0839694656488548,-2.2748091603053435,0.030517578125,-0.09326171875,-0.595458984375,1.5877999999999999
1.8625954198473282,-3.1908396946564888,-2.381679389312977,0.02783203125,-0.097412109375,-0.5986328125,1.5895
1.6793893129770991,-3.2061068702290076,-2.564885496183206,0.026611328125,-0.092041015625,-0.5947265625,1.5912
1.816793893129771,-3.5267175572519083,-2.50381679389313,0.029541015625,-0.09375,-0.597412109375,1.5929
2.0,-3.66412213740458,-2.4122137404580153,0.028076171875,-0.09521484375,-0.58984375,1.5946
1.83206106870229,-3.83206106870229,-2.6259541984732824,0.025634765625,-0.09228515625,-0.590087890625,1.5962999999999998
1.9389312977099236,-3.969465648854962,-2.717557251908397,0.032470703125,-0.093505859375,-0.59130859375,1.5979999999999999
1.8931297709923665,-4.0458015267175576,-2.7786259541984735,0.031494140625,-0.093505859375,-0.59765625,1.5997
1.7251908396946565,-4.015267175572519,-2.8396946564885495,0.025390625,-0.095458984375,-0.593994140625,1.6014
1.5725190839694656,-4.015267175572519,-3.0839694656488548,0.02734375,-0.0927734375,-0.59033203125,1.6031
1.7251908396946565,-4.122137404580153,-2.8091603053435112,0.026123046875,-0.094970703125,-0.58740234375,1.6048
1.6030534351145038,-4.473282442748092,-2.8702290076335877,0.02685546875,-0.09814453125,-0.590087890625,1.6064999999999998
1.3435114503816794,-4.580152671755725,-2.885496183206107,0.026611328125,-0.0966796875,-0.59521484375,1.6081999999999999
1.450381679389313,-4.5038167938931295,-2.8396946564885495,0.029296875,-0.093017578125,-0.58935546875,1.6098999999999999
1.3435114503816794,-4.519083969465649,-2.9618320610687023,0.031005859375,-0.09375,-0.585693359375,1.6116
1.4045801526717556,-4.748091603053435,-3.0381679389312977,0.031982421875,-0.089111328125,-0.582763671875,1.6133
0.9923664122137404,-4.687022900763359,-3.145038167938931,0.02734375,-0.093505859375,-0.597412109375,1.615
1.083969465648855,-4.763358778625954,-2.9160305343511452,0.028076171875,-0.09423828125,-0.592041015625,1.6166999999999998
1.1145038167938932,-4.900763358778626,-2.946564885496183,0.032958984375,-0.088134765625,-0.58837890625,1.6183999999999998
1.0076335877862594,-5.129770992366412,-2.931297709923664,0.028076171875,-0.09228515625,-0.5869140625,1.6200999999999999
0.9770992366412213,-5.00763358778626,-2.7480916030534353,0.02783203125,-0.091796875,-0.59521484375,1.6218
0.8549618320610687,-5.129770992366412,-3.0381679389312977,0.027587890625,-0.09326171875,-0.5859375,1.6235
1.3893129770992367,-5.175572519083969,-3.053435114503817,0.029052734375,-0.088134765625,-0.593017578125,1.6252
0.8244274809160306,-5.480916030534351,-2.8396946564885495,0.03662109375,-0.092041015625,-0.590576171875,1.6269
0.7938931297709924,-5.465648854961832,-2.717557251908397,0.024169921875,-0.08740234375,-0.590576171875,1.6285999999999998
1.1603053435114503,-5.694656488549619,-2.717557251908397,0.0302734375,-0.087646484375,-0.59326171875,1.6302999999999999
1.0076335877862594,-6.061068702290076,-3.0381679389312977,0.030029296875,-0.08447265625,-0.59033203125,1.632
0.7633587786259542,-6.091603053435114,-2.9618320610687023,0.0263671875,-0.088134765625,-0.587890625,1.6337
0.8854961832061069,-6.244274809160306,-2.900763358778626,0.0302734375,-0.091064453125,-0.583984375,1.6354
0.7938931297709924,-6.5038167938931295,-2.900763358778626,0.033203125,-0.08984375,-0.590087890625,1.6371
0.8396946564885496,-6.5038167938931295,-2.9160305343511452,0.03125,-0.09033203125,-0.588134765625,1.6387999999999998
0.8854961832061069,-6.916030534351145,-2.8396946564885495,0.027099609375,-0.087158203125,-0.583740234375,1.6404999999999998
0.8244274809160306,-7.00763358778626,-2.7938931297709924,0.03271484375,-0.085205078125,-0.586181640625,1.6421999999999999
0.6412213740458015,-7.374045801526718,-2.549618320610687,0.034912109375,-0.086669921875,-0.583984375,1.6439
0.8244274809160306,-7.4961832061068705,-2.564885496183206,0.032470703125,-0.08837890625,-0.588134765625,1.6456
0.9618320610687023,-7.6183206106870225,-2.351145038167939,0.031982421875,-0.090576171875,-0.592041015625,1.6473
1.0687022900763359,-7.8320610687022905,-2.4885496183206106,0.031494140625,-0.0888671875,-0.58935546875,1.6489999999999998
1.0687022900763359,-7.908396946564886,-2.4580152671755724,0.03564453125,-0.0908203125,-0.59423828125,1.6506999999999998
1.251908396946565,-8.320610687022901,-2.381679389312977,0.030517578125,-0.0859375,-0.583251953125,1.6523999999999999
1.2061068702290076,-8.65648854961832,-2.1068702290076335,0.030029296875,-0.085205078125,-0.58203125,1.6541
1.3587786259541985,-8.778625954198473,-2.122137404580153,0.030029296875,-0.083984375,-0.57958984375,1.6558
1.251908396946565,-8.83969465648855,-2.0916030534351147,0.026611328125,-0.089111328125,-0.591064453125,1.6575
1.3740458015267176,-8.977099236641221,-2.0763358778625953,0.030029296875,-0.087158203125,-0.59619140625,1.6592
1.3587786259541985,-9.282442748091603,-1.9083969465648856,0.030517578125,-0.0888671875,-0.5888671875,1.6608999999999998
1.1450381679389312,-9.526717557251908,-2.198473282442748,0.029541015625,-0.086669921875,-0.585693359375,1.6625999999999999
1.4045801526717556,-9.541984732824428,-2.0610687022900764,0.030029296875,-0.084716796875,-0.587890625,1.6643
1.4045801526717556,-9.908396946564885,-1.9236641221374047,0.030517578125,-0.08203125,-0.596923828125,1.666
1.450381679389313,-9.86259541984733,-2.2595419847328246,0.029052734375,-0.085693359375,-0.593017578125,1.6677
1.7251908396946565,-9.98473282442748,-2.1068702290076335,0.024169921875,-0.08544921875,-0.6005859375,1.6694
1.9694656488549618,-10.13740458015267,-2.0610687022900764,0.02880859375,-0.0859375,-0.595703125,1.6710999999999998
1.7557251908396947,-9.86259541984733,-2.122137404580153,0.026611328125,-0.08447265625,-0.60009765625,1.6727999999999998
1.6793893129770991,-9.98473282442748,-2.1374045801526718,0.021484375,-0.0849609375,-0.5947265625,1.6744999999999999
1.9389312977099236,-10.229007633587786,-2.183206106870229,0.02294921875,-0.085205078125,-0.595458984375,1.6762
1.9694656488549618,-10.320610687022901,-2.351145038167939,0.024169921875,-0.084228515625,-0.59619140625,1.6779
1.8015267175572518,-10.229007633587786,-2.2748091603053435,0.023681640625,-0.081298828125,-0.591064453125,1.6796
1.8473282442748091,-10.259541984732824,-2.4580152671755724,0.020751953125,-0.086669921875,-0.592529296875,1.6813
1.9083969465648856,-10.213740458015268,-2.4885496183206106,0.024169921875,-0.0830078125,-0.60107421875,1.6829999999999998
1.8931297709923665,-10.13740458015267,-2.427480916030534,0.022705078125,-0.08349609375,-0.599609375,1.6846999999999999
1.8778625954198473,-10.01526717557252,-2.427480916030534,0.0244140625,-0.083251953125,-0.59814453125,1.6864
1.9694656488549618,-9.893129770992367,-2.4580152671755724,0.021240234375,-0.085693359375,-0.58447265625,1.6881
2.0610687022900764,-9.801526717557252,-2.4122137404580153,0.020263671875,-0.0830078125,-0.58349609375,1.6898
2.4122137404580153,-9.541984732824428,-2.183206106870229,0.02294921875,-0.08251953125,-0.593017578125,1.6915
2.351145038167939,-9.419847328244275,-2.1526717557251906,0.021240234375,-0.083251953125,-0.598388671875,1.6931999999999998
2.6412213740458017,-9.236641221374045,-2.015267175572519,0.019287109375,-0.0859375,-0.603271484375,1.6948999999999999
2.6259541984732824,-8.83969465648855,-2.16793893129771,0.02099609375,-0.087158203125,-0.594970703125,1.6965999999999999
2.6259541984732824,-8.793893129770993,-1.83206106870229,0.01708984375,-0.084716796875,-0.601806640625,1.6983
2.6564885496183206,-8.564885496183207,-1.7557251908396947,0.01611328125,-0.08544921875,-0.59765625,1.7
2.5801526717557253,-8.534351145038167,-1.5725190839694656,0.014892578125,-0.086669921875,-0.58837890625,1.7017
2.5801526717557253,-8.396946564885496,-1.5725190839694656,0.02099609375,-0.08447265625,-0.592041015625,1.7033999999999998
2.6564885496183206,-8.305343511450381,-1.4961832061068703,0.01953125,-0.092041015625,-0.59423828125,1.7050999999999998
2.427480916030534,-8.381679389312977,-1.450381679389313,0.01904296875,-0.08837890625,-0.591796875,1.7067999999999999
2.4580152671755724,-8.351145038167939,-1.5267175572519085,0.020751953125,-0.0888671875,-0.597412109375,1.7085
2.7022900763358777,-8.396946564885496,-1.4809160305343512,0.02099609375,-0.088134765625,-0.5966796875,1.7102
2.6259541984732824,-8.427480916030534,-1.3282442748091603,0.01953125,-0.083984375,-0.586181640625,1.7119
2.8244274809160306,-8.473282442748092,-1.3740458015267176,0.014404296875,-0.08642578125,-0.585205078125,1.7136
2.854961832061069,-8.534351145038167,-1.3587786259541985,0.0234375,-0.087890625,-0.59130859375,1.7152999999999998
2.7786259541984735,-8.549618320610687,-1.5267175572519085,0.025390625,-0.093505859375,-0.5830078125,1.7169999999999999
3.0839694656488548,-8.610687022900763,-1.2061068702290076,0.02001953125,-0.090087890625,-0.593994140625,1.7187
3.145038167938931,-8.793893129770993,-1.1908396946564885,0.02001953125,-0.08837890625,-0.58642578125,1.7204
3.2977099236641223,-8.854961832061068,-1.1450381679389312,0.025390625,-0.091552734375,-0.589111328125,1.7221
3.5267175572519083,-9.038167938931299,-1.465648854961832,0.024169921875,-0.094970703125,-0.59326171875,1.7238
3.7099236641221376,-9.17557251908397,-1.4351145038167938,0.022705078125,-0.09375,-0.58984375,1.7254999999999998
3.7251908396946565,-9.465648854961833,-1.5725190839694656,0.021484375,-0.09033203125,-0.59375,1.7271999999999998
3.7404580152671754,-9.297709923664122,-1.2366412213740459,0.023193359375,-0.092529296875,-0.592041015625,1.7288999999999999
3.9083969465648853,-9.572519083969466,-1.6030534351145038,0.02685546875,-0.087646484375,-0.58837890625,1.7306
4.137404580152672,-9.84732824427481,-1.4961832061068703,0.025146484375,-0.09423828125,-0.591552734375,1.7323
3.8931297709923665,-9.98473282442748,-1.633587786259542,0.02294921875,-0.08935546875,-0.5908203125,1.734
3.954198473282443,-10.16793893129771,-1.4198473282442747,0.021240234375,-0.08837890625,-0.593017578125,1.7356999999999998
3.8625954198473282,-10.320610687022901,-1.5572519083969465,0.0244140625,-0.090576171875,-0.591552734375,1.7373999999999998
3.9083969465648853,-10.51908396946565,-1.4045801526717556,0.01904296875,-0.08984375,-0.595947265625,1.7390999999999999
3.984732824427481,-10.732824427480915,-1.6946564885496183,0.022216796875,-0.091552734375,-0.58984375,1.7408
4.061068702290076,-10.793893129770993,-1.297709923664122,0.017578125,-0.087158203125,-0.59375,1.7425
3.877862595419847,-10.687022900763358,-1.3129770992366412,0.022216796875,-0.090576171875,-0.59228515625,1.7442
4.1679389312977095,-10.717557251908397,-1.297709923664122,0.021240234375,-0.087890625,-0.595947265625,1.7459
4.229007633587786,-11.099236641221374,-1.5877862595419847,0.01904296875,-0.083251953125,-0.60302734375,1.7475999999999998
4.366412213740458,-11.19083969465649,-1.4198473282442747,0.016845703125,-0.08935546875,-0.599609375,1.7492999999999999
4.412213740458015,-11.19083969465649,-1.2061068702290076,0.02197265625,-0.089599609375,-0.596923828125,1.751
4.595419847328245,-11.450381679389313,-1.1297709923664123,0.013427734375,-0.088623046875,-0.595947265625,1.7527
4.656488549618321,-11.312977099236642,-1.3129770992366412,0.01708984375,-0.087646484375,-0.58837890625,1.7544
4.824427480916031,-11.236641221374045,-1.465648854961832,0.016845703125,-0.0888671875,-0.5947265625,1.7561
5.190839694656488,-11.19083969465649,-1.4198473282442747,0.023681640625,-0.086669921875,-0.587646484375,1.7577999999999998
5.282442748091603,-11.068702290076336,-1.2671755725190839,0.017578125,-0.088134765625,-0.59375,1.7594999999999998
5.221374045801527,-11.099236641221374,-1.3435114503816794,0.017822265625,-0.083984375,-0.59326171875,1.7611999999999999
5.511450381679389,-10.870229007633588,-1.5877862595419847,0.01953125,-0.08837890625,-0.598876953125,1.7629
5.6183206106870225,-10.641221374045802,-1.5572519083969465,0.018798828125,-0.0869140625,-0.6005859375,1.7646
5.480916030534351,-10.458015267175572,-1.3740458015267176,0.012939453125,-0.088134765625,-0.6005859375,1.7663
5.694656488549619,-10.412213740458014,-1.5419847328244274,0.01806640625,-0.086669921875,-0.60302734375,1.7679999999999998
5.648854961832061,-10.244274809160306,-1.633587786259542,0.01708984375,-0.08984375,-0.603271484375,1.7696999999999998
5.6183206106870225,-10.229007633587786,-1.6641221374045803,0.02099609375,-0.086669921875,-0.6064453125,1.7713999999999999
5.297709923664122,-10.15267175572519,-1.6946564885496183,0.014892578125,-0.0859375,-0.603271484375,1.7731
5.3893129770992365,-10.01526717557252,-1.8015267175572518,0.01611328125,-0.091796875,-0.5966796875,1.7748
5.404580152671755,-9.725190839694656,-1.6488549618320612,0.013916015625,-0.089599609375,-0.598876953125,1.7765
5.206106870229007,-9.541984732824428,-1.7557251908396947,0.01318359375,-0.0908203125,-0.587158203125,1.7782
5.4961832061068705,-9.465648854961833,-1.6488549618320612,0.01611328125,-0.088623046875,-0.594482421875,1.7798999999999998
5.3893129770992365,-9.32824427480916,-1.9083969465648856,0.01416015625,-0.087158203125,-0.595458984375,1.7815999999999999
5.099236641221374,-9.083969465648854,-1.7557251908396947,0.012939453125,-0.089599609375,-0.596923828125,1.7832999999999999
5.404580152671755,-8.732824427480915,-1.8931297709923665,0.013916015625,-0.095703125,-0.602783203125,1.785
5.603053435114504,-8.610687022900763,-1.8473282442748091,0.008544921875,-0.095703125,-0.5947265625,1.7867
5.282442748091603,-8.641221374045802,-1.9083969465648856,0.0146484375,-0.094482421875,-0.591064453125,1.7884
5.114503816793893,-8.65648854961832,-1.9083969465648856,0.01220703125,-0.09326171875,-0.599853515625,1.7900999999999998
5.297709923664122,-8.442748091603054,-1.618320610687023,0.01171875,-0.095458984375,-0.599365234375,1.7917999999999998
5.480916030534351,-8.290076335877863,-1.6793893129770991,0.017578125,-0.099365234375,-0.59716796875,1.7934999999999999
5.297709923664122,-8.229007633587786,-1.7709923664122138,0.01513671875,-0.097900390625,-0.597412109375,1.7952
5.282442748091603,-8.106870229007633,-1.8625954198473282,0.01611328125,-0.098876953125,-0.60498046875,1.7969
5.251908396946565,-8.198473282442748,-1.83206106870229,0.01611328125,-0.09814453125,-0.597900390625,1.7986
5.114503816793893,-8.244274809160306,-1.5877862595419847,0.017578125,-0.099365234375,-0.595947265625,1.8002999999999998
4.748091603053435,-8.351145038167939,-1.633587786259542,0.013916015625,-0.099365234375,-0.59326171875,1.8019999999999998
4.625954198473282,-8.687022900763358,-1.6641221374045803,0.01611328125,-0.099853515625,-0.592041015625,1.8036999999999999
4.473282442748092,-8.50381679389313,-1.7251908396946565,0.014404296875,-0.09716796875,-0.592529296875,1.8054
4.198473282442748,-8.564885496183207,-1.618320610687023,0.017333984375,-0.09619140625,-0.5849609375,1.8071
4.183206106870229,-9.053435114503817,-1.5877862595419847,0.01904296875,-0.101806640625,-0.593505859375,1.8088
4.244274809160306,-9.389312977099237,-1.8473282442748091,0.018798828125,-0.099365234375,-0.5966796875,1.8105
