gyrox1,gyroy1,gyroz1,accelx1,accely1,accelz1,Time
1.465648854961832,1.3587786259541985,-1.3129770992366412,-0.45361328125,-0.10693359375,-0.154052734375,0.0
1.465648854961832,1.3282442748091603,-1.3740458015267176,-0.453369140625,-0.111083984375,-0.1533203125,0.0017
1.3435114503816794,1.2061068702290076,-1.4351145038167938,-0.452880859375,-0.110595703125,-0.157470703125,0.0034
1.4045801526717556,1.1755725190839694,-1.3129770992366412,-0.4521484375,-0.10791015625,-0.154296875,0.0050999999999999995
1.618320610687023,0.9923664122137404,-1.3587786259541985,-0.44873046875,-0.111328125,-0.155029296875,0.0068
1.7557251908396947,0.8549618320610687,-1.2366412213740459,-0.454345703125,-0.1083984375,-0.161376953125,0.008499999999999999
1.9694656488549618,0.8091603053435115,-1.4961832061068703,-0.451171875,-0.108642578125,-0.159423828125,0.010199999999999999
1.8778625954198473,0.6717557251908397,-1.1908396946564885,-0.453857421875,-0.112548828125,-0.16064453125,0.011899999999999999
1.9694656488549618,0.6259541984732825,-1.282442748091603,-0.455078125,-0.11083984375,-0.159912109375,0.0136
2.030534351145038,0.6412213740458015,-1.2671755725190839,-0.452880859375,-0.104736328125,-0.16455078125,0.0153
1.8015267175572518,0.6259541984732825,-1.2213740458015268,-0.453857421875,-0.112548828125,-0.154052734375,0.016999999999999998
1.9694656488549618,0.6259541984732825,-1.1603053435114503,-0.455322265625,-0.11083984375,-0.1591796875,0.018699999999999998
2.015267175572519,0.732824427480916,-1.1908396946564885,-0.45556640625,-0.09814453125,-0.157470703125,0.020399999999999998
1.83206106870229,0.8549618320610687,-1.1755725190839694,-0.4521484375,-0.103271484375,-0.161865234375,0.022099999999999998
1.6641221374045803,0.5801526717557252,-1.3282442748091603,-0.454345703125,-0.107421875,-0.157470703125,0.023799999999999998
1.5267175572519085,0.7480916030534351,-1.1603053435114503,-0.45263671875,-0.1064453125,-0.154296875,0.0255
1.4198473282442747,0.6564885496183206,-1.1297709923664123,-0.45361328125,-0.103759765625,-0.155029296875,0.0272
1.3587786259541985,0.6717557251908397,-1.1145038167938932,-0.45361328125,-0.1015625,-0.158935546875,0.0289
1.1145038167938932,0.48854961832061067,-1.2213740458015268,-0.45458984375,-0.10546875,-0.14794921875,0.0306
0.8702290076335878,0.4732824427480916,-1.1908396946564885,-0.453125,-0.1044921875,-0.1533203125,0.032299999999999995
1.0534351145038168,0.7175572519083969,-1.1755725190839694,-0.452880859375,-0.10205078125,-0.151123046875,0.033999999999999996
0.9770992366412213,0.6412213740458015,-1.0229007633587786,-0.4501953125,-0.10107421875,-0.156982421875,0.035699999999999996
0.8396946564885496,0.6412213740458015,-1.083969465648855,-0.4580078125,-0.099365234375,-0.15478515625,0.037399999999999996
1.0687022900763359,0.5954198473282443,-1.0687022900763359,-0.455810546875,-0.099609375,-0.16162109375,0.039099999999999996
0.9923664122137404,0.6870229007633588,-0.9465648854961832,-0.449951171875,-0.105712890625,-0.157958984375,0.040799999999999996
1.297709923664122,0.7175572519083969,-1.0534351145038168,-0.457275390625,-0.10302734375,-0.1669921875,0.042499999999999996
1.3129770992366412,0.6870229007633588,-1.0229007633587786,-0.45068359375,-0.107421875,-0.156494140625,0.044199999999999996
1.4198473282442747,0.7786259541984732,-0.916030534351145,-0.456298828125,-0.1025390625,-0.156982421875,0.045899999999999996
1.786259541984733,1.0687022900763359,-0.9618320610687023,-0.4619140625,-0.105712890625,-0.15625,0.047599999999999996
1.9236641221374047,1.1450381679389312,-1.099236641221374,-0.450439453125,-0.108642578125,-0.16064453125,0.0493
1.9541984732824427,1.1450381679389312,-1.1145038167938932,-0.45654296875,-0.104248046875,-0.161865234375,0.051
2.4427480916030535,1.2671755725190839,-0.916030534351145,-0.454833984375,-0.1044921875,-0.156494140625,0.0527
2.122137404580153,1.3740458015267176,-0.9312977099236641,-0.45458984375,-0.103759765625,-0.165771484375,0.0544
2.1374045801526718,1.450381679389313,-0.916030534351145,-0.45703125,-0.102294921875,-0.162841796875,0.0561
2.0763358778625953,1.633587786259542,-1.0229007633587786,-0.454345703125,-0.099365234375,-0.165283203125,0.0578
2.33587786259542,1.633587786259542,-0.9923664122137404,-0.455322265625,-0.101318359375,-0.170654296875,0.0595
2.122137404580153,1.6488549618320612,-0.8854961832061069,-0.45458984375,-0.1025390625,-0.152587890625,0.0612
2.0763358778625953,1.5877862595419847,-0.9770992366412213,-0.450927734375,-0.1064453125,-0.156494140625,0.0629
2.198473282442748,1.786259541984733,-0.8854961832061069,-0.452392578125,-0.104736328125,-0.153564453125,0.06459999999999999
2.3969465648854964,1.83206106870229,-0.8854961832061069,-0.453125,-0.10546875,-0.169189453125,0.0663
2.2290076335877864,1.7404580152671756,-0.732824427480916,-0.45361328125,-0.101806640625,-0.159423828125,0.06799999999999999
2.0610687022900764,1.8015267175572518,-1.1603053435114503,-0.4560546875,-0.10400390625,-0.160888671875,0.0697
2.351145038167939,1.786259541984733,-1.1603053435114503,-0.455810546875,-0.1044921875,-0.16015625,0.07139999999999999
2.4122137404580153,1.8625954198473282,-1.1908396946564885,-0.448974609375,-0.10693359375,-0.157470703125,0.0731
2.030534351145038,1.8931297709923665,-1.099236641221374,-0.451416015625,-0.103759765625,-0.152099609375,0.07479999999999999
2.16793893129771,1.8473282442748091,-1.2061068702290076,-0.45654296875,-0.1044921875,-0.1669921875,0.0765
1.9541984732824427,1.7709923664122138,-1.1145038167938932,-0.4521484375,-0.103271484375,-0.15576171875,0.07819999999999999
2.0763358778625953,1.6793893129770991,-0.9923664122137404,-0.4501953125,-0.107666015625,-0.157958984375,0.0799
2.213740458015267,1.83206106870229,-1.0229007633587786,-0.45751953125,-0.10302734375,-0.161865234375,0.08159999999999999
2.1068702290076335,1.7709923664122138,-1.282442748091603,-0.45361328125,-0.105712890625,-0.157958984375,0.0833
1.9236641221374047,1.4809160305343512,-1.251908396946565,-0.452880859375,-0.099853515625,-0.1533203125,0.08499999999999999
1.8625954198473282,1.4045801526717556,-1.3435114503816794,-0.44873046875,-0.104736328125,-0.15576171875,0.0867
1.6793893129770991,1.4045801526717556,-1.1755725190839694,-0.4541015625,-0.106201171875,-0.15478515625,0.08839999999999999
1.6946564885496183,1.2671755725190839,-1.282442748091603,-0.452392578125,-0.1015625,-0.16552734375,0.0901
1.3893129770992367,1.0687022900763359,-1.2671755725190839,-0.4541015625,-0.102294921875,-0.160400390625,0.09179999999999999
1.1908396946564885,1.0229007633587786,-1.3282442748091603,-0.452880859375,-0.106689453125,-0.1572265625,0.0935
1.251908396946565,1.2213740458015268,-1.099236641221374,-0.450439453125,-0.103759765625,-0.1630859375,0.09519999999999999
1.1450381679389312,1.0076335877862594,-1.2213740458015268,-0.4501953125,-0.103515625,-0.15966796875,0.0969
1.1297709923664123,1.083969465648855,-1.1755725190839694,-0.455810546875,-0.107177734375,-0.161376953125,0.0986
0.9465648854961832,1.083969465648855,-1.1450381679389312,-0.45068359375,-0.103271484375,-0.15478515625,0.1003
1.083969465648855,0.9007633587786259,-1.099236641221374,-0.453125,-0.1044921875,-0.15869140625,0.102
1.251908396946565,0.916030534351145,-1.2061068702290076,-0.447998046875,-0.10400390625,-0.1533203125,0.1037
1.1145038167938932,0.916030534351145,-1.1145038167938932,-0.44970703125,-0.103271484375,-0.162109375,0.1054
1.251908396946565,0.9007633587786259,-1.0381679389312977,-0.44970703125,-0.1044921875,-0.159912109375,0.1071
1.3740458015267176,0.9007633587786259,-1.099236641221374,-0.452392578125,-0.10498046875,-0.14794921875,0.1088
1.4351145038167938,0.8854961832061069,-1.099236641221374,-0.45458984375,-0.105712890625,-0.151611328125,0.11049999999999999
1.5572519083969465,1.099236641221374,-0.9770992366412213,-0.451171875,-0.109130859375,-0.15869140625,0.1122
1.6793893129770991,0.9465648854961832,-1.1603053435114503,-0.451904296875,-0.10205078125,-0.1572265625,0.11389999999999999
1.8778625954198473,0.9770992366412213,-0.8396946564885496,-0.453857421875,-0.106689453125,-0.15478515625,0.1156
1.9083969465648856,0.8396946564885496,-0.7633587786259542,-0.448974609375,-0.108154296875,-0.155517578125,0.11729999999999999
1.9694656488549618,0.916030534351145,-0.8854961832061069,-0.454345703125,-0.111083984375,-0.156494140625,0.119
2.1374045801526718,0.9618320610687023,-0.9770992366412213,-0.454833984375,-0.106689453125,-0.16357421875,0.12069999999999999
2.2290076335877864,0.9770992366412213,-0.9312977099236641,-0.456298828125,-0.1123046875,-0.163330078125,0.1224
2.2595419847328246,1.0381679389312977,-0.8091603053435115,-0.456298828125,-0.11279296875,-0.1650390625,0.12409999999999999
2.16793893129771,1.297709923664122,-1.0534351145038168,-0.452880859375,-0.106689453125,-0.157958984375,0.1258
2.183206106870229,1.1908396946564885,-1.2061068702290076,-0.449951171875,-0.10791015625,-0.16455078125,0.1275
2.2595419847328246,1.3435114503816794,-1.0076335877862594,-0.459716796875,-0.113525390625,-0.16259765625,0.12919999999999998
2.0763358778625953,1.3435114503816794,-1.1755725190839694,-0.458740234375,-0.113037109375,-0.1650390625,0.1309
2.0610687022900764,1.282442748091603,-1.0534351145038168,-0.45361328125,-0.119140625,-0.154541015625,0.1326
2.2290076335877864,1.5114503816793894,-1.2366412213740459,-0.453369140625,-0.110595703125,-0.160400390625,0.1343
2.0610687022900764,1.4198473282442747,-1.0381679389312977,-0.451904296875,-0.113037109375,-0.16748046875,0.13599999999999998
2.015267175572519,1.3282442748091603,-1.2213740458015268,-0.450439453125,-0.1083984375,-0.154052734375,0.1377
1.816793893129771,1.3435114503816794,-1.2061068702290076,-0.45751953125,-0.113525390625,-0.16552734375,0.1394
1.816793893129771,1.465648854961832,-1.2366412213740459,-0.451416015625,-0.114501953125,-0.156982421875,0.1411
1.7099236641221374,1.2671755725190839,-1.2366412213740459,-0.453369140625,-0.1083984375,-0.155517578125,0.14279999999999998
1.7709923664122138,1.3740458015267176,-1.4045801526717556,-0.451171875,-0.1083984375,-0.151123046875,0.1445
1.6793893129770991,1.2061068702290076,-1.4045801526717556,-0.45263671875,-0.115234375,-0.162109375,0.1462
1.8625954198473282,1.1450381679389312,-1.5419847328244274,-0.452880859375,-0.11376953125,-0.158935546875,0.1479
1.8931297709923665,1.0076335877862594,-1.4351145038167938,-0.456298828125,-0.114013671875,-0.15380859375,0.14959999999999998
1.7099236641221374,0.8091603053435115,-1.4351145038167938,-0.45556640625,-0.108154296875,-0.15380859375,0.1513
1.7251908396946565,1.0381679389312977,-1.5114503816793894,-0.451904296875,-0.107666015625,-0.1552734375,0.153
1.83206106870229,0.8549618320610687,-1.633587786259542,-0.454833984375,-0.1103515625,-0.163330078125,0.1547
1.6641221374045803,0.7938931297709924,-1.4809160305343512,-0.453125,-0.110107421875,-0.153076171875,0.15639999999999998
1.465648854961832,0.7022900763358778,-1.618320610687023,-0.45166015625,-0.108154296875,-0.14453125,0.1581
1.4045801526717556,0.5648854961832062,-1.633587786259542,-0.453857421875,-0.10107421875,-0.1484375,0.1598
1.450381679389313,0.6106870229007634,-1.5419847328244274,-0.4482421875,-0.109375,-0.15625,0.1615
1.2366412213740459,0.5954198473282443,-1.3282442748091603,-0.452392578125,-0.103515625,-0.147216796875,0.16319999999999998
1.3587786259541985,0.366412213740458,-1.618320610687023,-0.453125,-0.10205078125,-0.14892578125,0.1649
1.1603053435114503,0.5343511450381679,-1.282442748091603,-0.45361328125,-0.103759765625,-0.15478515625,0.1666
1.1297709923664123,0.5648854961832062,-1.450381679389313,-0.455322265625,-0.10400390625,-0.15185546875,0.16829999999999998
0.9770992366412213,0.5190839694656488,-1.251908396946565,-0.453125,-0.104736328125,-0.14990234375,0.16999999999999998
0.9465648854961832,0.6717557251908397,-1.3893129770992367,-0.465087890625,-0.107421875,-0.15869140625,0.1717
1.099236641221374,0.7022900763358778,-1.3435114503816794,-0.451904296875,-0.104248046875,-0.153076171875,0.1734
1.1450381679389312,0.732824427480916,-1.297709923664122,-0.451416015625,-0.111328125,-0.142822265625,0.17509999999999998
1.0381679389312977,0.916030534351145,-1.1603053435114503,-0.453369140625,-0.10546875,-0.15771484375,0.17679999999999998
1.2366412213740459,0.8396946564885496,-1.3435114503816794,-0.453857421875,-0.104248046875,-0.149169921875,0.1785
1.465648854961832,0.9465648854961832,-1.282442748091603,-0.453125,-0.106689453125,-0.162353515625,0.1802
1.297709923664122,0.9618320610687023,-1.3587786259541985,-0.4560546875,-0.111083984375,-0.153564453125,0.18189999999999998
1.251908396946565,0.8549618320610687,-1.251908396946565,-0.456298828125,-0.116943359375,-0.158447265625,0.18359999999999999
1.5725190839694656,0.9007633587786259,-1.450381679389313,-0.452392578125,-0.110107421875,-0.165283203125,0.1853
1.6793893129770991,1.0687022900763359,-1.3129770992366412,-0.4521484375,-0.11083984375,-0.15283203125,0.187
1.5877862595419847,1.1908396946564885,-1.3740458015267176,-0.4521484375,-0.104248046875,-0.16650390625,0.18869999999999998
1.7404580152671756,1.0381679389312977,-1.5419847328244274,-0.45556640625,-0.109619140625,-0.155029296875,0.19039999999999999
1.5267175572519085,1.0076335877862594,-1.4198473282442747,-0.45361328125,-0.1064453125,-0.158935546875,0.1921
1.5267175572519085,0.9618320610687023,-1.3129770992366412,-0.4541015625,-0.108642578125,-0.15234375,0.1938
1.297709923664122,0.9618320610687023,-1.6641221374045803,-0.452880859375,-0.104248046875,-0.15478515625,0.19549999999999998
1.0229007633587786,0.8244274809160306,-1.5114503816793894,-0.4560546875,-0.107666015625,-0.1611328125,0.1972
0.9465648854961832,0.8244274809160306,-1.5572519083969465,-0.454833984375,-0.107177734375,-0.150146484375,0.1989
0.7938931297709924,0.5343511450381679,-1.5877862595419847,-0.44921875,-0.10791015625,-0.1591796875,0.2006
0.8854961832061069,0.3053435114503817,-1.7404580152671756,-0.45458984375,-0.109619140625,-0.15283203125,0.20229999999999998
0.7786259541984732,0.6259541984732825,-1.633587786259542,-0.455322265625,-0.1064453125,-0.15625,0.204
0.5954198473282443,0.7022900763358778,-1.8625954198473282,-0.45361328125,-0.112548828125,-0.159912109375,0.2057
0.7938931297709924,0.7022900763358778,-1.6793893129770991,-0.44873046875,-0.10986328125,-0.161376953125,0.2074
0.916030534351145,0.7175572519083969,-1.7404580152671756,-0.4462890625,-0.113525390625,-0.153564453125,0.20909999999999998
0.7786259541984732,0.8396946564885496,-1.7557251908396947,-0.454833984375,-0.107666015625,-0.155517578125,0.2108
0.7022900763358778,1.1450381679389312,-1.816793893129771,-0.448486328125,-0.105224609375,-0.15576171875,0.2125
0.6717557251908397,1.1603053435114503,-1.5419847328244274,-0.454345703125,-0.10595703125,-0.16259765625,0.2142
0.9770992366412213,1.1297709923664123,-1.5877862595419847,-0.450439453125,-0.105712890625,-0.158935546875,0.21589999999999998
1.0076335877862594,1.0534351145038168,-1.8778625954198473,-0.45458984375,-0.10595703125,-0.162353515625,0.2176
1.0381679389312977,1.2061068702290076,-1.618320610687023,-0.454345703125,-0.1103515625,-0.153564453125,0.2193
0.7175572519083969,1.1755725190839694,-1.3129770992366412,-0.447509765625,-0.107666015625,-0.147705078125,0.22099999999999997
0.8702290076335878,1.0076335877862594,-1.618320610687023,-0.453857421875,-0.10693359375,-0.160888671875,0.22269999999999998
1.0534351145038168,0.9923664122137404,-1.7557251908396947,-0.455322265625,-0.10693359375,-0.16259765625,0.2244
1.0076335877862594,1.0381679389312977,-1.7404580152671756,-0.45751953125,-0.107666015625,-0.15625,0.2261
0.9007633587786259,0.9770992366412213,-1.5114503816793894,-0.457275390625,-0.102783203125,-0.1552734375,0.22779999999999997
0.8549618320610687,0.9618320610687023,-1.5725190839694656,-0.455810546875,-0.107421875,-0.156005859375,0.22949999999999998
0.7633587786259542,1.0229007633587786,-1.5419847328244274,-0.455322265625,-0.10546875,-0.1494140625,0.2312
0.8244274809160306,1.1755725190839694,-1.7709923664122138,-0.45703125,-0.111083984375,-0.157470703125,0.2329
0.5648854961832062,1.2213740458015268,-1.6946564885496183,-0.455078125,-0.101806640625,-0.1611328125,0.23459999999999998
0.6412213740458015,1.1450381679389312,-1.633587786259542,-0.4541015625,-0.1015625,-0.14892578125,0.23629999999999998
1.1145038167938932,1.465648854961832,-1.7709923664122138,-0.454833984375,-0.10888671875,-0.15966796875,0.238
0.9007633587786259,1.3587786259541985,-2.045801526717557,-0.458740234375,-0.105712890625,-0.15625,0.2397
0.916030534351145,1.2213740458015268,-1.8778625954198473,-0.45849609375,-0.10595703125,-0.157470703125,0.24139999999999998
1.0229007633587786,1.2671755725190839,-1.8931297709923665,-0.44921875,-0.105224609375,-0.146240234375,0.24309999999999998
1.1755725190839694,1.083969465648855,-1.9541984732824427,-0.454833984375,-0.10595703125,-0.15625,0.2448
1.099236641221374,0.916030534351145,-2.0916030534351147,-0.45263671875,-0.1025390625,-0.14404296875,0.2465
0.9923664122137404,0.9007633587786259,-1.816793893129771,-0.453125,-0.10107421875,-0.14599609375,0.24819999999999998
1.1908396946564885,0.6259541984732825,-2.0763358778625953,-0.45654296875,-0.10546875,-0.156982421875,0.24989999999999998
0.9465648854961832,0.6259541984732825,-2.1068702290076335,-0.449951171875,-0.110107421875,-0.154052734375,0.2516
1.0687022900763359,0.5343511450381679,-2.045801526717557,-0.452880859375,-0.106689453125,-0.156982421875,0.25329999999999997
1.0381679389312977,0.4732824427480916,-2.198473282442748,-0.45556640625,-0.104736328125,-0.1552734375,0.255
0.9312977099236641,0.44274809160305345,-2.3053435114503817,-0.44873046875,-0.10205078125,-0.15771484375,0.2567
0.9007633587786259,0.3816793893129771,-2.1068702290076335,-0.450927734375,-0.10595703125,-0.15283203125,0.25839999999999996
0.7633587786259542,0.366412213740458,-2.2290076335877864,-0.452392578125,-0.105712890625,-0.16015625,0.2601
1.1297709923664123,0.5648854961832062,-2.1374045801526718,-0.454345703125,-0.107177734375,-0.15478515625,0.2618
1.0534351145038168,0.6412213740458015,-2.3969465648854964,-0.449462890625,-0.104248046875,-0.15625,0.2635
0.9312977099236641,0.5954198473282443,-2.1374045801526718,-0.45361328125,-0.103271484375,-0.158447265625,0.2652
0.9465648854961832,0.7786259541984732,-2.030534351145038,-0.451904296875,-0.108154296875,-0.16357421875,0.26689999999999997
1.0381679389312977,0.6259541984732825,-2.0610687022900764,-0.45458984375,-0.103759765625,-0.161865234375,0.2686
0.9618320610687023,0.5648854961832062,-2.1374045801526718,-0.4501953125,-0.1064453125,-0.156005859375,0.2703
0.8702290076335878,0.7175572519083969,-2.1068702290076335,-0.460205078125,-0.108642578125,-0.1611328125,0.27199999999999996
1.0076335877862594,0.6259541984732825,-2.16793893129771,-0.4501953125,-0.104248046875,-0.15185546875,0.2737
1.1450381679389312,0.7175572519083969,-2.198473282442748,-0.447509765625,-0.10498046875,-0.16455078125,0.2754
1.465648854961832,0.7633587786259542,-2.045801526717557,-0.451904296875,-0.109619140625,-0.158447265625,0.27709999999999996
1.633587786259542,0.6870229007633588,-2.122137404580153,-0.455322265625,-0.11279296875,-0.15625,0.2788
1.7709923664122138,0.7175572519083969,-2.2290076335877864,-0.450927734375,-0.108642578125,-0.1552734375,0.28049999999999997
1.8625954198473282,0.5954198473282443,-2.030534351145038,-0.45703125,-0.109375,-0.158935546875,0.2822
2.0610687022900764,0.6717557251908397,-2.0763358778625953,-0.450439453125,-0.1083984375,-0.15576171875,0.2839
1.8778625954198473,0.5648854961832062,-2.1374045801526718,-0.45556640625,-0.10888671875,-0.15771484375,0.28559999999999997
1.8778625954198473,0.5190839694656488,-2.213740458015267,-0.4560546875,-0.106201171875,-0.160400390625,0.2873
2.1526717557251906,0.5801526717557252,-2.16793893129771,-0.455322265625,-0.1103515625,-0.156982421875,0.289
1.83206106870229,0.48854961832061067,-2.015267175572519,-0.451904296875,-0.10888671875,-0.1640625,0.29069999999999996
1.5725190839694656,0.366412213740458,-2.1374045801526718,-0.45556640625,-0.108154296875,-0.155517578125,0.2924
1.4961832061068703,0.549618320610687,-1.9541984732824427,-0.454345703125,-0.112060546875,-0.1611328125,0.2941
1.4809160305343512,0.44274809160305345,-1.9541984732824427,-0.45703125,-0.10986328125,-0.158447265625,0.2958
1.2061068702290076,0.4580152671755725,-2.045801526717557,-0.4580078125,-0.108642578125,-0.1572265625,0.2975
0.9312977099236641,0.7480916030534351,-2.2595419847328246,-0.4541015625,-0.107666015625,-0.161865234375,0.29919999999999997
0.7022900763358778,0.7938931297709924,-2.2290076335877864,-0.453857421875,-0.11083984375,-0.164306640625,0.3009
0.5801526717557252,0.8702290076335878,-2.0,-0.45849609375,-0.11474609375,-0.157958984375,0.3026
0.366412213740458,1.0229007633587786,-2.2595419847328246,-0.455810546875,-0.103515625,-0.156494140625,0.30429999999999996
0.0916030534351145,0.9923664122137404,-2.0,-0.45458984375,-0.109619140625,-0.163818359375,0.306
0.15267175572519084,1.282442748091603,-2.2442748091603053,-0.449951171875,-0.107666015625,-0.16162109375,0.3077
0.15267175572519084,1.1603053435114503,-2.1068702290076335,-0.44873046875,-0.10791015625,-0.156494140625,0.3094
-0.04580152671755725,1.1145038167938932,-2.2290076335877864,-0.457275390625,-0.105224609375,-0.161865234375,0.3111
-0.015267175572519083,0.8244274809160306,-2.2900763358778624,-0.453857421875,-0.1083984375,-0.1572265625,0.31279999999999997
-0.0916030534351145,0.8091603053435115,-2.0916030534351147,-0.450927734375,-0.106201171875,-0.155029296875,0.3145
-0.16793893129770993,0.9007633587786259,-2.427480916030534,-0.45458984375,-0.107666015625,-0.15234375,0.3162
0.015267175572519083,0.6564885496183206,-2.381679389312977,-0.451904296875,-0.108154296875,-0.14501953125,0.31789999999999996
0.21374045801526717,0.366412213740458,-2.5343511450381677,-0.456787109375,-0.1025390625,-0.15380859375,0.3196
0.0916030534351145,0.4732824427480916,-2.4122137404580153,-0.452880859375,-0.100341796875,-0.15576171875,0.3213
0.2900763358778626,0.3816793893129771,-2.3053435114503817,-0.456787109375,-0.10302734375,-0.150146484375,0.323
0.3511450381679389,0.42748091603053434,-2.366412213740458,-0.457275390625,-0.1025390625,-0.156494140625,0.3247
0.4580152671755725,0.3816793893129771,-2.213740458015267,-0.45703125,-0.101318359375,-0.163330078125,0.32639999999999997
0.6106870229007634,0.5648854961832062,-2.0610687022900764,-0.45654296875,-0.104736328125,-0.166259765625,0.3281
0.9312977099236641,0.5648854961832062,-2.0610687022900764,-0.455810546875,-0.105224609375,-0.164306640625,0.3298
1.465648854961832,0.732824427480916,-1.984732824427481,-0.458740234375,-0.09814453125,-0.15576171875,0.33149999999999996
1.1908396946564885,0.7480916030534351,-1.9389312977099236,-0.461181640625,-0.09716796875,-0.154541015625,0.3332
1.4045801526717556,0.9312977099236641,-1.8473282442748091,-0.465087890625,-0.103759765625,-0.162109375,0.3349
1.4809160305343512,1.0076335877862594,-1.7251908396946565,-0.46044921875,-0.105712890625,-0.164306640625,0.33659999999999995
1.7099236641221374,1.3129770992366412,-1.633587786259542,-0.45703125,-0.098876953125,-0.16748046875,0.3383
1.8015267175572518,1.297709923664122,-1.4809160305343512,-0.456787109375,-0.100830078125,-0.1572265625,0.33999999999999997
1.816793893129771,1.3587786259541985,-1.3587786259541985,-0.455322265625,-0.103759765625,-0.158203125,0.3417
1.8473282442748091,1.4961832061068703,-1.5725190839694656,-0.453125,-0.099853515625,-0.16162109375,0.3434
2.122137404580153,1.5419847328244274,-1.465648854961832,-0.4541015625,-0.106689453125,-0.15966796875,0.34509999999999996
2.045801526717557,1.3740458015267176,-1.465648854961832,-0.457763671875,-0.103759765625,-0.153076171875,0.3468
1.9083969465648856,1.3740458015267176,-1.4351145038167938,-0.449951171875,-0.104736328125,-0.158447265625,0.3485
1.9083969465648856,1.450381679389313,-1.618320610687023,-0.455810546875,-0.11083984375,-0.156005859375,0.35019999999999996
1.9389312977099236,1.5725190839694656,-1.450381679389313,-0.454345703125,-0.10791015625,-0.163330078125,0.3519
1.9694656488549618,1.5877862595419847,-1.3740458015267176,-0.45849609375,-0.107666015625,-0.160888671875,0.35359999999999997
1.8015267175572518,1.6946564885496183,-1.465648854961832,-0.453857421875,-0.103271484375,-0.1552734375,0.3553
1.4961832061068703,1.8015267175572518,-1.618320610687023,-0.455810546875,-0.103759765625,-0.16259765625,0.357
1.4961832061068703,1.6030534351145038,-1.6793893129770991,-0.454345703125,-0.103759765625,-0.156494140625,0.35869999999999996
1.1603053435114503,1.5572519083969465,-1.9083969465648856,-0.447998046875,-0.10595703125,-0.15673828125,0.3604
0.732824427480916,1.4961832061068703,-1.7099236641221374,-0.453125,-0.103759765625,-0.158935546875,0.3621
0.8244274809160306,1.4198473282442747,-1.9541984732824427,-0.44873046875,-0.109130859375,-0.14892578125,0.36379999999999996
0.7480916030534351,1.465648854961832,-2.015267175572519,-0.448974609375,-0.1123046875,-0.14794921875,0.3655
0.5038167938931297,1.4045801526717556,-2.183206106870229,-0.44970703125,-0.113037109375,-0.154541015625,0.36719999999999997
0.3969465648854962,1.0076335877862594,-2.381679389312977,-0.44970703125,-0.10791015625,-0.15380859375,0.3689
0.4122137404580153,0.9312977099236641,-2.33587786259542,-0.450927734375,-0.110595703125,-0.156982421875,0.3706
0.2595419847328244,0.8396946564885496,-2.4732824427480917,-0.44921875,-0.112060546875,-0.162109375,0.37229999999999996
-0.030534351145038167,0.6717557251908397,-2.519083969465649,-0.45361328125,-0.103271484375,-0.15185546875,0.374
0.16793893129770993,0.3816793893129771,-2.549618320610687,-0.4501953125,-0.1064453125,-0.153564453125,0.3757
0.04580152671755725,0.4732824427480916,-2.8244274809160306,-0.44775390625,-0.108642578125,-0.158935546875,0.37739999999999996
-0.21374045801526717,0.3053435114503817,-2.4427480916030535,-0.448974609375,-0.107666015625,-0.152099609375,0.3791
-0.12213740458015267,0.3053435114503817,-2.549618320610687,-0.452880859375,-0.111083984375,-0.1611328125,0.38079999999999997
0.07633587786259542,0.24427480916030533,-2.4427480916030535,-0.453125,-0.1123046875,-0.165771484375,0.38249999999999995
0.183206106870229,0.5038167938931297,-2.366412213740458,-0.455078125,-0.111572265625,-0.16064453125,0.3842
0.16793893129770993,0.48854961832061067,-2.1526717557251906,-0.45751953125,-0.107421875,-0.15771484375,0.38589999999999997
0.33587786259541985,0.42748091603053434,-2.122137404580153,-0.4580078125,-0.107421875,-0.16259765625,0.3876
0.6870229007633588,0.8396946564885496,-2.122137404580153,-0.455078125,-0.10546875,-0.16162109375,0.3893
0.7938931297709924,1.0229007633587786,-2.16793893129771,-0.455810546875,-0.1103515625,-0.15673828125,0.39099999999999996
1.1145038167938932,1.1908396946564885,-2.0916030534351147,-0.45458984375,-0.111328125,-0.1533203125,0.3927
1.2061068702290076,1.083969465648855,-2.030534351145038,-0.452392578125,-0.105224609375,-0.1552734375,0.3944
1.297709923664122,1.1145038167938932,-1.816793893129771,-0.460205078125,-0.113037109375,-0.15185546875,0.39609999999999995
1.251908396946565,1.2213740458015268,-1.9694656488549618,-0.459716796875,-0.108642578125,-0.16162109375,0.3978
1.5114503816793894,1.2671755725190839,-1.8015267175572518,-0.458251953125,-0.107177734375,-0.1572265625,0.39949999999999997
1.3282442748091603,1.2671755725190839,-1.8931297709923665,-0.46337890625,-0.10693359375,-0.1572265625,0.4012
1.3435114503816794,1.2213740458015268,-1.6946564885496183,-0.458984375,-0.1103515625,-0.151611328125,0.4029
1.297709923664122,1.1450381679389312,-1.786259541984733,-0.46044921875,-0.107421875,-0.159423828125,0.40459999999999996
1.1908396946564885,1.1145038167938932,-1.6030534351145038,-0.4580078125,-0.109375,-0.15576171875,0.4063
1.3282442748091603,1.1908396946564885,-1.6793893129770991,-0.455810546875,-0.11279296875,-0.159423828125,0.408
1.1297709923664123,0.9312977099236641,-1.6488549618320612,-0.4560546875,-0.110595703125,-0.1640625,0.40969999999999995
0.7938931297709924,0.9312977099236641,-1.786259541984733,-0.456298828125,-0.111572265625,-0.159423828125,0.4114
1.1297709923664123,0.8854961832061069,-1.7557251908396947,-0.458251953125,-0.112060546875,-0.164306640625,0.41309999999999997
1.1450381679389312,1.1297709923664123,-1.9694656488549618,-0.458251953125,-0.115478515625,-0.153076171875,0.4148
0.7633587786259542,0.916030534351145,-1.9389312977099236,-0.4599609375,-0.109619140625,-0.15673828125,0.4165
1.0076335877862594,0.7633587786259542,-2.122137404580153,-0.455322265625,-0.111572265625,-0.15771484375,0.41819999999999996
0.916030534351145,0.9465648854961832,-1.984732824427481,-0.456298828125,-0.110107421875,-0.154296875,0.4199
0.7938931297709924,0.6259541984732825,-2.427480916030534,-0.45751953125,-0.11181640625,-0.154296875,0.4216
1.0687022900763359,0.7786259541984732,-2.381679389312977,-0.46337890625,-0.113525390625,-0.154541015625,0.42329999999999995
0.8244274809160306,0.6717557251908397,-2.6259541984732824,-0.45849609375,-0.10986328125,-0.154541015625,0.425
0.7175572519083969,0.44274809160305345,-2.7480916030534353,-0.457763671875,-0.107666015625,-0.150390625,0.42669999999999997
0.7175572519083969,0.32061068702290074,-2.7786259541984735,-0.454833984375,-0.10205078125,-0.156494140625,0.4284
0.7786259541984732,0.6259541984732825,-2.717557251908397,-0.457275390625,-0.10986328125,-0.157958984375,0.4301
0.8091603053435115,0.5038167938931297,-2.9770992366412212,-0.457275390625,-0.10791015625,-0.156982421875,0.43179999999999996
0.8244274809160306,0.366412213740458,-3.0381679389312977,-0.454345703125,-0.108154296875,-0.16455078125,0.4335
0.6259541984732825,0.366412213740458,-3.1908396946564888,-0.458251953125,-0.10302734375,-0.155029296875,0.4352
0.8702290076335878,0.4122137404580153,-2.7786259541984735,-0.458251953125,-0.103271484375,-0.156982421875,0.43689999999999996
0.8854961832061069,0.7022900763358778,-2.9160305343511452,-0.454345703125,-0.10107421875,-0.165283203125,0.4386
0.8854961832061069,0.9312977099236641,-3.0229007633587788,-0.456298828125,-0.104736328125,-0.1650390625,0.44029999999999997
1.0076335877862594,0.9465648854961832,-2.8244274809160306,-0.459228515625,-0.101806640625,-0.16259765625,0.44199999999999995
1.282442748091603,0.9923664122137404,-2.6564885496183206,-0.456787109375,-0.099609375,-0.163330078125,0.4437
1.4045801526717556,1.3129770992366412,-2.717557251908397,-0.453125,-0.095947265625,-0.158447265625,0.44539999999999996
1.2671755725190839,1.4809160305343512,-2.351145038167939,-0.4501953125,-0.099853515625,-0.15234375,0.4471
1.465648854961832,1.9541984732824427,-2.4122137404580153,-0.457275390625,-0.09814453125,-0.157470703125,0.4488
1.4961832061068703,1.9389312977099236,-2.213740458015267,-0.44970703125,-0.09912109375,-0.15478515625,0.45049999999999996
1.3740458015267176,2.0,-2.1068702290076335,-0.455810546875,-0.099365234375,-0.156982421875,0.4522
1.297709923664122,2.0,-1.8931297709923665,-0.451904296875,-0.0947265625,-0.159912109375,0.45389999999999997
1.3587786259541985,2.122137404580153,-2.1374045801526718,-0.454345703125,-0.09814453125,-0.15625,0.45559999999999995
1.5419847328244274,2.16793893129771,-1.8625954198473282,-0.45849609375,-0.1025390625,-0.153076171875,0.4573
1.4961832061068703,1.9083969465648856,-1.633587786259542,-0.459716796875,-0.096923828125,-0.164306640625,0.45899999999999996
1.618320610687023,2.0610687022900764,-1.6030534351145038,-0.45263671875,-0.1025390625,-0.158935546875,0.4607
1.6946564885496183,2.198473282442748,-1.6946564885496183,-0.4541015625,-0.1064453125,-0.15966796875,0.4624
1.7404580152671756,1.9083969465648856,-1.4351145038167938,-0.454345703125,-0.10400390625,-0.151123046875,0.46409999999999996
1.984732824427481,2.015267175572519,-1.5419847328244274,-0.4580078125,-0.102783203125,-0.1513671875,0.4658
2.045801526717557,2.16793893129771,-1.4351145038167938,-0.45263671875,-0.107177734375,-0.165771484375,0.46749999999999997
1.9694656488549618,2.122137404580153,-1.5114503816793894,-0.453857421875,-0.10205078125,-0.157958984375,0.46919999999999995
1.7709923664122138,2.030534351145038,-1.3893129770992367,-0.4521484375,-0.102783203125,-0.15966796875,0.4709
1.83206106870229,2.045801526717557,-1.5267175572519085,-0.453857421875,-0.1064453125,-0.154296875,0.47259999999999996
1.8473282442748091,1.9694656488549618,-1.5725190839694656,-0.453125,-0.105712890625,-0.155517578125,0.4743
1.6030534351145038,2.030534351145038,-1.7557251908396947,-0.451416015625,-0.11181640625,-0.158203125,0.476
1.5419847328244274,1.9541984732824427,-1.7404580152671756,-0.450439453125,-0.108642578125,-0.151611328125,0.47769999999999996
1.3893129770992367,1.8473282442748091,-1.6946564885496183,-0.4560546875,-0.109619140625,-0.151123046875,0.4794
1.4961832061068703,1.8778625954198473,-1.465648854961832,-0.44873046875,-0.11083984375,-0.153564453125,0.48109999999999997
1.3435114503816794,1.6488549618320612,-1.5877862595419847,-0.447021484375,-0.1064453125,-0.1552734375,0.48279999999999995
1.3740458015267176,1.5572519083969465,-1.7404580152671756,-0.45458984375,-0.105224609375,-0.16259765625,0.4845
1.633587786259542,1.7709923664122138,-1.8015267175572518,-0.4501953125,-0.108154296875,-0.158203125,0.48619999999999997
1.4809160305343512,1.7251908396946565,-1.7404580152671756,-0.448486328125,-0.1103515625,-0.15087890625,0.4879
1.7251908396946565,1.6641221374045803,-1.8015267175572518,-0.45458984375,-0.112548828125,-0.16064453125,0.4896
1.633587786259542,1.6641221374045803,-1.7404580152671756,-0.447998046875,-0.107421875,-0.154541015625,0.49129999999999996
1.7251908396946565,1.8015267175572518,-1.8473282442748091,-0.447509765625,-0.106689453125,-0.158447265625,0.493
2.1068702290076335,1.7099236641221374,-1.8931297709923665,-0.447265625,-0.108154296875,-0.16162109375,0.4947
2.015267175572519,1.9236641221374047,-1.786259541984733,-0.4580078125,-0.11181640625,-0.156982421875,0.49639999999999995
2.519083969465649,1.7557251908396947,-1.8931297709923665,-0.455810546875,-0.111083984375,-0.162109375,0.4981
2.6717557251908395,1.6946564885496183,-1.8625954198473282,-0.456298828125,-0.110107421875,-0.164306640625,0.49979999999999997
2.7480916030534353,2.0610687022900764,-1.786259541984733,-0.451904296875,-0.103515625,-0.160400390625,0.5015
2.717557251908397,2.030534351145038,-1.8473282442748091,-0.45166015625,-0.104248046875,-0.153564453125,0.5032
2.946564885496183,2.045801526717557,-1.8625954198473282,-0.451171875,-0.109130859375,-0.150146484375,0.5049
3.0229007633587788,2.213740458015267,-1.7404580152671756,-0.451416015625,-0.109130859375,-0.15234375,0.5065999999999999
2.9160305343511452,2.1374045801526718,-1.9083969465648856,-0.451904296875,-0.10888671875,-0.1552734375,0.5083
3.053435114503817,1.8931297709923665,-1.9236641221374047,-0.453857421875,-0.1083984375,-0.16259765625,0.51
3.2519083969465647,1.8931297709923665,-1.6946564885496183,-0.450439453125,-0.10595703125,-0.152099609375,0.5116999999999999
3.0076335877862594,1.9694656488549618,-1.8473282442748091,-0.45556640625,-0.108154296875,-0.14892578125,0.5134
2.8091603053435112,1.816793893129771,-1.8473282442748091,-0.451904296875,-0.1064453125,-0.15234375,0.5151
2.763358778625954,1.6488549618320612,-1.786259541984733,-0.449462890625,-0.111083984375,-0.155517578125,0.5167999999999999
2.6717557251908395,1.5572519083969465,-1.816793893129771,-0.451171875,-0.113037109375,-0.155029296875,0.5185
2.33587786259542,1.5877862595419847,-2.0610687022900764,-0.45263671875,-0.1083984375,-0.15234375,0.5202
2.122137404580153,1.465648854961832,-1.8778625954198473,-0.450927734375,-0.11279296875,-0.1552734375,0.5218999999999999
2.0916030534351147,1.282442748091603,-2.015267175572519,-0.452880859375,-0.10693359375,-0.1572265625,0.5236
1.7404580152671756,1.282442748091603,-2.2442748091603053,-0.448974609375,-0.106201171875,-0.166015625,0.5253
1.786259541984733,1.3587786259541985,-1.9236641221374047,-0.4501953125,-0.114990234375,-0.158203125,0.527
1.8625954198473282,1.297709923664122,-2.122137404580153,-0.455810546875,-0.107666015625,-0.151123046875,0.5287
1.4351145038167938,1.3282442748091603,-2.2290076335877864,-0.455322265625,-0.112060546875,-0.1630859375,0.5304
1.5114503816793894,1.251908396946565,-2.1526717557251906,-0.449462890625,-0.108642578125,-0.158203125,0.5321
1.4045801526717556,1.1755725190839694,-1.984732824427481,-0.44873046875,-0.109619140625,-0.159912109375,0.5337999999999999
1.1450381679389312,1.282442748091603,-1.9236641221374047,-0.4580078125,-0.107177734375,-0.160888671875,0.5355
0.7938931297709924,1.297709923664122,-2.0610687022900764,-0.453125,-0.1025390625,-0.15576171875,0.5372
0.9312977099236641,1.282442748091603,-1.7557251908396947,-0.45849609375,-0.106689453125,-0.158935546875,0.5388999999999999
0.8244274809160306,1.4198473282442747,-1.786259541984733,-0.458984375,-0.1064453125,-0.16015625,0.5406
0.7786259541984732,1.5114503816793894,-1.7404580152671756,-0.45703125,-0.103271484375,-0.161376953125,0.5423
0.9770992366412213,1.3129770992366412,-1.7099236641221374,-0.461669921875,-0.107421875,-0.164794921875,0.5439999999999999
0.9465648854961832,1.4961832061068703,-1.4045801526717556,-0.458984375,-0.106689453125,-0.16943359375,0.5457
1.0534351145038168,1.7251908396946565,-1.4198473282442747,-0.458251953125,-0.10546875,-0.164794921875,0.5474
1.465648854961832,1.6793893129770991,-1.4809160305343512,-0.4609375,-0.10400390625,-0.160888671875,0.5490999999999999
1.5267175572519085,1.9083969465648856,-1.5267175572519085,-0.4599609375,-0.108154296875,-0.1630859375,0.5508
1.7557251908396947,2.015267175572519,-1.282442748091603,-0.449462890625,-0.106689453125,-0.15478515625,0.5525
1.9083969465648856,2.0763358778625953,-1.3740458015267176,-0.453125,-0.106201171875,-0.162109375,0.5541999999999999
1.9389312977099236,2.1374045801526718,-1.465648854961832,-0.45361328125,-0.108154296875,-0.156982421875,0.5559
1.83206106870229,1.984732824427481,-1.3587786259541985,-0.4560546875,-0.1083984375,-0.153564453125,0.5576
1.83206106870229,1.9083969465648856,-1.2213740458015268,-0.45703125,-0.107666015625,-0.153564453125,0.5593
1.7251908396946565,2.1068702290076335,-1.3893129770992367,-0.459228515625,-0.107666015625,-0.16455078125,0.5609999999999999
1.3587786259541985,2.16793893129771,-1.5419847328244274,-0.454833984375,-0.106689453125,-0.156005859375,0.5627
1.2671755725190839,2.0,-1.3587786259541985,-0.458251953125,-0.11572265625,-0.160888671875,0.5644
0.9007633587786259,1.786259541984733,-1.6641221374045803,-0.452880859375,-0.113525390625,-0.158447265625,0.5660999999999999
0.7938931297709924,1.8625954198473282,-1.6488549618320612,-0.462158203125,-0.107421875,-0.163330078125,0.5678
0.6412213740458015,1.816793893129771,-1.8015267175572518,-0.455322265625,-0.10888671875,-0.16162109375,0.5695
0.6564885496183206,1.786259541984733,-1.7404580152671756,-0.450927734375,-0.11376953125,-0.158447265625,0.5711999999999999
0.3816793893129771,1.5267175572519085,-1.6641221374045803,-0.45703125,-0.117919921875,-0.159912109375,0.5729
0.3511450381679389,1.618320610687023,-1.6641221374045803,-0.456787109375,-0.10302734375,-0.158935546875,0.5746
0.3969465648854962,1.8931297709923665,-1.9389312977099236,-0.454833984375,-0.110595703125,-0.159912109375,0.5762999999999999
0.8549618320610687,1.618320610687023,-1.6488549618320612,-0.4599609375,-0.1123046875,-0.158203125,0.578
0.9465648854961832,1.633587786259542,-1.786259541984733,-0.456298828125,-0.1064453125,-0.15673828125,0.5797
1.3435114503816794,1.83206106870229,-1.984732824427481,-0.455322265625,-0.109130859375,-0.15625,0.5813999999999999
1.3129770992366412,1.6641221374045803,-1.9083969465648856,-0.455322265625,-0.108154296875,-0.15234375,0.5831
1.4809160305343512,1.5114503816793894,-1.6946564885496183,-0.458251953125,-0.108154296875,-0.155517578125,0.5848
1.6641221374045803,1.4961832061068703,-2.0,-0.4541015625,-0.106689453125,-0.150634765625,0.5865
1.5877862595419847,1.7404580152671756,-1.8778625954198473,-0.456787109375,-0.107177734375,-0.1591796875,0.5882
1.8015267175572518,1.8473282442748091,-2.045801526717557,-0.45703125,-0.111328125,-0.164306640625,0.5899
1.9541984732824427,1.5725190839694656,-1.7404580152671756,-0.45263671875,-0.107666015625,-0.164794921875,0.5916
1.9541984732824427,1.4351145038167938,-1.7557251908396947,-0.451171875,-0.103759765625,-0.16064453125,0.5932999999999999
2.122137404580153,1.5267175572519085,-1.8931297709923665,-0.450439453125,-0.098388671875,-0.155029296875,0.595
2.198473282442748,1.618320610687023,-1.9236641221374047,-0.45458984375,-0.107666015625,-0.148193359375,0.5967
2.213740458015267,1.5267175572519085,-1.6946564885496183,-0.44921875,-0.1044921875,-0.15380859375,0.5983999999999999
2.183206106870229,1.5725190839694656,-1.8015267175572518,-0.44921875,-0.104736328125,-0.14794921875,0.6001
2.0610687022900764,1.4351145038167938,-1.6946564885496183,-0.453125,-0.1064453125,-0.16064453125,0.6018
2.1374045801526718,1.5267175572519085,-1.7251908396946565,-0.455322265625,-0.100341796875,-0.155029296875,0.6034999999999999
2.0610687022900764,1.5419847328244274,-1.7251908396946565,-0.454833984375,-0.103271484375,-0.156005859375,0.6052
1.6641221374045803,1.6641221374045803,-1.7099236641221374,-0.449462890625,-0.107666015625,-0.156005859375,0.6069
1.786259541984733,1.5267175572519085,-1.618320610687023,-0.45556640625,-0.105712890625,-0.151611328125,0.6085999999999999
1.6488549618320612,1.5267175572519085,-1.8015267175572518,-0.4521484375,-0.104248046875,-0.1513671875,0.6103
1.4045801526717556,1.7099236641221374,-1.5419847328244274,-0.454833984375,-0.103515625,-0.15625,0.612
1.282442748091603,1.6946564885496183,-1.7557251908396947,-0.455078125,-0.106689453125,-0.156005859375,0.6136999999999999
1.4045801526717556,1.618320610687023,-1.465648854961832,-0.447998046875,-0.10498046875,-0.162109375,0.6154
1.0534351145038168,1.7099236641221374,-1.4961832061068703,-0.452880859375,-0.105224609375,-0.160888671875,0.6171
1.1450381679389312,1.8625954198473282,-1.251908396946565,-0.455078125,-0.10595703125,-0.158203125,0.6188
0.9312977099236641,1.633587786259542,-1.3282442748091603,-0.449951171875,-0.108154296875,-0.16064453125,0.6204999999999999
1.1603053435114503,1.6793893129770991,-1.1908396946564885,-0.453369140625,-0.10693359375,-0.16162109375,0.6222
1.083969465648855,1.8473282442748091,-1.2671755725190839,-0.451171875,-0.103271484375,-0.15625,0.6239
1.083969465648855,1.7251908396946565,-1.0076335877862594,-0.45263671875,-0.107421875,-0.155517578125,0.6255999999999999
1.2213740458015268,1.9541984732824427,-1.2061068702290076,-0.4541015625,-0.108642578125,-0.158935546875,0.6273
1.4045801526717556,1.984732824427481,-1.1145038167938932,-0.456298828125,-0.11083984375,-0.156005859375,0.629
1.7251908396946565,2.045801526717557,-1.1450381679389312,-0.44921875,-0.111328125,-0.16748046875,0.6306999999999999
1.9083969465648856,1.984732824427481,-1.0534351145038168,-0.454345703125,-0.115966796875,-0.163330078125,0.6324
1.5572519083969465,2.030534351145038,-1.1297709923664123,-0.455810546875,-0.11083984375,-0.167724609375,0.6341
1.9541984732824427,2.0916030534351147,-1.251908396946565,-0.4560546875,-0.11083984375,-0.161376953125,0.6357999999999999
2.015267175572519,2.122137404580153,-1.282442748091603,-0.4541015625,-0.10546875,-0.157958984375,0.6375
1.9083969465648856,2.015267175572519,-1.099236641221374,-0.45263671875,-0.105224609375,-0.1591796875,0.6392
1.9694656488549618,1.9694656488549618,-1.4198473282442747,-0.455078125,-0.108642578125,-0.156494140625,0.6408999999999999
1.8931297709923665,1.7404580152671756,-1.0381679389312977,-0.452392578125,-0.110595703125,-0.1611328125,0.6426
1.7099236641221374,1.7557251908396947,-1.1450381679389312,-0.454345703125,-0.1103515625,-0.15625,0.6443
1.618320610687023,1.6946564885496183,-1.0534351145038168,-0.45849609375,-0.107421875,-0.16015625,0.646
1.4198473282442747,1.282442748091603,-1.251908396946565,-0.452392578125,-0.107177734375,-0.152099609375,0.6476999999999999
1.1908396946564885,1.2366412213740459,-1.1755725190839694,-0.450927734375,-0.10986328125,-0.157470703125,0.6494
1.2213740458015268,1.3435114503816794,-1.3129770992366412,-0.4462890625,-0.109375,-0.1494140625,0.6511
1.3893129770992367,1.2061068702290076,-1.3129770992366412,-0.448486328125,-0.109375,-0.15625,0.6527999999999999
1.0229007633587786,1.2671755725190839,-1.3740458015267176,-0.448486328125,-0.10888671875,-0.15380859375,0.6545
1.297709923664122,1.1755725190839694,-1.4045801526717556,-0.451904296875,-0.107666015625,-0.15966796875,0.6562
1.3129770992366412,1.2671755725190839,-1.5114503816793894,-0.4501953125,-0.111083984375,-0.150390625,0.6578999999999999
1.282442748091603,1.4351145038167938,-1.633587786259542,-0.44921875,-0.11474609375,-0.1611328125,0.6596
1.5114503816793894,1.3740458015267176,-1.786259541984733,-0.44873046875,-0.10791015625,-0.14892578125,0.6613
1.3435114503816794,1.3893129770992367,-1.786259541984733,-0.45458984375,-0.107421875,-0.15087890625,0.6629999999999999
1.297709923664122,1.4351145038167938,-1.786259541984733,-0.45361328125,-0.113037109375,-0.154296875,0.6647
1.4809160305343512,1.465648854961832,-1.5572519083969465,-0.4521484375,-0.10986328125,-0.156982421875,0.6664
1.450381679389313,1.450381679389313,-1.816793893129771,-0.454345703125,-0.1064453125,-0.15673828125,0.6680999999999999
1.4045801526717556,1.465648854961832,-1.7099236641221374,-0.452880859375,-0.110107421875,-0.1533203125,0.6698
1.3282442748091603,1.5419847328244274,-1.8625954198473282,-0.45361328125,-0.111328125,-0.148681640625,0.6715
1.2671755725190839,1.4961832061068703,-1.8931297709923665,-0.448486328125,-0.111328125,-0.163330078125,0.6731999999999999
1.2366412213740459,1.5114503816793894,-2.1068702290076335,-0.450439453125,-0.105712890625,-0.16162109375,0.6748999999999999
1.3740458015267176,1.465648854961832,-1.9083969465648856,-0.446533203125,-0.107666015625,-0.163330078125,0.6766
1.4045801526717556,1.251908396946565,-2.0763358778625953,-0.44580078125,-0.110107421875,-0.165771484375,0.6783
1.3129770992366412,1.1145038167938932,-1.984732824427481,-0.44970703125,-0.111328125,-0.15771484375,0.6799999999999999
1.5267175572519085,1.1450381679389312,-2.16793893129771,-0.451171875,-0.102294921875,-0.1572265625,0.6817
1.5725190839694656,0.9770992366412213,-2.045801526717557,-0.453125,-0.10302734375,-0.156005859375,0.6834
1.5114503816793894,0.8854961832061069,-2.1526717557251906,-0.448486328125,-0.1103515625,-0.160888671875,0.6850999999999999
1.5725190839694656,0.8396946564885496,-2.1526717557251906,-0.445556640625,-0.109130859375,-0.158935546875,0.6868
1.6488549618320612,0.8091603053435115,-2.2900763358778624,-0.448486328125,-0.110595703125,-0.166015625,0.6885
1.618320610687023,0.8549618320610687,-1.9083969465648856,-0.459228515625,-0.107421875,-0.152099609375,0.6901999999999999
1.786259541984733,0.9312977099236641,-1.9694656488549618,-0.45361328125,-0.108154296875,-0.1552734375,0.6919
1.816793893129771,0.9312977099236641,-1.9236641221374047,-0.456787109375,-0.104736328125,-0.16064453125,0.6936
1.5725190839694656,0.8854961832061069,-1.8625954198473282,-0.448974609375,-0.10693359375,-0.164306640625,0.6952999999999999
1.816793893129771,1.1297709923664123,-1.6030534351145038,-0.453369140625,-0.10400390625,-0.152099609375,0.697
1.7099236641221374,1.1755725190839694,-1.8625954198473282,-0.45068359375,-0.110107421875,-0.153564453125,0.6987
1.6793893129770991,1.3129770992366412,-1.4961832061068703,-0.458251953125,-0.108642578125,-0.159912109375,0.7003999999999999
1.618320610687023,1.1908396946564885,-1.6488549618320612,-0.452880859375,-0.106201171875,-0.163330078125,0.7021
1.5572519083969465,1.1603053435114503,-1.5114503816793894,-0.453857421875,-0.106689453125,-0.149169921875,0.7038
1.5114503816793894,1.3129770992366412,-1.6641221374045803,-0.45703125,-0.104736328125,-0.156005859375,0.7055
1.282442748091603,1.1603053435114503,-1.4198473282442747,-0.449462890625,-0.104248046875,-0.153564453125,0.7071999999999999
1.3893129770992367,1.083969465648855,-1.6488549618320612,-0.448974609375,-0.103271484375,-0.156982421875,0.7089
1.2671755725190839,1.0229007633587786,-1.5419847328244274,-0.4482421875,-0.10791015625,-0.15283203125,0.7106
0.9007633587786259,0.9312977099236641,-1.465648854961832,-0.459716796875,-0.10888671875,-0.16064453125,0.7122999999999999
0.7480916030534351,0.8244274809160306,-1.4198473282442747,-0.456787109375,-0.112060546875,-0.157958984375,0.714
0.8091603053435115,0.6564885496183206,-1.7099236641221374,-0.452392578125,-0.105712890625,-0.157958984375,0.7157
0.7175572519083969,0.549618320610687,-1.6946564885496183,-0.453125,-0.105224609375,-0.1572265625,0.7173999999999999
0.7633587786259542,0.8244274809160306,-1.7557251908396947,-0.452880859375,-0.104248046875,-0.162109375,0.7191
0.6106870229007634,0.9007633587786259,-1.6793893129770991,-0.45703125,-0.105224609375,-0.164794921875,0.7208
1.0076335877862594,0.9007633587786259,-1.4961832061068703,-0.45703125,-0.108642578125,-0.169921875,0.7224999999999999
0.7022900763358778,1.099236641221374,-1.3893129770992367,-0.458251953125,-0.109619140625,-0.162109375,0.7242
0.916030534351145,1.0534351145038168,-1.282442748091603,-0.45166015625,-0.10595703125,-0.161376953125,0.7259
1.1603053435114503,1.099236641221374,-1.2061068702290076,-0.457763671875,-0.1025390625,-0.15283203125,0.7275999999999999
1.0229007633587786,1.2213740458015268,-1.2366412213740459,-0.461181640625,-0.112548828125,-0.16455078125,0.7293
1.251908396946565,1.282442748091603,-0.9923664122137404,-0.452392578125,-0.109619140625,-0.16064453125,0.731
1.3435114503816794,1.4198473282442747,-0.9465648854961832,-0.45849609375,-0.10546875,-0.161865234375,0.7326999999999999
1.4961832061068703,1.450381679389313,-1.1450381679389312,-0.456298828125,-0.107666015625,-0.16552734375,0.7343999999999999
1.7557251908396947,1.450381679389313,-1.1908396946564885,-0.453125,-0.10791015625,-0.153076171875,0.7361
1.83206106870229,1.5267175572519085,-1.0076335877862594,-0.453857421875,-0.107177734375,-0.164794921875,0.7378
1.9389312977099236,1.786259541984733,-1.3282442748091603,-0.455810546875,-0.10693359375,-0.15869140625,0.7394999999999999
1.8625954198473282,1.6946564885496183,-1.2061068702290076,-0.457275390625,-0.109130859375,-0.161376953125,0.7412
1.9694656488549618,1.6030534351145038,-1.1297709923664123,-0.45556640625,-0.10986328125,-0.16015625,0.7429
2.030534351145038,1.786259541984733,-1.1297709923664123,-0.450927734375,-0.113037109375,-0.16015625,0.7445999999999999
2.213740458015267,1.816793893129771,-1.1603053435114503,-0.453125,-0.11572265625,-0.161865234375,0.7463
2.2442748091603053,1.618320610687023,-1.2366412213740459,-0.455078125,-0.11083984375,-0.156982421875,0.748
2.0916030534351147,1.633587786259542,-1.1450381679389312,-0.45458984375,-0.109619140625,-0.15625,0.7496999999999999
2.2290076335877864,1.6793893129770991,-1.4045801526717556,-0.444580078125,-0.116943359375,-0.152587890625,0.7514
2.5343511450381677,1.4198473282442747,-1.4809160305343512,-0.452392578125,-0.112548828125,-0.1552734375,0.7531
2.213740458015267,1.2366412213740459,-1.4961832061068703,-0.4541015625,-0.109375,-0.156494140625,0.7547999999999999
2.33587786259542,0.8854961832061069,-1.4351145038167938,-0.448974609375,-0.115966796875,-0.15478515625,0.7565
2.1374045801526718,0.8396946564885496,-1.3740458015267176,-0.45263671875,-0.11767578125,-0.15673828125,0.7582
2.2595419847328246,0.7022900763358778,-1.5725190839694656,-0.450927734375,-0.111328125,-0.155517578125,0.7598999999999999
2.198473282442748,0.549618320610687,-1.4961832061068703,-0.44482421875,-0.11181640625,-0.157470703125,0.7615999999999999
2.1068702290076335,0.3511450381679389,-1.6641221374045803,-0.449462890625,-0.116455078125,-0.16015625,0.7633
2.0610687022900764,0.16793893129770993,-1.6946564885496183,-0.445556640625,-0.119140625,-0.159423828125,0.7649999999999999
1.83206106870229,0.4122137404580153,-1.816793893129771,-0.44384765625,-0.12060546875,-0.14990234375,0.7666999999999999
1.5877862595419847,0.16793893129770993,-1.786259541984733,-0.449462890625,-0.1123046875,-0.1455078125,0.7684
1.465648854961832,0.21374045801526717,-1.6641221374045803,-0.449462890625,-0.11083984375,-0.151611328125,0.7701
1.1145038167938932,0.21374045801526717,-1.984732824427481,-0.4521484375,-0.11181640625,-0.15478515625,0.7717999999999999
1.1603053435114503,0.24427480916030533,-1.9541984732824427,-0.45263671875,-0.113525390625,-0.157958984375,0.7735
0.7175572519083969,0.32061068702290074,-2.0916030534351147,-0.455810546875,-0.11474609375,-0.155517578125,0.7752
0.22900763358778625,0.366412213740458,-2.045801526717557,-0.45068359375,-0.10986328125,-0.157470703125,0.7768999999999999
0.04580152671755725,0.5343511450381679,-2.0916030534351147,-0.447509765625,-0.116943359375,-0.16845703125,0.7786
-0.0916030534351145,0.2900763358778626,-2.045801526717557,-0.456298828125,-0.109619140625,-0.165283203125,0.7803
-0.4122137404580153,0.42748091603053434,-2.0763358778625953,-0.450439453125,-0.11279296875,-0.158203125,0.7819999999999999
-0.4580152671755725,0.6259541984732825,-1.9083969465648856,-0.453857421875,-0.11181640625,-0.15771484375,0.7837
-0.5343511450381679,0.6870229007633588,-2.0916030534351147,-0.453125,-0.1064453125,-0.16357421875,0.7854
-0.8091603053435115,0.6412213740458015,-2.1068702290076335,-0.453857421875,-0.1083984375,-0.15478515625,0.7870999999999999
-0.8549618320610687,0.5343511450381679,-2.0763358778625953,-0.455078125,-0.111572265625,-0.1611328125,0.7888
-0.5343511450381679,0.6412213740458015,-2.0,-0.4560546875,-0.108642578125,-0.16162109375,0.7905
-0.4580152671755725,0.5343511450381679,-1.83206106870229,-0.455078125,-0.107666015625,-0.158447265625,0.7921999999999999
-0.7175572519083969,0.3816793893129771,-1.9541984732824427,-0.450439453125,-0.105224609375,-0.16259765625,0.7938999999999999
-0.6870229007633588,0.48854961832061067,-1.83206106870229,-0.45263671875,-0.1064453125,-0.158935546875,0.7956
-0.24427480916030533,0.3511450381679389,-1.7099236641221374,-0.451904296875,-0.106689453125,-0.15283203125,0.7973
-0.366412213740458,0.3053435114503817,-1.6793893129770991,-0.453369140625,-0.101318359375,-0.162109375,0.7989999999999999
-0.04580152671755725,0.3511450381679389,-1.6030534351145038,-0.454345703125,-0.10400390625,-0.15283203125,0.8007
0.015267175572519083,0.24427480916030533,-1.5267175572519085,-0.451171875,-0.10107421875,-0.1611328125,0.8024
0.24427480916030533,0.1984732824427481,-1.3893129770992367,-0.45361328125,-0.098388671875,-0.16259765625,0.8040999999999999
0.2595419847328244,0.22900763358778625,-1.3587786259541985,-0.45654296875,-0.1015625,-0.15234375,0.8058
0.10687022900763359,0.3053435114503817,-1.3587786259541985,-0.4580078125,-0.1015625,-0.15380859375,0.8075
0.44274809160305345,0.2900763358778626,-1.2061068702290076,-0.4560546875,-0.1025390625,-0.155029296875,0.8091999999999999
0.33587786259541985,0.2900763358778626,-1.1297709923664123,-0.452392578125,-0.1044921875,-0.1650390625,0.8109
0.5648854961832062,0.32061068702290074,-1.1755725190839694,-0.4521484375,-0.104248046875,-0.163330078125,0.8126
0.6870229007633588,0.44274809160305345,-0.9465648854961832,-0.450927734375,-0.1025390625,-0.165283203125,0.8142999999999999
0.6259541984732825,0.5954198473282443,-0.916030534351145,-0.455810546875,-0.10595703125,-0.163818359375,0.816
0.7633587786259542,0.7633587786259542,-0.9007633587786259,-0.453369140625,-0.102783203125,-0.165283203125,0.8177
0.9770992366412213,0.6870229007633588,-0.8854961832061069,-0.455810546875,-0.105712890625,-0.1552734375,0.8193999999999999
1.0381679389312977,0.7786259541984732,-0.8854961832061069,-0.456787109375,-0.102783203125,-0.160888671875,0.8210999999999999
1.1755725190839694,0.916030534351145,-0.9923664122137404,-0.457763671875,-0.105224609375,-0.164306640625,0.8228
1.4045801526717556,1.2061068702290076,-0.7022900763358778,-0.45556640625,-0.111083984375,-0.159423828125,0.8244999999999999
1.3129770992366412,1.2213740458015268,-0.7633587786259542,-0.45654296875,-0.1025390625,-0.163330078125,0.8261999999999999
1.297709923664122,1.2671755725190839,-0.6412213740458015,-0.453369140625,-0.09765625,-0.1591796875,0.8279
1.450381679389313,1.3587786259541985,-0.8549618320610687,-0.451904296875,-0.099365234375,-0.158935546875,0.8296
1.7251908396946565,1.4961832061068703,-0.6870229007633588,-0.456787109375,-0.109130859375,-0.153564453125,0.8312999999999999
1.7557251908396947,1.2366412213740459,-0.6870229007633588,-0.44970703125,-0.11376953125,-0.159912109375,0.833
1.6946564885496183,1.3129770992366412,-0.5954198473282443,-0.452880859375,-0.11083984375,-0.157470703125,0.8347
1.7251908396946565,1.3435114503816794,-0.7633587786259542,-0.4482421875,-0.115966796875,-0.158447265625,0.8363999999999999
1.9694656488549618,1.1603053435114503,-0.9618320610687023,-0.453857421875,-0.1123046875,-0.157470703125,0.8381
1.9389312977099236,1.1603053435114503,-0.9923664122137404,-0.44970703125,-0.11474609375,-0.158203125,0.8398
2.045801526717557,1.1297709923664123,-1.0381679389312977,-0.452880859375,-0.111328125,-0.150390625,0.8414999999999999
1.7251908396946565,1.0229007633587786,-1.1603053435114503,-0.451904296875,-0.1142578125,-0.1611328125,0.8432
1.5725190839694656,0.7633587786259542,-0.916030534351145,-0.4453125,-0.111572265625,-0.1533203125,0.8449
1.5267175572519085,0.7633587786259542,-1.4198473282442747,-0.44873046875,-0.110595703125,-0.1591796875,0.8465999999999999
1.282442748091603,0.5190839694656488,-1.5114503816793894,-0.4482421875,-0.114501953125,-0.15478515625,0.8482999999999999
1.1908396946564885,0.5190839694656488,-1.4351145038167938,-0.45849609375,-0.11181640625,-0.155517578125,0.85
0.9770992366412213,0.5801526717557252,-1.4045801526717556,-0.4501953125,-0.11328125,-0.159423828125,0.8516999999999999
0.7786259541984732,0.3969465648854962,-1.6793893129770991,-0.4482421875,-0.110595703125,-0.159423828125,0.8533999999999999
0.8854961832061069,0.24427480916030533,-1.4961832061068703,-0.4501953125,-0.1171875,-0.151123046875,0.8551
0.48854961832061067,0.22900763358778625,-1.633587786259542,-0.452880859375,-0.110107421875,-0.156982421875,0.8568
0.366412213740458,0.44274809160305345,-1.450381679389313,-0.452392578125,-0.1142578125,-0.166259765625,0.8584999999999999
0.549618320610687,0.6259541984732825,-1.6641221374045803,-0.45556640625,-0.11474609375,-0.15576171875,0.8602
0.2900763358778626,0.7022900763358778,-1.3740458015267176,-0.45703125,-0.117431640625,-0.149658203125,0.8619
-0.030534351145038167,0.7022900763358778,-1.4198473282442747,-0.45263671875,-0.110107421875,-0.158447265625,0.8635999999999999
0.04580152671755725,0.7633587786259542,-1.4198473282442747,-0.451171875,-0.113525390625,-0.152099609375,0.8653
-0.015267175572519083,0.732824427480916,-1.5114503816793894,-0.45068359375,-0.111328125,-0.16162109375,0.867
0.0916030534351145,0.5343511450381679,-1.6030534351145038,-0.460205078125,-0.111083984375,-0.15771484375,0.8686999999999999
0.12213740458015267,0.3053435114503817,-1.5419847328244274,-0.45068359375,-0.112060546875,-0.163330078125,0.8704
0.0,0.42748091603053434,-1.4961832061068703,-0.453857421875,-0.10546875,-0.15087890625,0.8721
0.366412213740458,0.3053435114503817,-1.6030534351145038,-0.4521484375,-0.107666015625,-0.14453125,0.8737999999999999
0.3816793893129771,0.12213740458015267,-1.5572519083969465,-0.455078125,-0.109130859375,-0.159423828125,0.8755
0.44274809160305345,0.12213740458015267,-1.6641221374045803,-0.45458984375,-0.107666015625,-0.156982421875,0.8772
0.549618320610687,0.0,-1.450381679389313,-0.457275390625,-0.1044921875,-0.158935546875,0.8788999999999999
0.5648854961832062,0.015267175572519083,-1.6641221374045803,-0.453369140625,-0.1015625,-0.159423828125,0.8805999999999999
0.5954198473282443,0.10687022900763359,-1.5419847328244274,-0.45458984375,-0.1064453125,-0.156005859375,0.8823
0.3816793893129771,-0.07633587786259542,-1.5725190839694656,-0.45849609375,-0.1044921875,-0.154541015625,0.8839999999999999
0.7022900763358778,-0.07633587786259542,-1.5267175572519085,-0.456787109375,-0.101806640625,-0.15380859375,0.8856999999999999
0.7938931297709924,-0.13740458015267176,-1.4809160305343512,-0.450927734375,-0.100830078125,-0.15234375,0.8874
0.9312977099236641,0.061068702290076333,-1.5419847328244274,-0.45556640625,-0.103271484375,-0.161865234375,0.8891
0.8702290076335878,-0.030534351145038167,-1.4351145038167938,-0.4560546875,-0.104736328125,-0.157470703125,0.8907999999999999
1.099236641221374,-0.13740458015267176,-1.099236641221374,-0.45361328125,-0.107421875,-0.162109375,0.8925
0.9770992366412213,0.04580152671755725,-1.3587786259541985,-0.45556640625,-0.10498046875,-0.164306640625,0.8942
1.0076335877862594,0.33587786259541985,-1.5114503816793894,-0.45263671875,-0.106689453125,-0.156982421875,0.8958999999999999
1.099236641221374,0.21374045801526717,-1.1297709923664123,-0.455078125,-0.104736328125,-0.164794921875,0.8976
1.297709923664122,0.3816793893129771,-0.9465648854961832,-0.4560546875,-0.104736328125,-0.164306640625,0.8993
1.1755725190839694,0.15267175572519084,-0.9923664122137404,-0.45361328125,-0.105224609375,-0.163818359375,0.9009999999999999
1.297709923664122,0.366412213740458,-1.0381679389312977,-0.450439453125,-0.105712890625,-0.155517578125,0.9027
1.297709923664122,0.42748091603053434,-0.9312977099236641,-0.453857421875,-0.106689453125,-0.158447265625,0.9044
1.5725190839694656,0.3969465648854962,-0.8702290076335878,-0.4541015625,-0.106201171875,-0.157958984375,0.9060999999999999
1.4809160305343512,0.366412213740458,-1.0229007633587786,-0.4521484375,-0.109619140625,-0.162109375,0.9077999999999999
1.8015267175572518,0.44274809160305345,-0.9618320610687023,-0.44970703125,-0.1103515625,-0.160888671875,0.9095
1.9694656488549618,0.5648854961832062,-1.2213740458015268,-0.45947265625,-0.108642578125,-0.15478515625,0.9111999999999999
2.015267175572519,0.6412213740458015,-0.916030534351145,-0.45556640625,-0.105224609375,-0.156005859375,0.9128999999999999
2.2442748091603053,0.6259541984732825,-0.9923664122137404,-0.455810546875,-0.108642578125,-0.164306640625,0.9146
2.3053435114503817,0.732824427480916,-1.1297709923664123,-0.457275390625,-0.11474609375,-0.1494140625,0.9163
2.1374045801526718,0.732824427480916,-1.3435114503816794,-0.453857421875,-0.114013671875,-0.154541015625,0.9179999999999999
1.8778625954198473,0.7633587786259542,-1.1450381679389312,-0.4501953125,-0.110107421875,-0.158935546875,0.9197
1.816793893129771,0.7480916030534351,-1.251908396946565,-0.45068359375,-0.108154296875,-0.162109375,0.9214
1.786259541984733,0.7633587786259542,-1.2213740458015268,-0.450439453125,-0.109130859375,-0.157470703125,0.9230999999999999
1.3893129770992367,0.7175572519083969,-1.282442748091603,-0.453369140625,-0.10888671875,-0.152099609375,0.9248
1.2213740458015268,0.6106870229007634,-1.3435114503816794,-0.455322265625,-0.110595703125,-0.161865234375,0.9265
0.9770992366412213,0.6412213740458015,-1.3282442748091603,-0.45458984375,-0.10595703125,-0.16796875,0.9281999999999999
0.5801526717557252,0.6412213740458015,-1.297709923664122,-0.454833984375,-0.109375,-0.16796875,0.9299
0.6870229007633588,0.732824427480916,-1.5572519083969465,-0.4580078125,-0.113525390625,-0.16064453125,0.9316
0.366412213740458,0.7022900763358778,-1.3740458015267176,-0.45361328125,-0.11083984375,-0.156982421875,0.9332999999999999
0.183206106870229,0.6564885496183206,-1.4961832061068703,-0.451904296875,-0.108154296875,-0.15869140625,0.9349999999999999
0.13740458015267176,0.6870229007633588,-1.465648854961832,-0.454833984375,-0.107421875,-0.16162109375,0.9367
-0.061068702290076333,0.8396946564885496,-1.4809160305343512,-0.45751953125,-0.1142578125,-0.15625,0.9383999999999999
0.0916030534351145,0.6412213740458015,-1.3587786259541985,-0.45166015625,-0.11181640625,-0.152099609375,0.9400999999999999
0.061068702290076333,0.7786259541984732,-1.4045801526717556,-0.44970703125,-0.11083984375,-0.148681640625,0.9418
0.0916030534351145,0.7633587786259542,-1.251908396946565,-0.454345703125,-0.1103515625,-0.14794921875,0.9434999999999999
0.13740458015267176,0.6870229007633588,-1.3740458015267176,-0.449462890625,-0.110107421875,-0.15576171875,0.9451999999999999
0.5038167938931297,0.732824427480916,-1.251908396946565,-0.453369140625,-0.107177734375,-0.16015625,0.9469
0.366412213740458,0.6412213740458015,-1.2213740458015268,-0.453369140625,-0.106689453125,-0.152099609375,0.9486
0.183206106870229,0.6717557251908397,-1.0534351145038168,-0.450927734375,-0.1064453125,-0.14990234375,0.9502999999999999
0.6717557251908397,0.6412213740458015,-1.2671755725190839,-0.457275390625,-0.10546875,-0.148681640625,0.952
0.7786259541984732,0.6412213740458015,-1.0229007633587786,-0.4462890625,-0.1064453125,-0.152587890625,0.9537
0.549618320610687,0.549618320610687,-1.083969465648855,-0.45458984375,-0.10498046875,-0.16064453125,0.9553999999999999
0.732824427480916,0.4580152671755725,-1.1908396946564885,-0.45556640625,-0.105224609375,-0.156982421875,0.9571
1.0076335877862594,0.4732824427480916,-1.0534351145038168,-0.44921875,-0.107177734375,-0.16064453125,0.9588
1.0076335877862594,0.5343511450381679,-1.0076335877862594,-0.456298828125,-0.106689453125,-0.15576171875,0.9604999999999999
1.0076335877862594,0.5343511450381679,-1.0381679389312977,-0.453125,-0.1044921875,-0.157958984375,0.9621999999999999
0.9770992366412213,0.5801526717557252,-0.9618320610687023,-0.45263671875,-0.09716796875,-0.159423828125,0.9639
1.0534351145038168,0.48854961832061067,-0.9007633587786259,-0.451904296875,-0.102783203125,-0.15380859375,0.9655999999999999
1.251908396946565,0.5801526717557252,-0.7938931297709924,-0.45068359375,-0.1015625,-0.151611328125,0.9672999999999999
1.1908396946564885,0.4732824427480916,-0.8396946564885496,-0.44970703125,-0.10205078125,-0.156005859375,0.969
0.8091603053435115,0.5954198473282443,-0.6564885496183206,-0.45458984375,-0.105224609375,-0.16455078125,0.9706999999999999
1.2061068702290076,0.4732824427480916,-0.6717557251908397,-0.454345703125,-0.107177734375,-0.15869140625,0.9723999999999999
1.2671755725190839,0.42748091603053434,-0.5343511450381679,-0.45361328125,-0.103759765625,-0.1513671875,0.9741
1.099236641221374,0.33587786259541985,-0.5954198473282443,-0.4501953125,-0.102294921875,-0.16357421875,0.9758
0.9770992366412213,0.2595419847328244,-0.6870229007633588,-0.45263671875,-0.104248046875,-0.155517578125,0.9774999999999999
1.099236641221374,0.16793893129770993,-0.32061068702290074,-0.455322265625,-0.1064453125,-0.1611328125,0.9792
1.6641221374045803,0.44274809160305345,-0.42748091603053434,-0.451416015625,-0.10986328125,-0.15771484375,0.9809
1.8625954198473282,0.3511450381679389,-0.4732824427480916,-0.45361328125,-0.1103515625,-0.157958984375,0.9825999999999999
2.015267175572519,0.366412213740458,-0.3511450381679389,-0.458984375,-0.110107421875,-0.155517578125,0.9843
2.4580152671755724,0.7786259541984732,-0.4580152671755725,-0.45556640625,-0.11181640625,-0.166015625,0.986
2.595419847328244,0.9770992366412213,-0.5954198473282443,-0.45458984375,-0.115234375,-0.16162109375,0.9876999999999999
2.4122137404580153,1.2061068702290076,-0.7786259541984732,-0.45703125,-0.11865234375,-0.16259765625,0.9894
2.7480916030534353,1.465648854961832,-0.6870229007633588,-0.45947265625,-0.1142578125,-0.164306640625,0.9911
2.7022900763358777,1.4198473282442747,-0.8396946564885496,-0.455322265625,-0.110595703125,-0.164794921875,0.9927999999999999
2.854961832061069,1.2366412213740459,-0.7786259541984732,-0.4541015625,-0.11328125,-0.162109375,0.9944999999999999
2.717557251908397,1.3893129770992367,-0.7633587786259542,-0.453125,-0.116455078125,-0.159912109375,0.9962
2.4427480916030535,1.3893129770992367,-0.8702290076335878,-0.46142578125,-0.114990234375,-0.164306640625,0.9978999999999999
2.3206106870229006,1.1908396946564885,-0.9007633587786259,-0.4580078125,-0.111572265625,-0.159423828125,0.9995999999999999
2.4122137404580153,1.1297709923664123,-0.9312977099236641,-0.4619140625,-0.112060546875,-0.15087890625,1.0012999999999999
1.984732824427481,0.9923664122137404,-1.1450381679389312,-0.45703125,-0.119873046875,-0.15478515625,1.003
1.6793893129770991,0.6870229007633588,-1.2061068702290076,-0.454345703125,-0.11279296875,-0.159912109375,1.0047
1.297709923664122,0.4580152671755725,-1.3129770992366412,-0.456298828125,-0.116943359375,-0.1611328125,1.0064
0.916030534351145,0.42748091603053434,-1.5267175572519085,-0.45703125,-0.116943359375,-0.1650390625,1.0081
0.6870229007633588,0.33587786259541985,-1.6030534351145038,-0.458984375,-0.112060546875,-0.15673828125,1.0098
0.366412213740458,0.1984732824427481,-1.8625954198473282,-0.453369140625,-0.113525390625,-0.163330078125,1.0114999999999998
0.24427480916030533,0.21374045801526717,-1.6641221374045803,-0.4541015625,-0.111328125,-0.1572265625,1.0131999999999999
-0.2748091603053435,0.3053435114503817,-1.8778625954198473,-0.459228515625,-0.112060546875,-0.159912109375,1.0149
-0.015267175572519083,0.16793893129770993,-1.984732824427481,-0.454833984375,-0.109619140625,-0.158447265625,1.0166
-0.2595419847328244,0.2900763358778626,-1.8473282442748091,-0.452880859375,-0.112548828125,-0.1572265625,1.0183
-0.549618320610687,0.3969465648854962,-1.9083969465648856,-0.46142578125,-0.107421875,-0.158935546875,1.02
-0.24427480916030533,0.7480916030534351,-1.7404580152671756,-0.453857421875,-0.105224609375,-0.1591796875,1.0217
-0.04580152671755725,1.0229007633587786,-1.633587786259542,-0.4560546875,-0.102783203125,-0.157470703125,1.0233999999999999
0.15267175572519084,1.2366412213740459,-1.5877862595419847,-0.455322265625,-0.098876953125,-0.156982421875,1.0251
0.0,1.2366412213740459,-1.4809160305343512,-0.4619140625,-0.09765625,-0.16015625,1.0268
0.21374045801526717,1.1908396946564885,-1.3893129770992367,-0.456787109375,-0.09814453125,-0.159912109375,1.0285
0.2900763358778626,1.3282442748091603,-1.4351145038167938,-0.455810546875,-0.0947265625,-0.1552734375,1.0302
0.6106870229007634,1.5267175572519085,-1.2671755725190839,-0.457275390625,-0.097412109375,-0.156982421875,1.0319
0.7786259541984732,1.4045801526717556,-1.0381679389312977,-0.46044921875,-0.099853515625,-0.161376953125,1.0335999999999999
0.7175572519083969,1.3435114503816794,-1.083969465648855,-0.45947265625,-0.097900390625,-0.166748046875,1.0352999999999999
1.1755725190839694,1.5267175572519085,-0.9923664122137404,-0.4560546875,-0.0986328125,-0.154541015625,1.037
1.251908396946565,1.5725190839694656,-0.9923664122137404,-0.4541015625,-0.1025390625,-0.157958984375,1.0387
1.282442748091603,1.5572519083969465,-0.8854961832061069,-0.453369140625,-0.1015625,-0.15478515625,1.0404
1.5419847328244274,1.4961832061068703,-0.8396946564885496,-0.45751953125,-0.101318359375,-0.167724609375,1.0421
1.6641221374045803,1.3740458015267176,-0.8091603053435115,-0.45068359375,-0.098876953125,-0.1552734375,1.0437999999999998
1.7099236641221374,1.4198473282442747,-0.6870229007633588,-0.45947265625,-0.10009765625,-0.16015625,1.0454999999999999
1.6793893129770991,1.4961832061068703,-0.6259541984732825,-0.45263671875,-0.100830078125,-0.16259765625,1.0472
1.8778625954198473,1.3893129770992367,-0.5954198473282443,-0.45361328125,-0.100341796875,-0.165771484375,1.0489
1.9541984732824427,1.4198473282442747,-0.5190839694656488,-0.448974609375,-0.096435546875,-0.1669921875,1.0506
2.0763358778625953,1.5725190839694656,-0.6412213740458015,-0.448974609375,-0.103515625,-0.16357421875,1.0523
2.4122137404580153,1.4961832061068703,-0.3053435114503817,-0.45556640625,-0.10009765625,-0.15771484375,1.054
2.549618320610687,1.3129770992366412,-0.32061068702290074,-0.4482421875,-0.104736328125,-0.162109375,1.0556999999999999
2.595419847328244,1.6793893129770991,-0.42748091603053434,-0.44921875,-0.1103515625,-0.16064453125,1.0574
2.687022900763359,1.7251908396946565,-0.4732824427480916,-0.45068359375,-0.103759765625,-0.1630859375,1.0591
2.9770992366412212,1.8015267175572518,-0.48854961832061067,-0.452392578125,-0.1123046875,-0.166259765625,1.0608
3.053435114503817,1.7557251908396947,-0.4732824427480916,-0.446044921875,-0.10986328125,-0.164306640625,1.0625
3.1603053435114505,2.015267175572519,-0.6259541984732825,-0.451416015625,-0.1142578125,-0.16015625,1.0642
3.114503816793893,2.1374045801526718,-0.9007633587786259,-0.450439453125,-0.10888671875,-0.1669921875,1.0658999999999998
2.9618320610687023,2.2290076335877864,-0.8854961832061069,-0.44921875,-0.115234375,-0.16259765625,1.0675999999999999
3.068702290076336,2.4732824427480917,-1.083969465648855,-0.45166015625,-0.112060546875,-0.1552734375,1.0693
2.9923664122137406,2.4732824427480917,-1.1145038167938932,-0.450439453125,-0.1162109375,-0.1591796875,1.071
3.099236641221374,2.213740458015267,-1.4809160305343512,-0.450927734375,-0.117919921875,-0.163818359375,1.0727
2.6717557251908395,2.0916030534351147,-1.3129770992366412,-0.447509765625,-0.11328125,-0.1650390625,1.0744
2.6106870229007635,1.984732824427481,-1.4045801526717556,-0.450927734375,-0.11279296875,-0.15380859375,1.0760999999999998
2.595419847328244,1.7709923664122138,-1.4961832061068703,-0.44775390625,-0.11083984375,-0.1611328125,1.0777999999999999
2.0763358778625953,1.83206106870229,-1.5877862595419847,-0.4501953125,-0.10986328125,-0.160888671875,1.0795
2.2595419847328246,1.5267175572519085,-1.5572519083969465,-0.4482421875,-0.11083984375,-0.151611328125,1.0812
2.3206106870229006,1.3129770992366412,-1.5877862595419847,-0.45263671875,-0.11181640625,-0.159423828125,1.0829
2.015267175572519,1.2366412213740459,-1.5877862595419847,-0.44384765625,-0.11181640625,-0.156494140625,1.0846
1.9083969465648856,1.251908396946565,-1.6488549618320612,-0.449462890625,-0.1123046875,-0.158447265625,1.0863
1.7709923664122138,1.3740458015267176,-1.5114503816793894,-0.45654296875,-0.106201171875,-0.151611328125,1.0879999999999999
1.7251908396946565,1.2671755725190839,-1.5725190839694656,-0.45263671875,-0.10693359375,-0.157958984375,1.0897
1.633587786259542,1.297709923664122,-1.633587786259542,-0.455322265625,-0.1044921875,-0.153076171875,1.0914
1.3435114503816794,1.2366412213740459,-1.633587786259542,-0.45166015625,-0.10546875,-0.151611328125,1.0931
1.3435114503816794,1.1603053435114503,-1.450381679389313,-0.44873046875,-0.103271484375,-0.154296875,1.0948
0.9770992366412213,1.3587786259541985,-1.3893129770992367,-0.453125,-0.103759765625,-0.157958984375,1.0965
1.2366412213740459,1.4045801526717556,-1.2366412213740459,-0.45263671875,-0.107666015625,-0.156005859375,1.0981999999999998
1.1603053435114503,1.4198473282442747,-1.2671755725190839,-0.451171875,-0.10693359375,-0.15380859375,1.0998999999999999
1.0534351145038168,1.633587786259542,-1.1450381679389312,-0.44921875,-0.112548828125,-0.15380859375,1.1016
0.916030534351145,1.5572519083969465,-1.2213740458015268,-0.449951171875,-0.10888671875,-0.162841796875,1.1033
0.6870229007633588,1.4961832061068703,-1.083969465648855,-0.45458984375,-0.1103515625,-0.157470703125,1.105
0.6870229007633588,1.618320610687023,-1.1450381679389312,-0.450439453125,-0.10546875,-0.154296875,1.1067
0.7633587786259542,1.7557251908396947,-1.0076335877862594,-0.452392578125,-0.1064453125,-0.15234375,1.1083999999999998
0.7480916030534351,1.9236641221374047,-1.297709923664122,-0.447998046875,-0.108642578125,-0.157470703125,1.1100999999999999
0.7786259541984732,1.816793893129771,-0.9923664122137404,-0.451171875,-0.111572265625,-0.1591796875,1.1118
0.7175572519083969,1.984732824427481,-1.2671755725190839,-0.452392578125,-0.108642578125,-0.161376953125,1.1135
0.7175572519083969,1.786259541984733,-1.0687022900763359,-0.447998046875,-0.107666015625,-0.15380859375,1.1152
0.6259541984732825,1.633587786259542,-1.1908396946564885,-0.45556640625,-0.10595703125,-0.158447265625,1.1169
0.8091603053435115,1.5267175572519085,-1.282442748091603,-0.454833984375,-0.10546875,-0.158935546875,1.1186
0.732824427480916,1.4045801526717556,-1.1908396946564885,-0.45947265625,-0.109619140625,-0.144775390625,1.1202999999999999
0.732824427480916,1.3587786259541985,-1.0381679389312977,-0.456298828125,-0.110107421875,-0.154052734375,1.1219999999999999
0.8091603053435115,1.099236641221374,-1.2366412213740459,-0.4560546875,-0.109619140625,-0.173583984375,1.1237
0.8091603053435115,0.9465648854961832,-1.083969465648855,-0.457275390625,-0.10693359375,-0.1630859375,1.1254
0.9007633587786259,0.8244274809160306,-1.2213740458015268,-0.45947265625,-0.1025390625,-0.15576171875,1.1271
1.4045801526717556,1.0534351145038168,-1.1145038167938932,-0.4541015625,-0.107177734375,-0.1650390625,1.1288
1.3893129770992367,1.2061068702290076,-0.9923664122137404,-0.457763671875,-0.1123046875,-0.166015625,1.1304999999999998
1.6030534351145038,1.083969465648855,-1.2671755725190839,-0.455078125,-0.10595703125,-0.16064453125,1.1321999999999999
1.7709923664122138,1.1145038167938932,-1.3282442748091603,-0.452392578125,-0.111328125,-0.164306640625,1.1339
1.5267175572519085,1.4809160305343512,-1.0534351145038168,-0.4541015625,-0.108642578125,-0.171142578125,1.1356
1.5877862595419847,1.5572519083969465,-0.9312977099236641,-0.453857421875,-0.103759765625,-0.15625,1.1373
1.7709923664122138,1.5725190839694656,-0.9770992366412213,-0.45947265625,-0.1083984375,-0.16015625,1.139
1.7557251908396947,1.786259541984733,-1.1145038167938932,-0.458740234375,-0.107666015625,-0.157958984375,1.1407
1.9083969465648856,1.7251908396946565,-0.9007633587786259,-0.458984375,-0.107666015625,-0.16845703125,1.1423999999999999
1.984732824427481,1.9389312977099236,-0.8244274809160306,-0.45556640625,-0.103759765625,-0.1591796875,1.1441
2.030534351145038,1.8931297709923665,-0.7633587786259542,-0.459716796875,-0.107421875,-0.158935546875,1.1458
2.2595419847328246,1.9083969465648856,-0.8854961832061069,-0.457275390625,-0.1064453125,-0.165283203125,1.1475
2.4885496183206106,2.045801526717557,-0.8549618320610687,-0.461181640625,-0.11376953125,-0.158447265625,1.1492
2.732824427480916,2.2442748091603053,-0.9618320610687023,-0.45751953125,-0.10888671875,-0.158935546875,1.1509
2.885496183206107,2.2595419847328246,-0.7480916030534351,-0.453857421875,-0.1083984375,-0.163818359375,1.1525999999999998
2.9923664122137406,2.198473282442748,-0.8244274809160306,-0.453857421875,-0.10595703125,-0.157958984375,1.1542999999999999
3.236641221374046,2.351145038167939,-0.6564885496183206,-0.4560546875,-0.113525390625,-0.15283203125,1.156
3.2977099236641223,2.4580152671755724,-0.8854961832061069,-0.457763671875,-0.11376953125,-0.157470703125,1.1577
3.5419847328244276,2.4580152671755724,-0.8244274809160306,-0.458984375,-0.115478515625,-0.153076171875,1.1594
3.450381679389313,2.4885496183206106,-0.8549618320610687,-0.44970703125,-0.112060546875,-0.155517578125,1.1611
3.450381679389313,2.5343511450381677,-0.6870229007633588,-0.45361328125,-0.115478515625,-0.15625,1.1627999999999998
3.3893129770992365,2.5343511450381677,-0.8854961832061069,-0.453857421875,-0.11669921875,-0.15771484375,1.1644999999999999
3.2519083969465647,2.3206106870229006,-0.9923664122137404,-0.449951171875,-0.117431640625,-0.1494140625,1.1662
2.687022900763359,2.213740458015267,-1.0381679389312977,-0.449462890625,-0.112548828125,-0.14208984375,1.1679
2.6106870229007635,1.9083969465648856,-1.099236641221374,-0.4521484375,-0.116943359375,-0.151123046875,1.1696
2.366412213740458,1.7099236641221374,-1.282442748091603,-0.450439453125,-0.11669921875,-0.150634765625,1.1713
1.6641221374045803,1.5267175572519085,-1.2061068702290076,-0.45263671875,-0.11474609375,-0.15576171875,1.173
1.465648854961832,1.251908396946565,-1.4198473282442747,-0.453369140625,-0.112548828125,-0.156005859375,1.1746999999999999
1.0534351145038168,1.0381679389312977,-1.4045801526717556,-0.44873046875,-0.11572265625,-0.152099609375,1.1764
0.7786259541984732,0.8091603053435115,-1.4809160305343512,-0.454345703125,-0.118408203125,-0.159423828125,1.1781
0.44274809160305345,0.9770992366412213,-1.3587786259541985,-0.44873046875,-0.115478515625,-0.15576171875,1.1798
0.12213740458015267,0.7633587786259542,-1.5267175572519085,-0.454833984375,-0.1142578125,-0.155517578125,1.1815
0.1984732824427481,0.8091603053435115,-1.5877862595419847,-0.459716796875,-0.113037109375,-0.151123046875,1.1832
0.24427480916030533,0.732824427480916,-1.7557251908396947,-0.452392578125,-0.11572265625,-0.149658203125,1.1848999999999998
0.12213740458015267,0.6564885496183206,-1.4809160305343512,-0.4482421875,-0.108642578125,-0.14794921875,1.1865999999999999
0.04580152671755725,0.7175572519083969,-1.7251908396946565,-0.45751953125,-0.105712890625,-0.145263671875,1.1883
0.22900763358778625,0.6564885496183206,-1.5572519083969465,-0.457275390625,-0.106689453125,-0.154296875,1.19
0.3969465648854962,0.6564885496183206,-1.465648854961832,-0.454345703125,-0.0986328125,-0.1552734375,1.1917
0.5343511450381679,0.7480916030534351,-1.4351145038167938,-0.453857421875,-0.10205078125,-0.158203125,1.1934
0.4580152671755725,0.7786259541984732,-1.5572519083969465,-0.457763671875,-0.104736328125,-0.15966796875,1.1950999999999998
0.5801526717557252,0.5954198473282443,-1.3587786259541985,-0.459716796875,-0.1025390625,-0.166015625,1.1967999999999999
0.732824427480916,0.5954198473282443,-1.4198473282442747,-0.452880859375,-0.103271484375,-0.1611328125,1.1985
0.7022900763358778,0.7633587786259542,-1.2061068702290076,-0.452392578125,-0.104248046875,-0.16796875,1.2002
1.1603053435114503,0.7175572519083969,-1.1908396946564885,-0.454345703125,-0.102783203125,-0.155029296875,1.2019
1.1755725190839694,0.9465648854961832,-1.0687022900763359,-0.45654296875,-0.099609375,-0.159423828125,1.2036
0.9007633587786259,0.9465648854961832,-1.1450381679389312,-0.45556640625,-0.1015625,-0.158935546875,1.2053
1.0229007633587786,0.8549618320610687,-1.0534351145038168,-0.45458984375,-0.103271484375,-0.15380859375,1.2069999999999999
1.099236641221374,1.0076335877862594,-0.9465648854961832,-0.4560546875,-0.10302734375,-0.1552734375,1.2086999999999999
1.3129770992366412,1.251908396946565,-0.9465648854961832,-0.45751953125,-0.108642578125,-0.15576171875,1.2104
1.3282442748091603,1.3587786259541985,-0.7786259541984732,-0.45458984375,-0.103271484375,-0.157958984375,1.2121
1.1908396946564885,1.5114503816793894,-0.7633587786259542,-0.45361328125,-0.10107421875,-0.164306640625,1.2138
1.251908396946565,1.633587786259542,-0.7480916030534351,-0.451416015625,-0.106201171875,-0.16748046875,1.2155
1.2061068702290076,1.6488549618320612,-0.5648854961832062,-0.451904296875,-0.10302734375,-0.1611328125,1.2171999999999998
1.297709923664122,1.5267175572519085,-0.6717557251908397,-0.454833984375,-0.10107421875,-0.165771484375,1.2188999999999999
1.0687022900763359,1.6641221374045803,-0.5954198473282443,-0.45849609375,-0.1083984375,-0.15673828125,1.2206
1.5572519083969465,1.8778625954198473,-0.7480916030534351,-0.458984375,-0.111083984375,-0.166748046875,1.2223
1.6641221374045803,1.9694656488549618,-0.7175572519083969,-0.450439453125,-0.110595703125,-0.16552734375,1.224
1.5267175572519085,2.213740458015267,-0.6106870229007634,-0.45166015625,-0.107666015625,-0.1552734375,1.2257
1.8473282442748091,2.2595419847328246,-0.7175572519083969,-0.45263671875,-0.110107421875,-0.156982421875,1.2273999999999998
1.83206106870229,2.2595419847328246,-0.7175572519083969,-0.455078125,-0.109375,-0.164306640625,1.2290999999999999
1.5877862595419847,2.549618320610687,-0.9465648854961832,-0.453125,-0.11083984375,-0.1591796875,1.2308
1.816793893129771,2.4885496183206106,-1.0229007633587786,-0.448486328125,-0.116943359375,-0.163330078125,1.2325
1.9389312977099236,2.381679389312977,-1.2671755725190839,-0.452392578125,-0.108642578125,-0.154296875,1.2342
1.9541984732824427,2.3053435114503817,-1.282442748091603,-0.4521484375,-0.110595703125,-0.157958984375,1.2359
1.9236641221374047,2.1068702290076335,-1.4198473282442747,-0.451171875,-0.109375,-0.154296875,1.2376
2.122137404580153,1.6641221374045803,-1.3893129770992367,-0.453125,-0.106689453125,-0.1533203125,1.2392999999999998
1.6488549618320612,1.2061068702290076,-1.6030534351145038,-0.442626953125,-0.1181640625,-0.151123046875,1.2409999999999999
1.4045801526717556,0.9007633587786259,-1.6488549618320612,-0.451416015625,-0.112060546875,-0.157470703125,1.2427
1.3435114503816794,0.8244274809160306,-1.7709923664122138,-0.454345703125,-0.111083984375,-0.151123046875,1.2444
1.2213740458015268,0.8396946564885496,-1.786259541984733,-0.44775390625,-0.112060546875,-0.14697265625,1.2461
0.9618320610687023,0.5343511450381679,-1.9694656488549618,-0.4462890625,-0.112060546875,-0.14990234375,1.2478
0.8549618320610687,0.2748091603053435,-2.0916030534351147,-0.453125,-0.11083984375,-0.15283203125,1.2494999999999998
0.8244274809160306,0.366412213740458,-1.8473282442748091,-0.455078125,-0.1044921875,-0.15234375,1.2511999999999999
0.6259541984732825,0.366412213740458,-1.6793893129770991,-0.454833984375,-0.107421875,-0.152099609375,1.2529
0.8091603053435115,0.42748091603053434,-1.6946564885496183,-0.45458984375,-0.105712890625,-0.157958984375,1.2546
0.7480916030534351,0.7175572519083969,-1.7709923664122138,-0.45556640625,-0.10498046875,-0.159423828125,1.2563
0.7938931297709924,0.7633587786259542,-1.6946564885496183,-0.4521484375,-0.10400390625,-0.158203125,1.258
0.9923664122137404,0.8396946564885496,-1.6793893129770991,-0.4501953125,-0.1015625,-0.15576171875,1.2596999999999998
1.0687022900763359,0.8702290076335878,-1.5114503816793894,-0.457763671875,-0.103515625,-0.160400390625,1.2613999999999999
1.1145038167938932,0.9618320610687023,-1.465648854961832,-0.4521484375,-0.103271484375,-0.163330078125,1.2631
1.1908396946564885,0.916030534351145,-1.282442748091603,-0.45263671875,-0.099609375,-0.163818359375,1.2648
1.1450381679389312,1.0687022900763359,-1.251908396946565,-0.45458984375,-0.100830078125,-0.149658203125,1.2665
1.3587786259541985,1.282442748091603,-1.2366412213740459,-0.453857421875,-0.104248046875,-0.16064453125,1.2682
1.3435114503816794,1.099236641221374,-1.297709923664122,-0.45556640625,-0.10009765625,-0.1650390625,1.2699
1.1755725190839694,1.1297709923664123,-1.099236641221374,-0.4560546875,-0.102294921875,-0.158935546875,1.2715999999999998
1.3282442748091603,0.9770992366412213,-1.1603053435114503,-0.451904296875,-0.1005859375,-0.163330078125,1.2732999999999999
1.4809160305343512,1.0381679389312977,-1.0381679389312977,-0.45751953125,-0.096923828125,-0.16162109375,1.275
1.465648854961832,1.099236641221374,-1.0229007633587786,-0.453369140625,-0.100341796875,-0.157958984375,1.2767
1.5725190839694656,0.9007633587786259,-1.099236641221374,-0.44775390625,-0.100341796875,-0.1572265625,1.2784
1.5572519083969465,0.6106870229007634,-0.9923664122137404,-0.4521484375,-0.10791015625,-0.153564453125,1.2801
1.450381679389313,0.5343511450381679,-1.1603053435114503,-0.454833984375,-0.10546875,-0.1552734375,1.2817999999999998
1.7404580152671756,0.5190839694656488,-1.1908396946564885,-0.453857421875,-0.1025390625,-0.161376953125,1.2834999999999999
1.7099236641221374,0.21374045801526717,-1.2213740458015268,-0.45166015625,-0.10595703125,-0.155517578125,1.2852
1.8015267175572518,0.1984732824427481,-1.0076335877862594,-0.45068359375,-0.102294921875,-0.1533203125,1.2869
1.5572519083969465,0.24427480916030533,-1.1450381679389312,-0.450439453125,-0.104248046875,-0.165283203125,1.2886
1.5419847328244274,0.4580152671755725,-1.083969465648855,-0.450927734375,-0.1064453125,-0.159423828125,1.2903
1.9389312977099236,0.42748091603053434,-1.2366412213740459,-0.452880859375,-0.10888671875,-0.16015625,1.292
1.6946564885496183,0.44274809160305345,-1.2213740458015268,-0.455078125,-0.109375,-0.157470703125,1.2936999999999999
1.6030534351145038,0.7022900763358778,-1.1145038167938932,-0.4521484375,-0.11083984375,-0.163330078125,1.2953999999999999
1.633587786259542,0.9312977099236641,-1.3129770992366412,-0.44921875,-0.107177734375,-0.1669921875,1.2971
1.5419847328244274,1.0534351145038168,-1.1755725190839694,-0.45556640625,-0.10546875,-0.165771484375,1.2988
1.5572519083969465,1.1297709923664123,-0.9618320610687023,-0.456298828125,-0.105712890625,-0.153564453125,1.3005
1.282442748091603,1.0534351145038168,-1.1908396946564885,-0.455322265625,-0.104248046875,-0.156005859375,1.3022
1.2671755725190839,1.2366412213740459,-1.1450381679389312,-0.456298828125,-0.10791015625,-0.16259765625,1.3038999999999998
1.1145038167938932,1.5419847328244274,-1.1908396946564885,-0.453125,-0.108154296875,-0.15771484375,1.3055999999999999
1.0381679389312977,1.2366412213740459,-1.0229007633587786,-0.4560546875,-0.109130859375,-0.16259765625,1.3073
0.916030534351145,1.2366412213740459,-1.1755725190839694,-0.45556640625,-0.11181640625,-0.16162109375,1.309
1.1450381679389312,1.2671755725190839,-1.1603053435114503,-0.451904296875,-0.11181640625,-0.159423828125,1.3107
1.251908396946565,1.1297709923664123,-1.297709923664122,-0.448974609375,-0.111083984375,-0.16015625,1.3124
1.3282442748091603,1.1603053435114503,-1.0229007633587786,-0.4453125,-0.107421875,-0.15576171875,1.3140999999999998
1.6488549618320612,1.1145038167938932,-1.1603053435114503,-0.447998046875,-0.1162109375,-0.150390625,1.3157999999999999
1.83206106870229,1.1297709923664123,-1.2366412213740459,-0.45361328125,-0.112060546875,-0.1484375,1.3175
1.816793893129771,0.9770992366412213,-1.3893129770992367,-0.453857421875,-0.122314453125,-0.14892578125,1.3192
2.33587786259542,0.7633587786259542,-1.3893129770992367,-0.45166015625,-0.117919921875,-0.154541015625,1.3209
2.549618320610687,0.5954198473282443,-1.2213740458015268,-0.454345703125,-0.11767578125,-0.158447265625,1.3226
2.5801526717557253,0.732824427480916,-1.2213740458015268,-0.44921875,-0.114013671875,-0.1494140625,1.3243
2.2900763358778624,0.7938931297709924,-1.3740458015267176,-0.452392578125,-0.11328125,-0.145263671875,1.3259999999999998
2.183206106870229,0.6259541984732825,-1.3129770992366412,-0.455078125,-0.11181640625,-0.1533203125,1.3276999999999999
1.984732824427481,0.7480916030534351,-1.5114503816793894,-0.454833984375,-0.11376953125,-0.152587890625,1.3294
2.0,0.732824427480916,-1.5267175572519085,-0.45361328125,-0.11669921875,-0.148193359375,1.3311
1.6946564885496183,0.6259541984732825,-1.450381679389313,-0.4501953125,-0.113037109375,-0.153076171875,1.3328
1.2061068702290076,0.5343511450381679,-1.450381679389313,-0.455078125,-0.10888671875,-0.14892578125,1.3345
1.1603053435114503,0.6870229007633588,-1.7099236641221374,-0.45361328125,-0.107666015625,-0.150390625,1.3361999999999998
0.7175572519083969,0.5801526717557252,-1.5267175572519085,-0.45556640625,-0.112060546875,-0.159912109375,1.3378999999999999
0.5801526717557252,0.366412213740458,-1.6793893129770991,-0.457275390625,-0.1103515625,-0.150146484375,1.3396
0.42748091603053434,0.42748091603053434,-1.5725190839694656,-0.460205078125,-0.109619140625,-0.1611328125,1.3413
0.3816793893129771,0.22900763358778625,-1.6030534351145038,-0.45556640625,-0.1103515625,-0.1611328125,1.343
0.12213740458015267,0.15267175572519084,-1.4351145038167938,-0.45361328125,-0.10302734375,-0.15380859375,1.3447
0.15267175572519084,0.1984732824427481,-1.618320610687023,-0.454833984375,-0.106689453125,-0.159423828125,1.3463999999999998
0.2748091603053435,0.15267175572519084,-1.5572519083969465,-0.453125,-0.105224609375,-0.158203125,1.3480999999999999
-0.015267175572519083,0.0916030534351145,-1.7404580152671756,-0.45361328125,-0.105224609375,-0.1552734375,1.3497999999999999
-0.07633587786259542,-0.10687022900763359,-1.6030534351145038,-0.451904296875,-0.103271484375,-0.16064453125,1.3515
-0.12213740458015267,-0.0916030534351145,-1.5877862595419847,-0.45556640625,-0.107666015625,-0.158447265625,1.3532
-0.10687022900763359,-0.015267175572519083,-1.4809160305343512,-0.455322265625,-0.106689453125,-0.15625,1.3549
-0.061068702290076333,-0.04580152671755725,-1.5114503816793894,-0.4541015625,-0.1083984375,-0.159423828125,1.3566
-0.07633587786259542,0.12213740458015267,-1.3587786259541985,-0.4619140625,-0.10302734375,-0.155517578125,1.3582999999999998
-0.22900763358778625,0.2900763358778626,-1.5267175572519085,-0.4580078125,-0.108642578125,-0.1572265625,1.3599999999999999
0.13740458015267176,0.21374045801526717,-1.450381679389313,-0.45947265625,-0.11083984375,-0.167236328125,1.3617
0.015267175572519083,0.44274809160305345,-1.3893129770992367,-0.46142578125,-0.10693359375,-0.1630859375,1.3634
0.015267175572519083,0.7022900763358778,-1.3282442748091603,-0.457763671875,-0.1025390625,-0.15673828125,1.3651
0.15267175572519084,0.7786259541984732,-1.1145038167938932,-0.457275390625,-0.103515625,-0.168212890625,1.3668
0.0,0.9618320610687023,-1.1297709923664123,-0.457763671875,-0.10205078125,-0.16796875,1.3684999999999998
0.3511450381679389,1.083969465648855,-1.1297709923664123,-0.453857421875,-0.10498046875,-0.164794921875,1.3701999999999999
0.42748091603053434,1.1145038167938932,-0.9618320610687023,-0.4501953125,-0.10400390625,-0.163818359375,1.3719
0.5190839694656488,1.1145038167938932,-1.2366412213740459,-0.4521484375,-0.10888671875,-0.15478515625,1.3736
0.7175572519083969,1.3740458015267176,-1.1145038167938932,-0.44970703125,-0.109619140625,-0.161376953125,1.3753
0.7786259541984732,1.1908396946564885,-1.083969465648855,-0.460693359375,-0.1064453125,-0.157470703125,1.377
0.8549618320610687,1.099236641221374,-1.0534351145038168,-0.45556640625,-0.111572265625,-0.1572265625,1.3786999999999998
1.083969465648855,1.251908396946565,-1.0229007633587786,-0.45703125,-0.111328125,-0.172119140625,1.3803999999999998
0.9312977099236641,1.3435114503816794,-1.0687022900763359,-0.462158203125,-0.107177734375,-0.161376953125,1.3820999999999999
1.0534351145038168,1.2061068702290076,-1.465648854961832,-0.456787109375,-0.101806640625,-0.15478515625,1.3838
1.297709923664122,1.2671755725190839,-1.1908396946564885,-0.457763671875,-0.108642578125,-0.162841796875,1.3855
1.083969465648855,1.3587786259541985,-1.1145038167938932,-0.45703125,-0.10400390625,-0.153564453125,1.3872
1.3740458015267176,1.450381679389313,-1.0687022900763359,-0.454833984375,-0.10400390625,-0.16064453125,1.3889
1.3435114503816794,1.3893129770992367,-1.1145038167938932,-0.448974609375,-0.109130859375,-0.158935546875,1.3905999999999998
1.465648854961832,1.3740458015267176,-0.9618320610687023,-0.453125,-0.110107421875,-0.15869140625,1.3922999999999999
1.5725190839694656,1.3129770992366412,-1.1603053435114503,-0.456298828125,-0.107666015625,-0.1513671875,1.394
1.465648854961832,1.1297709923664123,-0.9312977099236641,-0.454345703125,-0.107421875,-0.155029296875,1.3957
1.6030534351145038,1.0381679389312977,-1.099236641221374,-0.450927734375,-0.1015625,-0.145751953125,1.3974
1.5419847328244274,0.9923664122137404,-1.0534351145038168,-0.451171875,-0.10400390625,-0.149658203125,1.3991
1.3740458015267176,0.8702290076335878,-1.2061068702290076,-0.452392578125,-0.110107421875,-0.14794921875,1.4007999999999998
1.1297709923664123,0.8244274809160306,-1.083969465648855,-0.450927734375,-0.107666015625,-0.15234375,1.4024999999999999
0.7786259541984732,0.48854961832061067,-1.1755725190839694,-0.453125,-0.106201171875,-0.15673828125,1.4042
0.9465648854961832,0.5954198473282443,-1.1603053435114503,-0.45263671875,-0.11181640625,-0.15966796875,1.4059
0.9923664122137404,0.44274809160305345,-1.4045801526717556,-0.45068359375,-0.11083984375,-0.15380859375,1.4076
0.6717557251908397,0.33587786259541985,-1.3893129770992367,-0.448974609375,-0.112060546875,-0.1513671875,1.4093
0.6870229007633588,0.33587786259541985,-1.2671755725190839,-0.452392578125,-0.112060546875,-0.150390625,1.411
0.5038167938931297,0.5038167938931297,-1.2671755725190839,-0.4541015625,-0.109619140625,-0.1572265625,1.4126999999999998
0.5801526717557252,0.4122137404580153,-1.1755725190839694,-0.4541015625,-0.113525390625,-0.15478515625,1.4143999999999999
0.2900763358778626,0.3816793893129771,-1.1603053435114503,-0.458251953125,-0.1083984375,-0.159912109375,1.4161
0.22900763358778625,0.549618320610687,-1.3893129770992367,-0.4560546875,-0.10888671875,-0.152587890625,1.4178
0.4580152671755725,0.5038167938931297,-1.1908396946564885,-0.452392578125,-0.1044921875,-0.150390625,1.4195
0.6564885496183206,0.5648854961832062,-1.4198473282442747,-0.455322265625,-0.10205078125,-0.150390625,1.4212
0.7022900763358778,0.732824427480916,-0.9618320610687023,-0.45361328125,-0.103271484375,-0.1552734375,1.4228999999999998
0.549618320610687,0.5648854961832062,-1.1297709923664123,-0.4501953125,-0.1044921875,-0.15673828125,1.4245999999999999
0.4580152671755725,0.6106870229007634,-1.099236641221374,-0.44677734375,-0.0986328125,-0.156982421875,1.4263
0.7633587786259542,0.44274809160305345,-1.3282442748091603,-0.4541015625,-0.10107421875,-0.1552734375,1.428
0.6717557251908397,0.33587786259541985,-1.2213740458015268,-0.4541015625,-0.1025390625,-0.150146484375,1.4297
0.9770992366412213,0.2748091603053435,-1.2061068702290076,-0.451416015625,-0.101806640625,-0.152587890625,1.4314
0.8091603053435115,-0.061068702290076333,-1.2213740458015268,-0.457275390625,-0.105712890625,-0.15185546875,1.4330999999999998
1.1603053435114503,-0.183206106870229,-1.4045801526717556,-0.45166015625,-0.1025390625,-0.157470703125,1.4347999999999999
1.4045801526717556,-0.13740458015267176,-1.3740458015267176,-0.4501953125,-0.1005859375,-0.151611328125,1.4364999999999999
1.3282442748091603,-0.22900763358778625,-1.297709923664122,-0.451171875,-0.100830078125,-0.14892578125,1.4382
1.6488549618320612,-0.366412213740458,-1.0687022900763359,-0.450927734375,-0.10302734375,-0.159423828125,1.4399
1.7404580152671756,-0.015267175572519083,-1.4198473282442747,-0.4501953125,-0.105712890625,-0.15625,1.4416
1.7251908396946565,-0.0916030534351145,-1.282442748091603,-0.45166015625,-0.10595703125,-0.153076171875,1.4433
1.5419847328244274,-0.183206106870229,-1.2671755725190839,-0.44775390625,-0.100830078125,-0.1650390625,1.4449999999999998
1.6488549618320612,0.10687022900763359,-1.3435114503816794,-0.45849609375,-0.104248046875,-0.166748046875,1.4466999999999999
1.6030534351145038,0.10687022900763359,-1.2366412213740459,-0.4580078125,-0.108642578125,-0.167724609375,1.4484
1.465648854961832,0.1984732824427481,-1.2671755725190839,-0.456298828125,-0.107666015625,-0.1640625,1.4501
1.3587786259541985,0.3816793893129771,-1.3435114503816794,-0.451904296875,-0.108154296875,-0.161865234375,1.4518
1.1603053435114503,0.5343511450381679,-1.3893129770992367,-0.454833984375,-0.111328125,-0.16064453125,1.4535
1.1603053435114503,0.7022900763358778,-1.1908396946564885,-0.4560546875,-0.107666015625,-0.170166015625,1.4551999999999998
1.282442748091603,0.732824427480916,-1.2366412213740459,-0.455810546875,-0.111328125,-0.16455078125,1.4568999999999999
1.5114503816793894,0.9007633587786259,-1.2671755725190839,-0.453369140625,-0.111572265625,-0.16064453125,1.4586
0.9923664122137404,1.2061068702290076,-1.1755725190839694,-0.45703125,-0.107666015625,-0.164794921875,1.4603
1.2671755725190839,0.9923664122137404,-1.3587786259541985,-0.452880859375,-0.10791015625,-0.16015625,1.462
1.3893129770992367,1.099236641221374,-1.282442748091603,-0.454833984375,-0.10400390625,-0.15771484375,1.4637
1.450381679389313,1.0534351145038168,-1.3587786259541985,-0.454833984375,-0.107421875,-0.15234375,1.4653999999999998
1.4045801526717556,0.9923664122137404,-1.3129770992366412,-0.453857421875,-0.1123046875,-0.15283203125,1.4670999999999998
1.1297709923664123,0.8244274809160306,-1.4045801526717556,-0.451171875,-0.11279296875,-0.1611328125,1.4687999999999999
1.3435114503816794,0.9312977099236641,-1.4045801526717556,-0.45361328125,-0.111328125,-0.1533203125,1.4705
1.297709923664122,0.8091603053435115,-1.4351145038167938,-0.450927734375,-0.1083984375,-0.152587890625,1.4722
1.5572519083969465,0.7480916030534351,-1.3740458015267176,-0.454345703125,-0.1103515625,-0.15380859375,1.4739
1.297709923664122,0.7938931297709924,-1.5725190839694656,-0.45361328125,-0.11328125,-0.154541015625,1.4756
1.4045801526717556,0.6870229007633588,-1.3282442748091603,-0.45458984375,-0.106201171875,-0.15185546875,1.4772999999999998
1.1450381679389312,0.6106870229007634,-1.4351145038167938,-0.458740234375,-0.106689453125,-0.15869140625,1.4789999999999999
1.1603053435114503,0.5190839694656488,-1.297709923664122,-0.45361328125,-0.103759765625,-0.152099609375,1.4807
0.9770992366412213,0.7175572519083969,-1.297709923664122,-0.455810546875,-0.10205078125,-0.156005859375,1.4824
0.8549618320610687,0.6106870229007634,-1.3129770992366412,-0.456298828125,-0.105224609375,-0.156494140625,1.4841
0.732824427480916,0.42748091603053434,-1.297709923664122,-0.451904296875,-0.1044921875,-0.14990234375,1.4858
0.5343511450381679,0.5343511450381679,-1.1603053435114503,-0.453369140625,-0.108642578125,-0.15771484375,1.4874999999999998
0.32061068702290074,0.366412213740458,-1.2061068702290076,-0.453125,-0.10595703125,-0.160400390625,1.4891999999999999
0.07633587786259542,0.44274809160305345,-1.3282442748091603,-0.4599609375,-0.105224609375,-0.155517578125,1.4909
-0.2900763358778626,0.4732824427480916,-1.2366412213740459,-0.45556640625,-0.107666015625,-0.1455078125,1.4926
-0.3053435114503817,0.4732824427480916,-1.2213740458015268,-0.46142578125,-0.105224609375,-0.155029296875,1.4943
-0.7022900763358778,0.32061068702290074,-1.3282442748091603,-0.456787109375,-0.111328125,-0.153076171875,1.496
-0.549618320610687,0.5343511450381679,-1.2213740458015268,-0.45458984375,-0.106689453125,-0.151123046875,1.4976999999999998
-0.5343511450381679,0.3969465648854962,-1.297709923664122,-0.45556640625,-0.103515625,-0.151611328125,1.4993999999999998
-0.4732824427480916,0.5801526717557252,-1.4198473282442747,-0.45556640625,-0.10546875,-0.162109375,1.5010999999999999
-0.5038167938931297,0.8244274809160306,-1.3893129770992367,-0.45751953125,-0.10888671875,-0.148681640625,1.5028
-0.3969465648854962,0.8396946564885496,-1.3893129770992367,-0.451904296875,-0.111328125,-0.15087890625,1.5045
-0.32061068702290074,0.8702290076335878,-1.4961832061068703,-0.453369140625,-0.10595703125,-0.159423828125,1.5062
-0.10687022900763359,1.0076335877862594,-1.6488549618320612,-0.453125,-0.10888671875,-0.14990234375,1.5079
0.3053435114503817,0.8702290076335878,-1.5267175572519085,-0.454345703125,-0.107421875,-0.15283203125,1.5095999999999998
0.42748091603053434,0.7938931297709924,-1.5267175572519085,-0.45703125,-0.102294921875,-0.15625,1.5112999999999999
0.8091603053435115,0.6564885496183206,-1.633587786259542,-0.458740234375,-0.102294921875,-0.1494140625,1.513
0.8091603053435115,0.4580152671755725,-1.5267175572519085,-0.45458984375,-0.100341796875,-0.155029296875,1.5147
1.0076335877862594,0.2748091603053435,-1.5267175572519085,-0.45361328125,-0.10205078125,-0.16259765625,1.5164
1.2061068702290076,0.2595419847328244,-1.5572519083969465,-0.4609375,-0.09716796875,-0.149169921875,1.5181
1.2061068702290076,0.061068702290076333,-1.4961832061068703,-0.45751953125,-0.101806640625,-0.149169921875,1.5197999999999998
1.1908396946564885,-0.061068702290076333,-1.3893129770992367,-0.458740234375,-0.10205078125,-0.1533203125,1.5214999999999999
1.2061068702290076,-0.16793893129770993,-1.3282442748091603,-0.459716796875,-0.10400390625,-0.16357421875,1.5231999999999999
1.4198473282442747,-0.04580152671755725,-1.3282442748091603,-0.45703125,-0.10009765625,-0.159423828125,1.5249
1.297709923664122,-0.030534351145038167,-1.297709923664122,-0.464111328125,-0.101318359375,-0.16357421875,1.5266
1.4045801526717556,0.061068702290076333,-1.099236641221374,-0.461669921875,-0.104248046875,-0.1650390625,1.5283
1.1755725190839694,0.33587786259541985,-1.0229007633587786,-0.454833984375,-0.10400390625,-0.167236328125,1.5299999999999998
1.465648854961832,0.22900763358778625,-1.1755725190839694,-0.45166015625,-0.10546875,-0.161865234375,1.5316999999999998
1.618320610687023,0.3816793893129771,-1.0687022900763359,-0.4541015625,-0.103271484375,-0.157958984375,1.5333999999999999
1.786259541984733,0.3511450381679389,-1.1755725190839694,-0.45458984375,-0.103515625,-0.1591796875,1.5351
2.183206106870229,0.366412213740458,-1.2061068702290076,-0.455078125,-0.108154296875,-0.161865234375,1.5368
2.519083969465649,0.366412213740458,-1.0687022900763359,-0.45263671875,-0.107421875,-0.155517578125,1.5385
2.4580152671755724,0.5648854961832062,-1.3282442748091603,-0.458251953125,-0.10791015625,-0.15673828125,1.5402
2.6412213740458017,0.5954198473282443,-1.3587786259541985,-0.45751953125,-0.107666015625,-0.16162109375,1.5418999999999998
2.4732824427480917,0.5190839694656488,-1.1450381679389312,-0.454345703125,-0.108642578125,-0.16015625,1.5435999999999999
2.717557251908397,0.7022900763358778,-1.4198473282442747,-0.454345703125,-0.108154296875,-0.1640625,1.5453
2.717557251908397,0.8091603053435115,-1.282442748091603,-0.449951171875,-0.107177734375,-0.157958984375,1.547
2.4580152671755724,0.9770992366412213,-1.3129770992366412,-0.44970703125,-0.109619140625,-0.16650390625,1.5487
2.351145038167939,1.1908396946564885,-1.5572519083969465,-0.4482421875,-0.1103515625,-0.166015625,1.5504
2.1068702290076335,1.0381679389312977,-1.5419847328244274,-0.453857421875,-0.10888671875,-0.16064453125,1.5520999999999998
2.122137404580153,1.282442748091603,-1.3587786259541985,-0.451171875,-0.117431640625,-0.158203125,1.5537999999999998
1.8778625954198473,1.0534351145038168,-1.450381679389313,-0.445556640625,-0.11181640625,-0.16162109375,1.5554999999999999
1.9541984732824427,0.9770992366412213,-1.5267175572519085,-0.44775390625,-0.111328125,-0.15869140625,1.5572
1.5572519083969465,0.7938931297709924,-1.5572519083969465,-0.447021484375,-0.11083984375,-0.156982421875,1.5589
1.5419847328244274,1.1450381679389312,-1.5419847328244274,-0.449951171875,-0.114013671875,-0.156982421875,1.5606
1.5114503816793894,0.8396946564885496,-1.618320610687023,-0.4501953125,-0.112548828125,-0.163330078125,1.5623
1.3740458015267176,0.9007633587786259,-1.3435114503816794,-0.4521484375,-0.107421875,-0.15478515625,1.5639999999999998
1.1450381679389312,0.8244274809160306,-1.5877862595419847,-0.4482421875,-0.110107421875,-0.161865234375,1.5656999999999999
0.916030534351145,0.5801526717557252,-1.4198473282442747,-0.451416015625,-0.10595703125,-0.149658203125,1.5674
1.0381679389312977,0.4122137404580153,-1.4961832061068703,-0.45556640625,-0.109375,-0.161376953125,1.5691
0.6259541984732825,0.3511450381679389,-1.282442748091603,-0.451416015625,-0.107666015625,-0.163330078125,1.5708
0.7480916030534351,0.6412213740458015,-1.3740458015267176,-0.45263671875,-0.111572265625,-0.14990234375,1.5725
0.5190839694656488,0.732824427480916,-1.3129770992366412,-0.449951171875,-0.105712890625,-0.160888671875,1.5741999999999998
0.5801526717557252,0.6717557251908397,-1.3893129770992367,-0.45361328125,-0.108642578125,-0.150634765625,1.5758999999999999
0.5038167938931297,0.732824427480916,-1.282442748091603,-0.45263671875,-0.107421875,-0.152099609375,1.5776
0.12213740458015267,0.7480916030534351,-1.2061068702290076,-0.456787109375,-0.110595703125,-0.146728515625,1.5793
0.3969465648854962,1.0687022900763359,-0.9312977099236641,-0.451171875,-0.10595703125,-0.159423828125,1.581
0.183206106870229,1.1603053435114503,-1.1755725190839694,-0.455078125,-0.10302734375,-0.163818359375,1.5827
0.13740458015267176,0.9923664122137404,-1.083969465648855,-0.45703125,-0.11376953125,-0.152099609375,1.5843999999999998
-0.061068702290076333,1.2213740458015268,-1.0076335877862594,-0.452880859375,-0.107666015625,-0.1552734375,1.5860999999999998
-0.3816793893129771,1.1297709923664123,-1.0229007633587786,-0.454345703125,-0.10693359375,-0.1611328125,1.5877999999999999
-0.5190839694656488,1.0076335877862594,-1.0229007633587786,-0.456787109375,-0.1103515625,-0.15234375,1.5895
-0.549618320610687,0.7786259541984732,-0.7938931297709924,-0.45947265625,-0.11279296875,-0.151123046875,1.5912
-0.48854961832061067,0.916030534351145,-0.9770992366412213,-0.458984375,-0.10791015625,-0.14990234375,1.5929
-0.7175572519083969,0.8549618320610687,-0.916030534351145,-0.455078125,-0.1103515625,-0.162353515625,1.5946
-0.5648854961832062,0.7480916030534351,-1.0229007633587786,-0.455810546875,-0.109130859375,-0.147216796875,1.5962999999999998
-0.7633587786259542,0.7633587786259542,-0.9770992366412213,-0.4521484375,-0.11376953125,-0.148681640625,1.5979999999999999
-0.5801526717557252,0.7175572519083969,-1.0229007633587786,-0.45458984375,-0.112060546875,-0.154052734375,1.5997
-0.33587786259541985,0.6106870229007634,-1.1145038167938932,-0.462890625,-0.115234375,-0.15185546875,1.6014
0.12213740458015267,0.6564885496183206,-1.1908396946564885,-0.45654296875,-0.111572265625,-0.152587890625,1.6031
0.42748091603053434,0.9312977099236641,-1.0534351145038168,-0.459228515625,-0.112060546875,-0.163330078125,1.6048
0.48854961832061067,0.916030534351145,-1.2213740458015268,-0.459228515625,-0.111328125,-0.16552734375,1.6064999999999998
0.7175572519083969,0.8244274809160306,-1.1297709923664123,-0.45458984375,-0.111328125,-0.157958984375,1.6081999999999999
1.1603053435114503,0.8244274809160306,-1.3435114503816794,-0.4580078125,-0.110107421875,-0.1611328125,1.6098999999999999
1.4809160305343512,0.9923664122137404,-1.1297709923664123,-0.46044921875,-0.110107421875,-0.164306640625,1.6116
1.816793893129771,0.9618320610687023,-1.3587786259541985,-0.459228515625,-0.105224609375,-0.15673828125,1.6133
1.8473282442748091,0.9312977099236641,-1.3282442748091603,-0.453369140625,-0.1025390625,-0.159912109375,1.615
2.16793893129771,0.8702290076335878,-1.5419847328244274,-0.4541015625,-0.1015625,-0.15478515625,1.6166999999999998
2.2900763358778624,0.9465648854961832,-1.6946564885496183,-0.451904296875,-0.104736328125,-0.16259765625,1.6183999999999998
2.183206106870229,0.8549618320610687,-1.786259541984733,-0.457275390625,-0.109375,-0.1669921875,1.6200999999999999
2.3053435114503817,0.6870229007633588,-1.9389312977099236,-0.459716796875,-0.1123046875,-0.16455078125,1.6218
2.381679389312977,0.9618320610687023,-2.045801526717557,-0.451416015625,-0.106689453125,-0.160888671875,1.6235
2.4427480916030535,0.8549618320610687,-1.83206106870229,-0.46240234375,-0.10791015625,-0.15478515625,1.6252
2.16793893129771,0.9465648854961832,-2.1374045801526718,-0.46142578125,-0.107177734375,-0.158447265625,1.6269
2.4885496183206106,1.1755725190839694,-2.198473282442748,-0.459228515625,-0.107421875,-0.156005859375,1.6285999999999998
2.366412213740458,1.083969465648855,-2.2595419847328246,-0.455078125,-0.1064453125,-0.165283203125,1.6302999999999999
2.16793893129771,1.3435114503816794,-2.1068702290076335,-0.4580078125,-0.105224609375,-0.170166015625,1.632
2.198473282442748,1.6030534351145038,-2.183206106870229,-0.452880859375,-0.107421875,-0.162841796875,1.6337
1.984732824427481,1.816793893129771,-2.198473282442748,-0.455078125,-0.10205078125,-0.1611328125,1.6354
2.0,1.83206106870229,-2.366412213740458,-0.451416015625,-0.10498046875,-0.15283203125,1.6371
2.122137404580153,2.183206106870229,-2.030534351145038,-0.448974609375,-0.1083984375,-0.153076171875,1.6387999999999998
1.8625954198473282,2.198473282442748,-2.122137404580153,-0.455078125,-0.10595703125,-0.157958984375,1.6404999999999998
1.9083969465648856,2.1526717557251906,-1.9541984732824427,-0.455078125,-0.106689453125,-0.153076171875,1.6421999999999999
1.8473282442748091,2.0763358778625953,-2.198473282442748,-0.447998046875,-0.10498046875,-0.155029296875,1.6439
1.8015267175572518,2.1374045801526718,-1.8015267175572518,-0.451171875,-0.107421875,-0.151611328125,1.6456
1.816793893129771,2.122137404580153,-2.122137404580153,-0.455078125,-0.10693359375,-0.152587890625,1.6473
1.8015267175572518,1.786259541984733,-1.7709923664122138,-0.452880859375,-0.107177734375,-0.1435546875,1.6489999999999998
1.5877862595419847,1.9236641221374047,-1.9236641221374047,-0.4501953125,-0.10888671875,-0.15087890625,1.6506999999999998
1.4045801526717556,1.7099236641221374,-1.9083969465648856,-0.450439453125,-0.108642578125,-0.14794921875,1.6523999999999999
1.2366412213740459,1.5572519083969465,-1.786259541984733,-0.451416015625,-0.10693359375,-0.14892578125,1.6541
1.3129770992366412,1.282442748091603,-1.9236641221374047,-0.453125,-0.10400390625,-0.161376953125,1.6558
1.1603053435114503,0.8396946564885496,-1.83206106870229,-0.451416015625,-0.102783203125,-0.15087890625,1.6575
0.8396946564885496,1.083969465648855,-1.6793893129770991,-0.45361328125,-0.109619140625,-0.154296875,1.6592
0.8854961832061069,0.8396946564885496,-1.6488549618320612,-0.454345703125,-0.10595703125,-0.151611328125,1.6608999999999998
0.732824427480916,0.7480916030534351,-1.8015267175572518,-0.45068359375,-0.106201171875,-0.15869140625,1.6625999999999999
0.6106870229007634,0.8396946564885496,-1.6488549618320612,-0.453125,-0.10595703125,-0.156005859375,1.6643
0.6564885496183206,1.1603053435114503,-1.6641221374045803,-0.454833984375,-0.116943359375,-0.1640625,1.666
0.5648854961832062,1.251908396946565,-1.6488549618320612,-0.453369140625,-0.115478515625,-0.15869140625,1.6677
0.5190839694656488,1.3587786259541985,-1.7099236641221374,-0.450927734375,-0.10888671875,-0.1513671875,1.6694
0.6717557251908397,1.5725190839694656,-1.6641221374045803,-0.448974609375,-0.113037109375,-0.1494140625,1.6710999999999998
0.2900763358778626,1.7404580152671756,-1.6641221374045803,-0.448486328125,-0.1064453125,-0.151123046875,1.6727999999999998
0.12213740458015267,1.9541984732824427,-1.6488549618320612,-0.448486328125,-0.111083984375,-0.149169921875,1.6744999999999999
0.2595419847328244,1.816793893129771,-1.7251908396946565,-0.448486328125,-0.115966796875,-0.16259765625,1.6762
-0.07633587786259542,1.8625954198473282,-1.9236641221374047,-0.44775390625,-0.1142578125,-0.164794921875,1.6779
-0.10687022900763359,1.7404580152671756,-1.83206106870229,-0.44775390625,-0.109130859375,-0.156982421875,1.6796
-0.12213740458015267,1.6488549618320612,-1.83206106870229,-0.446044921875,-0.111328125,-0.156982421875,1.6813
-0.10687022900763359,1.6030534351145038,-2.0,-0.449462890625,-0.112548828125,-0.155517578125,1.6829999999999998
0.0,1.4809160305343512,-2.33587786259542,-0.44921875,-0.108154296875,-0.15087890625,1.6846999999999999
-0.04580152671755725,1.3435114503816794,-2.2442748091603053,-0.4443359375,-0.119140625,-0.158935546875,1.6864
-0.2748091603053435,1.1297709923664123,-2.381679389312977,-0.44384765625,-0.114013671875,-0.154541015625,1.6881
0.15267175572519084,0.9923664122137404,-2.4427480916030535,-0.448486328125,-0.115478515625,-0.154296875,1.6898
0.2900763358778626,0.9770992366412213,-2.549618320610687,-0.450439453125,-0.1123046875,-0.1572265625,1.6915
0.2595419847328244,0.9465648854961832,-2.4732824427480917,-0.447998046875,-0.114990234375,-0.158935546875,1.6931999999999998
0.3816793893129771,1.251908396946565,-2.4885496183206106,-0.4443359375,-0.11572265625,-0.162109375,1.6948999999999999
0.6564885496183206,1.0229007633587786,-2.3969465648854964,-0.457275390625,-0.110107421875,-0.15576171875,1.6965999999999999
0.7938931297709924,1.099236641221374,-2.519083969465649,-0.453369140625,-0.107421875,-0.1611328125,1.6983
1.083969465648855,1.4198473282442747,-2.7022900763358777,-0.4501953125,-0.1083984375,-0.167236328125,1.7
1.1908396946564885,1.5725190839694656,-2.50381679389313,-0.451171875,-0.1162109375,-0.15673828125,1.7017
1.3435114503816794,1.6946564885496183,-2.564885496183206,-0.45361328125,-0.114013671875,-0.158935546875,1.7033999999999998
1.5725190839694656,2.030534351145038,-2.595419847328244,-0.455810546875,-0.114501953125,-0.161376953125,1.7050999999999998
1.6946564885496183,2.122137404580153,-2.4732824427480917,-0.451904296875,-0.11083984375,-0.163330078125,1.7067999999999999
2.0916030534351147,2.183206106870229,-2.6259541984732824,-0.452880859375,-0.11181640625,-0.17236328125,1.7085
2.2900763358778624,2.4427480916030535,-2.4122137404580153,-0.450439453125,-0.11181640625,-0.1689453125,1.7102
2.3969465648854964,2.5343511450381677,-2.381679389312977,-0.45654296875,-0.117431640625,-0.16259765625,1.7119
2.549618320610687,3.053435114503817,-2.16793893129771,-0.45166015625,-0.11474609375,-0.16162109375,1.7136
2.366412213740458,3.1297709923664123,-2.366412213740458,-0.448974609375,-0.11376953125,-0.16650390625,1.7152999999999998
2.595419847328244,3.267175572519084,-2.366412213740458,-0.458251953125,-0.10888671875,-0.163330078125,1.7169999999999999
2.519083969465649,3.3282442748091605,-2.2748091603053435,-0.456298828125,-0.11328125,-0.166748046875,1.7187
2.351145038167939,3.5419847328244276,-2.351145038167939,-0.447998046875,-0.11376953125,-0.171630859375,1.7204
2.2748091603053435,3.7557251908396947,-2.198473282442748,-0.44921875,-0.117431640625,-0.167236328125,1.7221
2.33587786259542,3.8473282442748094,-2.1068702290076335,-0.4521484375,-0.10791015625,-0.159423828125,1.7238
2.015267175572519,4.3816793893129775,-1.9389312977099236,-0.44873046875,-0.115966796875,-0.16552734375,1.7254999999999998
1.8473282442748091,4.67175572519084,-1.786259541984733,-0.451171875,-0.11572265625,-0.164794921875,1.7271999999999998
1.6793893129770991,4.809160305343512,-1.7404580152671756,-0.447509765625,-0.112548828125,-0.169921875,1.7288999999999999
1.2671755725190839,5.145038167938932,-1.618320610687023,-0.447509765625,-0.11767578125,-0.17724609375,1.7306
0.9465648854961832,5.755725190839694,-1.4198473282442747,-0.452880859375,-0.1083984375,-0.17041015625,1.7323
0.13740458015267176,6.244274809160306,-0.9770992366412213,-0.45068359375,-0.11083984375,-0.177490234375,1.734
-0.366412213740458,6.9465648854961835,-0.7022900763358778,-0.453857421875,-0.119873046875,-0.184326171875,1.7356999999999998
-1.1145038167938932,7.679389312977099,-0.6259541984732825,-0.455810546875,-0.11474609375,-0.179443359375,1.7373999999999998
-1.4961832061068703,8.335877862595419,-0.4732824427480916,-0.45849609375,-0.11865234375,-0.173095703125,1.7390999999999999
-1.633587786259542,9.145038167938932,-0.21374045801526717,-0.45751953125,-0.123291015625,-0.16796875,1.7408
-2.045801526717557,10.13740458015267,-0.015267175572519083,-0.45556640625,-0.122314453125,-0.179443359375,1.7425
-2.16793893129771,10.885496183206106,0.015267175572519083,-0.4560546875,-0.122802734375,-0.17431640625,1.7442
-2.1374045801526718,11.86259541984733,-0.015267175572519083,-0.46044921875,-0.12744140625,-0.175048828125,1.7459
-2.4580152671755724,12.80916030534351,-0.10687022900763359,-0.456298828125,-0.129638671875,-0.172607421875,1.7475999999999998
-1.9083969465648856,13.603053435114504,-0.3511450381679389,-0.460693359375,-0.127685546875,-0.176025390625,1.7492999999999999
-1.6946564885496183,14.381679389312977,-0.4122137404580153,-0.45703125,-0.128662109375,-0.178955078125,1.751
-1.0229007633587786,15.129770992366412,-0.7786259541984732,-0.459228515625,-0.125244140625,-0.171142578125,1.7527
-0.3969465648854962,16.0,-1.2671755725190839,-0.458740234375,-0.13134765625,-0.172607421875,1.7544
0.21374045801526717,16.702290076335878,-1.5267175572519085,-0.4619140625,-0.128173828125,-0.168212890625,1.7561
1.1145038167938932,17.557251908396946,-1.8778625954198473,-0.45703125,-0.12744140625,-0.178466796875,1.7577999999999998
1.9541984732824427,18.18320610687023,-2.198473282442748,-0.46142578125,-0.131103515625,-0.18212890625,1.7594999999999998
2.6717557251908395,18.916030534351144,-2.6412213740458017,-0.462890625,-0.126953125,-0.17919921875,1.7611999999999999
3.5419847328244276,19.297709923664122,-3.1603053435114505,-0.456298828125,-0.125732421875,-0.191650390625,1.7629
4.427480916030534,20.0,-3.404580152671756,-0.458251953125,-0.122802734375,-0.201416015625,1.7646
4.99236641221374,20.244274809160306,-3.633587786259542,-0.45361328125,-0.12060546875,-0.193603515625,1.7663
5.908396946564886,20.65648854961832,-4.198473282442748,-0.451171875,-0.115234375,-0.19775390625,1.7679999999999998
6.473282442748092,20.870229007633586,-4.549618320610687,-0.458251953125,-0.11865234375,-0.20947265625,1.7696999999999998
7.236641221374046,21.114503816793892,-4.8396946564885495,-0.461669921875,-0.11572265625,-0.207763671875,1.7713999999999999
8.01526717557252,21.34351145038168,-4.748091603053435,-0.46044921875,-0.106689453125,-0.211181640625,1.7731
8.305343511450381,21.96946564885496,-4.8396946564885495,-0.45947265625,-0.109619140625,-0.216064453125,1.7748
8.687022900763358,22.793893129770993,-4.809160305343512,-0.461669921875,-0.10791015625,-0.221923828125,1.7765
9.32824427480916,23.34351145038168,-4.732824427480916,-0.460693359375,-0.108154296875,-0.214599609375,1.7782
10.183206106870228,24.458015267175572,-4.748091603053435,-0.46240234375,-0.10400390625,-0.23193359375,1.7798999999999998
10.977099236641221,25.46564885496183,-4.67175572519084,-0.462158203125,-0.10400390625,-0.23779296875,1.7815999999999999
11.587786259541986,26.580152671755727,-4.3816793893129775,-0.466552734375,-0.09716796875,-0.232421875,1.7832999999999999
12.320610687022901,28.045801526717558,-4.33587786259542,-0.47412109375,-0.097412109375,-0.246826171875,1.785
13.19083969465649,29.34351145038168,-4.2748091603053435,-0.471923828125,-0.09765625,-0.25,1.7867
14.0,30.9618320610687,-4.213740458015267,-0.479736328125,-0.1064453125,-0.253662109375,1.7884
