gyrox1,gyroy1,gyroz1,accelx1,accely1,accelz1,Time
1.297709923664122,1.4198473282442747,-2.381679389312977,-0.427734375,-0.0263671875,-0.29248046875,0.0
1.3587786259541985,1.4198473282442747,-2.6259541984732824,-0.428955078125,-0.01953125,-0.294189453125,0.0017
1.6030534351145038,1.5267175572519085,-2.427480916030534,-0.4306640625,-0.021728515625,-0.289306640625,0.0034
1.7709923664122138,1.6488549618320612,-2.4122137404580153,-0.43115234375,-0.02294921875,-0.28662109375,0.0050999999999999995
1.3740458015267176,1.4961832061068703,-2.5343511450381677,-0.435302734375,-0.02392578125,-0.291259765625,0.0068
1.6030534351145038,1.6488549618320612,-2.4732824427480917,-0.426513671875,-0.021240234375,-0.29248046875,0.008499999999999999
1.5877862595419847,1.633587786259542,-2.4580152671755724,-0.43310546875,-0.021728515625,-0.2861328125,0.010199999999999999
1.7404580152671756,1.8625954198473282,-2.351145038167939,-0.433349609375,-0.01953125,-0.289306640625,0.011899999999999999
1.7404580152671756,1.8931297709923665,-2.213740458015267,-0.4306640625,-0.01904296875,-0.28564453125,0.0136
1.4809160305343512,1.7099236641221374,-2.3969465648854964,-0.42724609375,-0.02734375,-0.27685546875,0.0153
1.5725190839694656,1.786259541984733,-2.0916030534351147,-0.4296875,-0.024169921875,-0.28076171875,0.016999999999999998
1.6641221374045803,1.9236641221374047,-2.0916030534351147,-0.4326171875,-0.021484375,-0.287841796875,0.018699999999999998
1.8625954198473282,2.1068702290076335,-2.030534351145038,-0.432861328125,-0.0244140625,-0.2939453125,0.020399999999999998
1.6946564885496183,2.045801526717557,-2.213740458015267,-0.43359375,-0.01806640625,-0.29150390625,0.022099999999999998
1.6488549618320612,2.213740458015267,-2.045801526717557,-0.435791015625,-0.02099609375,-0.2919921875,0.023799999999999998
1.4809160305343512,2.4580152671755724,-2.1068702290076335,-0.436767578125,-0.02392578125,-0.291748046875,0.0255
1.5114503816793894,2.1374045801526718,-1.8778625954198473,-0.430419921875,-0.0244140625,-0.2890625,0.0272
1.7557251908396947,2.4122137404580153,-1.9083969465648856,-0.4326171875,-0.024169921875,-0.283935546875,0.0289
1.282442748091603,2.6412213740458017,-1.816793893129771,-0.43017578125,-0.022705078125,-0.281982421875,0.0306
1.633587786259542,2.519083969465649,-2.015267175572519,-0.429931640625,-0.017822265625,-0.291748046875,0.032299999999999995
1.7709923664122138,2.595419847328244,-1.9694656488549618,-0.42626953125,-0.020751953125,-0.283935546875,0.033999999999999996
1.7404580152671756,2.50381679389313,-2.1068702290076335,-0.42919921875,-0.02392578125,-0.2939453125,0.035699999999999996
1.6488549618320612,2.763358778625954,-1.7404580152671756,-0.4287109375,-0.02099609375,-0.2958984375,0.037399999999999996
1.8015267175572518,2.4580152671755724,-2.1068702290076335,-0.4326171875,-0.019287109375,-0.29150390625,0.039099999999999996
1.6793893129770991,2.2748091603053435,-2.0763358778625953,-0.430419921875,-0.018798828125,-0.29443359375,0.040799999999999996
1.7557251908396947,2.4580152671755724,-2.0,-0.4296875,-0.0166015625,-0.294921875,0.042499999999999996
1.816793893129771,2.50381679389313,-2.045801526717557,-0.4228515625,-0.02197265625,-0.290283203125,0.044199999999999996
1.8015267175572518,2.381679389312977,-2.1068702290076335,-0.427734375,-0.02294921875,-0.2900390625,0.045899999999999996
1.8625954198473282,2.2595419847328246,-2.0916030534351147,-0.4345703125,-0.011962890625,-0.29150390625,0.047599999999999996
2.213740458015267,2.366412213740458,-2.1526717557251906,-0.426025390625,-0.016357421875,-0.294921875,0.0493
2.1526717557251906,2.33587786259542,-2.2290076335877864,-0.4228515625,-0.01318359375,-0.29248046875,0.051
2.030534351145038,2.381679389312977,-2.4885496183206106,-0.429931640625,-0.015869140625,-0.292236328125,0.0527
2.1526717557251906,2.2900763358778624,-2.366412213740458,-0.432373046875,-0.018798828125,-0.292724609375,0.0544
2.183206106870229,2.2748091603053435,-2.4885496183206106,-0.42822265625,-0.017333984375,-0.29541015625,0.0561
2.213740458015267,2.2748091603053435,-2.366412213740458,-0.427490234375,-0.015625,-0.29833984375,0.0578
2.1526717557251906,2.1526717557251906,-2.6259541984732824,-0.428466796875,-0.015869140625,-0.291259765625,0.0595
2.4580152671755724,2.1526717557251906,-2.7786259541984735,-0.430419921875,-0.016845703125,-0.29052734375,0.0612
2.351145038167939,2.030534351145038,-2.6106870229007635,-0.429443359375,-0.0224609375,-0.28271484375,0.0629
2.6259541984732824,2.0610687022900764,-2.5801526717557253,-0.431640625,-0.01806640625,-0.29052734375,0.06459999999999999
2.5343511450381677,1.9694656488549618,-2.9923664122137406,-0.428466796875,-0.014892578125,-0.290283203125,0.0663
2.564885496183206,1.7251908396946565,-2.549618320610687,-0.4267578125,-0.017578125,-0.296142578125,0.06799999999999999
2.7480916030534353,1.6793893129770991,-2.5801526717557253,-0.42919921875,-0.018310546875,-0.288818359375,0.0697
2.7786259541984735,1.450381679389313,-2.5801526717557253,-0.430419921875,-0.0205078125,-0.288818359375,0.07139999999999999
2.763358778625954,1.450381679389313,-2.7480916030534353,-0.42724609375,-0.0205078125,-0.288330078125,0.0731
2.763358778625954,1.4809160305343512,-2.564885496183206,-0.427490234375,-0.01953125,-0.2958984375,0.07479999999999999
2.8396946564885495,1.4809160305343512,-2.6259541984732824,-0.426513671875,-0.024658203125,-0.29638671875,0.0765
2.854961832061069,1.083969465648855,-2.6106870229007635,-0.428955078125,-0.02197265625,-0.296142578125,0.07819999999999999
2.9618320610687023,1.083969465648855,-2.50381679389313,-0.42529296875,-0.0224609375,-0.29541015625,0.0799
2.6412213740458017,1.0076335877862594,-2.50381679389313,-0.429931640625,-0.024169921875,-0.285400390625,0.08159999999999999
2.381679389312977,0.8702290076335878,-2.6412213740458017,-0.42431640625,-0.02587890625,-0.294189453125,0.0833
2.595419847328244,0.916030534351145,-2.381679389312977,-0.42578125,-0.01904296875,-0.290771484375,0.08499999999999999
2.946564885496183,0.9007633587786259,-2.50381679389313,-0.4248046875,-0.0244140625,-0.295654296875,0.0867
2.595419847328244,0.8702290076335878,-2.4732824427480917,-0.42919921875,-0.023681640625,-0.28857421875,0.08839999999999999
2.6717557251908395,0.7480916030534351,-2.5343511450381677,-0.4287109375,-0.026611328125,-0.28662109375,0.0901
2.595419847328244,0.7938931297709924,-2.50381679389313,-0.427978515625,-0.02734375,-0.284423828125,0.09179999999999999
2.5343511450381677,0.6717557251908397,-2.5801526717557253,-0.42236328125,-0.027099609375,-0.288330078125,0.0935
2.213740458015267,0.5038167938931297,-2.549618320610687,-0.43017578125,-0.0244140625,-0.291748046875,0.09519999999999999
2.427480916030534,0.5648854961832062,-2.3969465648854964,-0.427001953125,-0.020751953125,-0.29541015625,0.0969
2.427480916030534,0.42748091603053434,-2.4732824427480917,-0.430419921875,-0.021728515625,-0.297607421875,0.0986
2.2748091603053435,0.24427480916030533,-2.427480916030534,-0.4287109375,-0.024169921875,-0.2880859375,0.1003
2.198473282442748,0.21374045801526717,-2.4122137404580153,-0.423583984375,-0.0205078125,-0.29541015625,0.102
2.3053435114503817,0.1984732824427481,-2.4732824427480917,-0.424072265625,-0.023681640625,-0.2978515625,0.1037
2.519083969465649,0.13740458015267176,-2.3969465648854964,-0.4287109375,-0.02294921875,-0.2919921875,0.1054
2.366412213740458,0.04580152671755725,-2.6106870229007635,-0.42529296875,-0.0224609375,-0.28955078125,0.1071
2.1374045801526718,-0.10687022900763359,-2.351145038167939,-0.427490234375,-0.024169921875,-0.293701171875,0.1088
2.1374045801526718,0.0,-2.519083969465649,-0.428466796875,-0.021484375,-0.29345703125,0.11049999999999999
2.366412213740458,0.030534351145038167,-2.519083969465649,-0.43115234375,-0.020751953125,-0.298095703125,0.1122
2.1374045801526718,-0.22900763358778625,-2.427480916030534,-0.4287109375,-0.02392578125,-0.29150390625,0.11389999999999999
2.16793893129771,-0.16793893129770993,-2.6412213740458017,-0.43115234375,-0.02392578125,-0.29052734375,0.1156
2.213740458015267,-0.15267175572519084,-2.33587786259542,-0.428466796875,-0.02490234375,-0.284912109375,0.11729999999999999
2.213740458015267,-0.13740458015267176,-2.50381679389313,-0.429931640625,-0.024169921875,-0.29248046875,0.119
2.122137404580153,-0.1984732824427481,-2.6259541984732824,-0.4326171875,-0.022705078125,-0.290771484375,0.12069999999999999
2.16793893129771,-0.13740458015267176,-2.564885496183206,-0.4267578125,-0.024169921875,-0.286865234375,0.1224
2.198473282442748,-0.0916030534351145,-2.50381679389313,-0.42529296875,-0.0283203125,-0.280517578125,0.12409999999999999
2.16793893129771,-0.366412213740458,-2.5343511450381677,-0.434814453125,-0.02392578125,-0.28857421875,0.1258
2.2595419847328246,-0.3969465648854962,-2.564885496183206,-0.431640625,-0.029052734375,-0.296630859375,0.1275
2.2442748091603053,-0.1984732824427481,-2.5801526717557253,-0.43408203125,-0.017333984375,-0.283935546875,0.12919999999999998
2.2748091603053435,-0.061068702290076333,-2.4122137404580153,-0.4345703125,-0.02099609375,-0.283447265625,0.1309
2.16793893129771,0.0,-2.4427480916030535,-0.426025390625,-0.017578125,-0.288818359375,0.1326
2.2595419847328246,-0.04580152671755725,-2.366412213740458,-0.432373046875,-0.0205078125,-0.289794921875,0.1343
2.3206106870229006,-0.15267175572519084,-2.5343511450381677,-0.4287109375,-0.0185546875,-0.283935546875,0.13599999999999998
2.2442748091603053,0.0,-2.351145038167939,-0.43310546875,-0.0263671875,-0.290771484375,0.1377
2.213740458015267,0.183206106870229,-2.4122137404580153,-0.43115234375,-0.021484375,-0.287353515625,0.1394
2.198473282442748,0.04580152671755725,-2.3969465648854964,-0.4306640625,-0.01904296875,-0.28662109375,0.1411
2.519083969465649,0.061068702290076333,-2.366412213740458,-0.432861328125,-0.02490234375,-0.294921875,0.14279999999999998
2.366412213740458,-0.015267175572519083,-2.4427480916030535,-0.425537109375,-0.0244140625,-0.286376953125,0.1445
2.50381679389313,-0.030534351145038167,-2.5343511450381677,-0.43017578125,-0.02392578125,-0.280517578125,0.1462
2.33587786259542,-0.1984732824427481,-2.4732824427480917,-0.42919921875,-0.02734375,-0.294189453125,0.1479
2.4122137404580153,-0.030534351145038167,-2.595419847328244,-0.431884765625,-0.02783203125,-0.289306640625,0.14959999999999998
2.50381679389313,0.0,-2.427480916030534,-0.431396484375,-0.0263671875,-0.28271484375,0.1513
2.2595419847328246,-0.061068702290076333,-2.213740458015267,-0.429931640625,-0.02783203125,-0.29052734375,0.153
2.2748091603053435,-0.12213740458015267,-2.366412213740458,-0.435791015625,-0.024169921875,-0.28125,0.1547
2.33587786259542,0.061068702290076333,-2.4427480916030535,-0.4326171875,-0.025146484375,-0.283935546875,0.15639999999999998
1.9236641221374047,0.183206106870229,-2.3206106870229006,-0.43115234375,-0.025146484375,-0.2880859375,0.1581
2.2290076335877864,0.1984732824427481,-2.4885496183206106,-0.430908203125,-0.019775390625,-0.284423828125,0.1598
2.351145038167939,0.15267175572519084,-2.4885496183206106,-0.43212890625,-0.025146484375,-0.2939453125,0.1615
2.3206106870229006,0.42748091603053434,-2.366412213740458,-0.43310546875,-0.025146484375,-0.28466796875,0.16319999999999998
2.3053435114503817,0.549618320610687,-2.2595419847328246,-0.434326171875,-0.027587890625,-0.291748046875,0.1649
2.213740458015267,0.4732824427480916,-2.351145038167939,-0.437744140625,-0.0263671875,-0.283203125,0.1666
2.183206106870229,0.7175572519083969,-2.0916030534351147,-0.43505859375,-0.025634765625,-0.27734375,0.16829999999999998
2.183206106870229,0.7480916030534351,-2.2900763358778624,-0.43359375,-0.024658203125,-0.28515625,0.16999999999999998
2.015267175572519,0.5954198473282443,-2.183206106870229,-0.43212890625,-0.0234375,-0.290771484375,0.1717
2.1526717557251906,0.5801526717557252,-2.2290076335877864,-0.43017578125,-0.0234375,-0.281982421875,0.1734
1.984732824427481,0.9007633587786259,-2.183206106870229,-0.4267578125,-0.025146484375,-0.275146484375,0.17509999999999998
1.9694656488549618,0.8549618320610687,-2.2442748091603053,-0.4365234375,-0.02880859375,-0.28564453125,0.17679999999999998
2.030534351145038,0.916030534351145,-1.9694656488549618,-0.4326171875,-0.026123046875,-0.284423828125,0.1785
2.0,1.0534351145038168,-2.1068702290076335,-0.430908203125,-0.024169921875,-0.289794921875,0.1802
1.7251908396946565,1.1908396946564885,-2.0,-0.430908203125,-0.0205078125,-0.298828125,0.18189999999999998
1.8473282442748091,1.0534351145038168,-2.0763358778625953,-0.43408203125,-0.025146484375,-0.286376953125,0.18359999999999999
1.9389312977099236,1.1908396946564885,-1.8778625954198473,-0.4287109375,-0.02392578125,-0.285400390625,0.1853
2.045801526717557,1.1755725190839694,-2.0916030534351147,-0.4267578125,-0.0234375,-0.28857421875,0.187
1.786259541984733,1.0229007633587786,-2.0610687022900764,-0.4375,-0.0302734375,-0.285888671875,0.18869999999999998
1.816793893129771,1.297709923664122,-2.0610687022900764,-0.4306640625,-0.023193359375,-0.2900390625,0.19039999999999999
1.7709923664122138,1.3587786259541985,-1.9389312977099236,-0.431884765625,-0.02490234375,-0.293701171875,0.1921
1.5267175572519085,1.1755725190839694,-2.015267175572519,-0.4306640625,-0.02294921875,-0.292724609375,0.1938
1.6946564885496183,1.2061068702290076,-1.8625954198473282,-0.426025390625,-0.024169921875,-0.294189453125,0.19549999999999998
1.786259541984733,1.450381679389313,-2.122137404580153,-0.430908203125,-0.02392578125,-0.29052734375,0.1972
1.6488549618320612,1.251908396946565,-2.045801526717557,-0.42578125,-0.02587890625,-0.27978515625,0.1989
1.8015267175572518,1.2671755725190839,-1.8931297709923665,-0.431640625,-0.02392578125,-0.28955078125,0.2006
1.6793893129770991,1.4351145038167938,-1.83206106870229,-0.429931640625,-0.022705078125,-0.287109375,0.20229999999999998
1.5572519083969465,1.3587786259541985,-2.1068702290076335,-0.427490234375,-0.024169921875,-0.287109375,0.204
2.015267175572519,1.3129770992366412,-1.984732824427481,-0.431884765625,-0.02880859375,-0.28369140625,0.2057
1.6488549618320612,1.3129770992366412,-1.9236641221374047,-0.432861328125,-0.025634765625,-0.285400390625,0.2074
1.5267175572519085,1.4198473282442747,-1.8778625954198473,-0.434814453125,-0.0283203125,-0.279541015625,0.20909999999999998
1.633587786259542,1.4045801526717556,-1.8625954198473282,-0.427734375,-0.021484375,-0.288818359375,0.2108
1.7251908396946565,1.2366412213740459,-1.8931297709923665,-0.4375,-0.019775390625,-0.281494140625,0.2125
1.9236641221374047,1.1450381679389312,-1.816793893129771,-0.431884765625,-0.020263671875,-0.28564453125,0.2142
1.633587786259542,1.282442748091603,-1.7709923664122138,-0.429443359375,-0.0263671875,-0.290283203125,0.21589999999999998
1.618320610687023,1.3129770992366412,-1.9389312977099236,-0.427734375,-0.022705078125,-0.282958984375,0.2176
1.7251908396946565,1.3740458015267176,-1.984732824427481,-0.42578125,-0.02294921875,-0.2822265625,0.2193
1.7099236641221374,1.2366412213740459,-2.030534351145038,-0.43115234375,-0.0234375,-0.29052734375,0.22099999999999997
1.618320610687023,1.3587786259541985,-1.8625954198473282,-0.4267578125,-0.0283203125,-0.2890625,0.22269999999999998
1.5267175572519085,1.2061068702290076,-2.1526717557251906,-0.4306640625,-0.025146484375,-0.28759765625,0.2244
1.5877862595419847,1.099236641221374,-1.9541984732824427,-0.430419921875,-0.0234375,-0.29443359375,0.2261
1.7099236641221374,1.1450381679389312,-1.8778625954198473,-0.427490234375,-0.025390625,-0.288818359375,0.22779999999999997
1.6641221374045803,1.083969465648855,-1.83206106870229,-0.427978515625,-0.024169921875,-0.285888671875,0.22949999999999998
1.5877862595419847,1.297709923664122,-1.8625954198473282,-0.432373046875,-0.0234375,-0.28662109375,0.2312
1.5725190839694656,1.251908396946565,-1.7709923664122138,-0.432373046875,-0.0234375,-0.29052734375,0.2329
1.618320610687023,1.1450381679389312,-2.0,-0.431884765625,-0.021728515625,-0.285888671875,0.23459999999999998
1.4045801526717556,1.282442748091603,-2.0610687022900764,-0.4267578125,-0.022705078125,-0.29541015625,0.23629999999999998
1.3587786259541985,1.4198473282442747,-2.0763358778625953,-0.4345703125,-0.02734375,-0.29052734375,0.238
1.3129770992366412,1.3587786259541985,-1.9083969465648856,-0.43701171875,-0.0234375,-0.283935546875,0.2397
1.4045801526717556,1.5877862595419847,-1.9083969465648856,-0.43212890625,-0.0224609375,-0.2822265625,0.24139999999999998
1.2671755725190839,1.3893129770992367,-1.9694656488549618,-0.435546875,-0.024658203125,-0.29638671875,0.24309999999999998
1.1603053435114503,1.3129770992366412,-2.015267175572519,-0.433349609375,-0.024169921875,-0.29052734375,0.2448
1.3587786259541985,1.4351145038167938,-2.0,-0.43359375,-0.02734375,-0.285400390625,0.2465
1.3435114503816794,1.5725190839694656,-1.8473282442748091,-0.42919921875,-0.029541015625,-0.291015625,0.24819999999999998
1.099236641221374,1.282442748091603,-2.0763358778625953,-0.431640625,-0.0234375,-0.28515625,0.24989999999999998
1.099236641221374,1.3587786259541985,-2.0763358778625953,-0.429443359375,-0.020751953125,-0.28662109375,0.2516
1.1450381679389312,1.3587786259541985,-1.9389312977099236,-0.4296875,-0.0224609375,-0.291015625,0.25329999999999997
1.1755725190839694,1.3129770992366412,-2.1374045801526718,-0.434814453125,-0.023681640625,-0.2958984375,0.255
1.0534351145038168,1.251908396946565,-2.1374045801526718,-0.4267578125,-0.02685546875,-0.28173828125,0.2567
1.1450381679389312,1.297709923664122,-2.030534351145038,-0.428955078125,-0.0244140625,-0.28662109375,0.25839999999999996
1.083969465648855,1.3435114503816794,-2.3053435114503817,-0.4326171875,-0.02490234375,-0.291748046875,0.2601
0.9618320610687023,1.297709923664122,-2.122137404580153,-0.4365234375,-0.021728515625,-0.2919921875,0.2618
1.2366412213740459,1.1603053435114503,-2.0763358778625953,-0.4306640625,-0.0234375,-0.294921875,0.2635
1.2061068702290076,1.4351145038167938,-2.16793893129771,-0.432861328125,-0.020751953125,-0.298583984375,0.2652
0.9923664122137404,1.5114503816793894,-2.2290076335877864,-0.434326171875,-0.02392578125,-0.291748046875,0.26689999999999997
1.0381679389312977,1.4198473282442747,-2.2595419847328246,-0.430419921875,-0.022705078125,-0.28759765625,0.2686
1.0687022900763359,1.5267175572519085,-2.4580152671755724,-0.43359375,-0.01953125,-0.28955078125,0.2703
1.1755725190839694,1.282442748091603,-2.4427480916030535,-0.43212890625,-0.019775390625,-0.294921875,0.27199999999999996
0.9923664122137404,1.1603053435114503,-2.3969465648854964,-0.4326171875,-0.02880859375,-0.28857421875,0.2737
1.1603053435114503,1.3435114503816794,-2.519083969465649,-0.432861328125,-0.024169921875,-0.29150390625,0.2754
1.2213740458015268,1.4809160305343512,-2.519083969465649,-0.4306640625,-0.0185546875,-0.283935546875,0.27709999999999996
1.4809160305343512,1.4045801526717556,-2.4580152671755724,-0.4287109375,-0.026123046875,-0.284423828125,0.2788
1.450381679389313,1.4045801526717556,-2.549618320610687,-0.428955078125,-0.02587890625,-0.295654296875,0.28049999999999997
1.251908396946565,1.2213740458015268,-2.6564885496183206,-0.431396484375,-0.024169921875,-0.28857421875,0.2822
1.4198473282442747,1.3435114503816794,-2.519083969465649,-0.42626953125,-0.027587890625,-0.286376953125,0.2839
1.3740458015267176,1.297709923664122,-2.549618320610687,-0.43017578125,-0.021240234375,-0.287353515625,0.28559999999999997
1.3893129770992367,1.450381679389313,-2.595419847328244,-0.430908203125,-0.0234375,-0.2958984375,0.2873
1.5419847328244274,1.5572519083969465,-2.595419847328244,-0.430908203125,-0.023193359375,-0.295166015625,0.289
1.3893129770992367,1.3740458015267176,-2.7786259541984735,-0.423583984375,-0.0263671875,-0.286376953125,0.29069999999999996
1.2061068702290076,1.3129770992366412,-2.3969465648854964,-0.427001953125,-0.025146484375,-0.292236328125,0.2924
1.4351145038167938,1.282442748091603,-2.351145038167939,-0.43310546875,-0.028076171875,-0.2890625,0.2941
1.3740458015267176,1.251908396946565,-2.4580152671755724,-0.433349609375,-0.021728515625,-0.283935546875,0.2958
1.282442748091603,1.282442748091603,-2.595419847328244,-0.427734375,-0.0205078125,-0.279296875,0.2975
1.3129770992366412,1.3129770992366412,-2.50381679389313,-0.423583984375,-0.021484375,-0.28564453125,0.29919999999999997
1.5419847328244274,1.4198473282442747,-2.7022900763358777,-0.432373046875,-0.02294921875,-0.29296875,0.3009
1.3282442748091603,1.5114503816793894,-2.4580152671755724,-0.4287109375,-0.0205078125,-0.293212890625,0.3026
1.4809160305343512,1.1908396946564885,-2.4580152671755724,-0.424560546875,-0.0224609375,-0.296875,0.30429999999999996
1.2061068702290076,1.2061068702290076,-2.5343511450381677,-0.426513671875,-0.02685546875,-0.2958984375,0.306
1.450381679389313,1.6030534351145038,-2.351145038167939,-0.433837890625,-0.023193359375,-0.289794921875,0.3077
1.3435114503816794,1.2366412213740459,-2.4885496183206106,-0.4306640625,-0.0224609375,-0.291259765625,0.3094
1.297709923664122,1.282442748091603,-2.6717557251908395,-0.4287109375,-0.0244140625,-0.291748046875,0.3111
1.3893129770992367,1.3740458015267176,-2.366412213740458,-0.432861328125,-0.01904296875,-0.296630859375,0.31279999999999997
1.1908396946564885,1.282442748091603,-2.3206106870229006,-0.429443359375,-0.02197265625,-0.299560546875,0.3145
1.2671755725190839,1.1755725190839694,-2.1374045801526718,-0.42919921875,-0.022705078125,-0.288330078125,0.3162
1.282442748091603,1.1603053435114503,-2.4885496183206106,-0.429931640625,-0.02392578125,-0.291015625,0.31789999999999996
1.5267175572519085,1.282442748091603,-2.2442748091603053,-0.428466796875,-0.02099609375,-0.28564453125,0.3196
1.3587786259541985,1.1908396946564885,-2.183206106870229,-0.428955078125,-0.02734375,-0.2880859375,0.3213
1.4198473282442747,1.0076335877862594,-2.198473282442748,-0.43115234375,-0.0283203125,-0.2919921875,0.323
1.3740458015267176,1.0534351145038168,-2.4427480916030535,-0.428955078125,-0.02734375,-0.29541015625,0.3247
1.3740458015267176,1.099236641221374,-2.1374045801526718,-0.4296875,-0.029296875,-0.290771484375,0.32639999999999997
1.1603053435114503,1.0381679389312977,-2.4427480916030535,-0.427490234375,-0.0224609375,-0.2939453125,0.3281
1.2366412213740459,1.0381679389312977,-2.122137404580153,-0.429443359375,-0.03076171875,-0.28759765625,0.3298
1.4351145038167938,1.1145038167938932,-2.198473282442748,-0.43017578125,-0.029296875,-0.285888671875,0.33149999999999996
1.4351145038167938,0.8854961832061069,-2.122137404580153,-0.430908203125,-0.021484375,-0.292236328125,0.3332
1.4198473282442747,1.0534351145038168,-2.2595419847328246,-0.432861328125,-0.020751953125,-0.2861328125,0.3349
1.3587786259541985,1.1297709923664123,-2.0,-0.432373046875,-0.0283203125,-0.289306640625,0.33659999999999995
1.251908396946565,1.251908396946565,-1.8931297709923665,-0.433349609375,-0.027099609375,-0.289794921875,0.3383
1.2366412213740459,1.3587786259541985,-1.984732824427481,-0.435791015625,-0.01611328125,-0.287109375,0.33999999999999997
1.099236641221374,1.3587786259541985,-2.1068702290076335,-0.43212890625,-0.02490234375,-0.291259765625,0.3417
1.3282442748091603,1.4351145038167938,-2.198473282442748,-0.435302734375,-0.025634765625,-0.287841796875,0.3434
1.3587786259541985,1.6030534351145038,-2.2442748091603053,-0.4365234375,-0.025146484375,-0.289306640625,0.34509999999999996
1.2061068702290076,1.5419847328244274,-2.2442748091603053,-0.429931640625,-0.0234375,-0.286865234375,0.3468
1.3587786259541985,1.5419847328244274,-2.213740458015267,-0.427490234375,-0.0185546875,-0.296142578125,0.3485
1.4045801526717556,1.6793893129770991,-1.984732824427481,-0.4296875,-0.02392578125,-0.285888671875,0.35019999999999996
1.3129770992366412,1.6946564885496183,-2.183206106870229,-0.42919921875,-0.02783203125,-0.290771484375,0.3519
1.5877862595419847,1.6488549618320612,-2.213740458015267,-0.4306640625,-0.028564453125,-0.291748046875,0.35359999999999997
1.5419847328244274,1.7404580152671756,-2.33587786259542,-0.433837890625,-0.02392578125,-0.287841796875,0.3553
1.6793893129770991,1.6030534351145038,-2.2290076335877864,-0.430908203125,-0.0263671875,-0.28857421875,0.357
1.4961832061068703,1.7251908396946565,-2.2442748091603053,-0.42919921875,-0.027099609375,-0.28857421875,0.35869999999999996
1.5267175572519085,1.816793893129771,-2.122137404580153,-0.427001953125,-0.020263671875,-0.2890625,0.3604
1.7251908396946565,1.6030534351145038,-2.16793893129771,-0.425537109375,-0.025390625,-0.284912109375,0.3621
1.5572519083969465,1.6946564885496183,-2.2900763358778624,-0.4296875,-0.02392578125,-0.29931640625,0.36379999999999996
1.5877862595419847,1.7404580152671756,-2.381679389312977,-0.432373046875,-0.026123046875,-0.29638671875,0.3655
1.618320610687023,1.7557251908396947,-2.2442748091603053,-0.431396484375,-0.022705078125,-0.287109375,0.36719999999999997
1.6030534351145038,1.7557251908396947,-2.2595419847328246,-0.43017578125,-0.027099609375,-0.285400390625,0.3689
1.6946564885496183,1.9389312977099236,-2.3053435114503817,-0.43798828125,-0.025390625,-0.290283203125,0.3706
1.5725190839694656,1.8931297709923665,-2.213740458015267,-0.428466796875,-0.02587890625,-0.284423828125,0.37229999999999996
1.8015267175572518,1.9083969465648856,-2.4580152671755724,-0.432861328125,-0.0244140625,-0.2861328125,0.374
1.9236641221374047,1.984732824427481,-2.427480916030534,-0.4345703125,-0.024169921875,-0.28857421875,0.3757
1.7404580152671756,2.0,-2.2900763358778624,-0.432373046875,-0.025390625,-0.289794921875,0.37739999999999996
1.9236641221374047,1.9541984732824427,-2.6106870229007635,-0.430419921875,-0.023681640625,-0.287109375,0.3791
1.9083969465648856,2.045801526717557,-2.33587786259542,-0.426513671875,-0.0205078125,-0.287353515625,0.38079999999999997
1.8015267175572518,2.045801526717557,-2.2595419847328246,-0.4287109375,-0.020263671875,-0.288818359375,0.38249999999999995
1.9083969465648856,2.1526717557251906,-2.2595419847328246,-0.430419921875,-0.027099609375,-0.284423828125,0.3842
1.8778625954198473,2.2442748091603053,-2.366412213740458,-0.4326171875,-0.028564453125,-0.2939453125,0.38589999999999997
1.8778625954198473,2.2748091603053435,-2.3206106870229006,-0.4306640625,-0.02783203125,-0.291748046875,0.3876
1.8931297709923665,2.213740458015267,-2.351145038167939,-0.430419921875,-0.029052734375,-0.291259765625,0.3893
1.9541984732824427,2.2595419847328246,-2.427480916030534,-0.42822265625,-0.025146484375,-0.289794921875,0.39099999999999996
2.015267175572519,2.16793893129771,-2.2900763358778624,-0.432861328125,-0.026123046875,-0.2900390625,0.3927
1.8625954198473282,2.198473282442748,-2.50381679389313,-0.431396484375,-0.02783203125,-0.2919921875,0.3944
2.030534351145038,2.2595419847328246,-2.4580152671755724,-0.4248046875,-0.02392578125,-0.290771484375,0.39609999999999995
1.8931297709923665,2.213740458015267,-2.366412213740458,-0.43115234375,-0.02099609375,-0.28515625,0.3978
1.7557251908396947,1.9236641221374047,-2.366412213740458,-0.426513671875,-0.02880859375,-0.295654296875,0.39949999999999997
2.122137404580153,2.1374045801526718,-2.4122137404580153,-0.431396484375,-0.02392578125,-0.289306640625,0.4012
2.045801526717557,2.1526717557251906,-2.366412213740458,-0.43017578125,-0.029052734375,-0.286865234375,0.4029
1.9236641221374047,2.1068702290076335,-2.381679389312977,-0.430908203125,-0.022216796875,-0.287841796875,0.40459999999999996
1.9236641221374047,2.2595419847328246,-2.2900763358778624,-0.424560546875,-0.028076171875,-0.290771484375,0.4063
2.015267175572519,2.1526717557251906,-2.2748091603053435,-0.428466796875,-0.029541015625,-0.2880859375,0.408
1.9694656488549618,2.1068702290076335,-2.2900763358778624,-0.43115234375,-0.02001953125,-0.2939453125,0.40969999999999995
1.984732824427481,2.0763358778625953,-2.366412213740458,-0.434814453125,-0.030517578125,-0.2890625,0.4114
2.0,2.213740458015267,-2.3053435114503817,-0.43115234375,-0.026611328125,-0.292236328125,0.41309999999999997
2.0916030534351147,2.3206106870229006,-2.3969465648854964,-0.43017578125,-0.029296875,-0.29296875,0.4148
1.9236641221374047,2.427480916030534,-2.183206106870229,-0.427490234375,-0.023681640625,-0.291748046875,0.4165
1.9236641221374047,2.33587786259542,-2.2900763358778624,-0.430908203125,-0.023193359375,-0.290283203125,0.41819999999999996
2.030534351145038,2.0610687022900764,-2.015267175572519,-0.43017578125,-0.025634765625,-0.292724609375,0.4199
2.1374045801526718,2.0763358778625953,-2.0763358778625953,-0.429931640625,-0.02392578125,-0.288818359375,0.4216
1.984732824427481,2.015267175572519,-2.1374045801526718,-0.430419921875,-0.022705078125,-0.288330078125,0.42329999999999995
1.9541984732824427,2.0916030534351147,-2.366412213740458,-0.425048828125,-0.0234375,-0.2919921875,0.425
2.33587786259542,2.16793893129771,-2.4885496183206106,-0.42822265625,-0.025146484375,-0.296875,0.42669999999999997
2.4122137404580153,1.9541984732824427,-2.3053435114503817,-0.42626953125,-0.018798828125,-0.294921875,0.4284
2.0610687022900764,2.0,-2.0763358778625953,-0.427978515625,-0.023681640625,-0.2939453125,0.4301
2.1374045801526718,1.984732824427481,-2.351145038167939,-0.427001953125,-0.025146484375,-0.299560546875,0.43179999999999996
2.4427480916030535,1.8473282442748091,-2.0916030534351147,-0.422119140625,-0.026611328125,-0.2919921875,0.4335
2.33587786259542,1.6488549618320612,-2.33587786259542,-0.430908203125,-0.024658203125,-0.29150390625,0.4352
2.213740458015267,1.7709923664122138,-2.2290076335877864,-0.426513671875,-0.023681640625,-0.2861328125,0.43689999999999996
2.3206106870229006,1.7557251908396947,-2.2900763358778624,-0.432373046875,-0.02587890625,-0.29443359375,0.4386
2.351145038167939,1.633587786259542,-2.381679389312977,-0.428955078125,-0.0263671875,-0.29296875,0.44029999999999997
2.366412213740458,1.8015267175572518,-2.33587786259542,-0.42431640625,-0.026123046875,-0.29248046875,0.44199999999999995
2.4122137404580153,1.7251908396946565,-2.1374045801526718,-0.427978515625,-0.025146484375,-0.28515625,0.4437
2.7786259541984735,1.7251908396946565,-2.366412213740458,-0.430908203125,-0.028564453125,-0.28759765625,0.44539999999999996
2.564885496183206,1.7251908396946565,-2.2595419847328246,-0.421630859375,-0.026611328125,-0.289794921875,0.4471
2.5343511450381677,1.7557251908396947,-2.122137404580153,-0.426025390625,-0.029052734375,-0.291259765625,0.4488
2.4732824427480917,1.83206106870229,-2.0763358778625953,-0.427734375,-0.02587890625,-0.28271484375,0.45049999999999996
2.564885496183206,1.7404580152671756,-2.3206106870229006,-0.428466796875,-0.029052734375,-0.30078125,0.4522
2.885496183206107,1.9236641221374047,-2.3206106870229006,-0.430908203125,-0.026123046875,-0.296142578125,0.45389999999999997
2.6412213740458017,1.6946564885496183,-2.2290076335877864,-0.43212890625,-0.02392578125,-0.2939453125,0.45559999999999995
2.732824427480916,1.7709923664122138,-2.16793893129771,-0.430908203125,-0.024169921875,-0.294677734375,0.4573
2.6106870229007635,1.5114503816793894,-2.2290076335877864,-0.427001953125,-0.02099609375,-0.29248046875,0.45899999999999996
2.564885496183206,1.5114503816793894,-2.213740458015267,-0.427978515625,-0.0244140625,-0.294677734375,0.4607
2.8091603053435112,1.4961832061068703,-2.198473282442748,-0.428955078125,-0.025146484375,-0.29052734375,0.4624
2.732824427480916,1.5114503816793894,-2.2290076335877864,-0.42431640625,-0.023681640625,-0.287109375,0.46409999999999996
2.7022900763358777,1.5572519083969465,-2.2900763358778624,-0.43359375,-0.023193359375,-0.28955078125,0.4658
2.854961832061069,1.4198473282442747,-2.2442748091603053,-0.4267578125,-0.02734375,-0.290283203125,0.46749999999999997
2.7480916030534353,1.3129770992366412,-2.1526717557251906,-0.428466796875,-0.024658203125,-0.2890625,0.46919999999999995
2.549618320610687,1.4045801526717556,-2.2442748091603053,-0.429931640625,-0.028076171875,-0.288330078125,0.4709
2.366412213740458,1.2366412213740459,-2.2442748091603053,-0.427001953125,-0.024658203125,-0.294189453125,0.47259999999999996
2.4885496183206106,1.3740458015267176,-1.9694656488549618,-0.421630859375,-0.024658203125,-0.287353515625,0.4743
2.6717557251908395,1.633587786259542,-2.1068702290076335,-0.429931640625,-0.0244140625,-0.29541015625,0.476
2.732824427480916,1.465648854961832,-2.015267175572519,-0.42431640625,-0.026611328125,-0.291259765625,0.47769999999999996
2.6259541984732824,1.3893129770992367,-2.0,-0.429931640625,-0.029296875,-0.28662109375,0.4794
2.6717557251908395,1.297709923664122,-2.0763358778625953,-0.431884765625,-0.02685546875,-0.28759765625,0.48109999999999997
2.4580152671755724,1.1908396946564885,-2.015267175572519,-0.430908203125,-0.03125,-0.294921875,0.48279999999999995
2.33587786259542,1.1603053435114503,-2.0,-0.425537109375,-0.03076171875,-0.2822265625,0.4845
2.3969465648854964,1.2671755725190839,-1.9083969465648856,-0.42919921875,-0.027099609375,-0.293701171875,0.48619999999999997
2.366412213740458,1.083969465648855,-1.7557251908396947,-0.427734375,-0.0283203125,-0.292724609375,0.4879
2.549618320610687,1.2061068702290076,-1.984732824427481,-0.426513671875,-0.030517578125,-0.291015625,0.4896
2.50381679389313,1.1145038167938932,-1.9694656488549618,-0.428955078125,-0.02685546875,-0.28759765625,0.49129999999999996
2.2290076335877864,1.0534351145038168,-2.030534351145038,-0.431396484375,-0.029052734375,-0.28662109375,0.493
2.183206106870229,1.1145038167938932,-1.8473282442748091,-0.4228515625,-0.02783203125,-0.2900390625,0.4947
2.366412213740458,1.0381679389312977,-1.8778625954198473,-0.429443359375,-0.028076171875,-0.28955078125,0.49639999999999995
2.2900763358778624,1.083969465648855,-1.9083969465648856,-0.42236328125,-0.03076171875,-0.29345703125,0.4981
2.0610687022900764,1.083969465648855,-1.8015267175572518,-0.43115234375,-0.028076171875,-0.290771484375,0.49979999999999997
2.183206106870229,1.1908396946564885,-1.5114503816793894,-0.43017578125,-0.0302734375,-0.294677734375,0.5015
2.2748091603053435,1.1450381679389312,-1.6946564885496183,-0.43359375,-0.02783203125,-0.290283203125,0.5032
2.198473282442748,1.0534351145038168,-1.83206106870229,-0.426513671875,-0.032958984375,-0.28662109375,0.5049
2.0610687022900764,1.0687022900763359,-1.633587786259542,-0.427490234375,-0.032470703125,-0.287353515625,0.5065999999999999
2.0916030534351147,0.9007633587786259,-1.5725190839694656,-0.427001953125,-0.031005859375,-0.292724609375,0.5083
2.2290076335877864,1.0076335877862594,-1.6641221374045803,-0.42626953125,-0.02587890625,-0.299072265625,0.51
2.2900763358778624,1.099236641221374,-1.816793893129771,-0.4228515625,-0.034423828125,-0.291015625,0.5116999999999999
2.1526717557251906,0.8549618320610687,-1.5877862595419847,-0.433837890625,-0.02880859375,-0.28173828125,0.5134
2.1068702290076335,0.9312977099236641,-1.6030534351145038,-0.431396484375,-0.028564453125,-0.28125,0.5151
2.1374045801526718,0.9770992366412213,-1.633587786259542,-0.4287109375,-0.02587890625,-0.2890625,0.5167999999999999
2.0916030534351147,0.8396946564885496,-1.6488549618320612,-0.433349609375,-0.02783203125,-0.297119140625,0.5185
1.9236641221374047,0.7786259541984732,-1.7709923664122138,-0.430419921875,-0.022705078125,-0.289794921875,0.5202
2.1068702290076335,0.9923664122137404,-1.618320610687023,-0.430908203125,-0.0224609375,-0.27978515625,0.5218999999999999
1.9236641221374047,0.916030534351145,-1.4809160305343512,-0.427490234375,-0.02685546875,-0.299560546875,0.5236
2.045801526717557,0.7938931297709924,-1.8931297709923665,-0.43212890625,-0.026123046875,-0.28759765625,0.5253
2.1526717557251906,0.7786259541984732,-1.5725190839694656,-0.426025390625,-0.028564453125,-0.287841796875,0.527
2.198473282442748,0.6564885496183206,-1.5877862595419847,-0.428955078125,-0.031494140625,-0.28759765625,0.5287
1.984732824427481,0.7786259541984732,-1.6488549618320612,-0.4306640625,-0.03173828125,-0.2822265625,0.5304
2.030534351145038,0.916030534351145,-1.633587786259542,-0.4306640625,-0.030517578125,-0.28662109375,0.5321
1.9541984732824427,0.7175572519083969,-1.618320610687023,-0.426513671875,-0.029052734375,-0.281982421875,0.5337999999999999
2.1374045801526718,0.8244274809160306,-1.7404580152671756,-0.427490234375,-0.0283203125,-0.287353515625,0.5355
2.1068702290076335,0.7175572519083969,-1.8625954198473282,-0.427978515625,-0.02685546875,-0.2890625,0.5372
2.183206106870229,0.6259541984732825,-1.4961832061068703,-0.431640625,-0.028564453125,-0.292236328125,0.5388999999999999
2.1374045801526718,0.5954198473282443,-1.786259541984733,-0.434814453125,-0.029052734375,-0.283935546875,0.5406
2.0916030534351147,0.732824427480916,-1.786259541984733,-0.4306640625,-0.028076171875,-0.29052734375,0.5423
2.045801526717557,0.6717557251908397,-1.5877862595419847,-0.42919921875,-0.027099609375,-0.291015625,0.5439999999999999
2.198473282442748,0.9007633587786259,-1.7709923664122138,-0.42919921875,-0.026123046875,-0.2939453125,0.5457
2.045801526717557,0.7633587786259542,-1.5725190839694656,-0.4306640625,-0.0361328125,-0.29296875,0.5474
1.786259541984733,0.9465648854961832,-1.8015267175572518,-0.424072265625,-0.03173828125,-0.29248046875,0.5490999999999999
2.015267175572519,0.9465648854961832,-1.5114503816793894,-0.42626953125,-0.0234375,-0.294677734375,0.5508
2.015267175572519,1.0229007633587786,-1.618320610687023,-0.431640625,-0.02978515625,-0.2890625,0.5525
1.9236641221374047,0.8549618320610687,-1.6793893129770991,-0.430419921875,-0.028564453125,-0.292236328125,0.5541999999999999
1.9541984732824427,0.6717557251908397,-1.633587786259542,-0.427490234375,-0.030517578125,-0.298095703125,0.5559
1.7557251908396947,0.8396946564885496,-1.465648854961832,-0.431884765625,-0.02880859375,-0.282470703125,0.5576
1.816793893129771,0.9618320610687023,-1.6641221374045803,-0.4345703125,-0.029541015625,-0.29150390625,0.5593
2.045801526717557,1.1755725190839694,-1.4809160305343512,-0.43212890625,-0.03173828125,-0.291259765625,0.5609999999999999
1.6946564885496183,0.7480916030534351,-1.6793893129770991,-0.430419921875,-0.02685546875,-0.291748046875,0.5627
1.7099236641221374,0.6412213740458015,-1.5877862595419847,-0.429443359375,-0.029541015625,-0.292236328125,0.5644
1.83206106870229,0.9312977099236641,-1.4961832061068703,-0.427490234375,-0.02490234375,-0.2939453125,0.5660999999999999
1.7099236641221374,0.9618320610687023,-1.5267175572519085,-0.429931640625,-0.02880859375,-0.291259765625,0.5678
1.8015267175572518,0.9923664122137404,-1.3893129770992367,-0.42578125,-0.03271484375,-0.287353515625,0.5695
1.633587786259542,0.8549618320610687,-1.465648854961832,-0.429931640625,-0.033935546875,-0.283935546875,0.5711999999999999
1.5725190839694656,0.9007633587786259,-1.450381679389313,-0.429443359375,-0.03173828125,-0.286865234375,0.5729
1.618320610687023,0.9007633587786259,-1.450381679389313,-0.428466796875,-0.026611328125,-0.28564453125,0.5746
1.7099236641221374,1.0229007633587786,-1.450381679389313,-0.42724609375,-0.028564453125,-0.2880859375,0.5762999999999999
1.6488549618320612,0.7938931297709924,-1.4045801526717556,-0.42724609375,-0.03125,-0.289794921875,0.578
1.6030534351145038,0.7480916030534351,-1.618320610687023,-0.427734375,-0.03076171875,-0.287109375,0.5797
1.5114503816793894,0.8854961832061069,-1.1297709923664123,-0.43359375,-0.025146484375,-0.286865234375,0.5813999999999999
1.4961832061068703,0.7633587786259542,-1.4351145038167938,-0.42822265625,-0.024169921875,-0.293701171875,0.5831
1.4961832061068703,0.7022900763358778,-1.5267175572519085,-0.431640625,-0.02685546875,-0.294677734375,0.5848
1.5877862595419847,0.9312977099236641,-1.4351145038167938,-0.43310546875,-0.0283203125,-0.29052734375,0.5865
1.5877862595419847,0.7175572519083969,-1.297709923664122,-0.431640625,-0.027587890625,-0.288818359375,0.5882
1.465648854961832,0.8091603053435115,-1.5572519083969465,-0.431640625,-0.0263671875,-0.28662109375,0.5899
1.297709923664122,0.9007633587786259,-1.5877862595419847,-0.43212890625,-0.0302734375,-0.283447265625,0.5916
1.4961832061068703,0.8702290076335878,-1.465648854961832,-0.435546875,-0.0283203125,-0.29052734375,0.5932999999999999
1.3282442748091603,0.9618320610687023,-1.5572519083969465,-0.426025390625,-0.031982421875,-0.2890625,0.595
1.4351145038167938,0.9465648854961832,-1.4351145038167938,-0.43017578125,-0.028564453125,-0.287353515625,0.5967
1.6030534351145038,0.9007633587786259,-1.3740458015267176,-0.43017578125,-0.029296875,-0.287353515625,0.5983999999999999
1.4961832061068703,1.0687022900763359,-1.5572519083969465,-0.43701171875,-0.022705078125,-0.294189453125,0.6001
1.5267175572519085,1.2061068702290076,-1.465648854961832,-0.434326171875,-0.026123046875,-0.297607421875,0.6018
1.3740458015267176,1.099236641221374,-1.7709923664122138,-0.430908203125,-0.031982421875,-0.2890625,0.6034999999999999
1.3740458015267176,0.9007633587786259,-1.4809160305343512,-0.425048828125,-0.030029296875,-0.29345703125,0.6052
1.5114503816793894,0.9007633587786259,-1.5267175572519085,-0.426513671875,-0.023681640625,-0.286376953125,0.6069
1.3435114503816794,0.9770992366412213,-1.5114503816793894,-0.4248046875,-0.027587890625,-0.295166015625,0.6085999999999999
1.5267175572519085,0.8244274809160306,-1.786259541984733,-0.430419921875,-0.02685546875,-0.287353515625,0.6103
1.4809160305343512,0.8854961832061069,-1.6641221374045803,-0.43115234375,-0.02587890625,-0.290283203125,0.612
1.6030534351145038,0.8244274809160306,-1.6641221374045803,-0.4296875,-0.025634765625,-0.291259765625,0.6136999999999999
1.5572519083969465,0.7175572519083969,-1.618320610687023,-0.427734375,-0.029296875,-0.291259765625,0.6154
1.5572519083969465,0.4732824427480916,-1.6946564885496183,-0.431640625,-0.02392578125,-0.281005859375,0.6171
1.4351145038167938,0.5190839694656488,-1.6641221374045803,-0.4296875,-0.025390625,-0.287841796875,0.6188
1.3740458015267176,0.549618320610687,-1.6030534351145038,-0.43017578125,-0.023193359375,-0.2978515625,0.6204999999999999
1.7099236641221374,0.4122137404580153,-1.5877862595419847,-0.43115234375,-0.029052734375,-0.294189453125,0.6222
1.5572519083969465,0.3969465648854962,-1.6641221374045803,-0.43212890625,-0.02783203125,-0.28271484375,0.6239
1.5114503816793894,0.44274809160305345,-1.786259541984733,-0.427978515625,-0.024658203125,-0.28759765625,0.6255999999999999
1.3740458015267176,0.5648854961832062,-1.7404580152671756,-0.43115234375,-0.0263671875,-0.29248046875,0.6273
1.7557251908396947,0.732824427480916,-1.7099236641221374,-0.430908203125,-0.03125,-0.27783203125,0.629
1.5572519083969465,0.6412213740458015,-1.7251908396946565,-0.427978515625,-0.0244140625,-0.2890625,0.6306999999999999
1.4809160305343512,0.732824427480916,-1.5725190839694656,-0.430419921875,-0.024658203125,-0.285888671875,0.6324
1.6488549618320612,0.9465648854961832,-1.7099236641221374,-0.429443359375,-0.026611328125,-0.27587890625,0.6341
1.3740458015267176,1.0687022900763359,-1.6793893129770991,-0.4287109375,-0.03125,-0.28466796875,0.6357999999999999
1.5267175572519085,0.9618320610687023,-1.6030534351145038,-0.43115234375,-0.029541015625,-0.28759765625,0.6375
1.465648854961832,1.1603053435114503,-1.618320610687023,-0.42919921875,-0.029541015625,-0.290283203125,0.6392
1.4809160305343512,1.083969465648855,-1.4809160305343512,-0.431640625,-0.028076171875,-0.2890625,0.6408999999999999
1.4198473282442747,1.3282442748091603,-1.5267175572519085,-0.43017578125,-0.030517578125,-0.286865234375,0.6426
1.3740458015267176,1.450381679389313,-1.450381679389313,-0.42578125,-0.02783203125,-0.284912109375,0.6443
1.2061068702290076,1.4198473282442747,-1.5572519083969465,-0.434814453125,-0.02197265625,-0.283935546875,0.646
1.2671755725190839,1.5267175572519085,-1.633587786259542,-0.429931640625,-0.029052734375,-0.286376953125,0.6476999999999999
1.0229007633587786,1.3587786259541985,-1.5114503816793894,-0.4287109375,-0.029052734375,-0.2841796875,0.6494
1.083969465648855,1.6488549618320612,-1.3893129770992367,-0.4306640625,-0.034423828125,-0.289794921875,0.6511
1.0229007633587786,1.8473282442748091,-1.4809160305343512,-0.4375,-0.02734375,-0.290283203125,0.6527999999999999
1.1145038167938932,1.6641221374045803,-1.465648854961832,-0.4306640625,-0.031494140625,-0.294677734375,0.6545
1.1908396946564885,1.7709923664122138,-1.3129770992366412,-0.43359375,-0.027099609375,-0.285400390625,0.6562
1.0381679389312977,1.7251908396946565,-1.5877862595419847,-0.43505859375,-0.025146484375,-0.2900390625,0.6578999999999999
1.1908396946564885,1.8015267175572518,-1.450381679389313,-0.435791015625,-0.025146484375,-0.283447265625,0.6596
1.1908396946564885,1.6793893129770991,-1.3893129770992367,-0.439697265625,-0.026611328125,-0.28955078125,0.6613
1.297709923664122,1.7709923664122138,-1.633587786259542,-0.435546875,-0.022216796875,-0.29443359375,0.6629999999999999
1.0076335877862594,2.045801526717557,-1.5877862595419847,-0.431884765625,-0.029541015625,-0.28662109375,0.6647
1.0534351145038168,2.1374045801526718,-1.618320610687023,-0.432861328125,-0.024658203125,-0.2880859375,0.6664
1.3435114503816794,1.8015267175572518,-1.5267175572519085,-0.437744140625,-0.025634765625,-0.290283203125,0.6680999999999999
1.1908396946564885,1.9694656488549618,-1.618320610687023,-0.42919921875,-0.0283203125,-0.28662109375,0.6698
1.0229007633587786,2.030534351145038,-1.5572519083969465,-0.43017578125,-0.027099609375,-0.299072265625,0.6715
1.5114503816793894,2.183206106870229,-1.4961832061068703,-0.43017578125,-0.025390625,-0.294921875,0.6731999999999999
1.4809160305343512,2.16793893129771,-1.8625954198473282,-0.436279296875,-0.025634765625,-0.29150390625,0.6748999999999999
1.5114503816793894,2.0916030534351147,-2.0763358778625953,-0.4326171875,-0.02685546875,-0.29248046875,0.6766
1.4198473282442747,2.122137404580153,-1.7709923664122138,-0.428466796875,-0.0244140625,-0.291015625,0.6783
1.5114503816793894,2.1526717557251906,-2.0916030534351147,-0.426025390625,-0.02001953125,-0.29296875,0.6799999999999999
1.7557251908396947,2.122137404580153,-2.015267175572519,-0.432861328125,-0.021484375,-0.294677734375,0.6817
1.5725190839694656,1.8931297709923665,-2.183206106870229,-0.43310546875,-0.021484375,-0.29248046875,0.6834
1.786259541984733,1.8778625954198473,-2.1526717557251906,-0.4296875,-0.026123046875,-0.298583984375,0.6850999999999999
1.8625954198473282,1.7709923664122138,-2.045801526717557,-0.42724609375,-0.03369140625,-0.29345703125,0.6868
1.9083969465648856,1.7557251908396947,-1.8473282442748091,-0.430908203125,-0.0244140625,-0.291748046875,0.6885
1.8473282442748091,1.5725190839694656,-2.16793893129771,-0.431640625,-0.025634765625,-0.297119140625,0.6901999999999999
1.9389312977099236,1.5725190839694656,-2.1068702290076335,-0.428466796875,-0.029052734375,-0.295654296875,0.6919
2.33587786259542,1.4961832061068703,-1.9389312977099236,-0.426513671875,-0.028076171875,-0.294189453125,0.6936
2.16793893129771,1.3740458015267176,-2.0763358778625953,-0.4267578125,-0.02685546875,-0.295654296875,0.6952999999999999
1.9541984732824427,1.2671755725190839,-2.183206106870229,-0.429931640625,-0.02880859375,-0.295166015625,0.697
2.0916030534351147,1.1145038167938932,-2.0,-0.423583984375,-0.0224609375,-0.297119140625,0.6987
2.351145038167939,1.0229007633587786,-2.1526717557251906,-0.427734375,-0.026611328125,-0.289794921875,0.7003999999999999
2.33587786259542,0.9618320610687023,-1.9389312977099236,-0.428466796875,-0.024658203125,-0.290771484375,0.7021
2.2442748091603053,0.9770992366412213,-2.1374045801526718,-0.4306640625,-0.02783203125,-0.28955078125,0.7038
2.3053435114503817,0.9312977099236641,-1.8473282442748091,-0.431640625,-0.025146484375,-0.28857421875,0.7055
2.2442748091603053,1.083969465648855,-2.1526717557251906,-0.428466796875,-0.023681640625,-0.296630859375,0.7071999999999999
2.2290076335877864,1.1603053435114503,-2.045801526717557,-0.430908203125,-0.0244140625,-0.284912109375,0.7089
2.122137404580153,0.9618320610687023,-2.1068702290076335,-0.43115234375,-0.02197265625,-0.2861328125,0.7106
2.1526717557251906,1.0229007633587786,-1.8625954198473282,-0.43603515625,-0.02294921875,-0.293212890625,0.7122999999999999
2.549618320610687,1.099236641221374,-2.366412213740458,-0.433837890625,-0.0283203125,-0.298583984375,0.714
2.183206106870229,0.8091603053435115,-2.122137404580153,-0.4326171875,-0.023681640625,-0.292236328125,0.7157
2.3969465648854964,1.0381679389312977,-2.122137404580153,-0.4296875,-0.023681640625,-0.294189453125,0.7173999999999999
2.33587786259542,1.1145038167938932,-2.2748091603053435,-0.43505859375,-0.0234375,-0.29248046875,0.7191
2.4580152671755724,0.9007633587786259,-2.4732824427480917,-0.433349609375,-0.0224609375,-0.294921875,0.7208
2.687022900763359,0.9312977099236641,-2.351145038167939,-0.432861328125,-0.028564453125,-0.283447265625,0.7224999999999999
2.50381679389313,0.9770992366412213,-2.427480916030534,-0.434814453125,-0.023193359375,-0.2861328125,0.7242
2.8091603053435112,0.8396946564885496,-2.4427480916030535,-0.433349609375,-0.022216796875,-0.300048828125,0.7259
2.900763358778626,1.0687022900763359,-2.763358778625954,-0.43505859375,-0.02685546875,-0.302734375,0.7275999999999999
2.8702290076335877,1.297709923664122,-2.6717557251908395,-0.4384765625,-0.021728515625,-0.290771484375,0.7293
2.931297709923664,1.2061068702290076,-2.8396946564885495,-0.43603515625,-0.025390625,-0.2919921875,0.731
3.2061068702290076,1.465648854961832,-2.854961832061069,-0.437744140625,-0.022216796875,-0.2919921875,0.7326999999999999
3.099236641221374,1.816793893129771,-2.8702290076335877,-0.433349609375,-0.01904296875,-0.2958984375,0.7343999999999999
3.3587786259541983,1.786259541984733,-2.9923664122137406,-0.43701171875,-0.0234375,-0.282958984375,0.7361
3.49618320610687,2.0916030534351147,-3.2519083969465647,-0.430419921875,-0.024169921875,-0.287841796875,0.7378
3.49618320610687,2.183206106870229,-3.099236641221374,-0.43115234375,-0.02392578125,-0.29345703125,0.7394999999999999
3.5267175572519083,2.3053435114503817,-3.2061068702290076,-0.43212890625,-0.0244140625,-0.28662109375,0.7412
3.5114503816793894,2.4122137404580153,-3.3740458015267176,-0.437255859375,-0.023193359375,-0.286376953125,0.7429
3.7404580152671754,2.427480916030534,-3.3893129770992365,-0.430908203125,-0.02392578125,-0.29150390625,0.7445999999999999
3.8625954198473282,2.2748091603053435,-3.145038167938931,-0.43115234375,-0.023681640625,-0.291259765625,0.7463
3.984732824427481,2.366412213740458,-3.2977099236641223,-0.435546875,-0.022705078125,-0.29248046875,0.748
3.8625954198473282,2.427480916030534,-3.2061068702290076,-0.4306640625,-0.025146484375,-0.28564453125,0.7496999999999999
4.030534351145038,2.4122137404580153,-3.435114503816794,-0.4296875,-0.021484375,-0.29296875,0.7514
3.9389312977099236,2.381679389312977,-3.2977099236641223,-0.43017578125,-0.02734375,-0.287109375,0.7531
3.8625954198473282,2.427480916030534,-3.312977099236641,-0.42822265625,-0.02685546875,-0.294189453125,0.7547999999999999
3.969465648854962,2.549618320610687,-3.450381679389313,-0.427001953125,-0.027587890625,-0.287109375,0.7565
3.6946564885496183,2.6259541984732824,-3.3893129770992365,-0.429931640625,-0.025146484375,-0.292724609375,0.7582
3.5114503816793894,2.4427480916030535,-3.572519083969466,-0.426513671875,-0.021728515625,-0.28857421875,0.7598999999999999
3.877862595419847,2.4732824427480917,-3.6793893129770994,-0.429931640625,-0.025146484375,-0.291259765625,0.7615999999999999
4.0,2.4732824427480917,-3.633587786259542,-0.433349609375,-0.029052734375,-0.283447265625,0.7633
3.633587786259542,2.2900763358778624,-3.49618320610687,-0.432373046875,-0.027587890625,-0.290771484375,0.7649999999999999
3.7099236641221376,2.4885496183206106,-3.450381679389313,-0.430908203125,-0.02685546875,-0.28955078125,0.7666999999999999
3.8473282442748094,2.4885496183206106,-3.6946564885496183,-0.4267578125,-0.031005859375,-0.28955078125,0.7684
3.6793893129770994,2.4122137404580153,-3.66412213740458,-0.4306640625,-0.026611328125,-0.282470703125,0.7701
3.5572519083969465,2.3206106870229006,-3.4656488549618323,-0.431396484375,-0.025146484375,-0.2919921875,0.7717999999999999
3.633587786259542,2.6564885496183206,-3.6030534351145036,-0.431884765625,-0.0244140625,-0.301025390625,0.7735
3.633587786259542,2.732824427480916,-3.6793893129770994,-0.429931640625,-0.029052734375,-0.288330078125,0.7752
3.7557251908396947,2.595419847328244,-3.572519083969466,-0.42919921875,-0.02783203125,-0.288818359375,0.7768999999999999
3.7709923664122136,2.687022900763359,-3.5114503816793894,-0.429931640625,-0.0322265625,-0.284912109375,0.7786
3.633587786259542,2.8244274809160306,-3.618320610687023,-0.4228515625,-0.031982421875,-0.285400390625,0.7803
3.5114503816793894,2.8091603053435112,-3.480916030534351,-0.428466796875,-0.03662109375,-0.28759765625,0.7819999999999999
3.648854961832061,2.7022900763358777,-3.480916030534351,-0.426025390625,-0.0322265625,-0.2880859375,0.7837
3.66412213740458,2.8091603053435112,-3.618320610687023,-0.434326171875,-0.031982421875,-0.285888671875,0.7854
3.83206106870229,2.763358778625954,-3.5877862595419847,-0.430419921875,-0.0263671875,-0.2861328125,0.7870999999999999
3.648854961832061,2.595419847328244,-3.5114503816793894,-0.426513671875,-0.02685546875,-0.286865234375,0.7888
3.3740458015267176,2.7480916030534353,-3.4656488549618323,-0.42822265625,-0.0341796875,-0.285400390625,0.7905
3.49618320610687,2.50381679389313,-3.450381679389313,-0.423583984375,-0.0283203125,-0.28759765625,0.7921999999999999
3.6030534351145036,2.6717557251908395,-3.6030534351145036,-0.431640625,-0.0302734375,-0.293212890625,0.7938999999999999
3.236641221374046,2.885496183206107,-3.404580152671756,-0.432861328125,-0.033447265625,-0.28857421875,0.7956
3.2977099236641223,2.763358778625954,-3.480916030534351,-0.42919921875,-0.032958984375,-0.287109375,0.7973
3.2977099236641223,2.6412213740458017,-3.480916030534351,-0.432373046875,-0.0322265625,-0.2841796875,0.7989999999999999
3.1603053435114505,2.7022900763358777,-3.3282442748091605,-0.431396484375,-0.02978515625,-0.28466796875,0.8007
3.2519083969465647,2.732824427480916,-3.145038167938931,-0.433349609375,-0.03125,-0.281005859375,0.8024
3.053435114503817,2.854961832061069,-3.1908396946564888,-0.427978515625,-0.025634765625,-0.287353515625,0.8040999999999999
3.0229007633587788,3.0076335877862594,-3.1603053435114505,-0.43017578125,-0.029296875,-0.289794921875,0.8058
3.068702290076336,2.9160305343511452,-3.2061068702290076,-0.424072265625,-0.02783203125,-0.280029296875,0.8075
2.8702290076335877,2.8091603053435112,-3.236641221374046,-0.429443359375,-0.03466796875,-0.285400390625,0.8091999999999999
2.6259541984732824,2.8244274809160306,-3.1755725190839694,-0.4296875,-0.028564453125,-0.285888671875,0.8109
2.9618320610687023,2.900763358778626,-3.1297709923664123,-0.43115234375,-0.029296875,-0.2900390625,0.8126
2.854961832061069,2.9618320610687023,-3.2061068702290076,-0.42919921875,-0.031494140625,-0.29248046875,0.8142999999999999
2.7938931297709924,2.854961832061069,-3.0076335877862594,-0.429443359375,-0.031982421875,-0.284423828125,0.816
2.8244274809160306,2.9923664122137406,-2.946564885496183,-0.4326171875,-0.03564453125,-0.287109375,0.8177
2.7786259541984735,3.1603053435114505,-2.885496183206107,-0.427734375,-0.031494140625,-0.281005859375,0.8193999999999999
2.6717557251908395,3.0076335877862594,-3.1297709923664123,-0.4267578125,-0.03271484375,-0.290283203125,0.8210999999999999
2.7786259541984735,2.8702290076335877,-2.885496183206107,-0.431884765625,-0.0341796875,-0.290283203125,0.8228
2.7480916030534353,3.0229007633587788,-3.145038167938931,-0.4267578125,-0.029296875,-0.279541015625,0.8244999999999999
2.763358778625954,2.9770992366412212,-2.900763358778626,-0.4345703125,-0.030029296875,-0.294189453125,0.8261999999999999
2.6412213740458017,3.1755725190839694,-2.900763358778626,-0.427734375,-0.029296875,-0.2861328125,0.8279
2.50381679389313,2.900763358778626,-2.8702290076335877,-0.434326171875,-0.03125,-0.294677734375,0.8296
2.687022900763359,2.8396946564885495,-3.068702290076336,-0.4296875,-0.026123046875,-0.288818359375,0.8312999999999999
2.6412213740458017,2.7938931297709924,-3.0229007633587788,-0.422607421875,-0.0361328125,-0.293212890625,0.833
2.6106870229007635,2.8244274809160306,-3.053435114503817,-0.427978515625,-0.03564453125,-0.29248046875,0.8347
2.4732824427480917,2.6564885496183206,-2.9160305343511452,-0.43212890625,-0.0341796875,-0.281982421875,0.8363999999999999
2.6412213740458017,2.7022900763358777,-3.0839694656488548,-0.43212890625,-0.035400390625,-0.2900390625,0.8381
2.564885496183206,2.687022900763359,-2.931297709923664,-0.43115234375,-0.03515625,-0.282470703125,0.8398
2.763358778625954,2.6717557251908395,-3.0229007633587788,-0.4306640625,-0.033935546875,-0.292236328125,0.8414999999999999
2.6259541984732824,2.6564885496183206,-2.8396946564885495,-0.42724609375,-0.03076171875,-0.28955078125,0.8432
2.427480916030534,2.4732824427480917,-2.9160305343511452,-0.427490234375,-0.0341796875,-0.2880859375,0.8449
2.5343511450381677,2.4732824427480917,-2.8244274809160306,-0.421142578125,-0.034912109375,-0.296142578125,0.8465999999999999
2.519083969465649,2.6717557251908395,-2.8244274809160306,-0.429931640625,-0.028564453125,-0.296142578125,0.8482999999999999
2.6106870229007635,2.6106870229007635,-2.549618320610687,-0.423095703125,-0.034912109375,-0.286865234375,0.85
2.6564885496183206,2.6412213740458017,-2.6106870229007635,-0.4267578125,-0.034912109375,-0.294189453125,0.8516999999999999
2.595419847328244,2.351145038167939,-2.4885496183206106,-0.42431640625,-0.03369140625,-0.284912109375,0.8533999999999999
2.3969465648854964,2.351145038167939,-2.6717557251908395,-0.429931640625,-0.03173828125,-0.28564453125,0.8551
2.381679389312977,2.5801526717557253,-2.763358778625954,-0.43017578125,-0.03173828125,-0.27978515625,0.8568
2.381679389312977,2.351145038167939,-2.6259541984732824,-0.427490234375,-0.031494140625,-0.299072265625,0.8584999999999999
2.2748091603053435,2.427480916030534,-2.5801526717557253,-0.428466796875,-0.02783203125,-0.289794921875,0.8602
2.030534351145038,2.4427480916030535,-2.427480916030534,-0.4267578125,-0.02978515625,-0.28857421875,0.8619
2.2595419847328246,2.564885496183206,-2.50381679389313,-0.428955078125,-0.029541015625,-0.28466796875,0.8635999999999999
2.1526717557251906,2.351145038167939,-2.6564885496183206,-0.428955078125,-0.03125,-0.2919921875,0.8653
2.2900763358778624,2.2900763358778624,-2.595419847328244,-0.423583984375,-0.031982421875,-0.29541015625,0.867
2.0763358778625953,2.4122137404580153,-2.3206106870229006,-0.42578125,-0.03076171875,-0.293212890625,0.8686999999999999
2.0763358778625953,2.50381679389313,-2.183206106870229,-0.425537109375,-0.038818359375,-0.285400390625,0.8704
2.183206106870229,2.213740458015267,-2.2748091603053435,-0.43212890625,-0.034912109375,-0.2900390625,0.8721
2.183206106870229,2.366412213740458,-2.198473282442748,-0.42919921875,-0.03173828125,-0.285888671875,0.8737999999999999
1.7557251908396947,2.381679389312977,-2.183206106870229,-0.424560546875,-0.029541015625,-0.294189453125,0.8755
1.9541984732824427,2.2900763358778624,-2.2595419847328246,-0.4296875,-0.0224609375,-0.29296875,0.8772
1.8015267175572518,2.2900763358778624,-2.427480916030534,-0.4345703125,-0.03271484375,-0.29736328125,0.8788999999999999
1.816793893129771,2.33587786259542,-2.4122137404580153,-0.423095703125,-0.029541015625,-0.28857421875,0.8805999999999999
1.7557251908396947,2.1374045801526718,-2.213740458015267,-0.43017578125,-0.039794921875,-0.296875,0.8823
1.8931297709923665,2.015267175572519,-2.198473282442748,-0.430419921875,-0.033935546875,-0.296875,0.8839999999999999
1.8625954198473282,2.213740458015267,-2.2442748091603053,-0.427978515625,-0.03466796875,-0.28564453125,0.8856999999999999
1.7557251908396947,2.0,-2.2595419847328246,-0.42431640625,-0.031982421875,-0.2900390625,0.8874
1.633587786259542,2.045801526717557,-2.183206106870229,-0.427001953125,-0.02587890625,-0.293701171875,0.8891
1.7557251908396947,2.030534351145038,-2.2748091603053435,-0.42529296875,-0.03125,-0.289794921875,0.8907999999999999
1.7404580152671756,1.9236641221374047,-2.0916030534351147,-0.42529296875,-0.029052734375,-0.28955078125,0.8925
1.7709923664122138,1.8473282442748091,-2.0,-0.425537109375,-0.03564453125,-0.287353515625,0.8942
1.6488549618320612,1.9083969465648856,-2.213740458015267,-0.428466796875,-0.03271484375,-0.2919921875,0.8958999999999999
1.6488549618320612,1.9083969465648856,-2.198473282442748,-0.427978515625,-0.02685546875,-0.29296875,0.8976
1.7557251908396947,1.6793893129770991,-1.8931297709923665,-0.42578125,-0.028076171875,-0.29345703125,0.8993
1.7709923664122138,1.6793893129770991,-2.0916030534351147,-0.431640625,-0.03515625,-0.29736328125,0.9009999999999999
1.6946564885496183,1.4961832061068703,-1.9083969465648856,-0.42626953125,-0.031982421875,-0.28076171875,0.9027
1.7557251908396947,1.4809160305343512,-2.015267175572519,-0.426025390625,-0.031494140625,-0.2890625,0.9044
1.8625954198473282,1.465648854961832,-1.7709923664122138,-0.424072265625,-0.030029296875,-0.294189453125,0.9060999999999999
1.5877862595419847,1.3282442748091603,-1.7251908396946565,-0.424560546875,-0.03369140625,-0.28564453125,0.9077999999999999
1.8625954198473282,1.2213740458015268,-1.8473282442748091,-0.42626953125,-0.037353515625,-0.2958984375,0.9095
1.6946564885496183,1.4045801526717556,-1.8778625954198473,-0.42919921875,-0.036376953125,-0.2890625,0.9111999999999999
1.6488549618320612,1.4045801526717556,-1.7099236641221374,-0.427734375,-0.037109375,-0.2880859375,0.9128999999999999
1.5419847328244274,1.2061068702290076,-1.7709923664122138,-0.42529296875,-0.030517578125,-0.29296875,0.9146
1.7404580152671756,1.2061068702290076,-1.786259541984733,-0.427978515625,-0.03466796875,-0.294189453125,0.9163
1.6488549618320612,1.3282442748091603,-1.465648854961832,-0.4248046875,-0.033203125,-0.292236328125,0.9179999999999999
1.8473282442748091,1.3129770992366412,-1.5877862595419847,-0.4267578125,-0.03125,-0.2919921875,0.9197
1.633587786259542,1.099236641221374,-1.5572519083969465,-0.43359375,-0.033447265625,-0.2919921875,0.9214
1.5572519083969465,1.0229007633587786,-1.5267175572519085,-0.43115234375,-0.03564453125,-0.291748046875,0.9230999999999999
1.450381679389313,1.083969465648855,-1.5877862595419847,-0.431396484375,-0.03466796875,-0.28955078125,0.9248
1.5267175572519085,1.1755725190839694,-1.3435114503816794,-0.42578125,-0.032470703125,-0.287353515625,0.9265
1.7557251908396947,1.083969465648855,-1.3435114503816794,-0.428466796875,-0.033203125,-0.28564453125,0.9281999999999999
1.5877862595419847,0.8854961832061069,-1.3282442748091603,-0.42822265625,-0.03271484375,-0.294921875,0.9299
1.3740458015267176,0.7938931297709924,-1.3740458015267176,-0.426025390625,-0.03125,-0.296630859375,0.9316
1.450381679389313,0.7022900763358778,-1.5572519083969465,-0.423583984375,-0.030517578125,-0.294189453125,0.9332999999999999
1.4809160305343512,0.7938931297709924,-1.3740458015267176,-0.428466796875,-0.030029296875,-0.28759765625,0.9349999999999999
1.5725190839694656,0.7633587786259542,-1.0534351145038168,-0.4326171875,-0.03125,-0.291015625,0.9367
1.3740458015267176,0.8702290076335878,-1.4351145038167938,-0.431396484375,-0.029052734375,-0.294677734375,0.9383999999999999
1.3893129770992367,0.8854961832061069,-1.2366412213740459,-0.427978515625,-0.031005859375,-0.29443359375,0.9400999999999999
1.3282442748091603,0.7938931297709924,-1.2061068702290076,-0.427978515625,-0.039306640625,-0.30029296875,0.9418
1.4809160305343512,0.9923664122137404,-1.1603053435114503,-0.4296875,-0.0380859375,-0.2958984375,0.9434999999999999
1.3587786259541985,0.7938931297709924,-1.1755725190839694,-0.4287109375,-0.035888671875,-0.291748046875,0.9451999999999999
1.3435114503816794,0.7480916030534351,-1.0381679389312977,-0.428466796875,-0.0322265625,-0.288330078125,0.9469
1.3435114503816794,0.8396946564885496,-1.1908396946564885,-0.4267578125,-0.034423828125,-0.294677734375,0.9486
1.282442748091603,0.8549618320610687,-1.1145038167938932,-0.42236328125,-0.03515625,-0.293701171875,0.9502999999999999
1.3282442748091603,0.8702290076335878,-1.0687022900763359,-0.42431640625,-0.037109375,-0.2880859375,0.952
1.3587786259541985,0.6717557251908397,-1.0687022900763359,-0.4248046875,-0.032470703125,-0.294189453125,0.9537
1.3740458015267176,0.6717557251908397,-1.0381679389312977,-0.427001953125,-0.0322265625,-0.285888671875,0.9553999999999999
1.251908396946565,0.7938931297709924,-0.8854961832061069,-0.4296875,-0.02978515625,-0.291015625,0.9571
1.2671755725190839,0.5801526717557252,-1.0076335877862594,-0.430908203125,-0.030517578125,-0.293212890625,0.9588
1.282442748091603,0.732824427480916,-0.732824427480916,-0.426025390625,-0.031005859375,-0.28955078125,0.9604999999999999
1.2213740458015268,0.5954198473282443,-1.0534351145038168,-0.42529296875,-0.02978515625,-0.28955078125,0.9621999999999999
1.0076335877862594,0.5038167938931297,-1.1145038167938932,-0.426513671875,-0.029052734375,-0.28857421875,0.9639
1.251908396946565,0.44274809160305345,-1.0381679389312977,-0.4267578125,-0.036376953125,-0.2958984375,0.9655999999999999
1.0687022900763359,0.549618320610687,-0.7938931297709924,-0.431884765625,-0.030517578125,-0.2958984375,0.9672999999999999
1.1450381679389312,0.5038167938931297,-0.916030534351145,-0.431396484375,-0.032470703125,-0.289794921875,0.969
1.251908396946565,0.5190839694656488,-0.9618320610687023,-0.4326171875,-0.03369140625,-0.29296875,0.9706999999999999
1.0687022900763359,0.6259541984732825,-1.1297709923664123,-0.431884765625,-0.03076171875,-0.292724609375,0.9723999999999999
1.0229007633587786,0.7022900763358778,-1.0687022900763359,-0.431396484375,-0.0341796875,-0.2841796875,0.9741
1.099236641221374,0.7022900763358778,-1.2061068702290076,-0.429443359375,-0.03076171875,-0.289794921875,0.9758
1.1450381679389312,0.7022900763358778,-0.9923664122137404,-0.431884765625,-0.035888671875,-0.284912109375,0.9774999999999999
1.1755725190839694,0.7175572519083969,-1.251908396946565,-0.430908203125,-0.0322265625,-0.286865234375,0.9792
1.1908396946564885,0.732824427480916,-1.0381679389312977,-0.43359375,-0.03369140625,-0.284423828125,0.9809
1.1755725190839694,0.9770992366412213,-1.3435114503816794,-0.4267578125,-0.0341796875,-0.2939453125,0.9825999999999999
1.0381679389312977,1.0229007633587786,-1.083969465648855,-0.432861328125,-0.033935546875,-0.28759765625,0.9843
0.9923664122137404,0.9312977099236641,-1.2366412213740459,-0.43408203125,-0.03515625,-0.28759765625,0.986
1.3587786259541985,1.083969465648855,-1.3129770992366412,-0.427734375,-0.033935546875,-0.29150390625,0.9876999999999999
1.0229007633587786,0.9312977099236641,-1.4045801526717556,-0.427978515625,-0.027099609375,-0.29833984375,0.9894
0.8091603053435115,1.0381679389312977,-1.4045801526717556,-0.432861328125,-0.034912109375,-0.297607421875,0.9911
1.099236641221374,1.251908396946565,-1.4045801526717556,-0.427490234375,-0.036376953125,-0.290771484375,0.9927999999999999
1.1908396946564885,1.2213740458015268,-1.297709923664122,-0.4296875,-0.03173828125,-0.282470703125,0.9944999999999999
1.2671755725190839,1.1908396946564885,-1.3282442748091603,-0.43603515625,-0.03125,-0.284912109375,0.9962
1.0381679389312977,1.282442748091603,-1.3893129770992367,-0.4326171875,-0.0380859375,-0.28271484375,0.9978999999999999
0.9770992366412213,1.2213740458015268,-1.3893129770992367,-0.427734375,-0.032470703125,-0.289306640625,0.9995999999999999
1.1450381679389312,1.1145038167938932,-1.3282442748091603,-0.4296875,-0.03515625,-0.288330078125,1.0012999999999999
0.8854961832061069,1.297709923664122,-1.5877862595419847,-0.43701171875,-0.025634765625,-0.287841796875,1.003
1.0534351145038168,1.4045801526717556,-1.4961832061068703,-0.433349609375,-0.03125,-0.287353515625,1.0047
1.0687022900763359,1.618320610687023,-1.3740458015267176,-0.431640625,-0.03369140625,-0.286865234375,1.0064
1.1755725190839694,1.5877862595419847,-1.3129770992366412,-0.4306640625,-0.032470703125,-0.28466796875,1.0081
0.732824427480916,1.4961832061068703,-1.450381679389313,-0.429931640625,-0.027587890625,-0.294677734375,1.0098
1.0076335877862594,1.5267175572519085,-1.7557251908396947,-0.43115234375,-0.034423828125,-0.2861328125,1.0114999999999998
0.9770992366412213,1.8015267175572518,-1.4198473282442747,-0.431396484375,-0.0361328125,-0.2880859375,1.0131999999999999
0.8091603053435115,1.6488549618320612,-1.3740458015267176,-0.429931640625,-0.03955078125,-0.28125,1.0149
0.8702290076335878,1.5877862595419847,-1.4045801526717556,-0.43212890625,-0.03466796875,-0.298095703125,1.0166
0.6717557251908397,1.6641221374045803,-1.5267175572519085,-0.431396484375,-0.032470703125,-0.28857421875,1.0183
0.7938931297709924,1.633587786259542,-1.450381679389313,-0.432373046875,-0.0322265625,-0.29296875,1.02
0.7022900763358778,1.5267175572519085,-1.4351145038167938,-0.43115234375,-0.037109375,-0.290283203125,1.0217
0.6870229007633588,1.816793893129771,-1.4351145038167938,-0.43603515625,-0.034423828125,-0.297119140625,1.0233999999999999
0.48854961832061067,1.984732824427481,-1.4045801526717556,-0.42724609375,-0.035888671875,-0.29296875,1.0251
0.6870229007633588,1.83206106870229,-1.465648854961832,-0.43408203125,-0.029052734375,-0.291015625,1.0268
0.7175572519083969,1.9389312977099236,-1.5419847328244274,-0.43115234375,-0.035888671875,-0.2939453125,1.0285
0.6717557251908397,1.9389312977099236,-1.4809160305343512,-0.43212890625,-0.038330078125,-0.284423828125,1.0302
0.48854961832061067,2.1374045801526718,-1.5725190839694656,-0.4296875,-0.03466796875,-0.29052734375,1.0319
0.6259541984732825,2.16793893129771,-1.5419847328244274,-0.427001953125,-0.034423828125,-0.289794921875,1.0335999999999999
0.5801526717557252,1.9541984732824427,-1.297709923664122,-0.427734375,-0.0400390625,-0.292724609375,1.0352999999999999
0.5190839694656488,2.030534351145038,-1.282442748091603,-0.430908203125,-0.033447265625,-0.286865234375,1.037
0.5038167938931297,2.0,-1.4045801526717556,-0.425537109375,-0.037353515625,-0.298095703125,1.0387
0.366412213740458,2.1526717557251906,-1.4198473282442747,-0.43115234375,-0.03759765625,-0.2890625,1.0404
0.3816793893129771,2.1068702290076335,-1.450381679389313,-0.43408203125,-0.028564453125,-0.2919921875,1.0421
0.33587786259541985,2.0916030534351147,-1.2366412213740459,-0.428466796875,-0.033935546875,-0.29248046875,1.0437999999999998
0.24427480916030533,2.0763358778625953,-1.4198473282442747,-0.42822265625,-0.034912109375,-0.294921875,1.0454999999999999
0.42748091603053434,2.0763358778625953,-1.3893129770992367,-0.43212890625,-0.036376953125,-0.29345703125,1.0472
0.4732824427480916,2.045801526717557,-1.3587786259541985,-0.428955078125,-0.032470703125,-0.291748046875,1.0489
0.42748091603053434,1.9389312977099236,-1.282442748091603,-0.43212890625,-0.0380859375,-0.297119140625,1.0506
0.4580152671755725,1.8778625954198473,-1.2213740458015268,-0.43408203125,-0.03857421875,-0.294189453125,1.0523
0.3053435114503817,1.984732824427481,-1.1908396946564885,-0.42724609375,-0.02978515625,-0.294921875,1.054
0.5801526717557252,2.045801526717557,-1.2061068702290076,-0.433349609375,-0.03076171875,-0.291015625,1.0556999999999999
0.44274809160305345,1.9236641221374047,-1.2366412213740459,-0.4296875,-0.033203125,-0.28564453125,1.0574
0.33587786259541985,1.8778625954198473,-1.1755725190839694,-0.43212890625,-0.029296875,-0.295654296875,1.0591
0.3511450381679389,1.9236641221374047,-1.3435114503816794,-0.430908203125,-0.02880859375,-0.29150390625,1.0608
0.6106870229007634,2.0,-1.1603053435114503,-0.428466796875,-0.03173828125,-0.29296875,1.0625
0.8396946564885496,1.8931297709923665,-1.2213740458015268,-0.43017578125,-0.033447265625,-0.293701171875,1.0642
0.5954198473282443,1.7404580152671756,-1.2366412213740459,-0.429931640625,-0.029296875,-0.291015625,1.0658999999999998
0.6412213740458015,1.8015267175572518,-1.0381679389312977,-0.4306640625,-0.029052734375,-0.296630859375,1.0675999999999999
0.48854961832061067,1.8015267175572518,-1.099236641221374,-0.43310546875,-0.02685546875,-0.295166015625,1.0693
0.5954198473282443,1.9389312977099236,-1.0076335877862594,-0.4306640625,-0.031494140625,-0.29248046875,1.071
0.6412213740458015,1.83206106870229,-1.1603053435114503,-0.424560546875,-0.02587890625,-0.30126953125,1.0727
0.7175572519083969,1.8931297709923665,-1.1603053435114503,-0.42822265625,-0.02978515625,-0.297607421875,1.0744
0.6717557251908397,1.9236641221374047,-1.450381679389313,-0.427490234375,-0.0283203125,-0.292236328125,1.0760999999999998
0.8396946564885496,1.9694656488549618,-1.0687022900763359,-0.431884765625,-0.03125,-0.28857421875,1.0777999999999999
0.732824427480916,1.786259541984733,-1.2061068702290076,-0.427490234375,-0.030029296875,-0.284423828125,1.0795
0.7938931297709924,1.8015267175572518,-1.1908396946564885,-0.4306640625,-0.0341796875,-0.28564453125,1.0812
0.8091603053435115,1.816793893129771,-1.1145038167938932,-0.426513671875,-0.035400390625,-0.291259765625,1.0829
0.916030534351145,1.9083969465648856,-1.0534351145038168,-0.42919921875,-0.032958984375,-0.2880859375,1.0846
0.8549618320610687,1.7709923664122138,-1.2213740458015268,-0.427734375,-0.0341796875,-0.292236328125,1.0863
0.8091603053435115,1.8778625954198473,-1.099236641221374,-0.42919921875,-0.03662109375,-0.28564453125,1.0879999999999999
0.7633587786259542,1.9236641221374047,-1.1755725190839694,-0.426025390625,-0.03271484375,-0.2958984375,1.0897
0.916030534351145,2.015267175572519,-0.9312977099236641,-0.430419921875,-0.03564453125,-0.296875,1.0914
1.0687022900763359,2.0763358778625953,-0.9465648854961832,-0.433837890625,-0.0302734375,-0.295166015625,1.0931
0.9618320610687023,2.1374045801526718,-1.099236641221374,-0.432373046875,-0.03515625,-0.290283203125,1.0948
0.9312977099236641,1.984732824427481,-1.3282442748091603,-0.42822265625,-0.026123046875,-0.295166015625,1.0965
0.9770992366412213,2.16793893129771,-0.9618320610687023,-0.433349609375,-0.028564453125,-0.2900390625,1.0981999999999998
0.916030534351145,2.122137404580153,-1.1297709923664123,-0.43359375,-0.03173828125,-0.290771484375,1.0998999999999999
0.8091603053435115,1.9389312977099236,-1.0076335877862594,-0.433837890625,-0.033935546875,-0.2919921875,1.1016
1.0076335877862594,2.1374045801526718,-1.1145038167938932,-0.432861328125,-0.03125,-0.294921875,1.1033
1.083969465648855,2.213740458015267,-1.1450381679389312,-0.428955078125,-0.0341796875,-0.290283203125,1.105
0.7938931297709924,1.984732824427481,-1.1297709923664123,-0.43115234375,-0.03271484375,-0.2939453125,1.1067
0.8702290076335878,2.015267175572519,-1.0076335877862594,-0.43017578125,-0.029052734375,-0.29052734375,1.1083999999999998
0.9312977099236641,2.1374045801526718,-1.1450381679389312,-0.42919921875,-0.03515625,-0.2958984375,1.1100999999999999
1.0076335877862594,1.984732824427481,-0.8396946564885496,-0.42919921875,-0.037109375,-0.286376953125,1.1118
1.0229007633587786,2.2290076335877864,-1.0687022900763359,-0.428466796875,-0.03515625,-0.2890625,1.1135
0.9312977099236641,1.83206106870229,-1.083969465648855,-0.4296875,-0.0322265625,-0.298095703125,1.1152
0.916030534351145,1.9541984732824427,-1.0381679389312977,-0.432373046875,-0.033447265625,-0.292236328125,1.1169
1.2061068702290076,2.213740458015267,-0.8549618320610687,-0.430419921875,-0.031005859375,-0.291748046875,1.1186
1.2061068702290076,2.2290076335877864,-1.1145038167938932,-0.426513671875,-0.031005859375,-0.29150390625,1.1202999999999999
1.0687022900763359,2.1526717557251906,-1.0381679389312977,-0.4296875,-0.034423828125,-0.29150390625,1.1219999999999999
0.7786259541984732,2.183206106870229,-0.9618320610687023,-0.4306640625,-0.030029296875,-0.29296875,1.1237
0.9312977099236641,2.183206106870229,-0.9923664122137404,-0.427490234375,-0.028076171875,-0.295654296875,1.1254
1.0687022900763359,2.1068702290076335,-0.9618320610687023,-0.427001953125,-0.03173828125,-0.296875,1.1271
1.099236641221374,2.0610687022900764,-1.1145038167938932,-0.428955078125,-0.03271484375,-0.291259765625,1.1288
0.9770992366412213,2.183206106870229,-1.0687022900763359,-0.424072265625,-0.03369140625,-0.29443359375,1.1304999999999998
0.8854961832061069,2.16793893129771,-1.0534351145038168,-0.430419921875,-0.034912109375,-0.29248046875,1.1321999999999999
1.099236641221374,2.0916030534351147,-1.1145038167938932,-0.429443359375,-0.032470703125,-0.295166015625,1.1339
1.1755725190839694,2.030534351145038,-1.1145038167938932,-0.427734375,-0.032470703125,-0.29443359375,1.1356
0.9465648854961832,2.213740458015267,-1.083969465648855,-0.43212890625,-0.02783203125,-0.29638671875,1.1373
0.9007633587786259,1.83206106870229,-0.9770992366412213,-0.42529296875,-0.028564453125,-0.290283203125,1.139
1.0534351145038168,1.9083969465648856,-1.0381679389312977,-0.426513671875,-0.0361328125,-0.2998046875,1.1407
0.8854961832061069,1.9694656488549618,-0.9923664122137404,-0.426513671875,-0.03564453125,-0.300537109375,1.1423999999999999
0.8396946564885496,1.9083969465648856,-1.2366412213740459,-0.4296875,-0.03662109375,-0.287841796875,1.1441
0.9618320610687023,1.6488549618320612,-1.1755725190839694,-0.426513671875,-0.02587890625,-0.288818359375,1.1458
1.0229007633587786,1.786259541984733,-1.0229007633587786,-0.43017578125,-0.03173828125,-0.294677734375,1.1475
0.9312977099236641,1.8015267175572518,-1.0381679389312977,-0.42529296875,-0.0283203125,-0.298095703125,1.1492
0.916030534351145,1.7404580152671756,-1.1297709923664123,-0.4306640625,-0.034423828125,-0.29345703125,1.1509
1.1755725190839694,1.8015267175572518,-1.251908396946565,-0.42822265625,-0.037109375,-0.295654296875,1.1525999999999998
1.0076335877862594,1.6946564885496183,-1.1145038167938932,-0.42822265625,-0.032958984375,-0.29150390625,1.1542999999999999
1.0229007633587786,1.5419847328244274,-1.3129770992366412,-0.423583984375,-0.030517578125,-0.2890625,1.156
0.8396946564885496,1.5114503816793894,-1.3740458015267176,-0.42529296875,-0.027099609375,-0.29736328125,1.1577
0.9312977099236641,1.6641221374045803,-1.0229007633587786,-0.424072265625,-0.029541015625,-0.29296875,1.1594
0.8854961832061069,1.5877862595419847,-1.1297709923664123,-0.43408203125,-0.0302734375,-0.2958984375,1.1611
0.8854961832061069,1.5267175572519085,-1.3740458015267176,-0.4326171875,-0.03662109375,-0.29296875,1.1627999999999998
0.8244274809160306,1.5114503816793894,-1.251908396946565,-0.4287109375,-0.034912109375,-0.2890625,1.1644999999999999
0.8549618320610687,1.5267175572519085,-1.2671755725190839,-0.427978515625,-0.032470703125,-0.2939453125,1.1662
1.099236641221374,1.8015267175572518,-1.3435114503816794,-0.427490234375,-0.033447265625,-0.283447265625,1.1679
0.8702290076335878,1.5572519083969465,-1.3893129770992367,-0.427734375,-0.031005859375,-0.275634765625,1.1696
0.916030534351145,1.5114503816793894,-1.2213740458015268,-0.427490234375,-0.0341796875,-0.2890625,1.1713
0.7938931297709924,1.4961832061068703,-1.4045801526717556,-0.431640625,-0.03662109375,-0.301025390625,1.173
0.7938931297709924,1.6030534351145038,-1.3129770992366412,-0.425537109375,-0.03466796875,-0.2998046875,1.1746999999999999
0.9007633587786259,1.8931297709923665,-1.2366412213740459,-0.427734375,-0.042236328125,-0.290771484375,1.1764
0.8396946564885496,1.6641221374045803,-1.1908396946564885,-0.426513671875,-0.03271484375,-0.28759765625,1.1781
0.8396946564885496,1.6793893129770991,-1.282442748091603,-0.430419921875,-0.02978515625,-0.29296875,1.1798
0.6717557251908397,1.816793893129771,-1.3587786259541985,-0.43310546875,-0.032958984375,-0.29345703125,1.1815
0.4732824427480916,1.7251908396946565,-1.3435114503816794,-0.43017578125,-0.032958984375,-0.295654296875,1.1832
0.6717557251908397,1.465648854961832,-1.2213740458015268,-0.427978515625,-0.0341796875,-0.2900390625,1.1848999999999998
0.5648854961832062,1.6488549618320612,-1.251908396946565,-0.4267578125,-0.0380859375,-0.29052734375,1.1865999999999999
0.7022900763358778,1.6946564885496183,-1.1908396946564885,-0.42919921875,-0.0263671875,-0.29345703125,1.1883
0.549618320610687,1.6030534351145038,-1.2671755725190839,-0.429931640625,-0.037841796875,-0.29541015625,1.19
0.5648854961832062,1.4961832061068703,-1.251908396946565,-0.4287109375,-0.03759765625,-0.29296875,1.1917
0.6870229007633588,1.4809160305343512,-1.465648854961832,-0.431640625,-0.02880859375,-0.296875,1.1934
0.5190839694656488,1.5114503816793894,-1.3587786259541985,-0.42626953125,-0.032470703125,-0.294677734375,1.1950999999999998
0.5954198473282443,1.5419847328244274,-1.1755725190839694,-0.424560546875,-0.039306640625,-0.294189453125,1.1967999999999999
0.5648854961832062,1.2671755725190839,-1.083969465648855,-0.430419921875,-0.037109375,-0.29638671875,1.1985
0.5801526717557252,1.297709923664122,-1.251908396946565,-0.43017578125,-0.03564453125,-0.279296875,1.2002
0.3816793893129771,1.3740458015267176,-1.0381679389312977,-0.423095703125,-0.033203125,-0.290771484375,1.2019
0.4580152671755725,1.4045801526717556,-1.2671755725190839,-0.423828125,-0.02685546875,-0.28662109375,1.2036
0.3511450381679389,1.4351145038167938,-1.282442748091603,-0.42919921875,-0.0302734375,-0.290283203125,1.2053
0.5038167938931297,1.4198473282442747,-1.3435114503816794,-0.4267578125,-0.03466796875,-0.2822265625,1.2069999999999999
0.5954198473282443,1.3129770992366412,-1.2671755725190839,-0.419921875,-0.034912109375,-0.289306640625,1.2086999999999999
0.24427480916030533,1.3893129770992367,-1.2671755725190839,-0.4248046875,-0.03271484375,-0.29345703125,1.2104
0.24427480916030533,1.465648854961832,-1.2671755725190839,-0.42724609375,-0.031494140625,-0.289794921875,1.2121
0.16793893129770993,1.5114503816793894,-1.2366412213740459,-0.428466796875,-0.029541015625,-0.29296875,1.2138
0.5954198473282443,1.3282442748091603,-1.251908396946565,-0.42724609375,-0.034912109375,-0.302734375,1.2155
0.33587786259541985,1.297709923664122,-1.2366412213740459,-0.43017578125,-0.03466796875,-0.292724609375,1.2171999999999998
0.10687022900763359,1.251908396946565,-1.1908396946564885,-0.436767578125,-0.03076171875,-0.28857421875,1.2188999999999999
0.3053435114503817,1.2061068702290076,-1.4351145038167938,-0.431396484375,-0.029541015625,-0.288818359375,1.2206
0.183206106870229,1.1755725190839694,-1.297709923664122,-0.427001953125,-0.033203125,-0.291259765625,1.2223
0.183206106870229,1.3435114503816794,-1.083969465648855,-0.427734375,-0.034912109375,-0.29150390625,1.224
0.15267175572519084,1.3740458015267176,-1.1908396946564885,-0.427001953125,-0.033447265625,-0.294921875,1.2257
0.5954198473282443,1.282442748091603,-1.3740458015267176,-0.42822265625,-0.034912109375,-0.29443359375,1.2273999999999998
0.24427480916030533,1.3435114503816794,-1.1450381679389312,-0.427490234375,-0.034423828125,-0.28466796875,1.2290999999999999
0.1984732824427481,1.0381679389312977,-1.2366412213740459,-0.43115234375,-0.031494140625,-0.2890625,1.2308
0.3511450381679389,1.0534351145038168,-1.1297709923664123,-0.426513671875,-0.0302734375,-0.294677734375,1.2325
0.3053435114503817,0.9007633587786259,-1.1755725190839694,-0.42724609375,-0.03271484375,-0.2841796875,1.2342
0.2595419847328244,1.083969465648855,-1.0687022900763359,-0.427734375,-0.033447265625,-0.28759765625,1.2359
0.5038167938931297,0.7938931297709924,-1.251908396946565,-0.429931640625,-0.0341796875,-0.29296875,1.2376
0.3816793893129771,0.7633587786259542,-1.0076335877862594,-0.427490234375,-0.02783203125,-0.292236328125,1.2392999999999998
0.32061068702290074,0.5190839694656488,-1.099236641221374,-0.426513671875,-0.035400390625,-0.29296875,1.2409999999999999
0.04580152671755725,0.6870229007633588,-1.0534351145038168,-0.430908203125,-0.0361328125,-0.290283203125,1.2427
0.21374045801526717,0.7175572519083969,-0.9770992366412213,-0.426513671875,-0.030517578125,-0.290771484375,1.2444
0.32061068702290074,1.0229007633587786,-0.8854961832061069,-0.42919921875,-0.034912109375,-0.2939453125,1.2461
0.22900763358778625,1.0229007633587786,-0.8702290076335878,-0.4287109375,-0.036865234375,-0.30224609375,1.2478
0.10687022900763359,1.0381679389312977,-0.9312977099236641,-0.43115234375,-0.0283203125,-0.29833984375,1.2494999999999998
0.21374045801526717,1.3740458015267176,-0.9770992366412213,-0.42724609375,-0.037353515625,-0.290771484375,1.2511999999999999
0.12213740458015267,1.1755725190839694,-0.9465648854961832,-0.4267578125,-0.036865234375,-0.2919921875,1.2529
0.015267175572519083,1.297709923664122,-0.9618320610687023,-0.427490234375,-0.0322265625,-0.28662109375,1.2546
0.16793893129770993,1.3435114503816794,-0.8854961832061069,-0.429931640625,-0.03662109375,-0.291015625,1.2563
0.12213740458015267,1.3435114503816794,-0.7633587786259542,-0.430908203125,-0.02978515625,-0.29638671875,1.258
0.13740458015267176,1.282442748091603,-0.7480916030534351,-0.426513671875,-0.0341796875,-0.296875,1.2596999999999998
0.061068702290076333,1.6946564885496183,-1.0229007633587786,-0.43115234375,-0.031494140625,-0.28271484375,1.2613999999999999
-0.061068702290076333,1.6946564885496183,-0.7938931297709924,-0.432861328125,-0.031005859375,-0.294921875,1.2631
0.015267175572519083,1.786259541984733,-0.6259541984732825,-0.425048828125,-0.031005859375,-0.289794921875,1.2648
0.3053435114503817,1.7709923664122138,-0.6564885496183206,-0.431884765625,-0.035888671875,-0.290771484375,1.2665
0.15267175572519084,1.83206106870229,-0.48854961832061067,-0.433349609375,-0.03662109375,-0.28955078125,1.2682
-0.24427480916030533,1.9083969465648856,-0.4732824427480916,-0.43115234375,-0.03369140625,-0.293701171875,1.2699
0.04580152671755725,2.122137404580153,-0.549618320610687,-0.43017578125,-0.02978515625,-0.291748046875,1.2715999999999998
0.0916030534351145,2.122137404580153,-0.6259541984732825,-0.42822265625,-0.02880859375,-0.2939453125,1.2732999999999999
-0.061068702290076333,2.183206106870229,-0.5954198473282443,-0.43115234375,-0.02734375,-0.29296875,1.275
-0.183206106870229,2.030534351145038,-0.549618320610687,-0.435791015625,-0.028076171875,-0.298095703125,1.2767
-0.0916030534351145,2.0610687022900764,-0.5190839694656488,-0.435302734375,-0.030029296875,-0.29296875,1.2784
0.04580152671755725,2.122137404580153,-0.7938931297709924,-0.430419921875,-0.0283203125,-0.2939453125,1.2801
0.10687022900763359,2.3206106870229006,-0.6412213740458015,-0.429931640625,-0.031982421875,-0.296630859375,1.2817999999999998
0.22900763358778625,2.4580152671755724,-0.8244274809160306,-0.433837890625,-0.029541015625,-0.28857421875,1.2834999999999999
0.061068702290076333,2.351145038167939,-0.916030534351145,-0.4306640625,-0.03173828125,-0.296875,1.2852
0.12213740458015267,2.4580152671755724,-0.8854961832061069,-0.4296875,-0.029052734375,-0.30126953125,1.2869
0.24427480916030533,2.3053435114503817,-0.9465648854961832,-0.43359375,-0.027099609375,-0.292724609375,1.2886
0.366412213740458,2.5343511450381677,-0.916030534351145,-0.43212890625,-0.0283203125,-0.290283203125,1.2903
0.3969465648854962,2.4122137404580153,-0.9312977099236641,-0.43408203125,-0.02685546875,-0.291748046875,1.292
0.5343511450381679,2.366412213740458,-0.9465648854961832,-0.43017578125,-0.028076171875,-0.291748046875,1.2936999999999999
0.6870229007633588,2.6106870229007635,-0.9007633587786259,-0.429931640625,-0.024658203125,-0.2900390625,1.2953999999999999
0.6412213740458015,2.50381679389313,-1.1297709923664123,-0.427978515625,-0.030517578125,-0.29638671875,1.2971
0.7175572519083969,2.50381679389313,-1.1145038167938932,-0.431640625,-0.024658203125,-0.29638671875,1.2988
0.7786259541984732,2.4885496183206106,-1.1297709923664123,-0.427490234375,-0.026123046875,-0.299072265625,1.3005
0.9312977099236641,2.4580152671755724,-1.0687022900763359,-0.43212890625,-0.025390625,-0.2861328125,1.3022
1.099236641221374,2.366412213740458,-1.099236641221374,-0.427978515625,-0.027587890625,-0.283447265625,1.3038999999999998
1.1145038167938932,2.3053435114503817,-1.1145038167938932,-0.425537109375,-0.025146484375,-0.291748046875,1.3055999999999999
1.1908396946564885,2.366412213740458,-1.099236641221374,-0.4267578125,-0.028564453125,-0.2919921875,1.3073
1.1755725190839694,2.0610687022900764,-0.9312977099236641,-0.427490234375,-0.02490234375,-0.29150390625,1.309
1.2213740458015268,2.183206106870229,-1.1603053435114503,-0.42529296875,-0.029052734375,-0.294677734375,1.3107
1.5572519083969465,2.2748091603053435,-1.0534351145038168,-0.428466796875,-0.0263671875,-0.29833984375,1.3124
1.4809160305343512,1.8473282442748091,-0.8702290076335878,-0.42333984375,-0.024169921875,-0.29150390625,1.3140999999999998
1.3740458015267176,1.7099236641221374,-0.8854961832061069,-0.427978515625,-0.02880859375,-0.302978515625,1.3157999999999999
1.4198473282442747,1.450381679389313,-1.0381679389312977,-0.43115234375,-0.0283203125,-0.302978515625,1.3175
1.450381679389313,1.7099236641221374,-0.9007633587786259,-0.426025390625,-0.033447265625,-0.2900390625,1.3192
1.5267175572519085,1.5114503816793894,-0.916030534351145,-0.42578125,-0.03076171875,-0.287109375,1.3209
1.465648854961832,1.5877862595419847,-0.8396946564885496,-0.4306640625,-0.03662109375,-0.288818359375,1.3226
1.4351145038167938,1.5419847328244274,-0.8091603053435115,-0.427001953125,-0.033447265625,-0.294189453125,1.3243
1.2366412213740459,1.3435114503816794,-0.5648854961832062,-0.426025390625,-0.03662109375,-0.292236328125,1.3259999999999998
1.3740458015267176,1.450381679389313,-0.7022900763358778,-0.425537109375,-0.03564453125,-0.293701171875,1.3276999999999999
1.3893129770992367,1.251908396946565,-0.549618320610687,-0.427978515625,-0.033935546875,-0.287353515625,1.3294
1.2061068702290076,1.450381679389313,-0.7022900763358778,-0.4248046875,-0.037353515625,-0.28857421875,1.3311
1.1603053435114503,1.3587786259541985,-0.8549618320610687,-0.427734375,-0.033447265625,-0.294921875,1.3328
1.1603053435114503,1.1450381679389312,-0.7786259541984732,-0.428955078125,-0.0400390625,-0.289794921875,1.3345
1.1755725190839694,1.2671755725190839,-0.5801526717557252,-0.4248046875,-0.030517578125,-0.290283203125,1.3361999999999998
1.1297709923664123,1.1603053435114503,-0.7175572519083969,-0.431640625,-0.02783203125,-0.2919921875,1.3378999999999999
1.2671755725190839,1.0076335877862594,-0.7175572519083969,-0.42822265625,-0.029541015625,-0.28466796875,1.3396
1.083969465648855,0.9465648854961832,-0.9465648854961832,-0.428955078125,-0.037353515625,-0.28759765625,1.3413
0.9007633587786259,1.083969465648855,-0.7786259541984732,-0.42236328125,-0.0380859375,-0.29638671875,1.343
1.2061068702290076,1.0381679389312977,-0.7175572519083969,-0.431396484375,-0.03369140625,-0.291259765625,1.3447
0.9465648854961832,1.0381679389312977,-0.6259541984732825,-0.426513671875,-0.0361328125,-0.2890625,1.3463999999999998
0.9618320610687023,0.9312977099236641,-0.7480916030534351,-0.431640625,-0.029541015625,-0.29736328125,1.3480999999999999
1.0229007633587786,1.0687022900763359,-0.8396946564885496,-0.432373046875,-0.028076171875,-0.296630859375,1.3497999999999999
0.9465648854961832,1.099236641221374,-0.916030534351145,-0.43212890625,-0.033203125,-0.288330078125,1.3515
1.1603053435114503,1.083969465648855,-0.7938931297709924,-0.432861328125,-0.032958984375,-0.2919921875,1.3532
0.9770992366412213,1.1755725190839694,-0.7633587786259542,-0.425048828125,-0.03466796875,-0.28955078125,1.3549
0.7786259541984732,1.2366412213740459,-0.732824427480916,-0.43115234375,-0.032958984375,-0.302734375,1.3566
0.7175572519083969,1.1603053435114503,-0.8702290076335878,-0.434814453125,-0.02978515625,-0.290283203125,1.3582999999999998
0.9465648854961832,1.1755725190839694,-0.7786259541984732,-0.431884765625,-0.03076171875,-0.286376953125,1.3599999999999999
1.1297709923664123,0.9618320610687023,-0.732824427480916,-0.429443359375,-0.0322265625,-0.283447265625,1.3617
0.9770992366412213,1.1908396946564885,-0.5954198473282443,-0.433837890625,-0.032470703125,-0.292236328125,1.3634
0.9312977099236641,1.282442748091603,-0.916030534351145,-0.429931640625,-0.03125,-0.289794921875,1.3651
0.9007633587786259,1.297709923664122,-0.8854961832061069,-0.4306640625,-0.028564453125,-0.284912109375,1.3668
0.916030534351145,1.3435114503816794,-1.099236641221374,-0.431396484375,-0.0341796875,-0.28857421875,1.3684999999999998
1.0076335877862594,1.3435114503816794,-0.6870229007633588,-0.433349609375,-0.03271484375,-0.28857421875,1.3701999999999999
1.0534351145038168,1.5572519083969465,-0.8396946564885496,-0.435791015625,-0.0283203125,-0.288818359375,1.3719
0.7633587786259542,1.4351145038167938,-0.8549618320610687,-0.4296875,-0.023681640625,-0.289794921875,1.3736
1.0687022900763359,1.5114503816793894,-1.0229007633587786,-0.43310546875,-0.03125,-0.289794921875,1.3753
0.916030534351145,1.5572519083969465,-0.7938931297709924,-0.43408203125,-0.029052734375,-0.287353515625,1.377
1.1450381679389312,1.6030534351145038,-0.8854961832061069,-0.43310546875,-0.03173828125,-0.281982421875,1.3786999999999998
0.9770992366412213,1.4351145038167938,-0.8549618320610687,-0.431640625,-0.033203125,-0.287109375,1.3803999999999998
0.8854961832061069,1.5419847328244274,-0.9770992366412213,-0.43017578125,-0.031982421875,-0.284423828125,1.3820999999999999
1.0076335877862594,1.6793893129770991,-0.9007633587786259,-0.432861328125,-0.029052734375,-0.292724609375,1.3838
1.1450381679389312,1.6030534351145038,-0.9618320610687023,-0.43115234375,-0.03271484375,-0.289306640625,1.3855
1.0534351145038168,1.6946564885496183,-1.0229007633587786,-0.43017578125,-0.03125,-0.29443359375,1.3872
1.2213740458015268,1.618320610687023,-0.9618320610687023,-0.43017578125,-0.03564453125,-0.298095703125,1.3889
1.2061068702290076,1.633587786259542,-0.8854961832061069,-0.42919921875,-0.031494140625,-0.2939453125,1.3905999999999998
1.1755725190839694,1.6946564885496183,-1.1145038167938932,-0.430419921875,-0.02978515625,-0.29345703125,1.3922999999999999
1.0687022900763359,1.6641221374045803,-0.9770992366412213,-0.427734375,-0.031494140625,-0.288818359375,1.394
1.1145038167938932,1.6793893129770991,-1.0076335877862594,-0.431396484375,-0.02734375,-0.298583984375,1.3957
1.3129770992366412,1.8473282442748091,-0.9923664122137404,-0.431884765625,-0.030517578125,-0.284423828125,1.3974
1.2671755725190839,1.83206106870229,-1.0229007633587786,-0.437744140625,-0.028564453125,-0.2880859375,1.3991
1.1145038167938932,1.8931297709923665,-0.9312977099236641,-0.43115234375,-0.032470703125,-0.283447265625,1.4007999999999998
1.1755725190839694,1.8778625954198473,-0.9312977099236641,-0.431640625,-0.035400390625,-0.286376953125,1.4024999999999999
1.3129770992366412,2.0,-0.8244274809160306,-0.4296875,-0.02880859375,-0.2900390625,1.4042
1.0229007633587786,1.786259541984733,-0.8549618320610687,-0.43115234375,-0.031005859375,-0.291015625,1.4059
1.1145038167938932,1.9694656488549618,-0.5648854961832062,-0.426513671875,-0.02685546875,-0.291259765625,1.4076
1.0687022900763359,2.183206106870229,-0.8549618320610687,-0.42822265625,-0.026123046875,-0.28369140625,1.4093
0.9923664122137404,2.015267175572519,-0.916030534351145,-0.427978515625,-0.03466796875,-0.29052734375,1.411
1.0534351145038168,2.2442748091603053,-0.7786259541984732,-0.425048828125,-0.031982421875,-0.29248046875,1.4126999999999998
1.2213740458015268,2.2442748091603053,-0.7938931297709924,-0.430908203125,-0.033935546875,-0.29052734375,1.4143999999999999
1.0381679389312977,2.2900763358778624,-0.5648854961832062,-0.43212890625,-0.033447265625,-0.28466796875,1.4161
0.7786259541984732,2.2442748091603053,-0.7480916030534351,-0.42529296875,-0.031494140625,-0.292236328125,1.4178
0.9312977099236641,2.381679389312977,-0.8244274809160306,-0.428955078125,-0.031005859375,-0.2880859375,1.4195
0.9618320610687023,2.4732824427480917,-0.8091603053435115,-0.433349609375,-0.030517578125,-0.288818359375,1.4212
1.0534351145038168,2.33587786259542,-0.7938931297709924,-0.426513671875,-0.0283203125,-0.29345703125,1.4228999999999998
0.916030534351145,2.1526717557251906,-0.5343511450381679,-0.430419921875,-0.03076171875,-0.287841796875,1.4245999999999999
0.9618320610687023,2.4885496183206106,-0.44274809160305345,-0.428466796875,-0.0302734375,-0.287109375,1.4263
0.8244274809160306,2.519083969465649,-0.44274809160305345,-0.4306640625,-0.02734375,-0.288818359375,1.428
0.7786259541984732,2.4427480916030535,-0.6106870229007634,-0.43310546875,-0.0322265625,-0.290283203125,1.4297
0.8702290076335878,2.5801526717557253,-0.6412213740458015,-0.425537109375,-0.024169921875,-0.287353515625,1.4314
0.9618320610687023,2.50381679389313,-0.5648854961832062,-0.428955078125,-0.027099609375,-0.2841796875,1.4330999999999998
0.8091603053435115,2.4122137404580153,-0.48854961832061067,-0.42919921875,-0.027099609375,-0.2939453125,1.4347999999999999
0.7633587786259542,2.564885496183206,-0.6259541984732825,-0.428955078125,-0.02783203125,-0.293701171875,1.4364999999999999
0.9770992366412213,2.549618320610687,-0.7480916030534351,-0.43115234375,-0.025146484375,-0.296142578125,1.4382
0.9770992366412213,2.6106870229007635,-0.549618320610687,-0.424072265625,-0.02978515625,-0.291748046875,1.4399
0.9312977099236641,2.5801526717557253,-0.5190839694656488,-0.42236328125,-0.030517578125,-0.294677734375,1.4416
0.9618320610687023,2.381679389312977,-0.549618320610687,-0.4248046875,-0.030517578125,-0.2939453125,1.4433
1.0076335877862594,2.549618320610687,-0.9007633587786259,-0.42822265625,-0.03076171875,-0.291748046875,1.4449999999999998
1.0229007633587786,2.6259541984732824,-0.6412213740458015,-0.43115234375,-0.02685546875,-0.291015625,1.4466999999999999
1.0229007633587786,2.50381679389313,-0.4122137404580153,-0.426513671875,-0.034912109375,-0.291748046875,1.4484
1.1755725190839694,2.2595419847328246,-0.5801526717557252,-0.42626953125,-0.03125,-0.29248046875,1.4501
1.1755725190839694,2.549618320610687,-0.7786259541984732,-0.427001953125,-0.0302734375,-0.2861328125,1.4518
1.0381679389312977,2.6564885496183206,-0.6412213740458015,-0.43115234375,-0.031982421875,-0.29541015625,1.4535
1.297709923664122,2.3969465648854964,-0.549618320610687,-0.428955078125,-0.028076171875,-0.296142578125,1.4551999999999998
1.1603053435114503,2.0916030534351147,-0.6412213740458015,-0.425048828125,-0.03076171875,-0.28955078125,1.4568999999999999
1.1145038167938932,2.2290076335877864,-0.7633587786259542,-0.419921875,-0.02490234375,-0.29296875,1.4586
1.0687022900763359,2.16793893129771,-0.7786259541984732,-0.421875,-0.03076171875,-0.299560546875,1.4603
1.3282442748091603,2.16793893129771,-0.8549618320610687,-0.427490234375,-0.031005859375,-0.293212890625,1.462
1.4961832061068703,2.1068702290076335,-0.5343511450381679,-0.427490234375,-0.032958984375,-0.292236328125,1.4637
1.4045801526717556,2.183206106870229,-0.8549618320610687,-0.4326171875,-0.032470703125,-0.294921875,1.4653999999999998
1.3587786259541985,2.16793893129771,-0.8396946564885496,-0.4267578125,-0.02587890625,-0.2978515625,1.4670999999999998
1.2671755725190839,2.015267175572519,-0.7938931297709924,-0.421630859375,-0.02685546875,-0.30078125,1.4687999999999999
1.3129770992366412,1.984732824427481,-0.7022900763358778,-0.421630859375,-0.028564453125,-0.294921875,1.4705
1.3282442748091603,1.8778625954198473,-0.6564885496183206,-0.42333984375,-0.02978515625,-0.29541015625,1.4722
1.4351145038167938,1.7251908396946565,-0.549618320610687,-0.426025390625,-0.031494140625,-0.297119140625,1.4739
1.1603053435114503,1.6946564885496183,-0.6717557251908397,-0.427978515625,-0.0322265625,-0.296630859375,1.4756
1.2671755725190839,1.786259541984733,-0.6717557251908397,-0.42333984375,-0.03173828125,-0.303955078125,1.4772999999999998
1.282442748091603,1.4198473282442747,-0.6412213740458015,-0.425537109375,-0.031494140625,-0.29833984375,1.4789999999999999
1.3282442748091603,1.7557251908396947,-0.366412213740458,-0.42919921875,-0.029541015625,-0.29150390625,1.4807
0.9923664122137404,1.8778625954198473,-0.4580152671755725,-0.430419921875,-0.028076171875,-0.293212890625,1.4824
1.1450381679389312,1.7557251908396947,-0.48854961832061067,-0.42626953125,-0.030517578125,-0.2939453125,1.4841
1.1145038167938932,1.5725190839694656,-0.5343511450381679,-0.429931640625,-0.029541015625,-0.306640625,1.4858
0.8244274809160306,1.6488549618320612,-0.42748091603053434,-0.432373046875,-0.026123046875,-0.30078125,1.4874999999999998
0.8854961832061069,1.6793893129770991,-0.4732824427480916,-0.426513671875,-0.031005859375,-0.295654296875,1.4891999999999999
1.0534351145038168,1.6793893129770991,-0.4732824427480916,-0.425537109375,-0.034423828125,-0.284912109375,1.4909
1.1297709923664123,1.7557251908396947,-0.6106870229007634,-0.431396484375,-0.03369140625,-0.296630859375,1.4926
0.9465648854961832,1.8625954198473282,-0.6259541984732825,-0.431884765625,-0.034423828125,-0.301513671875,1.4943
0.8702290076335878,1.8015267175572518,-0.6412213740458015,-0.431640625,-0.030517578125,-0.29931640625,1.496
0.9312977099236641,1.6488549618320612,-0.5343511450381679,-0.427001953125,-0.032470703125,-0.297119140625,1.4976999999999998
0.916030534351145,1.6793893129770991,-0.5190839694656488,-0.42822265625,-0.03125,-0.29443359375,1.4993999999999998
0.9312977099236641,1.633587786259542,-0.4580152671755725,-0.429931640625,-0.026611328125,-0.291748046875,1.5010999999999999
0.732824427480916,1.6641221374045803,-0.5801526717557252,-0.4287109375,-0.031982421875,-0.291015625,1.5028
0.7786259541984732,1.8015267175572518,-0.44274809160305345,-0.431640625,-0.0341796875,-0.292724609375,1.5045
0.7633587786259542,1.7251908396946565,-0.7786259541984732,-0.4296875,-0.029296875,-0.295166015625,1.5062
0.9618320610687023,1.8625954198473282,-0.6564885496183206,-0.422607421875,-0.0234375,-0.2939453125,1.5079
0.8549618320610687,1.6946564885496183,-0.7480916030534351,-0.425537109375,-0.025634765625,-0.29150390625,1.5095999999999998
0.7938931297709924,1.6946564885496183,-0.6259541984732825,-0.43017578125,-0.0263671875,-0.284423828125,1.5112999999999999
0.9770992366412213,1.633587786259542,-0.916030534351145,-0.43212890625,-0.030029296875,-0.30810546875,1.513
0.9312977099236641,1.6793893129770991,-0.6870229007633588,-0.42822265625,-0.030517578125,-0.295654296875,1.5147
0.7786259541984732,1.4351145038167938,-0.6564885496183206,-0.429931640625,-0.03125,-0.291259765625,1.5164
0.8854961832061069,1.450381679389313,-0.6412213740458015,-0.425537109375,-0.02734375,-0.2890625,1.5181
1.0534351145038168,1.8015267175572518,-0.7786259541984732,-0.427490234375,-0.0234375,-0.284423828125,1.5197999999999998
0.9923664122137404,1.6793893129770991,-0.8854961832061069,-0.43310546875,-0.0263671875,-0.28955078125,1.5214999999999999
1.1755725190839694,1.6030534351145038,-0.8854961832061069,-0.42431640625,-0.02734375,-0.29296875,1.5231999999999999
1.1450381679389312,1.6030534351145038,-0.8396946564885496,-0.427001953125,-0.0263671875,-0.30029296875,1.5249
1.1297709923664123,1.5267175572519085,-0.7786259541984732,-0.4228515625,-0.026611328125,-0.295166015625,1.5266
1.1145038167938932,1.6793893129770991,-0.8091603053435115,-0.430908203125,-0.02685546875,-0.28955078125,1.5283
1.083969465648855,1.5267175572519085,-0.7938931297709924,-0.423583984375,-0.030517578125,-0.287353515625,1.5299999999999998
1.251908396946565,1.5114503816793894,-0.8244274809160306,-0.427978515625,-0.030029296875,-0.290771484375,1.5316999999999998
1.2671755725190839,1.5419847328244274,-0.9007633587786259,-0.43212890625,-0.025146484375,-0.289306640625,1.5333999999999999
1.1755725190839694,1.4351145038167938,-0.732824427480916,-0.431884765625,-0.03076171875,-0.281005859375,1.5351
1.3435114503816794,1.450381679389313,-0.8091603053435115,-0.429443359375,-0.030029296875,-0.294189453125,1.5368
0.9465648854961832,1.297709923664122,-0.6870229007633588,-0.428466796875,-0.0322265625,-0.292236328125,1.5385
0.6870229007633588,1.4809160305343512,-0.916030534351145,-0.43017578125,-0.029296875,-0.293212890625,1.5402
0.9770992366412213,1.5877862595419847,-0.9465648854961832,-0.43017578125,-0.02783203125,-0.296142578125,1.5418999999999998
1.0381679389312977,1.450381679389313,-0.9618320610687023,-0.4287109375,-0.0283203125,-0.2880859375,1.5435999999999999
1.0687022900763359,1.618320610687023,-0.9770992366412213,-0.429931640625,-0.02734375,-0.298828125,1.5453
1.3282442748091603,1.8473282442748091,-0.9312977099236641,-0.428466796875,-0.02880859375,-0.29638671875,1.547
1.0534351145038168,1.83206106870229,-0.8854961832061069,-0.427490234375,-0.028564453125,-0.306640625,1.5487
0.8244274809160306,1.816793893129771,-0.8091603053435115,-0.43017578125,-0.027587890625,-0.296142578125,1.5504
1.0076335877862594,1.5877862595419847,-0.6717557251908397,-0.42822265625,-0.02587890625,-0.2900390625,1.5520999999999998
1.1297709923664123,1.8931297709923665,-0.7786259541984732,-0.43115234375,-0.03466796875,-0.29638671875,1.5537999999999998
0.916030534351145,2.1374045801526718,-0.7480916030534351,-0.428466796875,-0.030029296875,-0.290771484375,1.5554999999999999
1.083969465648855,1.8473282442748091,-0.7175572519083969,-0.429931640625,-0.02783203125,-0.29443359375,1.5572
1.1145038167938932,1.7404580152671756,-0.8244274809160306,-0.4287109375,-0.031982421875,-0.2919921875,1.5589
0.7786259541984732,1.8473282442748091,-0.7022900763358778,-0.430908203125,-0.02978515625,-0.298828125,1.5606
0.8702290076335878,1.618320610687023,-0.549618320610687,-0.4296875,-0.0263671875,-0.30029296875,1.5623
0.8396946564885496,1.618320610687023,-0.6259541984732825,-0.430908203125,-0.02685546875,-0.296142578125,1.5639999999999998
1.083969465648855,1.83206106870229,-0.7938931297709924,-0.430908203125,-0.0322265625,-0.300048828125,1.5656999999999999
0.9618320610687023,1.7099236641221374,-0.5038167938931297,-0.431640625,-0.026123046875,-0.295654296875,1.5674
0.916030534351145,1.7709923664122138,-0.6106870229007634,-0.423828125,-0.02734375,-0.2958984375,1.5691
0.8244274809160306,1.9541984732824427,-0.549618320610687,-0.424072265625,-0.029541015625,-0.29931640625,1.5708
0.8549618320610687,1.6793893129770991,-0.5343511450381679,-0.4306640625,-0.03076171875,-0.28759765625,1.5725
0.8854961832061069,1.9083969465648856,-0.6106870229007634,-0.42333984375,-0.02880859375,-0.29150390625,1.5741999999999998
0.8091603053435115,1.6641221374045803,-0.7022900763358778,-0.421875,-0.02685546875,-0.28515625,1.5758999999999999
0.8549618320610687,1.8778625954198473,-0.5801526717557252,-0.427734375,-0.0302734375,-0.28857421875,1.5776
1.0229007633587786,1.7709923664122138,-0.4580152671755725,-0.42919921875,-0.0283203125,-0.292236328125,1.5793
0.916030534351145,1.786259541984733,-0.3816793893129771,-0.428466796875,-0.031494140625,-0.291015625,1.581
0.732824427480916,1.7251908396946565,-0.6564885496183206,-0.4306640625,-0.02490234375,-0.2919921875,1.5827
1.1145038167938932,1.7404580152671756,-0.3816793893129771,-0.42529296875,-0.024169921875,-0.286865234375,1.5843999999999998
1.2213740458015268,1.5572519083969465,-0.32061068702290074,-0.419921875,-0.030029296875,-0.29443359375,1.5860999999999998
1.3740458015267176,1.633587786259542,-0.549618320610687,-0.425537109375,-0.023681640625,-0.284912109375,1.5877999999999999
1.1603053435114503,1.816793893129771,-0.5343511450381679,-0.425537109375,-0.02978515625,-0.290283203125,1.5895
1.2213740458015268,1.6641221374045803,-0.5343511450381679,-0.4296875,-0.025634765625,-0.294189453125,1.5912
1.0534351145038168,1.8015267175572518,-0.6259541984732825,-0.430908203125,-0.023681640625,-0.2939453125,1.5929
1.2213740458015268,1.618320610687023,-0.3969465648854962,-0.427001953125,-0.023193359375,-0.292724609375,1.5946
1.1908396946564885,1.8015267175572518,-0.732824427480916,-0.4296875,-0.025634765625,-0.2939453125,1.5962999999999998
1.282442748091603,1.9541984732824427,-0.4580152671755725,-0.427734375,-0.02587890625,-0.2900390625,1.5979999999999999
1.3740458015267176,1.7404580152671756,-0.5648854961832062,-0.429931640625,-0.025390625,-0.29248046875,1.5997
1.5267175572519085,1.633587786259542,-0.6717557251908397,-0.437255859375,-0.02685546875,-0.298828125,1.6014
1.4351145038167938,1.786259541984733,-0.5038167938931297,-0.42919921875,-0.022216796875,-0.293701171875,1.6031
1.3893129770992367,1.8473282442748091,-0.1984732824427481,-0.429443359375,-0.02392578125,-0.292236328125,1.6048
1.5114503816793894,1.8473282442748091,-0.6259541984732825,-0.430419921875,-0.023681640625,-0.2890625,1.6064999999999998
1.6793893129770991,1.7251908396946565,-0.5190839694656488,-0.4296875,-0.025146484375,-0.294189453125,1.6081999999999999
1.6641221374045803,1.5877862595419847,-0.48854961832061067,-0.426513671875,-0.02099609375,-0.288818359375,1.6098999999999999
1.7099236641221374,1.6488549618320612,-0.48854961832061067,-0.42724609375,-0.026611328125,-0.2998046875,1.6116
1.7404580152671756,1.7557251908396947,-0.732824427480916,-0.431640625,-0.029052734375,-0.290771484375,1.6133
1.8015267175572518,2.0916030534351147,-0.42748091603053434,-0.4306640625,-0.02587890625,-0.295166015625,1.615
1.9236641221374047,1.9694656488549618,-0.549618320610687,-0.43115234375,-0.03076171875,-0.29296875,1.6166999999999998
1.9083969465648856,2.015267175572519,-0.5954198473282443,-0.430908203125,-0.024658203125,-0.289794921875,1.6183999999999998
1.7099236641221374,1.816793893129771,-0.6870229007633588,-0.430908203125,-0.025146484375,-0.287353515625,1.6200999999999999
1.8625954198473282,2.045801526717557,-0.3969465648854962,-0.4267578125,-0.025634765625,-0.2890625,1.6218
1.8778625954198473,2.198473282442748,-0.48854961832061067,-0.431396484375,-0.025634765625,-0.30078125,1.6235
1.83206106870229,2.015267175572519,-0.366412213740458,-0.4326171875,-0.0234375,-0.29931640625,1.6252
1.984732824427481,1.984732824427481,-0.3969465648854962,-0.432373046875,-0.0283203125,-0.2998046875,1.6269
2.030534351145038,2.16793893129771,-0.4580152671755725,-0.427490234375,-0.028564453125,-0.29541015625,1.6285999999999998
2.0610687022900764,2.366412213740458,-0.7022900763358778,-0.431884765625,-0.025634765625,-0.297119140625,1.6302999999999999
2.0916030534351147,2.351145038167939,-0.3816793893129771,-0.429443359375,-0.02685546875,-0.290771484375,1.632
2.198473282442748,2.4580152671755724,-0.44274809160305345,-0.424072265625,-0.0283203125,-0.296142578125,1.6337
1.9389312977099236,2.183206106870229,-0.3816793893129771,-0.42822265625,-0.024169921875,-0.29248046875,1.6354
1.8931297709923665,2.122137404580153,-0.6106870229007634,-0.429443359375,-0.01953125,-0.298828125,1.6371
2.183206106870229,2.2290076335877864,-0.48854961832061067,-0.427001953125,-0.02099609375,-0.302490234375,1.6387999999999998
2.2748091603053435,2.198473282442748,-0.6870229007633588,-0.427734375,-0.0283203125,-0.30712890625,1.6404999999999998
2.2595419847328246,2.2290076335877864,-0.4732824427480916,-0.431640625,-0.0283203125,-0.292724609375,1.6421999999999999
2.1374045801526718,2.1374045801526718,-0.48854961832061067,-0.426025390625,-0.0302734375,-0.300048828125,1.6439
2.198473282442748,2.2595419847328246,-0.4122137404580153,-0.430419921875,-0.027099609375,-0.292236328125,1.6456
2.2290076335877864,2.381679389312977,-0.3816793893129771,-0.432861328125,-0.0263671875,-0.29296875,1.6473
2.3206106870229006,2.2900763358778624,-0.4732824427480916,-0.428955078125,-0.02880859375,-0.30029296875,1.6489999999999998
2.4732824427480917,2.351145038167939,-0.5801526717557252,-0.427490234375,-0.027099609375,-0.29248046875,1.6506999999999998
2.366412213740458,2.4732824427480917,-0.5343511450381679,-0.4306640625,-0.029541015625,-0.294921875,1.6523999999999999
2.351145038167939,2.6259541984732824,-0.7022900763358778,-0.4306640625,-0.025146484375,-0.293701171875,1.6541
2.2900763358778624,2.564885496183206,-0.48854961832061067,-0.426025390625,-0.02490234375,-0.29443359375,1.6558
2.595419847328244,2.5343511450381677,-0.44274809160305345,-0.431884765625,-0.02734375,-0.292236328125,1.6575
2.6412213740458017,2.6717557251908395,-0.4580152671755725,-0.43115234375,-0.028564453125,-0.300537109375,1.6592
2.4580152671755724,2.5801526717557253,-0.549618320610687,-0.4248046875,-0.02685546875,-0.294921875,1.6608999999999998
2.4732824427480917,2.564885496183206,-0.5190839694656488,-0.43017578125,-0.0234375,-0.293212890625,1.6625999999999999
2.427480916030534,2.427480916030534,-0.7175572519083969,-0.42724609375,-0.0263671875,-0.2880859375,1.6643
2.4885496183206106,2.595419847328244,-0.3053435114503817,-0.432373046875,-0.029052734375,-0.297607421875,1.666
2.7480916030534353,2.50381679389313,-0.44274809160305345,-0.42724609375,-0.025146484375,-0.291259765625,1.6677
2.7938931297709924,2.50381679389313,-0.4580152671755725,-0.425537109375,-0.026123046875,-0.29345703125,1.6694
2.4732824427480917,2.732824427480916,-0.32061068702290074,-0.42431640625,-0.0205078125,-0.298095703125,1.6710999999999998
2.6259541984732824,2.4885496183206106,-0.48854961832061067,-0.427734375,-0.0205078125,-0.30126953125,1.6727999999999998
2.687022900763359,2.4732824427480917,-0.3969465648854962,-0.427001953125,-0.02734375,-0.303955078125,1.6744999999999999
2.687022900763359,2.427480916030534,-0.4122137404580153,-0.427978515625,-0.029052734375,-0.302978515625,1.6762
2.8702290076335877,2.4427480916030535,-0.44274809160305345,-0.4287109375,-0.026611328125,-0.296630859375,1.6779
2.885496183206107,2.213740458015267,-0.6412213740458015,-0.426513671875,-0.028564453125,-0.2958984375,1.6796
2.6717557251908395,2.427480916030534,-0.6106870229007634,-0.430908203125,-0.026611328125,-0.2939453125,1.6813
2.8091603053435112,2.2442748091603053,-0.4122137404580153,-0.430419921875,-0.024169921875,-0.298828125,1.6829999999999998
3.145038167938931,2.3969465648854964,-0.6259541984732825,-0.43115234375,-0.027587890625,-0.290283203125,1.6846999999999999
2.7938931297709924,2.351145038167939,-0.6259541984732825,-0.43017578125,-0.026123046875,-0.2939453125,1.6864
2.946564885496183,2.351145038167939,-0.6564885496183206,-0.431640625,-0.03173828125,-0.2958984375,1.6881
3.068702290076336,2.351145038167939,-0.5343511450381679,-0.431884765625,-0.027587890625,-0.299072265625,1.6898
2.9770992366412212,2.5343511450381677,-0.48854961832061067,-0.427490234375,-0.028564453125,-0.298828125,1.6915
2.900763358778626,2.3206106870229006,-0.5801526717557252,-0.427734375,-0.03173828125,-0.29296875,1.6931999999999998
2.9770992366412212,2.50381679389313,-0.4580152671755725,-0.42919921875,-0.028564453125,-0.30078125,1.6948999999999999
3.099236641221374,2.4732824427480917,-0.42748091603053434,-0.4287109375,-0.0263671875,-0.29150390625,1.6965999999999999
3.068702290076336,2.2442748091603053,-0.24427480916030533,-0.426025390625,-0.030029296875,-0.300537109375,1.6983
2.9770992366412212,2.4580152671755724,-0.6106870229007634,-0.42919921875,-0.033203125,-0.2978515625,1.7
3.435114503816794,2.2442748091603053,-0.5648854961832062,-0.42822265625,-0.024169921875,-0.297119140625,1.7017
3.3435114503816794,2.213740458015267,-0.6412213740458015,-0.426025390625,-0.028076171875,-0.29052734375,1.7033999999999998
3.312977099236641,2.16793893129771,-0.5190839694656488,-0.4287109375,-0.02978515625,-0.293212890625,1.7050999999999998
3.068702290076336,2.2442748091603053,-0.5801526717557252,-0.426025390625,-0.0263671875,-0.29443359375,1.7067999999999999
3.0839694656488548,2.030534351145038,-0.4732824427480916,-0.4287109375,-0.02685546875,-0.292724609375,1.7085
3.114503816793893,2.0763358778625953,-0.7022900763358778,-0.42626953125,-0.02978515625,-0.294189453125,1.7102
3.053435114503817,2.1374045801526718,-0.6564885496183206,-0.422607421875,-0.02685546875,-0.2939453125,1.7119
3.1908396946564888,2.1374045801526718,-0.5801526717557252,-0.427734375,-0.02734375,-0.295166015625,1.7136
3.053435114503817,2.0610687022900764,-0.5801526717557252,-0.423583984375,-0.030517578125,-0.29638671875,1.7152999999999998
3.053435114503817,2.2442748091603053,-0.5801526717557252,-0.431640625,-0.02685546875,-0.296142578125,1.7169999999999999
3.1297709923664123,2.030534351145038,-0.6412213740458015,-0.426025390625,-0.02587890625,-0.29931640625,1.7187
3.1603053435114505,2.0610687022900764,-0.7175572519083969,-0.427001953125,-0.030517578125,-0.298095703125,1.7204
2.9923664122137406,2.045801526717557,-0.6106870229007634,-0.421630859375,-0.028076171875,-0.3037109375,1.7221
3.0839694656488548,2.2290076335877864,-0.732824427480916,-0.428466796875,-0.026611328125,-0.297607421875,1.7238
3.1755725190839694,2.3206106870229006,-0.6870229007633588,-0.427734375,-0.024169921875,-0.290771484375,1.7254999999999998
2.885496183206107,2.1374045801526718,-0.6259541984732825,-0.426025390625,-0.03271484375,-0.288330078125,1.7271999999999998
3.1603053435114505,2.183206106870229,-0.33587786259541985,-0.42529296875,-0.034912109375,-0.292236328125,1.7288999999999999
2.9923664122137406,2.030534351145038,-0.6259541984732825,-0.42431640625,-0.033935546875,-0.295166015625,1.7306
3.0229007633587788,2.1068702290076335,-0.7633587786259542,-0.426025390625,-0.0234375,-0.29296875,1.7323
2.946564885496183,2.045801526717557,-0.5954198473282443,-0.427001953125,-0.0302734375,-0.30419921875,1.734
2.9160305343511452,2.3206106870229006,-0.5190839694656488,-0.42919921875,-0.03271484375,-0.290771484375,1.7356999999999998
3.0839694656488548,2.1068702290076335,-0.7175572519083969,-0.42724609375,-0.029296875,-0.287841796875,1.7373999999999998
2.9923664122137406,2.1374045801526718,-0.7022900763358778,-0.427734375,-0.029296875,-0.2958984375,1.7390999999999999
2.854961832061069,2.1374045801526718,-0.8091603053435115,-0.427001953125,-0.027099609375,-0.285888671875,1.7408
2.885496183206107,2.198473282442748,-0.6259541984732825,-0.427734375,-0.028076171875,-0.2998046875,1.7425
2.946564885496183,2.015267175572519,-0.5190839694656488,-0.42236328125,-0.030517578125,-0.289306640625,1.7442
2.687022900763359,1.9541984732824427,-0.42748091603053434,-0.42333984375,-0.034423828125,-0.2958984375,1.7459
2.549618320610687,2.0,-0.6870229007633588,-0.42431640625,-0.034423828125,-0.289306640625,1.7475999999999998
2.732824427480916,1.816793893129771,-0.4580152671755725,-0.423095703125,-0.02880859375,-0.297119140625,1.7492999999999999
2.9923664122137406,1.7557251908396947,-0.6412213740458015,-0.423828125,-0.028076171875,-0.300048828125,1.751
2.7938931297709924,1.8015267175572518,-0.6106870229007634,-0.420654296875,-0.02978515625,-0.292236328125,1.7527
2.687022900763359,1.9236641221374047,-0.6564885496183206,-0.427001953125,-0.02880859375,-0.2939453125,1.7544
2.6412213740458017,1.7099236641221374,-0.6717557251908397,-0.4267578125,-0.028076171875,-0.295166015625,1.7561
2.564885496183206,1.8015267175572518,-0.549618320610687,-0.42529296875,-0.029541015625,-0.290771484375,1.7577999999999998
2.717557251908397,1.7404580152671756,-0.3816793893129771,-0.420166015625,-0.027587890625,-0.29443359375,1.7594999999999998
2.6259541984732824,1.786259541984733,-0.6106870229007634,-0.420166015625,-0.029541015625,-0.29833984375,1.7611999999999999
2.427480916030534,1.5572519083969465,-0.6717557251908397,-0.42431640625,-0.02734375,-0.295166015625,1.7629
2.50381679389313,1.6793893129770991,-0.732824427480916,-0.427734375,-0.0302734375,-0.29296875,1.7646
2.5801526717557253,1.5267175572519085,-0.8244274809160306,-0.426513671875,-0.02978515625,-0.29296875,1.7663
2.2595419847328246,1.5114503816793894,-0.6106870229007634,-0.42431640625,-0.028076171875,-0.2939453125,1.7679999999999998
2.4427480916030535,1.6488549618320612,-0.5038167938931297,-0.427001953125,-0.02880859375,-0.2978515625,1.7696999999999998
2.4885496183206106,1.4961832061068703,-0.9007633587786259,-0.424560546875,-0.02587890625,-0.2900390625,1.7713999999999999
2.427480916030534,1.5877862595419847,-0.8854961832061069,-0.41845703125,-0.02587890625,-0.2900390625,1.7731
2.33587786259542,1.3435114503816794,-0.916030534351145,-0.42431640625,-0.030029296875,-0.291015625,1.7748
2.5343511450381677,1.3282442748091603,-0.7786259541984732,-0.42578125,-0.0302734375,-0.30322265625,1.7765
2.5801526717557253,1.3282442748091603,-0.8702290076335878,-0.419921875,-0.025390625,-0.290283203125,1.7782
2.351145038167939,1.1908396946564885,-0.7786259541984732,-0.42431640625,-0.030517578125,-0.30029296875,1.7798999999999998
2.351145038167939,1.2061068702290076,-0.8244274809160306,-0.420654296875,-0.029541015625,-0.301513671875,1.7815999999999999
2.595419847328244,1.1908396946564885,-0.9618320610687023,-0.42822265625,-0.031494140625,-0.293212890625,1.7832999999999999
2.427480916030534,1.1450381679389312,-0.8396946564885496,-0.425048828125,-0.0283203125,-0.2939453125,1.785
2.3969465648854964,0.9465648854961832,-1.083969465648855,-0.42919921875,-0.0341796875,-0.291259765625,1.7867
2.50381679389313,0.916030534351145,-0.8854961832061069,-0.427490234375,-0.0263671875,-0.292724609375,1.7884
2.366412213740458,1.0076335877862594,-0.8702290076335878,-0.424560546875,-0.028564453125,-0.28857421875,1.7900999999999998
2.366412213740458,1.0381679389312977,-1.099236641221374,-0.425537109375,-0.02587890625,-0.302978515625,1.7917999999999998
2.5343511450381677,0.8396946564885496,-0.7175572519083969,-0.427001953125,-0.025390625,-0.297607421875,1.7934999999999999
2.351145038167939,1.0687022900763359,-1.1145038167938932,-0.4267578125,-0.029296875,-0.293701171875,1.7952
