gyrox1,gyroy1,gyroz1,accelx1,accely1,accelz1,Time
2.122137404580153,1.5114503816793894,-1.7099236641221374,-0.02490234375,0.003173828125,-0.61328125,0.0
2.0610687022900764,1.3740458015267176,-1.5877862595419847,-0.02783203125,0.000732421875,-0.6123046875,0.0017
2.1068702290076335,1.3740458015267176,-1.7557251908396947,-0.02490234375,-0.000732421875,-0.60791015625,0.0034
2.122137404580153,1.4198473282442747,-1.4809160305343512,-0.02978515625,-0.000244140625,-0.60693359375,0.0050999999999999995
1.8473282442748091,1.3893129770992367,-1.3740458015267176,-0.029296875,-0.005126953125,-0.6064453125,0.0068
1.7404580152671756,1.4045801526717556,-1.1450381679389312,-0.027099609375,0.001708984375,-0.60791015625,0.008499999999999999
1.4809160305343512,1.3740458015267176,-1.2671755725190839,-0.025146484375,0.000732421875,-0.61279296875,0.010199999999999999
1.7099236641221374,1.3893129770992367,-1.0076335877862594,-0.0244140625,0.001220703125,-0.620849609375,0.011899999999999999
1.5267175572519085,1.3893129770992367,-1.0534351145038168,-0.023681640625,-0.005615234375,-0.614990234375,0.0136
1.5725190839694656,1.5877862595419847,-1.1450381679389312,-0.0244140625,-0.005126953125,-0.610595703125,0.0153
1.282442748091603,1.6946564885496183,-1.282442748091603,-0.03076171875,0.001708984375,-0.604736328125,0.016999999999999998
1.3740458015267176,1.6793893129770991,-1.0534351145038168,-0.02392578125,-0.0009765625,-0.608642578125,0.018699999999999998
1.297709923664122,1.8625954198473282,-1.2061068702290076,-0.02685546875,-0.00048828125,-0.61328125,0.020399999999999998
1.2671755725190839,1.6793893129770991,-1.099236641221374,-0.023193359375,-0.0068359375,-0.614501953125,0.022099999999999998
1.1297709923664123,1.786259541984733,-1.251908396946565,-0.027587890625,-0.001708984375,-0.616455078125,0.023799999999999998
1.2213740458015268,1.83206106870229,-1.1450381679389312,-0.028564453125,-0.002197265625,-0.617431640625,0.0255
1.4961832061068703,1.786259541984733,-1.099236641221374,-0.025146484375,-0.001953125,-0.625732421875,0.0272
1.1450381679389312,1.8778625954198473,-1.2061068702290076,-0.026611328125,-0.00439453125,-0.6201171875,0.0289
1.1603053435114503,1.8473282442748091,-1.297709923664122,-0.020751953125,0.00048828125,-0.60986328125,0.0306
1.2671755725190839,1.7709923664122138,-1.0381679389312977,-0.026611328125,-0.00439453125,-0.608642578125,0.032299999999999995
1.2061068702290076,1.83206106870229,-1.2671755725190839,-0.028076171875,-0.0048828125,-0.61865234375,0.033999999999999996
1.3435114503816794,1.786259541984733,-1.3129770992366412,-0.025390625,-0.000732421875,-0.62060546875,0.035699999999999996
1.2366412213740459,1.7557251908396947,-1.3893129770992367,-0.024658203125,0.0,-0.6181640625,0.037399999999999996
1.2213740458015268,1.6488549618320612,-1.1297709923664123,-0.02783203125,-0.002685546875,-0.60986328125,0.039099999999999996
1.1755725190839694,1.8473282442748091,-1.3129770992366412,-0.027587890625,-0.0029296875,-0.6064453125,0.040799999999999996
1.0229007633587786,1.8931297709923665,-1.1755725190839694,-0.019287109375,-0.00537109375,-0.6181640625,0.042499999999999996
1.0229007633587786,1.83206106870229,-1.1755725190839694,-0.0263671875,-0.005615234375,-0.612060546875,0.044199999999999996
0.8396946564885496,1.5877862595419847,-1.2061068702290076,-0.032470703125,-0.002197265625,-0.6181640625,0.045899999999999996
1.0381679389312977,1.7557251908396947,-1.297709923664122,-0.026611328125,-0.003173828125,-0.60791015625,0.047599999999999996
0.9923664122137404,1.7251908396946565,-0.9923664122137404,-0.027587890625,-0.006591796875,-0.618408203125,0.0493
0.7938931297709924,1.8015267175572518,-1.1908396946564885,-0.024658203125,-0.00048828125,-0.61767578125,0.051
0.7480916030534351,1.6793893129770991,-1.2366412213740459,-0.026611328125,-0.0009765625,-0.61572265625,0.0527
0.9007633587786259,1.618320610687023,-1.3435114503816794,-0.028564453125,-0.002685546875,-0.613037109375,0.0544
0.7175572519083969,1.6641221374045803,-1.1297709923664123,-0.025390625,0.0,-0.608642578125,0.0561
0.8091603053435115,1.6641221374045803,-1.2061068702290076,-0.029541015625,-0.00390625,-0.609375,0.0578
0.9007633587786259,1.7709923664122138,-1.1908396946564885,-0.0234375,-0.003662109375,-0.611572265625,0.0595
1.0687022900763359,1.6793893129770991,-1.2671755725190839,-0.02392578125,-0.000244140625,-0.61669921875,0.0612
0.8396946564885496,1.5725190839694656,-1.3129770992366412,-0.025634765625,0.00146484375,-0.610107421875,0.0629
1.0687022900763359,1.6641221374045803,-1.2366412213740459,-0.021484375,0.003173828125,-0.61669921875,0.06459999999999999
0.9618320610687023,1.4809160305343512,-1.0076335877862594,-0.022705078125,-0.000244140625,-0.616943359375,0.0663
1.1755725190839694,1.5114503816793894,-1.297709923664122,-0.02197265625,0.000244140625,-0.613037109375,0.06799999999999999
1.2061068702290076,1.465648854961832,-1.0687022900763359,-0.025146484375,-0.001953125,-0.615966796875,0.0697
1.0229007633587786,1.4351145038167938,-1.1755725190839694,-0.025634765625,-0.00439453125,-0.616455078125,0.07139999999999999
1.1450381679389312,1.5114503816793894,-1.282442748091603,-0.02294921875,-0.000244140625,-0.61572265625,0.0731
0.9465648854961832,1.4045801526717556,-1.251908396946565,-0.025390625,0.004638671875,-0.6083984375,0.07479999999999999
1.3435114503816794,1.5114503816793894,-1.1603053435114503,-0.0283203125,-0.003173828125,-0.615478515625,0.0765
1.3587786259541985,1.297709923664122,-1.1755725190839694,-0.023681640625,0.001708984375,-0.614990234375,0.07819999999999999
1.2366412213740459,1.1908396946564885,-1.2213740458015268,-0.021240234375,0.0029296875,-0.616455078125,0.0799
1.6946564885496183,1.099236641221374,-1.1755725190839694,-0.024169921875,-0.004638671875,-0.613037109375,0.08159999999999999
1.83206106870229,1.2366412213740459,-1.0076335877862594,-0.021240234375,0.001220703125,-0.614990234375,0.0833
1.7099236641221374,1.0687022900763359,-1.0229007633587786,-0.02001953125,-0.002197265625,-0.616455078125,0.08499999999999999
1.6946564885496183,1.0534351145038168,-0.9923664122137404,-0.021240234375,-0.004150390625,-0.61279296875,0.0867
2.0763358778625953,0.9007633587786259,-0.9312977099236641,-0.026611328125,-0.003173828125,-0.61376953125,0.08839999999999999
2.122137404580153,0.8244274809160306,-0.9007633587786259,-0.021728515625,-0.0048828125,-0.616943359375,0.0901
2.0,0.8091603053435115,-1.099236641221374,-0.025634765625,-0.0029296875,-0.614501953125,0.09179999999999999
1.9694656488549618,1.0687022900763359,-0.9618320610687023,-0.02783203125,-0.004150390625,-0.616943359375,0.0935
2.0916030534351147,0.7938931297709924,-0.7175572519083969,-0.02392578125,0.001220703125,-0.620849609375,0.09519999999999999
2.2442748091603053,0.6717557251908397,-0.9923664122137404,-0.025390625,-0.00244140625,-0.611572265625,0.0969
2.1374045801526718,0.7175572519083969,-0.9770992366412213,-0.02685546875,-0.007568359375,-0.611572265625,0.0986
2.2748091603053435,0.7175572519083969,-0.8396946564885496,-0.02587890625,-0.005126953125,-0.61865234375,0.1003
2.1526717557251906,0.9007633587786259,-0.8244274809160306,-0.0263671875,-0.009765625,-0.617431640625,0.102
2.2900763358778624,0.7633587786259542,-0.8549618320610687,-0.01904296875,-0.008056640625,-0.616943359375,0.1037
2.3969465648854964,0.6870229007633588,-0.9465648854961832,-0.020751953125,-0.010986328125,-0.60888671875,0.1054
2.3206106870229006,0.549618320610687,-0.7786259541984732,-0.0224609375,-0.008544921875,-0.60693359375,0.1071
2.1374045801526718,0.5038167938931297,-1.0076335877862594,-0.023681640625,-0.0107421875,-0.611083984375,0.1088
2.2900763358778624,0.6870229007633588,-1.0229007633587786,-0.025146484375,-0.008544921875,-0.615478515625,0.11049999999999999
2.2748091603053435,0.6870229007633588,-1.0687022900763359,-0.02490234375,-0.0087890625,-0.6142578125,0.1122
2.1374045801526718,0.9618320610687023,-1.0229007633587786,-0.02685546875,-0.008544921875,-0.611572265625,0.11389999999999999
1.7404580152671756,0.9465648854961832,-0.9465648854961832,-0.02685546875,-0.009521484375,-0.60595703125,0.1156
1.8473282442748091,0.7938931297709924,-0.916030534351145,-0.0283203125,-0.008056640625,-0.61083984375,0.11729999999999999
2.0763358778625953,0.8091603053435115,-1.1297709923664123,-0.02880859375,-0.008544921875,-0.6220703125,0.119
1.786259541984733,0.9770992366412213,-0.9007633587786259,-0.033203125,-0.0068359375,-0.615234375,0.12069999999999999
1.633587786259542,0.6412213740458015,-0.7480916030534351,-0.025390625,-0.01025390625,-0.62646484375,0.1224
1.3740458015267176,0.7480916030534351,-0.8396946564885496,-0.02880859375,-0.00634765625,-0.617431640625,0.12409999999999999
1.3129770992366412,0.7938931297709924,-0.8396946564885496,-0.032958984375,-0.0009765625,-0.6123046875,0.1258
1.3740458015267176,0.8549618320610687,-0.5648854961832062,-0.0263671875,-0.006591796875,-0.6083984375,0.1275
1.1755725190839694,0.6870229007633588,-0.8702290076335878,-0.02685546875,-0.0048828125,-0.608642578125,0.12919999999999998
0.9465648854961832,0.6717557251908397,-0.7938931297709924,-0.021484375,-0.002685546875,-0.610107421875,0.1309
0.7480916030534351,0.8854961832061069,-0.6412213740458015,-0.0244140625,-0.001708984375,-0.62060546875,0.1326
0.549618320610687,0.8396946564885496,-0.732824427480916,-0.027099609375,-0.0048828125,-0.609619140625,0.1343
0.5801526717557252,0.7938931297709924,-0.8854961832061069,-0.02587890625,-0.00927734375,-0.616943359375,0.13599999999999998
0.6106870229007634,0.7938931297709924,-0.7938931297709924,-0.02734375,-0.001953125,-0.613037109375,0.1377
0.2900763358778626,0.916030534351145,-0.8702290076335878,-0.02587890625,-0.00146484375,-0.612060546875,0.1394
0.4732824427480916,0.9923664122137404,-1.0076335877862594,-0.03125,-0.00537109375,-0.609619140625,0.1411
0.44274809160305345,1.1145038167938932,-0.9618320610687023,-0.0263671875,-0.00634765625,-0.615478515625,0.14279999999999998
0.2748091603053435,1.083969465648855,-1.1145038167938932,-0.030517578125,-0.004150390625,-0.61474609375,0.1445
0.549618320610687,0.9465648854961832,-1.0687022900763359,-0.027099609375,-0.0029296875,-0.612060546875,0.1462
0.6870229007633588,0.9007633587786259,-1.2366412213740459,-0.025390625,-0.005126953125,-0.608642578125,0.1479
0.7786259541984732,0.8854961832061069,-1.3893129770992367,-0.022216796875,-0.000732421875,-0.613525390625,0.14959999999999998
1.0076335877862594,0.9618320610687023,-1.4045801526717556,-0.021484375,-0.000244140625,-0.607421875,0.1513
1.083969465648855,0.916030534351145,-1.450381679389313,-0.022705078125,0.000732421875,-0.61328125,0.153
1.099236641221374,0.8702290076335878,-1.5572519083969465,-0.024658203125,-0.003662109375,-0.6220703125,0.1547
1.297709923664122,1.0229007633587786,-1.618320610687023,-0.023681640625,-0.006591796875,-0.61572265625,0.15639999999999998
1.5419847328244274,0.9312977099236641,-1.6946564885496183,-0.02685546875,-0.002197265625,-0.614501953125,0.1581
1.297709923664122,0.9007633587786259,-1.8473282442748091,-0.0205078125,-0.00244140625,-0.6123046875,0.1598
1.282442748091603,0.8702290076335878,-1.7557251908396947,-0.025390625,-0.001953125,-0.61865234375,0.1615
1.4045801526717556,0.8244274809160306,-1.7709923664122138,-0.022216796875,-0.00439453125,-0.62451171875,0.16319999999999998
1.633587786259542,0.8244274809160306,-1.9083969465648856,-0.026123046875,0.003173828125,-0.620361328125,0.1649
1.4351145038167938,0.8396946564885496,-1.9389312977099236,-0.0234375,-0.001953125,-0.6171875,0.1666
1.5725190839694656,0.9312977099236641,-1.83206106870229,-0.021240234375,-0.001708984375,-0.6123046875,0.16829999999999998
1.786259541984733,0.9618320610687023,-1.5725190839694656,-0.023193359375,-0.003662109375,-0.6162109375,0.16999999999999998
2.0610687022900764,0.9312977099236641,-1.5419847328244274,-0.02294921875,-0.007568359375,-0.61181640625,0.1717
2.015267175572519,0.8702290076335878,-1.5419847328244274,-0.02001953125,-0.007568359375,-0.6103515625,0.1734
2.183206106870229,0.7480916030534351,-1.4351145038167938,-0.02294921875,-0.00439453125,-0.61279296875,0.17509999999999998
2.2290076335877864,0.7480916030534351,-1.450381679389313,-0.02685546875,-0.005615234375,-0.615478515625,0.17679999999999998
2.4580152671755724,0.7480916030534351,-1.4351145038167938,-0.021728515625,-0.00390625,-0.626220703125,0.1785
2.4732824427480917,0.48854961832061067,-1.3740458015267176,-0.0224609375,-0.00341796875,-0.621337890625,0.1802
2.2748091603053435,0.7480916030534351,-1.282442748091603,-0.0234375,-0.00244140625,-0.610107421875,0.18189999999999998
2.381679389312977,0.6106870229007634,-1.1755725190839694,-0.02294921875,0.00048828125,-0.620361328125,0.18359999999999999
2.4732824427480917,0.44274809160305345,-1.4351145038167938,-0.022705078125,-0.004638671875,-0.61767578125,0.1853
2.351145038167939,0.549618320610687,-1.3740458015267176,-0.021240234375,-0.002685546875,-0.622802734375,0.187
2.564885496183206,0.2748091603053435,-1.3587786259541985,-0.0224609375,-0.00634765625,-0.6220703125,0.18869999999999998
2.3053435114503817,0.2595419847328244,-1.4809160305343512,-0.0283203125,-0.007080078125,-0.612060546875,0.19039999999999999
2.549618320610687,0.2900763358778626,-1.450381679389313,-0.02587890625,-0.004638671875,-0.61279296875,0.1921
2.6412213740458017,0.2748091603053435,-1.5267175572519085,-0.021240234375,-0.00927734375,-0.6181640625,0.1938
2.763358778625954,0.21374045801526717,-1.8625954198473282,-0.021728515625,0.000244140625,-0.61572265625,0.19549999999999998
2.6717557251908395,0.1984732824427481,-1.6641221374045803,-0.021484375,-0.006591796875,-0.621337890625,0.1972
2.946564885496183,0.16793893129770993,-1.9389312977099236,-0.023681640625,-0.008544921875,-0.616455078125,0.1989
2.9618320610687023,0.07633587786259542,-2.0,-0.021484375,-0.010009765625,-0.6142578125,0.2006
3.2213740458015265,0.0916030534351145,-2.1526717557251906,-0.01708984375,-0.008056640625,-0.620361328125,0.20229999999999998
3.450381679389313,0.10687022900763359,-2.213740458015267,-0.0224609375,-0.0048828125,-0.624755859375,0.204
3.114503816793893,0.07633587786259542,-2.2900763358778624,-0.020751953125,-0.005615234375,-0.621337890625,0.2057
3.312977099236641,0.13740458015267176,-2.198473282442748,-0.0234375,-0.004638671875,-0.615966796875,0.2074
3.2977099236641223,0.16793893129770993,-2.3206106870229006,-0.0205078125,-0.000244140625,-0.613525390625,0.20909999999999998
3.236641221374046,0.42748091603053434,-2.3053435114503817,-0.025634765625,-0.00048828125,-0.62451171875,0.2108
3.0839694656488548,0.42748091603053434,-2.351145038167939,-0.02783203125,0.000732421875,-0.613525390625,0.2125
2.885496183206107,0.3816793893129771,-2.366412213740458,-0.02392578125,-0.001953125,-0.60986328125,0.2142
2.931297709923664,0.2595419847328244,-2.2595419847328246,-0.02685546875,0.0009765625,-0.616943359375,0.21589999999999998
2.8702290076335877,0.549618320610687,-2.351145038167939,-0.029541015625,-0.006591796875,-0.609375,0.2176
2.4427480916030535,0.7480916030534351,-2.2900763358778624,-0.028076171875,-0.007080078125,-0.6171875,0.2193
2.4122137404580153,0.7786259541984732,-2.2290076335877864,-0.021728515625,0.00244140625,-0.614990234375,0.22099999999999997
2.2595419847328246,0.9923664122137404,-2.366412213740458,-0.031005859375,0.000732421875,-0.612548828125,0.22269999999999998
2.2900763358778624,1.0229007633587786,-2.33587786259542,-0.0283203125,-0.001220703125,-0.6162109375,0.2244
2.0916030534351147,1.0381679389312977,-2.366412213740458,-0.033935546875,-0.000244140625,-0.611083984375,0.2261
1.816793893129771,1.2366412213740459,-2.3969465648854964,-0.029296875,0.0,-0.609130859375,0.22779999999999997
1.8931297709923665,1.3435114503816794,-2.3969465648854964,-0.031982421875,-0.00390625,-0.617919921875,0.22949999999999998
1.6030534351145038,1.5725190839694656,-2.4122137404580153,-0.0302734375,0.001953125,-0.622802734375,0.2312
1.450381679389313,1.5877862595419847,-2.7786259541984735,-0.022216796875,-0.004150390625,-0.613037109375,0.2329
1.5725190839694656,1.7099236641221374,-2.50381679389313,-0.025146484375,-0.004638671875,-0.614990234375,0.23459999999999998
1.5877862595419847,2.045801526717557,-2.595419847328244,-0.028076171875,-0.00439453125,-0.6181640625,0.23629999999999998
1.297709923664122,1.9541984732824427,-2.6412213740458017,-0.027587890625,-0.00439453125,-0.6162109375,0.238
1.3740458015267176,2.213740458015267,-2.8702290076335877,-0.023681640625,-0.002685546875,-0.61279296875,0.2397
1.1908396946564885,2.427480916030534,-2.8244274809160306,-0.0322265625,-0.00048828125,-0.616943359375,0.24139999999999998
1.3587786259541985,2.33587786259542,-2.931297709923664,-0.025634765625,-0.00439453125,-0.613525390625,0.24309999999999998
1.0534351145038168,2.5801526717557253,-3.0381679389312977,-0.030029296875,0.0009765625,-0.611083984375,0.2448
1.0534351145038168,2.5343511450381677,-2.9770992366412212,-0.029296875,-0.002197265625,-0.61328125,0.2465
0.8091603053435115,2.6259541984732824,-2.763358778625954,-0.02978515625,-0.00634765625,-0.611328125,0.24819999999999998
0.9618320610687023,2.8244274809160306,-2.9160305343511452,-0.026123046875,-0.00048828125,-0.609130859375,0.24989999999999998
0.916030534351145,2.8091603053435112,-2.8244274809160306,-0.02685546875,0.003173828125,-0.6005859375,0.2516
0.732824427480916,2.854961832061069,-2.7786259541984735,-0.02685546875,-0.004150390625,-0.6064453125,0.25329999999999997
0.5801526717557252,3.068702290076336,-2.717557251908397,-0.032470703125,-0.005126953125,-0.61083984375,0.255
0.6564885496183206,3.068702290076336,-2.8396946564885495,-0.0244140625,-0.00341796875,-0.612060546875,0.2567
0.549618320610687,3.1297709923664123,-2.6717557251908395,-0.025634765625,-0.006591796875,-0.617919921875,0.25839999999999996
0.21374045801526717,3.0839694656488548,-2.7480916030534353,-0.027587890625,-0.004638671875,-0.619384765625,0.2601
0.15267175572519084,3.3282442748091605,-2.519083969465649,-0.0263671875,-0.00537109375,-0.617919921875,0.2618
0.030534351145038167,3.3893129770992365,-2.595419847328244,-0.028564453125,-0.007080078125,-0.616943359375,0.2635
0.030534351145038167,3.267175572519084,-2.4885496183206106,-0.024169921875,-0.001953125,-0.616455078125,0.2652
-0.015267175572519083,3.3435114503816794,-2.5801526717557253,-0.0283203125,-0.007080078125,-0.625244140625,0.26689999999999997
-0.030534351145038167,3.3587786259541983,-2.366412213740458,-0.022216796875,-0.008056640625,-0.616455078125,0.2686
-0.22900763358778625,3.267175572519084,-2.4427480916030535,-0.027099609375,-0.002685546875,-0.6142578125,0.2703
-0.030534351145038167,3.3587786259541983,-2.3969465648854964,-0.024658203125,-0.0048828125,-0.6171875,0.27199999999999996
-0.10687022900763359,3.2519083969465647,-2.4885496183206106,-0.026611328125,-0.00439453125,-0.611083984375,0.2737
-0.10687022900763359,3.236641221374046,-2.351145038167939,-0.021240234375,-0.01123046875,-0.617919921875,0.2754
0.10687022900763359,3.4198473282442747,-2.4732824427480917,-0.0244140625,-0.006103515625,-0.6083984375,0.27709999999999996
0.12213740458015267,3.236641221374046,-2.381679389312977,-0.02001953125,0.004150390625,-0.602294921875,0.2788
0.22900763358778625,3.2977099236641223,-2.4580152671755724,-0.021240234375,0.00048828125,-0.613037109375,0.28049999999999997
0.24427480916030533,3.3587786259541983,-2.183206106870229,-0.02490234375,-0.001708984375,-0.61474609375,0.2822
0.3053435114503817,3.1755725190839694,-2.3206106870229006,-0.0263671875,0.002197265625,-0.6171875,0.2839
0.22900763358778625,3.2519083969465647,-2.183206106870229,-0.0263671875,-0.003173828125,-0.6103515625,0.28559999999999997
0.3969465648854962,3.0839694656488548,-2.198473282442748,-0.018310546875,-0.00537109375,-0.61181640625,0.2873
0.366412213740458,3.114503816793893,-2.2595419847328246,-0.025634765625,-0.003173828125,-0.615234375,0.289
0.5648854961832062,3.1603053435114505,-2.0916030534351147,-0.019287109375,-0.0009765625,-0.610595703125,0.29069999999999996
0.6259541984732825,3.236641221374046,-1.9694656488549618,-0.015625,0.006103515625,-0.612060546875,0.2924
0.4580152671755725,3.0381679389312977,-2.213740458015267,-0.019775390625,-0.00146484375,-0.607421875,0.2941
0.5801526717557252,3.1908396946564888,-2.015267175572519,-0.020263671875,0.00244140625,-0.62060546875,0.2958
0.6870229007633588,2.9770992366412212,-2.045801526717557,-0.0234375,0.00390625,-0.611328125,0.2975
0.7938931297709924,3.099236641221374,-1.786259541984733,-0.01904296875,0.004150390625,-0.612548828125,0.29919999999999997
0.9923664122137404,2.946564885496183,-2.0763358778625953,-0.02099609375,0.000732421875,-0.619140625,0.3009
0.9618320610687023,2.854961832061069,-1.8778625954198473,-0.01611328125,0.005126953125,-0.619873046875,0.3026
1.0534351145038168,2.5343511450381677,-2.030534351145038,-0.02099609375,-0.00048828125,-0.615478515625,0.30429999999999996
1.083969465648855,2.3969465648854964,-1.8473282442748091,-0.021240234375,0.002197265625,-0.61083984375,0.306
1.3893129770992367,2.50381679389313,-2.015267175572519,-0.022216796875,0.004638671875,-0.615234375,0.3077
1.3587786259541985,2.5801526717557253,-1.8625954198473282,-0.013427734375,0.00732421875,-0.6142578125,0.3094
1.0687022900763359,2.4885496183206106,-1.9083969465648856,-0.020263671875,0.006103515625,-0.617431640625,0.3111
1.2671755725190839,2.4122137404580153,-1.9694656488549618,-0.017822265625,0.000244140625,-0.611328125,0.31279999999999997
1.3282442748091603,2.3053435114503817,-2.1374045801526718,-0.0224609375,0.01220703125,-0.613525390625,0.3145
1.1603053435114503,2.351145038167939,-2.0,-0.015380859375,0.003662109375,-0.615478515625,0.3162
1.1603053435114503,2.3053435114503817,-1.9694656488549618,-0.020751953125,0.01025390625,-0.61328125,0.31789999999999996
1.2671755725190839,2.4427480916030535,-2.0,-0.020751953125,0.010009765625,-0.620361328125,0.3196
1.083969465648855,2.33587786259542,-2.16793893129771,-0.0234375,0.010498046875,-0.6171875,0.3213
1.1603053435114503,2.3053435114503817,-2.0610687022900764,-0.02001953125,0.005615234375,-0.615234375,0.323
1.3587786259541985,2.2595419847328246,-2.0916030534351147,-0.017333984375,0.007568359375,-0.610595703125,0.3247
1.450381679389313,2.1526717557251906,-2.030534351145038,-0.01611328125,0.0068359375,-0.61669921875,0.32639999999999997
1.2366412213740459,2.1374045801526718,-2.183206106870229,-0.01611328125,-0.003662109375,-0.608642578125,0.3281
1.3740458015267176,2.030534351145038,-1.9083969465648856,-0.01953125,0.005615234375,-0.6015625,0.3298
1.3740458015267176,2.0916030534351147,-1.8625954198473282,-0.02099609375,0.007080078125,-0.60986328125,0.33149999999999996
1.5267175572519085,2.1374045801526718,-1.8473282442748091,-0.017333984375,0.005126953125,-0.617919921875,0.3332
1.5419847328244274,2.0763358778625953,-1.984732824427481,-0.015625,0.005859375,-0.609375,0.3349
1.5267175572519085,1.9236641221374047,-1.7709923664122138,-0.017578125,0.0029296875,-0.610595703125,0.33659999999999995
1.5419847328244274,2.1374045801526718,-1.8625954198473282,-0.02001953125,0.005615234375,-0.618896484375,0.3383
1.450381679389313,2.1068702290076335,-1.8015267175572518,-0.01513671875,0.004150390625,-0.607666015625,0.33999999999999997
1.3435114503816794,2.0610687022900764,-1.6793893129770991,-0.01953125,0.001220703125,-0.61328125,0.3417
1.251908396946565,2.122137404580153,-1.4961832061068703,-0.01953125,0.00537109375,-0.61376953125,0.3434
1.1145038167938932,1.8625954198473282,-1.6641221374045803,-0.0205078125,0.004638671875,-0.617919921875,0.34509999999999996
1.251908396946565,1.8625954198473282,-1.5725190839694656,-0.017578125,0.002197265625,-0.61474609375,0.3468
1.1297709923664123,1.9083969465648856,-1.5725190839694656,-0.0166015625,0.001708984375,-0.615966796875,0.3485
0.9618320610687023,1.9694656488549618,-1.5114503816793894,-0.01904296875,0.000732421875,-0.619384765625,0.35019999999999996
0.9618320610687023,1.984732824427481,-1.7557251908396947,-0.023681640625,-0.00244140625,-0.615478515625,0.3519
0.9312977099236641,1.8778625954198473,-1.5877862595419847,-0.018798828125,0.000244140625,-0.6171875,0.35359999999999997
0.7633587786259542,1.816793893129771,-1.786259541984733,-0.021728515625,-0.002685546875,-0.612060546875,0.3553
0.8702290076335878,1.984732824427481,-1.6641221374045803,-0.017333984375,-0.001220703125,-0.607666015625,0.357
0.7480916030534351,1.9694656488549618,-2.030534351145038,-0.020751953125,0.00048828125,-0.61376953125,0.35869999999999996
0.6564885496183206,1.9541984732824427,-1.8625954198473282,-0.018310546875,-0.005126953125,-0.615234375,0.3604
0.8702290076335878,1.7709923664122138,-1.9694656488549618,-0.023681640625,-0.006103515625,-0.61767578125,0.3621
0.8244274809160306,1.83206106870229,-1.9236641221374047,-0.018798828125,-0.00341796875,-0.61279296875,0.36379999999999996
0.4580152671755725,1.9541984732824427,-1.6946564885496183,-0.02294921875,-0.00048828125,-0.6103515625,0.3655
0.6412213740458015,1.7709923664122138,-1.6641221374045803,-0.017578125,0.001953125,-0.611083984375,0.36719999999999997
0.7938931297709924,1.8625954198473282,-1.9236641221374047,-0.021240234375,0.003173828125,-0.610595703125,0.3689
0.7480916030534351,1.984732824427481,-1.5877862595419847,-0.023193359375,0.000732421875,-0.620849609375,0.3706
0.6717557251908397,1.6641221374045803,-1.5114503816793894,-0.025146484375,-0.00537109375,-0.61376953125,0.37229999999999996
0.9465648854961832,1.8473282442748091,-1.4045801526717556,-0.021728515625,-0.003662109375,-0.617919921875,0.374
1.0076335877862594,1.7251908396946565,-1.4198473282442747,-0.022216796875,-0.00537109375,-0.615478515625,0.3757
0.9770992366412213,1.7099236641221374,-1.1145038167938932,-0.023193359375,-0.004150390625,-0.609130859375,0.37739999999999996
1.1297709923664123,1.6793893129770991,-1.0534351145038168,-0.020751953125,-0.000732421875,-0.61962890625,0.3791
1.0687022900763359,1.8473282442748091,-0.9923664122137404,-0.023193359375,-0.00634765625,-0.620361328125,0.38079999999999997
1.297709923664122,1.9083969465648856,-0.8702290076335878,-0.024169921875,-0.00390625,-0.602783203125,0.38249999999999995
1.4961832061068703,1.6641221374045803,-0.5648854961832062,-0.027587890625,-0.002197265625,-0.611572265625,0.3842
1.465648854961832,1.7557251908396947,-0.7175572519083969,-0.02392578125,-0.0048828125,-0.61279296875,0.38589999999999997
1.618320610687023,1.7557251908396947,-0.42748091603053434,-0.0263671875,-0.004150390625,-0.611083984375,0.3876
1.5114503816793894,1.7404580152671756,-0.6259541984732825,-0.022705078125,-0.001220703125,-0.604736328125,0.3893
1.5114503816793894,1.7404580152671756,-0.366412213740458,-0.0224609375,-0.004638671875,-0.61328125,0.39099999999999996
1.786259541984733,1.6793893129770991,-0.3511450381679389,-0.026611328125,-0.00390625,-0.611083984375,0.3927
1.816793893129771,2.030534351145038,-0.183206106870229,-0.0263671875,-0.00634765625,-0.609619140625,0.3944
2.0610687022900764,1.9083969465648856,-0.2595419847328244,-0.020751953125,-0.00537109375,-0.607421875,0.39609999999999995
2.0916030534351147,1.9083969465648856,-0.07633587786259542,-0.0205078125,-0.00341796875,-0.6142578125,0.3978
2.045801526717557,2.045801526717557,-0.1984732824427481,-0.022705078125,0.000244140625,-0.61572265625,0.39949999999999997
2.045801526717557,2.015267175572519,-0.13740458015267176,-0.02490234375,-0.00244140625,-0.609130859375,0.4012
2.183206106870229,2.1374045801526718,-0.16793893129770993,-0.022705078125,-0.00439453125,-0.617431640625,0.4029
2.198473282442748,2.2442748091603053,-0.10687022900763359,-0.028076171875,-0.00732421875,-0.61376953125,0.40459999999999996
2.183206106870229,2.015267175572519,-0.12213740458015267,-0.027099609375,-0.000732421875,-0.6123046875,0.4063
2.198473282442748,2.2290076335877864,-0.12213740458015267,-0.022216796875,-0.004150390625,-0.61376953125,0.408
2.3206106870229006,2.3206106870229006,-0.33587786259541985,-0.0283203125,0.001708984375,-0.60986328125,0.40969999999999995
2.16793893129771,2.381679389312977,-0.2900763358778626,-0.02587890625,0.00244140625,-0.614990234375,0.4114
2.198473282442748,2.4122137404580153,-0.13740458015267176,-0.025634765625,-0.001953125,-0.61083984375,0.41309999999999997
2.3969465648854964,2.549618320610687,-0.16793893129770993,-0.025634765625,-0.000244140625,-0.614013671875,0.4148
1.984732824427481,2.3969465648854964,-0.3816793893129771,-0.021728515625,-0.006591796875,-0.611572265625,0.4165
2.2290076335877864,2.33587786259542,-0.3511450381679389,-0.024169921875,-0.0009765625,-0.622314453125,0.41819999999999996
2.3969465648854964,2.427480916030534,-0.3511450381679389,-0.02294921875,-0.005615234375,-0.615478515625,0.4199
2.1374045801526718,2.50381679389313,-0.1984732824427481,-0.0224609375,0.0,-0.6103515625,0.4216
2.381679389312977,2.6564885496183206,-0.2900763358778626,-0.02197265625,-0.003173828125,-0.61083984375,0.42329999999999995
2.33587786259542,2.549618320610687,-0.2748091603053435,-0.025146484375,-0.00244140625,-0.6201171875,0.425
2.1374045801526718,2.5801526717557253,-0.3511450381679389,-0.023193359375,-0.001953125,-0.618896484375,0.42669999999999997
2.3206106870229006,2.6106870229007635,-0.24427480916030533,-0.019775390625,-0.008056640625,-0.614013671875,0.4284
2.0763358778625953,2.7022900763358777,-0.2748091603053435,-0.024658203125,-0.00146484375,-0.614013671875,0.4301
2.2442748091603053,2.6412213740458017,-0.16793893129770993,-0.0234375,-0.004638671875,-0.60888671875,0.43179999999999996
2.16793893129771,2.7786259541984735,-0.07633587786259542,-0.019287109375,-0.00634765625,-0.608642578125,0.4335
2.1526717557251906,2.6106870229007635,-0.183206106870229,-0.028076171875,-0.009765625,-0.61181640625,0.4352
2.198473282442748,2.519083969465649,-0.183206106870229,-0.025146484375,-0.00439453125,-0.6142578125,0.43689999999999996
2.030534351145038,2.3969465648854964,-0.15267175572519084,-0.019287109375,-0.007080078125,-0.62109375,0.4386
2.2442748091603053,2.549618320610687,-0.07633587786259542,-0.025634765625,-0.003662109375,-0.620361328125,0.44029999999999997
2.2748091603053435,2.4122137404580153,0.15267175572519084,-0.020263671875,-0.00439453125,-0.618896484375,0.44199999999999995
2.2900763358778624,2.381679389312977,0.0916030534351145,-0.019287109375,-0.000732421875,-0.62109375,0.4437
2.381679389312977,2.183206106870229,-0.061068702290076333,-0.022216796875,-0.00927734375,-0.617919921875,0.44539999999999996
2.122137404580153,2.3206106870229006,0.0916030534351145,-0.0205078125,-0.00634765625,-0.607666015625,0.4471
2.1068702290076335,2.2900763358778624,0.15267175572519084,-0.02001953125,-0.00048828125,-0.606201171875,0.4488
2.2595419847328246,2.3206106870229006,-0.030534351145038167,-0.019775390625,-0.003173828125,-0.60888671875,0.45049999999999996
2.122137404580153,2.2595419847328246,-0.030534351145038167,-0.020263671875,-0.005859375,-0.612060546875,0.4522
2.198473282442748,2.1526717557251906,0.0,-0.026123046875,-0.0078125,-0.615478515625,0.45389999999999997
2.2442748091603053,2.2900763358778624,-0.061068702290076333,-0.025146484375,-0.010986328125,-0.61767578125,0.45559999999999995
2.2290076335877864,2.213740458015267,-0.030534351145038167,-0.0234375,-0.014892578125,-0.616943359375,0.4573
2.0763358778625953,2.198473282442748,-0.15267175572519084,-0.026123046875,-0.0087890625,-0.6123046875,0.45899999999999996
2.1068702290076335,2.198473282442748,-0.15267175572519084,-0.027587890625,-0.007080078125,-0.611572265625,0.4607
1.7404580152671756,2.3969465648854964,-0.0916030534351145,-0.027099609375,-0.0087890625,-0.621826171875,0.4624
1.8015267175572518,2.4427480916030535,-0.16793893129770993,-0.0263671875,-0.00244140625,-0.61328125,0.46409999999999996
1.633587786259542,2.4732824427480917,-0.10687022900763359,-0.02880859375,-0.002685546875,-0.614013671875,0.4658
1.5267175572519085,2.427480916030534,-0.32061068702290074,-0.030029296875,-0.0068359375,-0.6103515625,0.46749999999999997
1.5114503816793894,2.3053435114503817,-0.33587786259541985,-0.0263671875,-0.008544921875,-0.61669921875,0.46919999999999995
1.3282442748091603,2.3053435114503817,-0.21374045801526717,-0.029296875,-0.0048828125,-0.61279296875,0.4709
1.4961832061068703,2.4427480916030535,-0.16793893129770993,-0.026123046875,-0.00634765625,-0.6064453125,0.47259999999999996
1.282442748091603,2.4885496183206106,-0.2595419847328244,-0.021240234375,-0.004638671875,-0.617919921875,0.4743
1.1603053435114503,2.3969465648854964,-0.2900763358778626,-0.024169921875,-0.01025390625,-0.616943359375,0.476
1.099236641221374,2.351145038167939,-0.5038167938931297,-0.034423828125,-0.002197265625,-0.6171875,0.47769999999999996
1.099236641221374,2.4885496183206106,-0.42748091603053434,-0.021484375,-0.006103515625,-0.615966796875,0.4794
0.9923664122137404,2.4122137404580153,-0.44274809160305345,-0.02392578125,-0.01416015625,-0.608154296875,0.48109999999999997
1.0229007633587786,2.2748091603053435,-0.5038167938931297,-0.0224609375,-0.0078125,-0.6103515625,0.48279999999999995
1.0687022900763359,2.381679389312977,-0.5038167938931297,-0.02392578125,-0.00341796875,-0.619140625,0.4845
1.282442748091603,2.3969465648854964,-0.6717557251908397,-0.02734375,-0.004150390625,-0.608642578125,0.48619999999999997
1.251908396946565,2.2442748091603053,-0.5801526717557252,-0.022216796875,0.001220703125,-0.607421875,0.4879
1.2671755725190839,2.351145038167939,-0.7022900763358778,-0.02294921875,-0.001708984375,-0.609619140625,0.4896
1.2213740458015268,2.1068702290076335,-0.7786259541984732,-0.02197265625,-0.008056640625,-0.612060546875,0.49129999999999996
1.4809160305343512,2.0916030534351147,-0.7938931297709924,-0.022216796875,-0.005126953125,-0.609130859375,0.493
1.3740458015267176,2.122137404580153,-0.9618320610687023,-0.018798828125,-0.006103515625,-0.616455078125,0.4947
1.5419847328244274,1.984732824427481,-0.7633587786259542,-0.021728515625,-0.008056640625,-0.611083984375,0.49639999999999995
1.816793893129771,2.015267175572519,-1.0381679389312977,-0.022216796875,-0.004150390625,-0.614501953125,0.4981
1.9389312977099236,1.816793893129771,-1.0076335877862594,-0.015625,-0.002197265625,-0.60888671875,0.49979999999999997
2.0916030534351147,1.6793893129770991,-0.8244274809160306,-0.022216796875,-0.006591796875,-0.6103515625,0.5015
2.2290076335877864,1.7099236641221374,-0.8396946564885496,-0.020751953125,0.00048828125,-0.62255859375,0.5032
2.2595419847328246,1.786259541984733,-0.8396946564885496,-0.021728515625,-0.007568359375,-0.617919921875,0.5049
2.2595419847328246,1.7557251908396947,-0.8091603053435115,-0.025390625,-0.00537109375,-0.617431640625,0.5065999999999999
2.33587786259542,1.5572519083969465,-0.8702290076335878,-0.017333984375,-0.007568359375,-0.61572265625,0.5083
2.4122137404580153,1.6030534351145038,-1.0381679389312977,-0.021240234375,-0.00439453125,-0.6181640625,0.51
2.3206106870229006,1.6030534351145038,-0.732824427480916,-0.0205078125,-0.006103515625,-0.610107421875,0.5116999999999999
2.0,1.4961832061068703,-1.0229007633587786,-0.018798828125,-0.004150390625,-0.617919921875,0.5134
2.0610687022900764,1.4045801526717556,-0.7633587786259542,-0.017578125,-0.00146484375,-0.6162109375,0.5151
2.0610687022900764,1.4198473282442747,-1.0076335877862594,-0.01904296875,-0.007080078125,-0.612060546875,0.5167999999999999
2.1068702290076335,1.251908396946565,-0.8549618320610687,-0.0166015625,-0.003662109375,-0.6162109375,0.5185
2.213740458015267,1.1145038167938932,-0.9312977099236641,-0.017578125,-0.0078125,-0.61669921875,0.5202
1.9389312977099236,1.1908396946564885,-1.2061068702290076,-0.022705078125,-0.0068359375,-0.622314453125,0.5218999999999999
2.045801526717557,1.1755725190839694,-1.3435114503816794,-0.022216796875,-0.00390625,-0.612060546875,0.5236
2.213740458015267,1.0381679389312977,-1.1755725190839694,-0.025146484375,-0.00244140625,-0.62060546875,0.5253
2.2748091603053435,1.0076335877862594,-1.3435114503816794,-0.0224609375,-0.00244140625,-0.61328125,0.527
1.9541984732824427,0.9312977099236641,-1.1297709923664123,-0.012451171875,-0.0009765625,-0.61376953125,0.5287
2.1374045801526718,0.8396946564885496,-1.4351145038167938,-0.018798828125,-0.0009765625,-0.618896484375,0.5304
2.16793893129771,0.8549618320610687,-1.5877862595419847,-0.0224609375,-0.00439453125,-0.6083984375,0.5321
2.213740458015267,0.7175572519083969,-1.5877862595419847,-0.024169921875,-0.001953125,-0.609130859375,0.5337999999999999
2.351145038167939,0.732824427480916,-1.7709923664122138,-0.024658203125,-0.001220703125,-0.610107421875,0.5355
1.8625954198473282,0.8396946564885496,-1.7404580152671756,-0.024169921875,-0.004638671875,-0.6083984375,0.5372
2.030534351145038,0.7480916030534351,-1.8778625954198473,-0.02197265625,0.00048828125,-0.611083984375,0.5388999999999999
2.045801526717557,0.7175572519083969,-1.9541984732824427,-0.023193359375,-0.004638671875,-0.614013671875,0.5406
1.8931297709923665,0.6106870229007634,-2.0610687022900764,-0.02001953125,0.000732421875,-0.619140625,0.5423
1.8931297709923665,0.8549618320610687,-2.1526717557251906,-0.01904296875,-0.00634765625,-0.611083984375,0.5439999999999999
2.045801526717557,0.8091603053435115,-2.122137404580153,-0.023193359375,-0.004150390625,-0.60986328125,0.5457
1.7099236641221374,0.6717557251908397,-2.183206106870229,-0.025390625,-0.0048828125,-0.607421875,0.5474
1.3893129770992367,0.7786259541984732,-2.3206106870229006,-0.026611328125,-0.003173828125,-0.623779296875,0.5490999999999999
1.4961832061068703,0.7938931297709924,-2.427480916030534,-0.018310546875,0.000244140625,-0.61328125,0.5508
1.465648854961832,0.6564885496183206,-2.2900763358778624,-0.018310546875,-0.001220703125,-0.616943359375,0.5525
1.3129770992366412,0.8091603053435115,-2.4885496183206106,-0.0224609375,-0.0009765625,-0.61865234375,0.5541999999999999
1.2213740458015268,0.9618320610687023,-2.3053435114503817,-0.021728515625,-0.00927734375,-0.621337890625,0.5559
0.9618320610687023,0.8854961832061069,-2.519083969465649,-0.019775390625,0.000732421875,-0.616943359375,0.5576
0.8854961832061069,0.8549618320610687,-2.2748091603053435,-0.01416015625,-0.00390625,-0.6142578125,0.5593
0.7633587786259542,0.8549618320610687,-2.198473282442748,-0.01513671875,0.0,-0.61328125,0.5609999999999999
0.7480916030534351,0.9618320610687023,-2.3053435114503817,-0.0185546875,-0.00732421875,-0.6123046875,0.5627
0.5648854961832062,0.8396946564885496,-2.33587786259542,-0.017578125,-0.002197265625,-0.61181640625,0.5644
0.5801526717557252,0.7633587786259542,-2.4427480916030535,-0.021484375,-0.00341796875,-0.60986328125,0.5660999999999999
0.5190839694656488,0.9770992366412213,-2.50381679389313,-0.022705078125,-0.007568359375,-0.609619140625,0.5678
0.7022900763358778,0.9007633587786259,-2.2442748091603053,-0.021728515625,-0.007568359375,-0.612548828125,0.5695
0.4122137404580153,0.7786259541984732,-2.5343511450381677,-0.019775390625,-0.008544921875,-0.611572265625,0.5711999999999999
0.366412213740458,0.8702290076335878,-2.198473282442748,-0.01806640625,-0.005615234375,-0.61328125,0.5729
0.366412213740458,0.9007633587786259,-2.4427480916030535,-0.019775390625,-0.002685546875,-0.609375,0.5746
0.5801526717557252,0.7786259541984732,-2.2900763358778624,-0.020751953125,-0.0048828125,-0.611083984375,0.5762999999999999
0.3816793893129771,0.8396946564885496,-2.381679389312977,-0.018798828125,-0.003173828125,-0.61181640625,0.578
0.13740458015267176,0.8396946564885496,-2.3206106870229006,-0.021484375,-0.008056640625,-0.606689453125,0.5797
0.1984732824427481,0.7480916030534351,-2.3206106870229006,-0.02490234375,-0.009521484375,-0.6142578125,0.5813999999999999
0.33587786259541985,0.7480916030534351,-2.122137404580153,-0.01904296875,-0.0068359375,-0.612060546875,0.5831
0.061068702290076333,0.6870229007633588,-2.198473282442748,-0.01953125,-0.00732421875,-0.609375,0.5848
-0.22900763358778625,0.6564885496183206,-1.8931297709923665,-0.020263671875,-0.000244140625,-0.6142578125,0.5865
-0.3511450381679389,0.8396946564885496,-2.0610687022900764,-0.0224609375,-0.001220703125,-0.61474609375,0.5882
-0.366412213740458,0.549618320610687,-2.0,-0.018798828125,-0.004638671875,-0.611083984375,0.5899
-0.3053435114503817,0.549618320610687,-2.1068702290076335,-0.01513671875,-0.005126953125,-0.6123046875,0.5916
-0.22900763358778625,0.6412213740458015,-1.9541984732824427,-0.022705078125,-0.002685546875,-0.609130859375,0.5932999999999999
-0.7022900763358778,0.549618320610687,-1.7709923664122138,-0.0234375,-0.009521484375,-0.611328125,0.595
-0.6259541984732825,0.5190839694656488,-1.83206106870229,-0.02587890625,-0.002197265625,-0.611083984375,0.5967
-0.366412213740458,0.6717557251908397,-1.9236641221374047,-0.0234375,-0.008056640625,-0.61572265625,0.5983999999999999
-0.5038167938931297,0.7633587786259542,-1.83206106870229,-0.021240234375,-0.005615234375,-0.616943359375,0.6001
-0.732824427480916,0.732824427480916,-1.9541984732824427,-0.0263671875,0.00146484375,-0.61376953125,0.6018
-0.4732824427480916,0.5801526717557252,-2.045801526717557,-0.020751953125,-0.003173828125,-0.614013671875,0.6034999999999999
-0.5190839694656488,0.7938931297709924,-2.16793893129771,-0.024169921875,-0.002197265625,-0.616943359375,0.6052
-0.2595419847328244,0.6717557251908397,-1.8625954198473282,-0.021484375,0.0,-0.61767578125,0.6069
-0.1984732824427481,0.7022900763358778,-2.0916030534351147,-0.019287109375,-0.000244140625,-0.611083984375,0.6085999999999999
-0.10687022900763359,0.9007633587786259,-2.1526717557251906,-0.0263671875,0.0009765625,-0.60546875,0.6103
0.10687022900763359,0.7175572519083969,-2.122137404580153,-0.0224609375,0.001220703125,-0.61767578125,0.612
0.0916030534351145,0.7938931297709924,-2.16793893129771,-0.0205078125,0.0,-0.616943359375,0.6136999999999999
0.3969465648854962,0.732824427480916,-1.9389312977099236,-0.025634765625,-0.003173828125,-0.615966796875,0.6154
0.2748091603053435,0.6870229007633588,-1.9236641221374047,-0.02734375,-0.00341796875,-0.624267578125,0.6171
0.2900763358778626,0.7633587786259542,-1.9541984732824427,-0.021728515625,0.000244140625,-0.615478515625,0.6188
0.4580152671755725,0.8091603053435115,-1.633587786259542,-0.027587890625,0.000732421875,-0.61181640625,0.6204999999999999
0.6870229007633588,0.8549618320610687,-1.816793893129771,-0.026611328125,-0.0009765625,-0.61669921875,0.6222
0.549618320610687,0.7938931297709924,-1.6030534351145038,-0.023681640625,-0.00048828125,-0.612060546875,0.6239
0.6564885496183206,0.8244274809160306,-1.5572519083969465,-0.025390625,0.0,-0.616455078125,0.6255999999999999
0.7175572519083969,0.9923664122137404,-1.465648854961832,-0.01904296875,-0.002197265625,-0.611328125,0.6273
0.7633587786259542,1.0381679389312977,-1.5725190839694656,-0.01953125,0.00146484375,-0.609619140625,0.629
0.9618320610687023,0.9923664122137404,-1.083969465648855,-0.019287109375,-0.004638671875,-0.60791015625,0.6306999999999999
1.2366412213740459,0.9465648854961832,-1.3893129770992367,-0.023193359375,-0.00048828125,-0.609375,0.6324
1.4198473282442747,1.0381679389312977,-1.2366412213740459,-0.0244140625,-0.003662109375,-0.61181640625,0.6341
1.3893129770992367,1.0687022900763359,-1.297709923664122,-0.0205078125,0.000244140625,-0.61083984375,0.6357999999999999
1.6030534351145038,1.0076335877862594,-1.1908396946564885,-0.024169921875,0.00439453125,-0.614013671875,0.6375
1.7709923664122138,1.1145038167938932,-1.2671755725190839,-0.019287109375,0.00244140625,-0.60986328125,0.6392
1.9236641221374047,1.3740458015267176,-0.916030534351145,-0.02392578125,0.000244140625,-0.61328125,0.6408999999999999
1.9236641221374047,1.1145038167938932,-1.282442748091603,-0.021484375,-0.00146484375,-0.60302734375,0.6426
1.8625954198473282,1.2366412213740459,-1.1297709923664123,-0.021240234375,-0.001708984375,-0.6015625,0.6443
2.0610687022900764,1.1145038167938932,-1.297709923664122,-0.0234375,0.001220703125,-0.609130859375,0.646
2.2442748091603053,1.1297709923664123,-1.2061068702290076,-0.020751953125,-0.00390625,-0.61376953125,0.6476999999999999
2.183206106870229,1.2061068702290076,-1.1450381679389312,-0.01904296875,-0.00146484375,-0.606689453125,0.6494
2.122137404580153,1.2366412213740459,-1.1450381679389312,-0.0244140625,-0.001953125,-0.605712890625,0.6511
2.3206106870229006,1.1755725190839694,-1.0687022900763359,-0.0244140625,0.00439453125,-0.6142578125,0.6527999999999999
2.366412213740458,1.1297709923664123,-1.1145038167938932,-0.020751953125,0.00048828125,-0.611083984375,0.6545
2.3053435114503817,1.1603053435114503,-1.1908396946564885,-0.01953125,-0.001708984375,-0.6142578125,0.6562
2.2748091603053435,1.1755725190839694,-0.9618320610687023,-0.018798828125,0.002197265625,-0.61474609375,0.6578999999999999
2.0763358778625953,1.297709923664122,-1.2671755725190839,-0.017333984375,0.00244140625,-0.615234375,0.6596
2.1374045801526718,1.1908396946564885,-1.0229007633587786,-0.0185546875,-0.0048828125,-0.616455078125,0.6613
2.198473282442748,1.297709923664122,-1.1908396946564885,-0.022216796875,0.00244140625,-0.6162109375,0.6629999999999999
1.984732824427481,1.1908396946564885,-1.099236641221374,-0.016845703125,-0.00927734375,-0.60693359375,0.6647
2.0610687022900764,1.2061068702290076,-1.0076335877862594,-0.02197265625,-0.00537109375,-0.61181640625,0.6664
1.984732824427481,1.2213740458015268,-0.8854961832061069,-0.02392578125,-0.006103515625,-0.622802734375,0.6680999999999999
1.8625954198473282,1.2366412213740459,-1.0076335877862594,-0.025634765625,-0.006591796875,-0.61962890625,0.6698
1.7404580152671756,1.1145038167938932,-0.9770992366412213,-0.0205078125,-0.002197265625,-0.623291015625,0.6715
1.984732824427481,1.1603053435114503,-1.099236641221374,-0.023193359375,-0.005859375,-0.609130859375,0.6731999999999999
1.9236641221374047,1.2366412213740459,-0.8549618320610687,-0.027587890625,-0.005126953125,-0.620849609375,0.6748999999999999
1.83206106870229,1.2213740458015268,-1.0229007633587786,-0.020751953125,-0.008544921875,-0.62060546875,0.6766
1.9083969465648856,1.0381679389312977,-0.9312977099236641,-0.0185546875,-0.00830078125,-0.6103515625,0.6783
2.1068702290076335,1.1297709923664123,-0.9007633587786259,-0.02783203125,-0.00732421875,-0.623291015625,0.6799999999999999
2.0916030534351147,1.1908396946564885,-0.9923664122137404,-0.0234375,-0.001220703125,-0.609130859375,0.6817
1.816793893129771,1.297709923664122,-0.7480916030534351,-0.0224609375,-0.000732421875,-0.61669921875,0.6834
2.1068702290076335,0.9770992366412213,-0.549618320610687,-0.028076171875,-0.00537109375,-0.60888671875,0.6850999999999999
2.3206106870229006,1.2061068702290076,-0.6259541984732825,-0.026611328125,-0.007080078125,-0.61572265625,0.6868
1.8473282442748091,1.0076335877862594,-0.6412213740458015,-0.020263671875,-0.005126953125,-0.615966796875,0.6885
1.9541984732824427,0.916030534351145,-0.6412213740458015,-0.022216796875,-0.004638671875,-0.612548828125,0.6901999999999999
1.83206106870229,1.083969465648855,-0.5190839694656488,-0.022705078125,-0.006591796875,-0.60888671875,0.6919
1.6793893129770991,1.083969465648855,-0.7633587786259542,-0.024658203125,-0.00634765625,-0.61376953125,0.6936
1.4809160305343512,0.9465648854961832,-0.5343511450381679,-0.024169921875,-0.000732421875,-0.6171875,0.6952999999999999
1.5419847328244274,1.0076335877862594,-0.5954198473282443,-0.023193359375,-0.00390625,-0.608154296875,0.697
1.5114503816793894,1.3740458015267176,-0.5954198473282443,-0.03076171875,-0.0048828125,-0.603271484375,0.6987
1.1297709923664123,1.2366412213740459,-0.732824427480916,-0.0283203125,-0.005126953125,-0.604248046875,0.7003999999999999
1.1145038167938932,1.099236641221374,-0.549618320610687,-0.02294921875,0.002197265625,-0.61474609375,0.7021
0.9465648854961832,1.0534351145038168,-0.7480916030534351,-0.024169921875,-0.003173828125,-0.620361328125,0.7038
0.7175572519083969,1.1908396946564885,-0.5801526717557252,-0.02783203125,-0.006591796875,-0.614013671875,0.7055
0.6870229007633588,1.251908396946565,-0.6412213740458015,-0.023193359375,0.002197265625,-0.6171875,0.7071999999999999
0.7022900763358778,1.1755725190839694,-0.8702290076335878,-0.029296875,0.000244140625,-0.609130859375,0.7089
0.22900763358778625,1.2213740458015268,-0.7480916030534351,-0.025634765625,0.0,-0.615478515625,0.7106
0.22900763358778625,1.3587786259541985,-0.9465648854961832,-0.025390625,-0.0029296875,-0.621826171875,0.7122999999999999
0.5038167938931297,1.3129770992366412,-1.0534351145038168,-0.025634765625,0.000732421875,-0.621337890625,0.714
0.3053435114503817,1.282442748091603,-0.9465648854961832,-0.027587890625,-0.002197265625,-0.61083984375,0.7157
0.2748091603053435,1.3587786259541985,-1.1603053435114503,-0.025634765625,-0.002685546875,-0.607666015625,0.7173999999999999
0.3511450381679389,1.4045801526717556,-1.099236641221374,-0.02734375,0.00439453125,-0.614013671875,0.7191
0.4580152671755725,1.450381679389313,-1.1755725190839694,-0.02392578125,0.001953125,-0.614501953125,0.7208
0.4732824427480916,1.4351145038167938,-1.1755725190839694,-0.023193359375,-0.00537109375,-0.608642578125,0.7224999999999999
0.7022900763358778,1.282442748091603,-1.1755725190839694,-0.02490234375,0.003173828125,-0.6142578125,0.7242
0.9465648854961832,1.450381679389313,-1.2671755725190839,-0.02294921875,-0.007080078125,-0.613037109375,0.7259
0.8854961832061069,1.3282442748091603,-1.251908396946565,-0.02392578125,-0.003662109375,-0.610595703125,0.7275999999999999
0.8702290076335878,1.4198473282442747,-1.4351145038167938,-0.02294921875,0.0,-0.609619140625,0.7293
1.2366412213740459,1.2213740458015268,-1.2061068702290076,-0.017333984375,-0.002197265625,-0.61865234375,0.731
1.5267175572519085,1.0687022900763359,-1.1297709923664123,-0.016845703125,-0.003662109375,-0.619384765625,0.7326999999999999
1.5877862595419847,1.0687022900763359,-1.2061068702290076,-0.024658203125,-0.004638671875,-0.6162109375,0.7343999999999999
1.450381679389313,0.9770992366412213,-1.099236641221374,-0.0244140625,-0.002197265625,-0.619384765625,0.7361
1.4351145038167938,0.9770992366412213,-1.2366412213740459,-0.02099609375,-0.00634765625,-0.60791015625,0.7378
1.9541984732824427,0.9618320610687023,-1.1755725190839694,-0.023193359375,-0.001220703125,-0.615478515625,0.7394999999999999
1.6946564885496183,1.0534351145038168,-1.282442748091603,-0.029296875,-0.003173828125,-0.626220703125,0.7412
1.633587786259542,0.7480916030534351,-1.1450381679389312,-0.02685546875,0.00244140625,-0.614990234375,0.7429
1.6793893129770991,0.732824427480916,-1.297709923664122,-0.021484375,0.003173828125,-0.617431640625,0.7445999999999999
1.6030534351145038,0.8549618320610687,-1.4961832061068703,-0.01806640625,0.002197265625,-0.625732421875,0.7463
1.7099236641221374,0.8244274809160306,-1.5114503816793894,-0.01953125,-0.001708984375,-0.613037109375,0.748
1.5114503816793894,0.8702290076335878,-1.3740458015267176,-0.025146484375,-0.004150390625,-0.61279296875,0.7496999999999999
1.4809160305343512,0.732824427480916,-1.618320610687023,-0.02490234375,-0.006103515625,-0.611328125,0.7514
1.3435114503816794,0.6564885496183206,-1.6946564885496183,-0.0244140625,-0.00927734375,-0.6181640625,0.7531
1.2671755725190839,0.7480916030534351,-1.5725190839694656,-0.025146484375,-0.001953125,-0.621337890625,0.7547999999999999
1.083969465648855,0.8702290076335878,-1.7251908396946565,-0.026123046875,-0.002197265625,-0.620361328125,0.7565
0.9465648854961832,0.8244274809160306,-1.6946564885496183,-0.021484375,-0.003173828125,-0.61474609375,0.7582
0.9312977099236641,0.8244274809160306,-1.8625954198473282,-0.028564453125,-0.00341796875,-0.6220703125,0.7598999999999999
0.8549618320610687,0.7786259541984732,-2.0763358778625953,-0.025146484375,-0.00146484375,-0.61572265625,0.7615999999999999
0.7938931297709924,0.8091603053435115,-2.183206106870229,-0.0234375,0.002197265625,-0.610595703125,0.7633
0.3816793893129771,0.916030534351145,-2.16793893129771,-0.023681640625,-0.0078125,-0.619140625,0.7649999999999999
0.5038167938931297,0.7786259541984732,-2.0916030534351147,-0.026611328125,-0.00390625,-0.623046875,0.7666999999999999
0.4580152671755725,1.0076335877862594,-2.1374045801526718,-0.024169921875,-0.001220703125,-0.614501953125,0.7684
0.22900763358778625,1.0381679389312977,-2.2595419847328246,-0.0244140625,0.001220703125,-0.624755859375,0.7701
0.2595419847328244,0.9465648854961832,-2.2748091603053435,-0.02197265625,0.001708984375,-0.62353515625,0.7717999999999999
0.2748091603053435,1.099236641221374,-2.16793893129771,-0.02099609375,-0.001708984375,-0.609619140625,0.7735
0.07633587786259542,1.0076335877862594,-2.213740458015267,-0.02880859375,-0.000244140625,-0.618408203125,0.7752
0.061068702290076333,1.1450381679389312,-2.1374045801526718,-0.020263671875,-0.0009765625,-0.616943359375,0.7768999999999999
0.2748091603053435,1.0687022900763359,-2.2595419847328246,-0.019775390625,0.00048828125,-0.610107421875,0.7786
0.15267175572519084,0.9618320610687023,-2.2595419847328246,-0.027587890625,0.00341796875,-0.621826171875,0.7803
0.030534351145038167,0.9312977099236641,-2.198473282442748,-0.02197265625,0.001220703125,-0.604248046875,0.7819999999999999
0.13740458015267176,0.9312977099236641,-2.2748091603053435,-0.02197265625,-0.004638671875,-0.61181640625,0.7837
-0.015267175572519083,0.9007633587786259,-2.2442748091603053,-0.0185546875,0.0,-0.6220703125,0.7854
0.15267175572519084,0.916030534351145,-2.2900763358778624,-0.02001953125,-0.00048828125,-0.608642578125,0.7870999999999999
-0.061068702290076333,1.0534351145038168,-2.3206106870229006,-0.01904296875,-0.003173828125,-0.60791015625,0.7888
-0.030534351145038167,0.916030534351145,-2.1374045801526718,-0.020751953125,0.00146484375,-0.618408203125,0.7905
0.12213740458015267,0.8854961832061069,-2.4580152671755724,-0.0205078125,-0.0009765625,-0.61865234375,0.7921999999999999
0.44274809160305345,0.7786259541984732,-2.351145038167939,-0.019775390625,-0.004150390625,-0.615966796875,0.7938999999999999
0.2595419847328244,1.0229007633587786,-1.9541984732824427,-0.018310546875,-0.001953125,-0.6171875,0.7956
0.32061068702290074,0.9923664122137404,-1.9236641221374047,-0.014892578125,-0.003662109375,-0.619140625,0.7973
0.2900763358778626,0.7938931297709924,-2.045801526717557,-0.022216796875,-0.003173828125,-0.60986328125,0.7989999999999999
0.44274809160305345,0.8549618320610687,-1.816793893129771,-0.02490234375,-0.00048828125,-0.607177734375,0.8007
0.732824427480916,0.7786259541984732,-1.9083969465648856,-0.022216796875,-0.00634765625,-0.614013671875,0.8024
0.7938931297709924,0.7938931297709924,-1.8778625954198473,-0.018310546875,-0.00146484375,-0.614990234375,0.8040999999999999
1.0534351145038168,0.6412213740458015,-1.5877862595419847,-0.019775390625,0.001953125,-0.617919921875,0.8058
1.0229007633587786,0.5648854961832062,-1.6946564885496183,-0.025146484375,0.000244140625,-0.6142578125,0.8075
0.9465648854961832,0.8091603053435115,-1.5419847328244274,-0.02587890625,-0.00244140625,-0.61181640625,0.8091999999999999
0.9618320610687023,0.5954198473282443,-1.3893129770992367,-0.024658203125,-0.000732421875,-0.6162109375,0.8109
1.1603053435114503,0.7175572519083969,-1.3587786259541985,-0.02734375,-0.001953125,-0.615478515625,0.8126
0.9923664122137404,0.7633587786259542,-1.3282442748091603,-0.0224609375,-0.005859375,-0.621826171875,0.8142999999999999
0.9312977099236641,0.6106870229007634,-1.3740458015267176,-0.025390625,-0.003662109375,-0.61865234375,0.816
1.0687022900763359,0.6564885496183206,-1.4809160305343512,-0.026611328125,-0.005615234375,-0.6162109375,0.8177
0.9312977099236641,0.8549618320610687,-1.0687022900763359,-0.03271484375,-0.002197265625,-0.607666015625,0.8193999999999999
0.6717557251908397,0.9770992366412213,-1.3740458015267176,-0.027587890625,-0.004638671875,-0.61279296875,0.8210999999999999
0.6717557251908397,0.8549618320610687,-1.3282442748091603,-0.02880859375,-0.005859375,-0.60986328125,0.8228
0.5190839694656488,0.9007633587786259,-1.3587786259541985,-0.0263671875,0.000244140625,-0.62060546875,0.8244999999999999
0.2595419847328244,1.2213740458015268,-1.4198473282442747,-0.0263671875,0.000244140625,-0.609619140625,0.8261999999999999
0.4122137404580153,1.3740458015267176,-1.4045801526717556,-0.02734375,0.00244140625,-0.60595703125,0.8279
0.183206106870229,1.1755725190839694,-1.450381679389313,-0.033203125,-0.00390625,-0.616455078125,0.8296
0.07633587786259542,1.3740458015267176,-1.3129770992366412,-0.023681640625,0.00244140625,-0.614013671875,0.8312999999999999
0.07633587786259542,1.6488549618320612,-1.4809160305343512,-0.030029296875,0.0029296875,-0.6123046875,0.833
0.07633587786259542,1.633587786259542,-1.5267175572519085,-0.024169921875,0.002685546875,-0.615234375,0.8347
-0.13740458015267176,1.6793893129770991,-1.3129770992366412,-0.02685546875,-0.003662109375,-0.6142578125,0.8363999999999999
-0.15267175572519084,1.9083969465648856,-1.5419847328244274,-0.025390625,0.000732421875,-0.616943359375,0.8381
-0.0916030534351145,2.1374045801526718,-1.5725190839694656,-0.02587890625,0.00390625,-0.611083984375,0.8398
-0.0916030534351145,2.1068702290076335,-1.633587786259542,-0.02685546875,0.0,-0.6162109375,0.8414999999999999
-0.015267175572519083,2.2290076335877864,-1.618320610687023,-0.027099609375,0.00244140625,-0.6142578125,0.8432
-0.1984732824427481,2.366412213740458,-1.7099236641221374,-0.029296875,0.0029296875,-0.606689453125,0.8449
-0.015267175572519083,2.2900763358778624,-1.6793893129770991,-0.023681640625,-0.000244140625,-0.60693359375,0.8465999999999999
0.16793893129770993,2.33587786259542,-1.7404580152671756,-0.026611328125,0.00390625,-0.616455078125,0.8482999999999999
0.1984732824427481,2.4122137404580153,-1.450381679389313,-0.025634765625,0.003173828125,-0.610107421875,0.85
0.48854961832061067,2.4427480916030535,-1.5877862595419847,-0.0234375,0.00146484375,-0.61181640625,0.8516999999999999
0.5954198473282443,2.519083969465649,-1.5877862595419847,-0.019287109375,-0.002685546875,-0.61328125,0.8533999999999999
0.8091603053435115,2.7022900763358777,-1.5114503816793894,-0.018798828125,0.00341796875,-0.60546875,0.8551
0.916030534351145,2.50381679389313,-1.3282442748091603,-0.01904296875,0.00341796875,-0.609619140625,0.8568
1.0076335877862594,2.4427480916030535,-1.297709923664122,-0.021240234375,-0.00244140625,-0.606201171875,0.8584999999999999
1.1297709923664123,2.366412213740458,-1.465648854961832,-0.0166015625,-0.0009765625,-0.611083984375,0.8602
1.2061068702290076,2.3969465648854964,-1.1450381679389312,-0.018310546875,0.002197265625,-0.615234375,0.8619
1.3893129770992367,2.4580152671755724,-1.282442748091603,-0.0146484375,-0.004150390625,-0.60595703125,0.8635999999999999
1.4045801526717556,2.2442748091603053,-1.3587786259541985,-0.020263671875,0.007568359375,-0.612060546875,0.8653
1.7709923664122138,2.2442748091603053,-1.1755725190839694,-0.022705078125,0.001953125,-0.61279296875,0.867
1.8931297709923665,2.213740458015267,-1.1603053435114503,-0.015380859375,0.004638671875,-0.606689453125,0.8686999999999999
1.6946564885496183,2.2442748091603053,-1.1755725190839694,-0.012939453125,0.005615234375,-0.61572265625,0.8704
1.7251908396946565,2.2748091603053435,-1.1755725190839694,-0.01611328125,0.00537109375,-0.6064453125,0.8721
1.83206106870229,2.1374045801526718,-1.1297709923664123,-0.019287109375,0.00341796875,-0.606689453125,0.8737999999999999
1.8015267175572518,2.1526717557251906,-1.099236641221374,-0.018310546875,0.010986328125,-0.600830078125,0.8755
2.0,2.122137404580153,-0.9312977099236641,-0.0185546875,0.0029296875,-0.602783203125,0.8772
1.8473282442748091,2.183206106870229,-1.0687022900763359,-0.014404296875,0.003662109375,-0.6044921875,0.8788999999999999
1.8625954198473282,2.1374045801526718,-0.9618320610687023,-0.01904296875,0.006103515625,-0.60205078125,0.8805999999999999
1.8473282442748091,2.1068702290076335,-1.1450381679389312,-0.019775390625,0.00537109375,-0.6064453125,0.8823
2.0,2.1068702290076335,-0.9312977099236641,-0.01806640625,0.004150390625,-0.607666015625,0.8839999999999999
1.8473282442748091,2.1374045801526718,-0.916030534351145,-0.020751953125,-0.00048828125,-0.61181640625,0.8856999999999999
1.9694656488549618,2.1526717557251906,-0.6870229007633588,-0.015380859375,-0.0029296875,-0.606201171875,0.8874
2.0763358778625953,1.8931297709923665,-0.7786259541984732,-0.019287109375,0.005615234375,-0.607421875,0.8891
2.33587786259542,2.0610687022900764,-0.9007633587786259,-0.018798828125,0.0029296875,-0.609375,0.8907999999999999
2.351145038167939,2.1374045801526718,-0.8549618320610687,-0.016845703125,0.001708984375,-0.607666015625,0.8925
2.549618320610687,2.1068702290076335,-0.8244274809160306,-0.018798828125,0.002197265625,-0.60205078125,0.8942
2.6717557251908395,2.183206106870229,-0.8549618320610687,-0.016845703125,-0.000244140625,-0.611572265625,0.8958999999999999
2.8396946564885495,2.122137404580153,-0.7786259541984732,-0.017822265625,-0.002685546875,-0.6103515625,0.8976
2.885496183206107,2.1068702290076335,-0.6717557251908397,-0.01904296875,-0.0009765625,-0.61181640625,0.8993
3.053435114503817,2.1374045801526718,-0.5038167938931297,-0.016845703125,-0.002685546875,-0.60400390625,0.9009999999999999
3.2061068702290076,2.1068702290076335,-0.5038167938931297,-0.017333984375,-0.010009765625,-0.603271484375,0.9027
3.3282442748091605,2.0763358778625953,-0.3511450381679389,-0.02099609375,-0.001220703125,-0.6064453125,0.9044
3.435114503816794,2.213740458015267,-0.3511450381679389,-0.019775390625,-0.001953125,-0.605224609375,0.9060999999999999
3.4656488549618323,2.0763358778625953,-0.2900763358778626,-0.01611328125,-0.002197265625,-0.603271484375,0.9077999999999999
3.6030534351145036,2.122137404580153,-0.4122137404580153,-0.018798828125,-0.002197265625,-0.60546875,0.9095
3.6946564885496183,2.0763358778625953,-0.0916030534351145,-0.015869140625,-0.002685546875,-0.60009765625,0.9111999999999999
3.9083969465648853,2.0,-0.04580152671755725,-0.020263671875,-0.001220703125,-0.603271484375,0.9128999999999999
4.091603053435114,2.33587786259542,0.3511450381679389,-0.015625,0.00244140625,-0.601806640625,0.9146
3.9236641221374047,2.381679389312977,0.07633587786259542,-0.02001953125,-0.00439453125,-0.607177734375,0.9163
4.305343511450381,2.2290076335877864,0.3053435114503817,-0.021484375,-0.004150390625,-0.611572265625,0.9179999999999999
4.412213740458015,2.122137404580153,0.3969465648854962,-0.02490234375,-0.002685546875,-0.601806640625,0.9197
4.580152671755725,2.213740458015267,0.48854961832061067,-0.02197265625,-0.00048828125,-0.6025390625,0.9214
4.8396946564885495,2.3053435114503817,0.4580152671755725,-0.018310546875,-0.004638671875,-0.5986328125,0.9230999999999999
4.748091603053435,2.427480916030534,0.7633587786259542,-0.018310546875,-0.005126953125,-0.600830078125,0.9248
4.717557251908397,2.50381679389313,0.7633587786259542,-0.01953125,-0.006591796875,-0.596923828125,0.9265
5.038167938931298,2.50381679389313,0.8854961832061069,-0.022216796875,0.001953125,-0.60693359375,0.9281999999999999
5.190839694656488,2.7786259541984735,1.0229007633587786,-0.018798828125,-0.00146484375,-0.601806640625,0.9299
4.9465648854961835,2.732824427480916,1.2213740458015268,-0.022216796875,-0.0048828125,-0.599853515625,0.9316
5.251908396946565,2.8396946564885495,1.2061068702290076,-0.01708984375,-0.00341796875,-0.603759765625,0.9332999999999999
5.450381679389313,2.7938931297709924,1.251908396946565,-0.023681640625,-0.000732421875,-0.599365234375,0.9349999999999999
5.297709923664122,3.0229007633587788,1.4045801526717556,-0.021484375,-0.007080078125,-0.6123046875,0.9367
5.251908396946565,3.1908396946564888,1.4351145038167938,-0.017578125,-0.002685546875,-0.60888671875,0.9383999999999999
5.267175572519084,3.1603053435114505,1.4961832061068703,-0.01953125,-0.007568359375,-0.60302734375,0.9400999999999999
5.526717557251908,3.3282442748091605,1.450381679389313,-0.023193359375,-0.006591796875,-0.603271484375,0.9418
5.374045801526718,3.2519083969465647,1.3129770992366412,-0.02099609375,-0.005615234375,-0.6025390625,0.9434999999999999
5.175572519083969,3.1755725190839694,1.4198473282442747,-0.01611328125,-0.008544921875,-0.60595703125,0.9451999999999999
5.511450381679389,3.2977099236641223,1.465648854961832,-0.02392578125,-0.004638671875,-0.600341796875,0.9469
5.099236641221374,3.312977099236641,1.8625954198473282,-0.013427734375,-0.004150390625,-0.60791015625,0.9486
5.068702290076335,3.3587786259541983,1.5725190839694656,-0.01416015625,0.00048828125,-0.606689453125,0.9502999999999999
5.068702290076335,3.435114503816794,1.5419847328244274,-0.02197265625,-0.00390625,-0.601806640625,0.952
4.931297709923665,3.3893129770992365,1.6946564885496183,-0.01708984375,-0.0078125,-0.60546875,0.9537
4.763358778625954,3.282442748091603,1.7404580152671756,-0.015625,-0.008544921875,-0.602783203125,0.9553999999999999
4.595419847328245,3.3587786259541983,1.7251908396946565,-0.021728515625,-0.0048828125,-0.611083984375,0.9571
4.778625954198473,3.435114503816794,1.6488549618320612,-0.0126953125,-0.00830078125,-0.61181640625,0.9588
4.641221374045801,3.236641221374046,1.5725190839694656,-0.014404296875,-0.00537109375,-0.6044921875,0.9604999999999999
4.427480916030534,3.145038167938931,2.0610687022900764,-0.020263671875,-0.001953125,-0.59521484375,0.9621999999999999
4.412213740458015,3.053435114503817,1.7404580152671756,-0.012451171875,-0.009521484375,-0.607421875,0.9639
4.656488549618321,2.946564885496183,1.816793893129771,-0.012451171875,-0.009765625,-0.6025390625,0.9655999999999999
4.687022900763359,3.0076335877862594,1.7557251908396947,-0.018310546875,-0.0048828125,-0.600341796875,0.9672999999999999
4.702290076335878,2.900763358778626,1.7099236641221374,-0.0185546875,0.00146484375,-0.61376953125,0.969
4.67175572519084,2.564885496183206,1.618320610687023,-0.01220703125,-0.007568359375,-0.60888671875,0.9706999999999999
4.961832061068702,2.564885496183206,1.5725190839694656,-0.01318359375,-0.004638671875,-0.61181640625,0.9723999999999999
4.931297709923665,2.6259541984732824,1.5419847328244274,-0.01220703125,-0.012939453125,-0.606689453125,0.9741
5.114503816793893,2.3206106870229006,1.6793893129770991,-0.01220703125,-0.01025390625,-0.60986328125,0.9758
5.206106870229007,2.122137404580153,1.6641221374045803,-0.014892578125,-0.00537109375,-0.615234375,0.9774999999999999
5.450381679389313,1.8931297709923665,1.8015267175572518,-0.015869140625,-0.008056640625,-0.615234375,0.9792
5.282442748091603,1.7557251908396947,1.5877862595419847,-0.010498046875,-0.0078125,-0.622314453125,0.9809
5.221374045801527,1.6793893129770991,1.6030534351145038,-0.01318359375,-0.006591796875,-0.61181640625,0.9825999999999999
5.4961832061068705,1.3893129770992367,1.618320610687023,-0.012451171875,-0.006591796875,-0.60888671875,0.9843
5.435114503816794,1.3587786259541985,1.8778625954198473,-0.01123046875,-0.00732421875,-0.61572265625,0.986
5.435114503816794,1.0687022900763359,1.6030534351145038,-0.01123046875,-0.005126953125,-0.61767578125,0.9876999999999999
5.465648854961832,1.0076335877862594,1.6641221374045803,-0.010986328125,-0.009033203125,-0.616943359375,0.9894
5.435114503816794,0.7175572519083969,1.7251908396946565,-0.011962890625,-0.011474609375,-0.6142578125,0.9911
5.450381679389313,0.4580152671755725,1.816793893129771,-0.01171875,-0.0087890625,-0.617431640625,0.9927999999999999
5.358778625954199,0.4580152671755725,1.4351145038167938,-0.010498046875,-0.005859375,-0.61962890625,0.9944999999999999
5.190839694656488,0.22900763358778625,1.5572519083969465,-0.0146484375,-0.00390625,-0.619140625,0.9962
5.297709923664122,0.1984732824427481,1.5267175572519085,-0.012451171875,-0.007080078125,-0.619140625,0.9978999999999999
5.343511450381679,0.16793893129770993,1.3740458015267176,-0.017333984375,-0.002685546875,-0.613037109375,0.9995999999999999
5.343511450381679,0.0,1.099236641221374,-0.01513671875,-0.006591796875,-0.6123046875,1.0012999999999999
5.282442748091603,0.030534351145038167,1.1145038167938932,-0.0185546875,-0.005859375,-0.61376953125,1.003
5.358778625954199,-0.10687022900763359,0.8854961832061069,-0.01904296875,-0.00634765625,-0.61865234375,1.0047
5.190839694656488,-0.12213740458015267,1.0687022900763359,-0.0224609375,-0.00341796875,-0.61572265625,1.0064
5.251908396946565,-0.061068702290076333,0.8244274809160306,-0.019287109375,-0.010498046875,-0.61865234375,1.0081
5.374045801526718,-0.13740458015267176,0.6259541984732825,-0.022705078125,-0.004150390625,-0.613037109375,1.0098
5.3893129770992365,-0.4732824427480916,0.32061068702290074,-0.021728515625,-0.010498046875,-0.609619140625,1.0114999999999998
5.282442748091603,-0.183206106870229,0.42748091603053434,-0.021240234375,-0.0107421875,-0.6123046875,1.0131999999999999
5.236641221374046,-0.3053435114503817,0.4580152671755725,-0.02587890625,-0.00830078125,-0.62158203125,1.0149
5.32824427480916,-0.1984732824427481,0.42748091603053434,-0.02392578125,-0.00927734375,-0.611083984375,1.0166
5.251908396946565,-0.32061068702290074,0.13740458015267176,-0.0234375,-0.004150390625,-0.6123046875,1.0183
5.282442748091603,-0.3511450381679389,0.15267175572519084,-0.02783203125,-0.009521484375,-0.614501953125,1.02
5.358778625954199,-0.3053435114503817,0.0916030534351145,-0.021484375,-0.007080078125,-0.6171875,1.0217
5.1603053435114505,-0.3969465648854962,0.015267175572519083,-0.022705078125,-0.00927734375,-0.623291015625,1.0233999999999999
5.145038167938932,-0.44274809160305345,-0.16793893129770993,-0.024658203125,-0.013671875,-0.61328125,1.0251
5.145038167938932,-0.5648854961832062,-0.2900763358778626,-0.02392578125,-0.013427734375,-0.6142578125,1.0268
4.977099236641221,-0.48854961832061067,-0.42748091603053434,-0.02587890625,-0.012451171875,-0.612548828125,1.0285
4.931297709923665,-0.5343511450381679,-0.3511450381679389,-0.02880859375,-0.00830078125,-0.621337890625,1.0302
4.870229007633588,-0.6564885496183206,-0.44274809160305345,-0.023193359375,-0.01025390625,-0.628173828125,1.0319
4.854961832061068,-0.44274809160305345,-0.5343511450381679,-0.02392578125,-0.01123046875,-0.61962890625,1.0335999999999999
4.67175572519084,-0.5954198473282443,-0.8244274809160306,-0.0263671875,-0.008544921875,-0.619140625,1.0352999999999999
4.534351145038168,-0.6412213740458015,-0.8549618320610687,-0.02392578125,-0.011962890625,-0.6181640625,1.037
4.519083969465649,-0.916030534351145,-1.1450381679389312,-0.0234375,-0.0126953125,-0.62109375,1.0387
4.473282442748092,-0.9770992366412213,-1.2671755725190839,-0.020751953125,-0.013916015625,-0.62890625,1.0404
4.519083969465649,-0.7633587786259542,-1.282442748091603,-0.027587890625,-0.010498046875,-0.62158203125,1.0421
4.229007633587786,-0.9770992366412213,-1.2671755725190839,-0.023193359375,-0.013427734375,-0.620361328125,1.0437999999999998
4.320610687022901,-0.9618320610687023,-1.5419847328244274,-0.02001953125,-0.0146484375,-0.62353515625,1.0454999999999999
4.183206106870229,-1.099236641221374,-1.618320610687023,-0.02392578125,-0.010498046875,-0.625732421875,1.0472
4.412213740458015,-1.2213740458015268,-1.4961832061068703,-0.0283203125,-0.01025390625,-0.62158203125,1.0489
4.2748091603053435,-1.2213740458015268,-1.5114503816793894,-0.025146484375,-0.01318359375,-0.619140625,1.0506
4.213740458015267,-1.3893129770992367,-1.618320610687023,-0.024658203125,-0.01416015625,-0.620361328125,1.0523
4.061068702290076,-1.4198473282442747,-1.5267175572519085,-0.023193359375,-0.01416015625,-0.6201171875,1.054
4.137404580152672,-1.450381679389313,-1.816793893129771,-0.025146484375,-0.0107421875,-0.62939453125,1.0556999999999999
4.106870229007634,-1.7251908396946565,-1.6488549618320612,-0.020751953125,-0.012451171875,-0.6220703125,1.0574
3.9236641221374047,-1.633587786259542,-1.7557251908396947,-0.02490234375,-0.011962890625,-0.6220703125,1.0591
3.8625954198473282,-1.786259541984733,-1.6488549618320612,-0.026611328125,-0.01611328125,-0.619384765625,1.0608
3.633587786259542,-1.8473282442748091,-1.7557251908396947,-0.026611328125,-0.01806640625,-0.619873046875,1.0625
3.7251908396946565,-1.9541984732824427,-1.7709923664122138,-0.028564453125,-0.020263671875,-0.621826171875,1.0642
3.4656488549618323,-2.0916030534351147,-1.8931297709923665,-0.025634765625,-0.01513671875,-0.620849609375,1.0658999999999998
3.5419847328244276,-2.030534351145038,-1.7557251908396947,-0.031005859375,-0.01025390625,-0.614013671875,1.0675999999999999
3.404580152671756,-1.9694656488549618,-1.816793893129771,-0.030029296875,-0.011474609375,-0.614501953125,1.0693
3.435114503816794,-2.1526717557251906,-1.8015267175572518,-0.022216796875,-0.01318359375,-0.626708984375,1.071
3.068702290076336,-2.0916030534351147,-1.8778625954198473,-0.029541015625,-0.015380859375,-0.626708984375,1.0727
2.732824427480916,-2.183206106870229,-1.9236641221374047,-0.029052734375,-0.01611328125,-0.6279296875,1.0744
2.7480916030534353,-1.9694656488549618,-2.030534351145038,-0.0283203125,-0.013671875,-0.6220703125,1.0760999999999998
2.6564885496183206,-1.9236641221374047,-1.9083969465648856,-0.034423828125,-0.012451171875,-0.621337890625,1.0777999999999999
2.16793893129771,-2.0916030534351147,-2.1526717557251906,-0.0263671875,-0.019775390625,-0.625244140625,1.0795
1.83206106870229,-1.8931297709923665,-2.045801526717557,-0.031494140625,-0.01416015625,-0.623291015625,1.0812
1.7251908396946565,-1.8015267175572518,-2.183206106870229,-0.029541015625,-0.01806640625,-0.622802734375,1.0829
1.3282442748091603,-1.83206106870229,-2.183206106870229,-0.032470703125,-0.016845703125,-0.623046875,1.0846
1.1908396946564885,-1.5877862595419847,-2.16793893129771,-0.02880859375,-0.016845703125,-0.620849609375,1.0863
0.732824427480916,-1.5114503816793894,-2.2748091603053435,-0.031005859375,-0.016845703125,-0.62060546875,1.0879999999999999
0.3511450381679389,-1.5725190839694656,-2.366412213740458,-0.03515625,-0.015380859375,-0.626708984375,1.0897
0.0916030534351145,-1.4961832061068703,-2.595419847328244,-0.032470703125,-0.015380859375,-0.62255859375,1.0914
-0.12213740458015267,-1.3587786259541985,-2.6564885496183206,-0.033935546875,-0.01171875,-0.61865234375,1.0931
-0.6412213740458015,-1.1908396946564885,-2.595419847328244,-0.03369140625,-0.013916015625,-0.627197265625,1.0948
-0.4580152671755725,-1.1145038167938932,-2.7022900763358777,-0.03076171875,-0.01611328125,-0.624267578125,1.0965
-0.9007633587786259,-0.9465648854961832,-2.7480916030534353,-0.034423828125,-0.014404296875,-0.609130859375,1.0981999999999998
-1.083969465648855,-0.8854961832061069,-2.885496183206107,-0.029296875,-0.009521484375,-0.609619140625,1.0998999999999999
-1.1297709923664123,-0.7786259541984732,-2.763358778625954,-0.02734375,-0.013671875,-0.616943359375,1.1016
-1.4045801526717556,-0.5801526717557252,-3.0381679389312977,-0.026123046875,-0.014404296875,-0.619873046875,1.1033
-1.3587786259541985,-0.5038167938931297,-2.931297709923664,-0.028564453125,-0.006591796875,-0.628173828125,1.105
-1.3282442748091603,-0.3816793893129771,-2.946564885496183,-0.026123046875,-0.005615234375,-0.6240234375,1.1067
-1.6946564885496183,-0.3511450381679389,-2.8244274809160306,-0.024169921875,-0.0107421875,-0.620849609375,1.1083999999999998
-1.6641221374045803,-0.2900763358778626,-2.9923664122137406,-0.030517578125,-0.005615234375,-0.61572265625,1.1100999999999999
-1.6488549618320612,-0.21374045801526717,-3.068702290076336,-0.02880859375,-0.0068359375,-0.6171875,1.1118
-1.3282442748091603,-0.0916030534351145,-2.9618320610687023,-0.022705078125,-0.008544921875,-0.6201171875,1.1135
-1.2213740458015268,-0.21374045801526717,-3.0381679389312977,-0.0185546875,-0.010986328125,-0.62060546875,1.1152
-1.3435114503816794,-0.015267175572519083,-2.946564885496183,-0.02490234375,-0.001953125,-0.61669921875,1.1169
-1.0381679389312977,0.015267175572519083,-2.9770992366412212,-0.024658203125,-0.00390625,-0.6181640625,1.1186
-0.9923664122137404,-0.1984732824427481,-2.931297709923664,-0.0185546875,-0.005615234375,-0.625732421875,1.1202999999999999
-1.0381679389312977,-0.030534351145038167,-2.8244274809160306,-0.027099609375,-0.00830078125,-0.61572265625,1.1219999999999999
-1.1145038167938932,-0.04580152671755725,-3.099236641221374,-0.025634765625,-0.002685546875,-0.619873046875,1.1237
-1.0687022900763359,0.16793893129770993,-2.931297709923664,-0.0185546875,-0.0009765625,-0.620849609375,1.1254
-0.9465648854961832,0.3511450381679389,-3.0076335877862594,-0.022705078125,-0.00146484375,-0.621826171875,1.1271
-0.6259541984732825,0.07633587786259542,-2.885496183206107,-0.030029296875,-0.00146484375,-0.616455078125,1.1288
-0.5954198473282443,0.183206106870229,-2.946564885496183,-0.023193359375,0.0,-0.623779296875,1.1304999999999998
-0.5954198473282443,0.32061068702290074,-3.068702290076336,-0.02392578125,-0.001220703125,-0.62158203125,1.1321999999999999
-0.42748091603053434,0.2900763358778626,-3.068702290076336,-0.02197265625,-0.005859375,-0.617919921875,1.1339
-0.32061068702290074,0.2748091603053435,-2.9923664122137406,-0.02392578125,-0.005859375,-0.627685546875,1.1356
-0.015267175572519083,0.549618320610687,-2.9160305343511452,-0.02978515625,-0.00439453125,-0.623779296875,1.1373
0.015267175572519083,0.5038167938931297,-3.053435114503817,-0.0263671875,-0.005859375,-0.6240234375,1.139
0.2595419847328244,0.5648854961832062,-3.0381679389312977,-0.02734375,-0.00634765625,-0.6181640625,1.1407
0.4732824427480916,0.6106870229007634,-2.9160305343511452,-0.030517578125,0.005615234375,-0.615478515625,1.1423999999999999
0.8396946564885496,0.732824427480916,-2.885496183206107,-0.027587890625,-0.005126953125,-0.618896484375,1.1441
0.6106870229007634,0.9007633587786259,-2.9160305343511452,-0.024169921875,-0.0029296875,-0.614990234375,1.1458
0.9465648854961832,0.7786259541984732,-2.946564885496183,-0.02294921875,-0.003173828125,-0.620361328125,1.1475
1.0229007633587786,1.1908396946564885,-2.885496183206107,-0.024169921875,-0.001708984375,-0.605712890625,1.1492
1.1603053435114503,1.3587786259541985,-2.3206106870229006,-0.02685546875,-0.005615234375,-0.60693359375,1.1509
1.2213740458015268,1.251908396946565,-2.519083969465649,-0.026123046875,-0.0048828125,-0.61328125,1.1525999999999998
1.3740458015267176,1.633587786259542,-2.5343511450381677,-0.0283203125,-0.003173828125,-0.616455078125,1.1542999999999999
1.4809160305343512,1.6488549618320612,-2.3969465648854964,-0.030029296875,-0.001708984375,-0.6064453125,1.156
1.6946564885496183,1.786259541984733,-2.2595419847328246,-0.030517578125,-0.000732421875,-0.60888671875,1.1577
1.7557251908396947,1.9389312977099236,-2.213740458015267,-0.030029296875,-0.004150390625,-0.61572265625,1.1594
1.8931297709923665,2.015267175572519,-2.045801526717557,-0.0244140625,-0.00537109375,-0.619384765625,1.1611
2.1526717557251906,2.4427480916030535,-1.984732824427481,-0.023193359375,-0.007568359375,-0.61767578125,1.1627999999999998
2.1374045801526718,2.6259541984732824,-1.9236641221374047,-0.024169921875,-0.00439453125,-0.61181640625,1.1644999999999999
2.1374045801526718,2.717557251908397,-1.6030534351145038,-0.02685546875,0.000244140625,-0.615478515625,1.1662
2.2595419847328246,2.9923664122137406,-1.6488549618320612,-0.0234375,-0.005859375,-0.607421875,1.1679
2.198473282442748,2.9160305343511452,-1.5877862595419847,-0.0234375,-0.007568359375,-0.61181640625,1.1696
2.0610687022900764,3.1755725190839694,-1.4961832061068703,-0.025146484375,-0.0068359375,-0.600341796875,1.1713
2.2290076335877864,3.282442748091603,-1.251908396946565,-0.020751953125,-0.001220703125,-0.613037109375,1.173
2.2900763358778624,3.3587786259541983,-1.1908396946564885,-0.021240234375,-0.001953125,-0.61181640625,1.1746999999999999
2.366412213740458,3.5419847328244276,-1.297709923664122,-0.02197265625,-0.008544921875,-0.611328125,1.1764
2.2900763358778624,3.633587786259542,-0.8854961832061069,-0.0205078125,-0.004638671875,-0.609130859375,1.1781
2.351145038167939,3.7557251908396947,-0.9007633587786259,-0.02490234375,-0.008056640625,-0.603515625,1.1798
2.4122137404580153,3.7251908396946565,-0.8549618320610687,-0.02001953125,-0.00146484375,-0.61865234375,1.1815
2.2748091603053435,3.9083969465648853,-0.6259541984732825,-0.018310546875,-0.001220703125,-0.6123046875,1.1832
2.2442748091603053,3.8625954198473282,-0.6412213740458015,-0.017822265625,-0.0048828125,-0.606689453125,1.1848999999999998
2.381679389312977,3.8625954198473282,-0.366412213740458,-0.01806640625,-0.00927734375,-0.60791015625,1.1865999999999999
2.2290076335877864,3.984732824427481,-0.42748091603053434,-0.01806640625,-0.000732421875,-0.6162109375,1.1883
2.3206106870229006,3.7251908396946565,-0.5343511450381679,-0.021484375,-0.001708984375,-0.60546875,1.19
2.4885496183206106,3.9083969465648853,-0.1984732824427481,-0.017578125,-0.0048828125,-0.606689453125,1.1917
2.2748091603053435,3.969465648854962,-0.13740458015267176,-0.015625,-0.005126953125,-0.60205078125,1.1934
2.50381679389313,3.786259541984733,0.13740458015267176,-0.01708984375,-0.003662109375,-0.60693359375,1.1950999999999998
2.595419847328244,3.8931297709923665,0.13740458015267176,-0.016357421875,-0.006591796875,-0.611083984375,1.1967999999999999
2.4732824427480917,3.7709923664122136,0.16793893129770993,-0.014892578125,-0.004150390625,-0.609375,1.1985
2.4732824427480917,3.801526717557252,0.15267175572519084,-0.015869140625,-0.0009765625,-0.6162109375,1.2002
2.2900763358778624,3.633587786259542,0.366412213740458,-0.014892578125,-0.00439453125,-0.60693359375,1.2019
2.183206106870229,3.8625954198473282,0.366412213740458,-0.017578125,-0.00146484375,-0.609619140625,1.2036
1.9694656488549618,3.9389312977099236,0.2595419847328244,-0.013671875,-0.002197265625,-0.619384765625,1.2053
1.984732824427481,3.816793893129771,0.3816793893129771,-0.01220703125,-0.00244140625,-0.6064453125,1.2069999999999999
1.8931297709923665,3.83206106870229,0.5648854961832062,-0.0185546875,-0.009521484375,-0.604736328125,1.2086999999999999
1.9389312977099236,3.9389312977099236,0.42748091603053434,-0.023193359375,-0.005126953125,-0.608642578125,1.2104
1.618320610687023,3.877862595419847,0.5190839694656488,-0.0205078125,0.000244140625,-0.609375,1.2121
1.6946564885496183,4.030534351145038,0.5038167938931297,-0.01904296875,-0.0009765625,-0.60595703125,1.2138
1.6641221374045803,3.984732824427481,0.549618320610687,-0.02197265625,0.001220703125,-0.611328125,1.2155
1.465648854961832,4.076335877862595,0.4732824427480916,-0.015625,-0.00146484375,-0.61865234375,1.2171999999999998
1.4045801526717556,4.076335877862595,0.6870229007633588,-0.015625,0.00244140625,-0.613525390625,1.2188999999999999
1.2213740458015268,4.015267175572519,0.6259541984732825,-0.01708984375,-0.005859375,-0.610595703125,1.2206
1.0229007633587786,3.9389312977099236,0.5954198473282443,-0.022216796875,-0.001953125,-0.623291015625,1.2223
1.0687022900763359,3.877862595419847,0.6259541984732825,-0.01904296875,0.005126953125,-0.61328125,1.224
1.0076335877862594,4.091603053435114,0.5190839694656488,-0.016357421875,0.004638671875,-0.621337890625,1.2257
0.9465648854961832,3.9236641221374047,0.4732824427480916,-0.01806640625,0.0,-0.62451171875,1.2273999999999998
0.7633587786259542,3.984732824427481,0.5648854961832062,-0.023193359375,0.003662109375,-0.617431640625,1.2290999999999999
0.8854961832061069,3.8931297709923665,0.3816793893129771,-0.01416015625,0.0029296875,-0.61767578125,1.2308
0.7480916030534351,3.618320610687023,0.42748091603053434,-0.01806640625,0.005859375,-0.611328125,1.2325
0.6717557251908397,3.572519083969466,0.6106870229007634,-0.016357421875,0.005615234375,-0.607177734375,1.2342
0.5038167938931297,3.4198473282442747,0.366412213740458,-0.015625,0.00634765625,-0.609619140625,1.2359
0.8549618320610687,3.3740458015267176,0.2748091603053435,-0.020751953125,0.000732421875,-0.61865234375,1.2376
0.549618320610687,3.2213740458015265,0.32061068702290074,-0.01513671875,0.00830078125,-0.615966796875,1.2392999999999998
0.5038167938931297,3.1755725190839694,0.061068702290076333,-0.013671875,0.005126953125,-0.621337890625,1.2409999999999999
0.7786259541984732,2.900763358778626,-0.030534351145038167,-0.015869140625,0.00732421875,-0.608642578125,1.2427
0.9770992366412213,2.595419847328244,-0.12213740458015267,-0.01708984375,0.010009765625,-0.60693359375,1.2444
1.1297709923664123,2.5343511450381677,-0.0916030534351145,-0.0146484375,0.0068359375,-0.6162109375,1.2461
1.1755725190839694,2.4122137404580153,-0.2595419847328244,-0.015869140625,0.00341796875,-0.61376953125,1.2478
1.4961832061068703,2.0763358778625953,-0.1984732824427481,-0.01416015625,0.00146484375,-0.61865234375,1.2494999999999998
1.5572519083969465,2.183206106870229,-0.42748091603053434,-0.011962890625,0.0087890625,-0.612060546875,1.2511999999999999
1.6793893129770991,1.8931297709923665,-0.5343511450381679,-0.01123046875,0.006591796875,-0.6123046875,1.2529
1.7709923664122138,1.5419847328244274,-0.6564885496183206,-0.02001953125,0.001708984375,-0.613525390625,1.2546
1.984732824427481,1.5114503816793894,-0.5343511450381679,-0.014892578125,0.007080078125,-0.615478515625,1.2563
2.122137404580153,1.2061068702290076,-0.6259541984732825,-0.01318359375,0.0029296875,-0.623291015625,1.258
2.213740458015267,1.0534351145038168,-0.4732824427480916,-0.01416015625,0.00341796875,-0.6103515625,1.2596999999999998
2.2442748091603053,0.8854961832061069,-0.732824427480916,-0.0185546875,0.005859375,-0.620361328125,1.2613999999999999
2.198473282442748,0.6412213740458015,-0.6412213740458015,-0.017822265625,0.00341796875,-0.616943359375,1.2631
2.33587786259542,0.33587786259541985,-0.7786259541984732,-0.0224609375,0.0068359375,-0.6123046875,1.2648
2.381679389312977,0.3053435114503817,-0.6412213740458015,-0.021728515625,-0.0009765625,-0.620361328125,1.2665
2.213740458015267,0.2595419847328244,-0.8091603053435115,-0.01806640625,0.000244140625,-0.615966796875,1.2682
2.2442748091603053,0.061068702290076333,-0.5954198473282443,-0.0146484375,-0.00048828125,-0.610107421875,1.2699
2.366412213740458,-0.015267175572519083,-0.8396946564885496,-0.020751953125,-0.00048828125,-0.61328125,1.2715999999999998
2.0610687022900764,-0.12213740458015267,-0.7786259541984732,-0.016357421875,0.0,-0.61083984375,1.2732999999999999
2.1374045801526718,-0.2748091603053435,-0.9007633587786259,-0.0205078125,0.001708984375,-0.619140625,1.275
2.0610687022900764,-0.3969465648854962,-0.8244274809160306,-0.022216796875,-0.001220703125,-0.6181640625,1.2767
1.8778625954198473,-0.6106870229007634,-1.0687022900763359,-0.02392578125,-0.00146484375,-0.623779296875,1.2784
1.8625954198473282,-0.7022900763358778,-0.7022900763358778,-0.0244140625,-0.000244140625,-0.620849609375,1.2801
1.5419847328244274,-0.6412213740458015,-0.9312977099236641,-0.02392578125,-0.0009765625,-0.614013671875,1.2817999999999998
1.5419847328244274,-0.9465648854961832,-0.9007633587786259,-0.019287109375,-0.001708984375,-0.620849609375,1.2834999999999999
1.4045801526717556,-0.916030534351145,-0.8396946564885496,-0.024169921875,-0.0068359375,-0.617431640625,1.2852
1.251908396946565,-0.9465648854961832,-0.7633587786259542,-0.02685546875,-0.006591796875,-0.621337890625,1.2869
1.2213740458015268,-1.0229007633587786,-0.9770992366412213,-0.027587890625,-0.005126953125,-0.6123046875,1.2886
1.3282442748091603,-1.1450381679389312,-0.8396946564885496,-0.026611328125,-0.006103515625,-0.6181640625,1.2903
1.1450381679389312,-0.9770992366412213,-1.0381679389312977,-0.023681640625,-0.00634765625,-0.62109375,1.292
1.2366412213740459,-1.1297709923664123,-0.8702290076335878,-0.02685546875,-0.0078125,-0.615478515625,1.2936999999999999
1.2213740458015268,-1.3129770992366412,-1.2061068702290076,-0.02001953125,-0.011962890625,-0.612548828125,1.2953999999999999
1.1908396946564885,-1.3435114503816794,-1.0229007633587786,-0.02099609375,-0.01025390625,-0.617431640625,1.2971
1.0229007633587786,-1.4198473282442747,-1.2061068702290076,-0.0234375,-0.006591796875,-0.618408203125,1.2988
1.0229007633587786,-1.5267175572519085,-1.1908396946564885,-0.026611328125,-0.006103515625,-0.620849609375,1.3005
1.0229007633587786,-1.5572519083969465,-1.1908396946564885,-0.02490234375,-0.009765625,-0.61328125,1.3022
1.0381679389312977,-1.4961832061068703,-0.9923664122137404,-0.02001953125,-0.0107421875,-0.6181640625,1.3038999999999998
1.0076335877862594,-1.5572519083969465,-1.297709923664122,-0.0244140625,-0.0087890625,-0.6162109375,1.3055999999999999
0.8244274809160306,-1.786259541984733,-1.083969465648855,-0.023193359375,-0.0126953125,-0.6103515625,1.3073
0.8549618320610687,-1.5419847328244274,-1.297709923664122,-0.02294921875,-0.0107421875,-0.614501953125,1.309
0.3816793893129771,-1.5419847328244274,-1.3282442748091603,-0.023681640625,-0.00439453125,-0.617919921875,1.3107
0.13740458015267176,-1.7404580152671756,-1.465648854961832,-0.025146484375,-0.0048828125,-0.6171875,1.3124
-0.061068702290076333,-1.6488549618320612,-1.251908396946565,-0.024169921875,-0.00390625,-0.62109375,1.3140999999999998
-0.12213740458015267,-1.6641221374045803,-1.5725190839694656,-0.02392578125,0.001220703125,-0.617919921875,1.3157999999999999
-0.32061068702290074,-1.7099236641221374,-1.5572519083969465,-0.027099609375,-0.00634765625,-0.60888671875,1.3175
-0.6259541984732825,-1.6488549618320612,-1.4045801526717556,-0.029296875,-0.001953125,-0.613037109375,1.3192
-0.732824427480916,-1.5877862595419847,-1.297709923664122,-0.020263671875,-0.005615234375,-0.616943359375,1.3209
-0.9465648854961832,-1.6030534351145038,-1.3587786259541985,-0.0224609375,-0.003662109375,-0.61767578125,1.3226
-0.9007633587786259,-1.7709923664122138,-1.6030534351145038,-0.02197265625,-0.003173828125,-0.619384765625,1.3243
-1.0229007633587786,-1.9083969465648856,-1.633587786259542,-0.024169921875,-0.0029296875,-0.6171875,1.3259999999999998
-1.0076335877862594,-1.786259541984733,-1.5877862595419847,-0.0234375,-0.004638671875,-0.6162109375,1.3276999999999999
-1.0076335877862594,-1.8015267175572518,-1.4961832061068703,-0.023193359375,-0.00634765625,-0.611083984375,1.3294
-1.099236641221374,-1.9541984732824427,-1.6946564885496183,-0.021728515625,0.00146484375,-0.6162109375,1.3311
-1.083969465648855,-1.8931297709923665,-1.7709923664122138,-0.021484375,-0.003173828125,-0.608642578125,1.3328
-0.9007633587786259,-1.9389312977099236,-1.786259541984733,-0.021484375,-0.0009765625,-0.623291015625,1.3345
-0.8244274809160306,-1.8931297709923665,-1.9236641221374047,-0.02294921875,-0.002685546875,-0.622314453125,1.3361999999999998
-0.732824427480916,-2.030534351145038,-1.9083969465648856,-0.020751953125,-0.00830078125,-0.619384765625,1.3378999999999999
-0.5190839694656488,-2.0610687022900764,-2.0916030534351147,-0.022216796875,-0.005859375,-0.62060546875,1.3396
-0.24427480916030533,-2.0763358778625953,-2.0,-0.022705078125,-0.00390625,-0.61279296875,1.3413
-0.22900763358778625,-2.0916030534351147,-2.1068702290076335,-0.023193359375,-0.01171875,-0.613525390625,1.343
0.0,-1.9083969465648856,-1.8625954198473282,-0.02099609375,-0.00390625,-0.6162109375,1.3447
0.0916030534351145,-2.015267175572519,-2.045801526717557,-0.01904296875,-0.00439453125,-0.619140625,1.3463999999999998
0.366412213740458,-2.0916030534351147,-1.9694656488549618,-0.022705078125,0.001708984375,-0.618408203125,1.3480999999999999
0.2900763358778626,-1.6641221374045803,-2.183206106870229,-0.021240234375,-0.005615234375,-0.62060546875,1.3497999999999999
0.21374045801526717,-1.816793893129771,-2.030534351145038,-0.02294921875,0.00048828125,-0.607177734375,1.3515
0.44274809160305345,-1.6946564885496183,-2.122137404580153,-0.02587890625,-0.003173828125,-0.61328125,1.3532
0.5038167938931297,-1.786259541984733,-2.015267175572519,-0.02294921875,-0.004150390625,-0.615966796875,1.3549
0.5190839694656488,-1.7099236641221374,-1.9694656488549618,-0.024169921875,-0.0048828125,-0.621337890625,1.3566
0.366412213740458,-1.5572519083969465,-1.9694656488549618,-0.026611328125,-0.000732421875,-0.619384765625,1.3582999999999998
0.366412213740458,-1.4045801526717556,-1.8778625954198473,-0.026611328125,-0.0078125,-0.609619140625,1.3599999999999999
0.42748091603053434,-1.2671755725190839,-1.8473282442748091,-0.029296875,-0.004150390625,-0.619873046875,1.3617
0.4122137404580153,-1.2061068702290076,-1.8931297709923665,-0.03076171875,-0.005859375,-0.61279296875,1.3634
0.3816793893129771,-1.099236641221374,-1.7251908396946565,-0.028076171875,-0.004638671875,-0.608642578125,1.3651
0.5190839694656488,-1.0534351145038168,-1.9694656488549618,-0.0263671875,-0.007568359375,-0.609130859375,1.3668
0.1984732824427481,-0.9618320610687023,-1.83206106870229,-0.021728515625,-0.009765625,-0.60791015625,1.3684999999999998
0.2900763358778626,-0.7022900763358778,-1.9083969465648856,-0.027099609375,-0.00537109375,-0.61669921875,1.3701999999999999
0.3816793893129771,-0.5954198473282443,-2.0,-0.02490234375,-0.013671875,-0.61083984375,1.3719
0.33587786259541985,-0.5801526717557252,-1.9694656488549618,-0.030029296875,-0.013671875,-0.6201171875,1.3736
0.0916030534351145,-0.42748091603053434,-2.0610687022900764,-0.029296875,-0.0068359375,-0.6181640625,1.3753
0.24427480916030533,-0.3053435114503817,-2.045801526717557,-0.02783203125,-0.01123046875,-0.61962890625,1.377
0.1984732824427481,-0.2595419847328244,-1.7404580152671756,-0.0283203125,-0.00927734375,-0.60986328125,1.3786999999999998
0.13740458015267176,-0.030534351145038167,-2.2442748091603053,-0.02587890625,-0.00537109375,-0.617919921875,1.3803999999999998
0.12213740458015267,0.030534351145038167,-2.2290076335877864,-0.0283203125,-0.009521484375,-0.61181640625,1.3820999999999999
0.15267175572519084,0.2595419847328244,-2.1374045801526718,-0.02587890625,-0.004150390625,-0.61328125,1.3838
0.2595419847328244,0.549618320610687,-1.9389312977099236,-0.03076171875,-0.009033203125,-0.6142578125,1.3855
0.183206106870229,0.549618320610687,-2.0610687022900764,-0.0244140625,-0.006591796875,-0.614501953125,1.3872
0.16793893129770993,0.4580152671755725,-2.0610687022900764,-0.022705078125,-0.01171875,-0.615966796875,1.3889
0.13740458015267176,0.8702290076335878,-1.9236641221374047,-0.031005859375,-0.007080078125,-0.60791015625,1.3905999999999998
0.24427480916030533,0.8854961832061069,-1.8625954198473282,-0.02978515625,-0.007568359375,-0.603271484375,1.3922999999999999
0.21374045801526717,0.9770992366412213,-1.9694656488549618,-0.023193359375,-0.0087890625,-0.61279296875,1.394
0.183206106870229,1.3129770992366412,-1.9236641221374047,-0.029052734375,-0.0078125,-0.609375,1.3957
0.13740458015267176,1.3435114503816794,-1.8015267175572518,-0.028564453125,-0.00634765625,-0.603759765625,1.3974
0.24427480916030533,1.5725190839694656,-1.633587786259542,-0.0234375,-0.009765625,-0.609619140625,1.3991
0.2748091603053435,1.5725190839694656,-1.6030534351145038,-0.02587890625,-0.010009765625,-0.609619140625,1.4007999999999998
0.44274809160305345,1.7251908396946565,-1.6030534351145038,-0.02490234375,-0.014892578125,-0.611083984375,1.4024999999999999
0.2900763358778626,1.7099236641221374,-1.5725190839694656,-0.02783203125,-0.008544921875,-0.615966796875,1.4042
0.366412213740458,1.8778625954198473,-1.3893129770992367,-0.022705078125,-0.0107421875,-0.607177734375,1.4059
0.4732824427480916,2.0,-1.3435114503816794,-0.031982421875,-0.007080078125,-0.611083984375,1.4076
0.48854961832061067,2.030534351145038,-1.2366412213740459,-0.0244140625,-0.009033203125,-0.6201171875,1.4093
0.5190839694656488,2.1526717557251906,-1.1450381679389312,-0.02587890625,-0.01025390625,-0.613525390625,1.411
0.4732824427480916,2.015267175572519,-0.9770992366412213,-0.03173828125,-0.012939453125,-0.620849609375,1.4126999999999998
0.48854961832061067,2.4580152671755724,-1.0076335877862594,-0.027587890625,-0.0146484375,-0.609375,1.4143999999999999
0.5801526717557252,2.33587786259542,-0.9618320610687023,-0.030029296875,-0.013427734375,-0.607421875,1.4161
0.4732824427480916,2.4580152671755724,-0.9312977099236641,-0.026611328125,-0.00341796875,-0.61328125,1.4178
0.6412213740458015,2.6259541984732824,-0.8854961832061069,-0.024169921875,-0.011474609375,-0.615234375,1.4195
0.42748091603053434,2.564885496183206,-0.9618320610687023,-0.026123046875,-0.01123046875,-0.615478515625,1.4212
0.5801526717557252,2.6564885496183206,-0.8396946564885496,-0.02685546875,-0.006591796875,-0.608642578125,1.4228999999999998
0.5190839694656488,2.8091603053435112,-0.9465648854961832,-0.022216796875,-0.015625,-0.605224609375,1.4245999999999999
0.5343511450381679,3.0229007633587788,-0.7786259541984732,-0.022216796875,-0.0146484375,-0.614501953125,1.4263
0.3053435114503817,2.9618320610687023,-0.9007633587786259,-0.022216796875,-0.013671875,-0.61328125,1.428
0.549618320610687,3.3740458015267176,-0.7480916030534351,-0.02978515625,-0.011474609375,-0.60595703125,1.4297
0.4580152671755725,3.312977099236641,-0.8091603053435115,-0.0224609375,-0.0107421875,-0.608154296875,1.4314
0.549618320610687,3.450381679389313,-0.7022900763358778,-0.03173828125,-0.006591796875,-0.609375,1.4330999999999998
0.366412213740458,3.5572519083969465,-0.916030534351145,-0.031982421875,-0.014892578125,-0.6142578125,1.4347999999999999
0.2900763358778626,3.7099236641221376,-0.7480916030534351,-0.02978515625,-0.007568359375,-0.614990234375,1.4364999999999999
0.4732824427480916,3.9083969465648853,-0.9465648854961832,-0.031005859375,-0.0078125,-0.614990234375,1.4382
0.5343511450381679,3.83206106870229,-0.7786259541984732,-0.030029296875,-0.0078125,-0.61865234375,1.4399
0.16793893129770993,3.877862595419847,-0.7786259541984732,-0.025390625,-0.005126953125,-0.616455078125,1.4416
0.24427480916030533,4.015267175572519,-0.7938931297709924,-0.0283203125,-0.00634765625,-0.609375,1.4433
0.33587786259541985,4.0458015267175576,-0.5648854961832062,-0.0224609375,-0.00634765625,-0.608154296875,1.4449999999999998
0.3053435114503817,3.969465648854962,-0.7480916030534351,-0.021240234375,-0.00634765625,-0.6103515625,1.4466999999999999
0.3969465648854962,3.969465648854962,-0.7786259541984732,-0.02001953125,-0.005126953125,-0.611328125,1.4484
0.3816793893129771,4.152671755725191,-0.4732824427480916,-0.02099609375,-0.005859375,-0.609619140625,1.4501
0.44274809160305345,3.984732824427481,-0.549618320610687,-0.02490234375,-0.006591796875,-0.6181640625,1.4518
0.5801526717557252,4.061068702290076,-0.44274809160305345,-0.02197265625,-0.007080078125,-0.613525390625,1.4535
0.7175572519083969,4.076335877862595,-0.7175572519083969,-0.020751953125,-0.002685546875,-0.60693359375,1.4551999999999998
0.8549618320610687,3.984732824427481,-0.6259541984732825,-0.020751953125,-0.003662109375,-0.609375,1.4568999999999999
1.083969465648855,3.8625954198473282,-0.549618320610687,-0.016845703125,-0.00634765625,-0.6103515625,1.4586
1.099236641221374,3.9083969465648853,-0.6564885496183206,-0.021484375,-0.005859375,-0.611328125,1.4603
1.0687022900763359,3.7404580152671754,-0.8854961832061069,-0.021240234375,-0.00390625,-0.60888671875,1.462
1.2671755725190839,3.6946564885496183,-0.7480916030534351,-0.0224609375,0.00048828125,-0.617431640625,1.4637
1.3282442748091603,3.480916030534351,-0.7633587786259542,-0.019775390625,-0.00048828125,-0.615234375,1.4653999999999998
1.1603053435114503,3.618320610687023,-0.7480916030534351,-0.016845703125,0.001708984375,-0.613037109375,1.4670999999999998
1.3129770992366412,3.6030534351145036,-0.8702290076335878,-0.024169921875,0.002197265625,-0.61181640625,1.4687999999999999
1.4351145038167938,3.4198473282442747,-0.9465648854961832,-0.022705078125,0.000732421875,-0.612060546875,1.4705
1.3587786259541985,3.5267175572519083,-0.7938931297709924,-0.02099609375,-0.0029296875,-0.608642578125,1.4722
1.1908396946564885,3.435114503816794,-0.9465648854961832,-0.020751953125,-0.00146484375,-0.61474609375,1.4739
1.3129770992366412,3.312977099236641,-1.0534351145038168,-0.017822265625,-0.001708984375,-0.615478515625,1.4756
1.3587786259541985,3.282442748091603,-0.9312977099236641,-0.019287109375,-0.001953125,-0.6123046875,1.4772999999999998
1.3587786259541985,2.8702290076335877,-0.9618320610687023,-0.01953125,0.002197265625,-0.612548828125,1.4789999999999999
1.2671755725190839,2.854961832061069,-1.1908396946564885,-0.021240234375,-0.000244140625,-0.6142578125,1.4807
1.282442748091603,2.8396946564885495,-1.1297709923664123,-0.017822265625,0.001953125,-0.617919921875,1.4824
1.5725190839694656,2.7938931297709924,-1.1908396946564885,-0.019287109375,-0.003173828125,-0.62255859375,1.4841
1.4961832061068703,2.6106870229007635,-1.251908396946565,-0.0185546875,-0.00244140625,-0.61376953125,1.4858
1.5114503816793894,2.4122137404580153,-1.1755725190839694,-0.013427734375,-0.0009765625,-0.6142578125,1.4874999999999998
1.7099236641221374,2.2595419847328246,-1.1450381679389312,-0.017333984375,0.000244140625,-0.60986328125,1.4891999999999999
1.7099236641221374,2.427480916030534,-1.1908396946564885,-0.0146484375,-0.00341796875,-0.614990234375,1.4909
1.5877862595419847,2.33587786259542,-1.1145038167938932,-0.014404296875,-0.001220703125,-0.609130859375,1.4926
1.9083969465648856,2.1374045801526718,-1.1603053435114503,-0.01953125,-0.002197265625,-0.61572265625,1.4943
1.8778625954198473,2.1068702290076335,-1.297709923664122,-0.01318359375,-0.005126953125,-0.62060546875,1.496
2.0,1.8473282442748091,-1.2061068702290076,-0.0146484375,-0.002685546875,-0.611328125,1.4976999999999998
2.2290076335877864,1.83206106870229,-1.1603053435114503,-0.017333984375,-0.004638671875,-0.60791015625,1.4993999999999998
2.1374045801526718,1.7404580152671756,-1.1145038167938932,-0.018798828125,-0.0009765625,-0.61572265625,1.5010999999999999
1.984732824427481,1.5419847328244274,-1.1297709923664123,-0.021728515625,-0.007080078125,-0.607666015625,1.5028
2.198473282442748,1.5267175572519085,-1.2671755725190839,-0.01611328125,-0.00830078125,-0.611083984375,1.5045
2.2900763358778624,1.3893129770992367,-1.099236641221374,-0.013427734375,-0.001708984375,-0.608154296875,1.5062
2.33587786259542,1.2213740458015268,-1.1297709923664123,-0.017578125,-0.0087890625,-0.61279296875,1.5079
2.0,1.1908396946564885,-1.0381679389312977,-0.017822265625,-0.005615234375,-0.61181640625,1.5095999999999998
2.1374045801526718,0.9465648854961832,-0.9007633587786259,-0.016845703125,-0.00830078125,-0.61376953125,1.5112999999999999
2.2748091603053435,1.0534351145038168,-1.0534351145038168,-0.013427734375,-0.01025390625,-0.60986328125,1.513
2.045801526717557,0.6412213740458015,-1.0687022900763359,-0.01708984375,-0.010986328125,-0.61279296875,1.5147
2.030534351145038,0.6259541984732825,-0.9007633587786259,-0.016357421875,-0.005615234375,-0.614013671875,1.5164
2.045801526717557,0.6717557251908397,-1.1755725190839694,-0.016845703125,-0.005859375,-0.613037109375,1.5181
1.9541984732824427,0.6870229007633588,-1.0381679389312977,-0.015380859375,-0.00830078125,-0.622802734375,1.5197999999999998
1.816793893129771,0.4580152671755725,-1.0687022900763359,-0.0146484375,-0.0078125,-0.627685546875,1.5214999999999999
1.6793893129770991,0.44274809160305345,-1.2061068702290076,-0.01220703125,-0.009033203125,-0.611572265625,1.5231999999999999
1.633587786259542,0.4122137404580153,-1.2061068702290076,-0.021240234375,-0.00439453125,-0.612548828125,1.5249
1.6030534351145038,0.16793893129770993,-1.2213740458015268,-0.017822265625,-0.0107421875,-0.61328125,1.5266
1.282442748091603,0.07633587786259542,-1.282442748091603,-0.016357421875,-0.0078125,-0.6044921875,1.5283
1.282442748091603,0.0916030534351145,-1.0534351145038168,-0.02099609375,-0.008056640625,-0.614013671875,1.5299999999999998
1.2213740458015268,-0.13740458015267176,-1.251908396946565,-0.0185546875,-0.008544921875,-0.609130859375,1.5316999999999998
1.1755725190839694,-0.21374045801526717,-1.2213740458015268,-0.02197265625,-0.00927734375,-0.612548828125,1.5333999999999999
0.9770992366412213,-0.10687022900763359,-1.2671755725190839,-0.019287109375,-0.003662109375,-0.608154296875,1.5351
0.8854961832061069,-0.2595419847328244,-1.1755725190839694,-0.015380859375,0.001708984375,-0.61767578125,1.5368
0.8549618320610687,-0.32061068702290074,-1.3587786259541985,-0.022705078125,-0.00390625,-0.611083984375,1.5385
1.0076335877862594,-0.2900763358778626,-1.251908396946565,-0.0205078125,-0.00927734375,-0.6123046875,1.5402
0.8854961832061069,-0.3511450381679389,-1.3893129770992367,-0.01904296875,-0.008056640625,-0.616455078125,1.5418999999999998
0.7480916030534351,-0.5648854961832062,-1.251908396946565,-0.015625,-0.006591796875,-0.6123046875,1.5435999999999999
0.7786259541984732,-0.42748091603053434,-1.251908396946565,-0.019775390625,-0.004638671875,-0.60693359375,1.5453
0.6412213740458015,-0.5801526717557252,-1.4198473282442747,-0.016357421875,-0.0048828125,-0.610595703125,1.547
0.7633587786259542,-0.7480916030534351,-1.1450381679389312,-0.019775390625,-0.002197265625,-0.61083984375,1.5487
0.7480916030534351,-0.5801526717557252,-1.1603053435114503,-0.01806640625,-0.000244140625,-0.60302734375,1.5504
0.7633587786259542,-0.7022900763358778,-1.4351145038167938,-0.017333984375,-0.00390625,-0.6064453125,1.5520999999999998
0.7175572519083969,-0.8549618320610687,-1.3587786259541985,-0.0126953125,-0.005859375,-0.610107421875,1.5537999999999998
0.6564885496183206,-0.8244274809160306,-1.3435114503816794,-0.016357421875,-0.003662109375,-0.6064453125,1.5554999999999999
0.6259541984732825,-0.6564885496183206,-1.1755725190839694,-0.02001953125,-0.005615234375,-0.616455078125,1.5572
0.4580152671755725,-0.8854961832061069,-1.4198473282442747,-0.018310546875,-0.004638671875,-0.610107421875,1.5589
0.732824427480916,-0.9465648854961832,-1.1908396946564885,-0.01806640625,-0.002197265625,-0.608154296875,1.5606
0.8549618320610687,-1.0381679389312977,-1.3129770992366412,-0.0205078125,-0.002685546875,-0.6064453125,1.5623
1.1603053435114503,-0.8702290076335878,-1.282442748091603,-0.0185546875,-0.0087890625,-0.609130859375,1.5639999999999998
1.2061068702290076,-0.8396946564885496,-1.4198473282442747,-0.01708984375,-0.0087890625,-0.615234375,1.5656999999999999
0.9312977099236641,-0.9465648854961832,-1.251908396946565,-0.02490234375,-0.004150390625,-0.610107421875,1.5674
1.1908396946564885,-0.8244274809160306,-1.450381679389313,-0.021240234375,-0.0078125,-0.611083984375,1.5691
1.2671755725190839,-0.9312977099236641,-1.2366412213740459,-0.02001953125,-0.006591796875,-0.61376953125,1.5708
1.4198473282442747,-1.0381679389312977,-1.3282442748091603,-0.021484375,-0.00732421875,-0.61279296875,1.5725
1.3893129770992367,-1.0687022900763359,-1.1908396946564885,-0.024169921875,-0.009521484375,-0.61474609375,1.5741999999999998
1.4198473282442747,-0.8396946564885496,-1.297709923664122,-0.02392578125,-0.0087890625,-0.611328125,1.5758999999999999
1.450381679389313,-0.8549618320610687,-1.251908396946565,-0.02490234375,-0.00341796875,-0.611083984375,1.5776
1.6793893129770991,-0.9312977099236641,-1.2366412213740459,-0.02734375,-0.01025390625,-0.614013671875,1.5793
1.7404580152671756,-0.7022900763358778,-1.3282442748091603,-0.023681640625,-0.00146484375,-0.61376953125,1.581
1.6488549618320612,-0.7480916030534351,-1.5419847328244274,-0.025390625,-0.008544921875,-0.61083984375,1.5827
1.5419847328244274,-0.7786259541984732,-1.450381679389313,-0.0244140625,0.000732421875,-0.61083984375,1.5843999999999998
1.5572519083969465,-0.6717557251908397,-1.5725190839694656,-0.024169921875,-0.007568359375,-0.613037109375,1.5860999999999998
1.5419847328244274,-0.7633587786259542,-1.7404580152671756,-0.024169921875,-0.00439453125,-0.606689453125,1.5877999999999999
1.6030534351145038,-0.6717557251908397,-1.7709923664122138,-0.0224609375,-0.00732421875,-0.62109375,1.5895
1.7099236641221374,-0.6717557251908397,-1.7251908396946565,-0.02490234375,-0.0048828125,-0.61376953125,1.5912
1.9389312977099236,-0.44274809160305345,-1.9236641221374047,-0.02197265625,-0.005859375,-0.607421875,1.5929
1.8931297709923665,-0.42748091603053434,-1.9541984732824427,-0.025146484375,-0.010986328125,-0.623291015625,1.5946
1.9389312977099236,-0.32061068702290074,-1.9083969465648856,-0.025390625,-0.011474609375,-0.614501953125,1.5962999999999998
1.8778625954198473,-0.3511450381679389,-2.030534351145038,-0.020751953125,-0.006591796875,-0.62109375,1.5979999999999999
2.015267175572519,-0.21374045801526717,-2.16793893129771,-0.0234375,-0.01318359375,-0.61376953125,1.5997
2.1374045801526718,-0.22900763358778625,-2.0763358778625953,-0.024169921875,-0.0107421875,-0.615478515625,1.6014
2.0,-0.015267175572519083,-2.030534351145038,-0.024658203125,-0.009033203125,-0.623291015625,1.6031
2.045801526717557,-0.22900763358778625,-1.984732824427481,-0.01953125,-0.008544921875,-0.61669921875,1.6048
2.0610687022900764,-0.15267175572519084,-2.0610687022900764,-0.022705078125,-0.014892578125,-0.613525390625,1.6064999999999998
2.015267175572519,-0.10687022900763359,-1.9694656488549618,-0.02685546875,-0.008544921875,-0.6201171875,1.6081999999999999
2.1526717557251906,0.030534351145038167,-2.122137404580153,-0.025634765625,-0.009521484375,-0.6142578125,1.6098999999999999
2.2595419847328246,0.015267175572519083,-2.045801526717557,-0.02099609375,-0.006591796875,-0.607421875,1.6116
2.0,-0.030534351145038167,-2.16793893129771,-0.02294921875,-0.00927734375,-0.6142578125,1.6133
2.030534351145038,0.13740458015267176,-2.030534351145038,-0.021728515625,-0.00634765625,-0.617431640625,1.615
1.9083969465648856,0.07633587786259542,-2.1068702290076335,-0.021484375,-0.010498046875,-0.607666015625,1.6166999999999998
2.1526717557251906,0.061068702290076333,-2.1374045801526718,-0.024658203125,-0.009765625,-0.613037109375,1.6183999999999998
1.8931297709923665,0.366412213740458,-2.3206106870229006,-0.025390625,-0.004638671875,-0.60986328125,1.6200999999999999
1.984732824427481,0.13740458015267176,-2.2442748091603053,-0.02294921875,-0.00537109375,-0.621337890625,1.6218
1.9541984732824427,0.22900763358778625,-2.4732824427480917,-0.02197265625,-0.01171875,-0.61181640625,1.6235
1.9236641221374047,0.24427480916030533,-2.3053435114503817,-0.02880859375,-0.013427734375,-0.614990234375,1.6252
1.816793893129771,0.3969465648854962,-2.427480916030534,-0.025146484375,-0.0078125,-0.615478515625,1.6269
2.0,0.48854961832061067,-2.427480916030534,-0.020751953125,-0.0126953125,-0.614990234375,1.6285999999999998
1.9083969465648856,0.3816793893129771,-2.50381679389313,-0.0244140625,-0.00390625,-0.61328125,1.6302999999999999
1.83206106870229,0.48854961832061067,-2.3053435114503817,-0.02001953125,-0.008056640625,-0.61669921875,1.632
1.83206106870229,0.6412213740458015,-2.4580152671755724,-0.027099609375,-0.008056640625,-0.614013671875,1.6337
1.7099236641221374,0.4732824427480916,-2.4427480916030535,-0.02099609375,-0.008544921875,-0.623779296875,1.6354
1.7251908396946565,0.48854961832061067,-2.519083969465649,-0.027587890625,-0.008056640625,-0.610595703125,1.6371
1.6488549618320612,0.7175572519083969,-2.4732824427480917,-0.0283203125,-0.0078125,-0.615966796875,1.6387999999999998
1.5725190839694656,0.7938931297709924,-2.3969465648854964,-0.02490234375,-0.01025390625,-0.607666015625,1.6404999999999998
1.5419847328244274,0.9618320610687023,-2.2748091603053435,-0.0244140625,-0.0107421875,-0.611328125,1.6421999999999999
1.3587786259541985,1.099236641221374,-2.5343511450381677,-0.0263671875,-0.011474609375,-0.611572265625,1.6439
1.2213740458015268,1.0076335877862594,-2.4580152671755724,-0.025146484375,-0.010986328125,-0.606689453125,1.6456
1.3893129770992367,0.9465648854961832,-2.4122137404580153,-0.025146484375,-0.01708984375,-0.6162109375,1.6473
1.3129770992366412,1.3740458015267176,-2.3969465648854964,-0.02197265625,-0.0166015625,-0.616455078125,1.6489999999999998
1.2061068702290076,1.4198473282442747,-2.595419847328244,-0.025146484375,-0.0087890625,-0.61328125,1.6506999999999998
1.1908396946564885,1.4198473282442747,-2.3969465648854964,-0.01953125,-0.007080078125,-0.613525390625,1.6523999999999999
1.0687022900763359,1.465648854961832,-2.564885496183206,-0.02685546875,-0.010986328125,-0.613037109375,1.6541
1.2213740458015268,1.5419847328244274,-2.33587786259542,-0.02490234375,-0.0068359375,-0.61376953125,1.6558
0.9923664122137404,1.6030534351145038,-2.595419847328244,-0.022705078125,-0.011962890625,-0.609130859375,1.6575
1.0229007633587786,1.816793893129771,-2.4732824427480917,-0.02392578125,-0.0078125,-0.608642578125,1.6592
0.9770992366412213,1.8625954198473282,-2.6717557251908395,-0.02294921875,-0.0107421875,-0.613525390625,1.6608999999999998
0.7480916030534351,1.7404580152671756,-2.564885496183206,-0.022705078125,-0.009765625,-0.620849609375,1.6625999999999999
0.9312977099236641,1.9541984732824427,-2.5801526717557253,-0.02587890625,-0.0107421875,-0.613525390625,1.6643
0.9465648854961832,2.015267175572519,-2.595419847328244,-0.0224609375,-0.009033203125,-0.61328125,1.666
0.7022900763358778,1.7557251908396947,-2.732824427480916,-0.021484375,-0.009765625,-0.616455078125,1.6677
0.6259541984732825,1.9694656488549618,-2.6564885496183206,-0.02392578125,-0.005615234375,-0.61767578125,1.6694
0.7175572519083969,2.030534351145038,-2.6564885496183206,-0.021484375,-0.0048828125,-0.61279296875,1.6710999999999998
0.5038167938931297,1.9694656488549618,-2.7480916030534353,-0.0185546875,-0.0078125,-0.61181640625,1.6727999999999998
0.3969465648854962,2.0916030534351147,-2.7022900763358777,-0.019775390625,-0.00634765625,-0.61572265625,1.6744999999999999
0.5038167938931297,2.015267175572519,-2.732824427480916,-0.022705078125,-0.00927734375,-0.608642578125,1.6762
0.48854961832061067,1.9541984732824427,-2.6717557251908395,-0.022705078125,-0.00634765625,-0.61376953125,1.6779
0.44274809160305345,1.9389312977099236,-2.5801526717557253,-0.0185546875,-0.002685546875,-0.613525390625,1.6796
0.3511450381679389,1.984732824427481,-2.7480916030534353,-0.025390625,-0.00146484375,-0.609130859375,1.6813
0.2748091603053435,2.1068702290076335,-2.687022900763359,-0.022705078125,-0.00048828125,-0.60595703125,1.6829999999999998
-0.061068702290076333,2.183206106870229,-2.854961832061069,-0.02001953125,-0.005859375,-0.622802734375,1.6846999999999999
0.16793893129770993,2.1374045801526718,-2.7022900763358777,-0.0205078125,0.00341796875,-0.62158203125,1.6864
0.183206106870229,2.2290076335877864,-2.8396946564885495,-0.016845703125,0.0,-0.61279296875,1.6881
0.2595419847328244,2.183206106870229,-2.7480916030534353,-0.018798828125,-0.006103515625,-0.619384765625,1.6898
-0.015267175572519083,2.198473282442748,-2.8396946564885495,-0.0234375,-0.0078125,-0.61962890625,1.6915
0.2748091603053435,2.122137404580153,-2.946564885496183,-0.02392578125,-0.009521484375,-0.611572265625,1.6931999999999998
0.32061068702290074,1.9389312977099236,-2.946564885496183,-0.0263671875,-0.009521484375,-0.60693359375,1.6948999999999999
0.42748091603053434,2.0,-2.885496183206107,-0.023193359375,-0.004150390625,-0.6181640625,1.6965999999999999
0.4732824427480916,1.786259541984733,-3.145038167938931,-0.020751953125,-0.00537109375,-0.608642578125,1.6983
0.4732824427480916,1.984732824427481,-3.145038167938931,-0.02734375,-0.001220703125,-0.6044921875,1.7
0.7480916030534351,1.816793893129771,-3.0381679389312977,-0.0185546875,-0.00439453125,-0.60498046875,1.7017
0.7786259541984732,1.8625954198473282,-3.1297709923664123,-0.022216796875,-0.001708984375,-0.61279296875,1.7033999999999998
0.8091603053435115,1.7557251908396947,-2.9618320610687023,-0.02587890625,-0.001953125,-0.61669921875,1.7050999999999998
0.9923664122137404,1.7557251908396947,-2.8702290076335877,-0.020751953125,-0.00244140625,-0.6142578125,1.7067999999999999
1.0381679389312977,1.633587786259542,-3.0229007633587788,-0.025634765625,-0.002685546875,-0.6103515625,1.7085
0.9618320610687023,1.7404580152671756,-2.7480916030534353,-0.027099609375,0.002685546875,-0.609130859375,1.7102
0.9770992366412213,1.8015267175572518,-2.8244274809160306,-0.02001953125,0.001953125,-0.607177734375,1.7119
1.1145038167938932,1.5114503816793894,-2.7938931297709924,-0.01904296875,-0.001953125,-0.61572265625,1.7136
1.1908396946564885,1.5725190839694656,-2.885496183206107,-0.022216796875,-0.005859375,-0.616455078125,1.7152999999999998
1.251908396946565,1.450381679389313,-2.7938931297709924,-0.017578125,-0.00146484375,-0.615966796875,1.7169999999999999
1.3893129770992367,1.4351145038167938,-2.8702290076335877,-0.020263671875,-0.00634765625,-0.626708984375,1.7187
1.450381679389313,1.7099236641221374,-2.8702290076335877,-0.01806640625,-0.007568359375,-0.61279296875,1.7204
1.6793893129770991,1.465648854961832,-2.854961832061069,-0.024169921875,-0.005859375,-0.61376953125,1.7221
1.5419847328244274,1.282442748091603,-2.687022900763359,-0.0224609375,-0.008544921875,-0.611083984375,1.7238
1.450381679389313,1.297709923664122,-2.9770992366412212,-0.022216796875,-0.001953125,-0.615478515625,1.7254999999999998
1.4809160305343512,1.3893129770992367,-2.9160305343511452,-0.01953125,-0.001708984375,-0.61572265625,1.7271999999999998
1.7557251908396947,1.1450381679389312,-3.0381679389312977,-0.018310546875,0.001953125,-0.609130859375,1.7288999999999999
2.1068702290076335,1.2366412213740459,-2.9923664122137406,-0.02197265625,-0.003662109375,-0.615966796875,1.7306
2.015267175572519,1.282442748091603,-2.8244274809160306,-0.024169921875,-0.000244140625,-0.62060546875,1.7323
1.984732824427481,1.1908396946564885,-2.7480916030534353,-0.02880859375,-0.002685546875,-0.61279296875,1.734
2.1068702290076335,1.0534351145038168,-2.9770992366412212,-0.023193359375,-0.00439453125,-0.612548828125,1.7356999999999998
2.1526717557251906,0.9770992366412213,-2.9923664122137406,-0.025634765625,-0.002197265625,-0.61767578125,1.7373999999999998
2.2900763358778624,1.0534351145038168,-2.8702290076335877,-0.0224609375,-0.00146484375,-0.6181640625,1.7390999999999999
2.2290076335877864,1.1297709923664123,-2.7480916030534353,-0.01953125,-0.0029296875,-0.60791015625,1.7408
2.2442748091603053,1.1450381679389312,-2.7480916030534353,-0.0234375,-0.00390625,-0.611083984375,1.7425
2.4122137404580153,1.0229007633587786,-2.595419847328244,-0.0283203125,-0.003662109375,-0.6142578125,1.7442
2.213740458015267,1.1603053435114503,-2.732824427480916,-0.023681640625,-0.003173828125,-0.615478515625,1.7459
2.213740458015267,1.083969465648855,-2.7022900763358777,-0.0205078125,-0.00537109375,-0.611572265625,1.7475999999999998
2.2595419847328246,1.1603053435114503,-2.4885496183206106,-0.0234375,-0.005859375,-0.61865234375,1.7492999999999999
2.2748091603053435,1.3129770992366412,-2.4580152671755724,-0.018310546875,-0.0048828125,-0.61328125,1.751
2.183206106870229,1.1450381679389312,-2.351145038167939,-0.026611328125,-0.004150390625,-0.61376953125,1.7527
2.2748091603053435,1.1755725190839694,-2.3053435114503817,-0.0234375,-0.007568359375,-0.61669921875,1.7544
2.0916030534351147,1.297709923664122,-2.351145038167939,-0.02490234375,-0.0048828125,-0.61865234375,1.7561
2.0916030534351147,1.3740458015267176,-2.198473282442748,-0.02783203125,-0.008056640625,-0.61279296875,1.7577999999999998
2.0763358778625953,1.4961832061068703,-2.0763358778625953,-0.027587890625,-0.008056640625,-0.62353515625,1.7594999999999998
1.8625954198473282,1.5267175572519085,-2.1526717557251906,-0.02685546875,0.0,-0.61376953125,1.7611999999999999
1.984732824427481,1.633587786259542,-2.045801526717557,-0.023193359375,-0.0048828125,-0.612060546875,1.7629
2.0,1.7404580152671756,-2.015267175572519,-0.017333984375,-0.00146484375,-0.615966796875,1.7646
1.7557251908396947,1.5572519083969465,-1.9083969465648856,-0.025634765625,-0.001220703125,-0.61279296875,1.7663
1.5877862595419847,1.7709923664122138,-1.8015267175572518,-0.022705078125,-0.005126953125,-0.60986328125,1.7679999999999998
1.4809160305343512,1.9389312977099236,-1.7709923664122138,-0.02197265625,-0.00439453125,-0.61083984375,1.7696999999999998
1.3587786259541985,1.8778625954198473,-1.6641221374045803,-0.0263671875,-0.00439453125,-0.607421875,1.7713999999999999
1.1908396946564885,2.0,-1.6488549618320612,-0.02783203125,-0.00537109375,-0.6123046875,1.7731
1.0687022900763359,2.0,-1.4961832061068703,-0.021728515625,-0.005859375,-0.614013671875,1.7748
1.1755725190839694,1.9694656488549618,-1.4961832061068703,-0.0205078125,-0.002197265625,-0.612060546875,1.7765
0.916030534351145,1.984732824427481,-1.5419847328244274,-0.02197265625,-0.0029296875,-0.6064453125,1.7782
1.1297709923664123,2.045801526717557,-1.5725190839694656,-0.0244140625,-0.002685546875,-0.6142578125,1.7798999999999998
0.7938931297709924,2.0763358778625953,-1.4351145038167938,-0.014404296875,-0.00390625,-0.61083984375,1.7815999999999999
0.7633587786259542,2.198473282442748,-1.3435114503816794,-0.02197265625,-0.00146484375,-0.611328125,1.7832999999999999
0.7480916030534351,2.1526717557251906,-1.465648854961832,-0.0234375,-0.00048828125,-0.61865234375,1.785
0.5801526717557252,2.0,-1.5267175572519085,-0.016845703125,-0.001953125,-0.611572265625,1.7867
0.549618320610687,1.7709923664122138,-1.3129770992366412,-0.02001953125,-0.00927734375,-0.61083984375,1.7884
0.549618320610687,1.9236641221374047,-1.251908396946565,-0.023193359375,0.00048828125,-0.620849609375,1.7900999999999998
0.5648854961832062,1.8778625954198473,-1.282442748091603,-0.014404296875,-0.000244140625,-0.6220703125,1.7917999999999998
