gyrox1,gyroy1,gyroz1,accelx1,accely1,accelz1,Time
0.5343511450381679,2.5801526717557253,-1.251908396946565,0.109375,-0.116943359375,-0.59521484375,0.0
0.4732824427480916,2.427480916030534,-1.3282442748091603,0.10400390625,-0.115966796875,-0.599365234375,0.0017
0.4122137404580153,2.564885496183206,-1.1297709923664123,0.10546875,-0.117919921875,-0.593994140625,0.0034
0.3053435114503817,2.519083969465649,-1.3435114503816794,0.103515625,-0.116455078125,-0.591064453125,0.0050999999999999995
0.48854961832061067,2.519083969465649,-1.297709923664122,0.105224609375,-0.119873046875,-0.593994140625,0.0068
0.366412213740458,2.6412213740458017,-1.3435114503816794,0.104736328125,-0.116455078125,-0.60791015625,0.008499999999999999
0.32061068702290074,2.6259541984732824,-1.4198473282442747,0.102294921875,-0.1162109375,-0.5966796875,0.010199999999999999
0.3969465648854962,2.6106870229007635,-1.3282442748091603,0.10498046875,-0.120849609375,-0.594970703125,0.011899999999999999
0.4732824427480916,2.6259541984732824,-1.3587786259541985,0.1083984375,-0.119140625,-0.594970703125,0.0136
0.6870229007633588,2.6564885496183206,-1.3740458015267176,0.10205078125,-0.118408203125,-0.594482421875,0.0153
0.7938931297709924,2.8396946564885495,-1.3435114503816794,0.106201171875,-0.115234375,-0.58837890625,0.016999999999999998
0.7786259541984732,2.7786259541984735,-1.3893129770992367,0.1015625,-0.114990234375,-0.590087890625,0.018699999999999998
0.8854961832061069,2.8091603053435112,-1.3435114503816794,0.10546875,-0.117919921875,-0.59375,0.020399999999999998
0.7633587786259542,2.7022900763358777,-1.4961832061068703,0.1025390625,-0.121337890625,-0.600341796875,0.022099999999999998
0.9465648854961832,2.687022900763359,-1.4045801526717556,0.1064453125,-0.119384765625,-0.593994140625,0.023799999999999998
0.9618320610687023,2.8396946564885495,-1.4198473282442747,0.104248046875,-0.11669921875,-0.597900390625,0.0255
0.9465648854961832,2.900763358778626,-1.4198473282442747,0.101806640625,-0.12109375,-0.59521484375,0.0272
0.7480916030534351,2.6412213740458017,-1.450381679389313,0.10400390625,-0.11376953125,-0.600830078125,0.0289
0.5343511450381679,2.549618320610687,-1.4351145038167938,0.108154296875,-0.119873046875,-0.59521484375,0.0306
0.6564885496183206,2.595419847328244,-1.465648854961832,0.108642578125,-0.118896484375,-0.596435546875,0.032299999999999995
0.6412213740458015,2.4122137404580153,-1.450381679389313,0.106201171875,-0.118408203125,-0.592529296875,0.033999999999999996
0.3816793893129771,2.2442748091603053,-1.4351145038167938,0.11083984375,-0.114990234375,-0.596923828125,0.035699999999999996
0.32061068702290074,2.2442748091603053,-1.5267175572519085,0.111083984375,-0.115966796875,-0.601318359375,0.037399999999999996
0.1984732824427481,2.213740458015267,-1.4809160305343512,0.10791015625,-0.115234375,-0.5927734375,0.039099999999999996
0.2748091603053435,2.045801526717557,-1.4045801526717556,0.104736328125,-0.122802734375,-0.594482421875,0.040799999999999996
0.10687022900763359,2.030534351145038,-1.282442748091603,0.107666015625,-0.115234375,-0.594970703125,0.042499999999999996
0.3053435114503817,1.9389312977099236,-1.450381679389313,0.10498046875,-0.118896484375,-0.594970703125,0.044199999999999996
0.3969465648854962,1.8778625954198473,-1.1603053435114503,0.10693359375,-0.113525390625,-0.59033203125,0.045899999999999996
0.3969465648854962,1.8015267175572518,-1.2061068702290076,0.1083984375,-0.1162109375,-0.587890625,0.047599999999999996
0.5648854961832062,1.6793893129770991,-1.3587786259541985,0.115234375,-0.114501953125,-0.593017578125,0.0493
0.5801526717557252,1.6030534351145038,-1.1450381679389312,0.103759765625,-0.12060546875,-0.593017578125,0.051
0.6717557251908397,1.450381679389313,-1.2061068702290076,0.10888671875,-0.11474609375,-0.593017578125,0.0527
0.6412213740458015,1.4961832061068703,-1.1145038167938932,0.107177734375,-0.117431640625,-0.5966796875,0.0544
0.7480916030534351,1.5267175572519085,-0.9312977099236641,0.10498046875,-0.119384765625,-0.595947265625,0.0561
0.6564885496183206,1.3893129770992367,-0.8702290076335878,0.108154296875,-0.114990234375,-0.595947265625,0.0578
0.8702290076335878,1.4198473282442747,-0.9770992366412213,0.1025390625,-0.1171875,-0.597900390625,0.0595
0.9312977099236641,1.5267175572519085,-0.7633587786259542,0.102783203125,-0.115966796875,-0.59326171875,0.0612
0.549618320610687,1.6793893129770991,-0.5343511450381679,0.108642578125,-0.119873046875,-0.600830078125,0.0629
0.732824427480916,1.5877862595419847,-0.916030534351145,0.1025390625,-0.113525390625,-0.59130859375,0.06459999999999999
0.7786259541984732,1.6030534351145038,-0.5343511450381679,0.1044921875,-0.116943359375,-0.589599609375,0.0663
0.6259541984732825,1.816793893129771,-0.7938931297709924,0.105712890625,-0.116455078125,-0.5986328125,0.06799999999999999
0.6412213740458015,1.786259541984733,-0.5648854961832062,0.098388671875,-0.11181640625,-0.591552734375,0.0697
0.6717557251908397,1.7251908396946565,-0.549618320610687,0.098876953125,-0.114501953125,-0.5986328125,0.07139999999999999
0.8396946564885496,1.9083969465648856,-0.5648854961832062,0.103759765625,-0.11572265625,-0.597412109375,0.0731
0.732824427480916,1.83206106870229,-0.6106870229007634,0.1044921875,-0.118408203125,-0.596435546875,0.07479999999999999
0.9923664122137404,1.9083969465648856,-0.5038167938931297,0.10009765625,-0.1162109375,-0.5859375,0.0765
0.9618320610687023,1.8015267175572518,-0.549618320610687,0.103759765625,-0.11669921875,-0.58935546875,0.07819999999999999
0.9312977099236641,1.8473282442748091,-0.6717557251908397,0.09912109375,-0.115478515625,-0.5966796875,0.0799
1.0076335877862594,1.83206106870229,-0.7786259541984732,0.10595703125,-0.122802734375,-0.60302734375,0.08159999999999999
1.2061068702290076,1.8778625954198473,-0.5954198473282443,0.10400390625,-0.116943359375,-0.6025390625,0.0833
1.450381679389313,1.8015267175572518,-0.7786259541984732,0.099609375,-0.11474609375,-0.5888671875,0.08499999999999999
1.2366412213740459,1.8931297709923665,-0.5954198473282443,0.101318359375,-0.117919921875,-0.5908203125,0.0867
1.1297709923664123,1.9389312977099236,-0.5801526717557252,0.1005859375,-0.120361328125,-0.592529296875,0.08839999999999999
1.2213740458015268,1.9541984732824427,-0.4732824427480916,0.1044921875,-0.112060546875,-0.60498046875,0.0901
1.3893129770992367,1.9083969465648856,-0.7175572519083969,0.1044921875,-0.117431640625,-0.594970703125,0.09179999999999999
1.5267175572519085,1.7709923664122138,-0.732824427480916,0.101806640625,-0.121337890625,-0.595947265625,0.0935
1.450381679389313,1.6793893129770991,-0.5648854961832062,0.109130859375,-0.11669921875,-0.590576171875,0.09519999999999999
1.282442748091603,1.786259541984733,-0.44274809160305345,0.107421875,-0.121337890625,-0.59521484375,0.0969
1.282442748091603,1.8625954198473282,-0.7633587786259542,0.108154296875,-0.117431640625,-0.59326171875,0.0986
1.5877862595419847,1.7404580152671756,-0.4732824427480916,0.1103515625,-0.11865234375,-0.595947265625,0.1003
1.6030534351145038,1.6793893129770991,-0.5343511450381679,0.10400390625,-0.121337890625,-0.595458984375,0.102
1.5572519083969465,1.465648854961832,-0.5038167938931297,0.106689453125,-0.116943359375,-0.590576171875,0.1037
1.7099236641221374,1.5877862595419847,-0.6106870229007634,0.103759765625,-0.1171875,-0.593017578125,0.1054
1.786259541984733,1.4351145038167938,-0.4580152671755725,0.106689453125,-0.1201171875,-0.59375,0.1071
1.7099236641221374,1.450381679389313,-0.4580152671755725,0.10693359375,-0.1201171875,-0.599609375,0.1088
1.5725190839694656,1.4198473282442747,-0.21374045801526717,0.113037109375,-0.117431640625,-0.587890625,0.11049999999999999
1.9083969465648856,1.1603053435114503,-0.3511450381679389,0.10595703125,-0.118408203125,-0.5986328125,0.1122
1.7404580152671756,1.251908396946565,-0.24427480916030533,0.103759765625,-0.1162109375,-0.594970703125,0.11389999999999999
1.8473282442748091,1.3740458015267176,-0.3511450381679389,0.106201171875,-0.116455078125,-0.597900390625,0.1156
1.5572519083969465,1.2671755725190839,-0.1984732824427481,0.108154296875,-0.116943359375,-0.599853515625,0.11729999999999999
1.6641221374045803,1.1603053435114503,-0.44274809160305345,0.109130859375,-0.123046875,-0.605712890625,0.119
1.7404580152671756,1.2213740458015268,-0.10687022900763359,0.108642578125,-0.117919921875,-0.5947265625,0.12069999999999999
1.633587786259542,1.1297709923664123,-0.33587786259541985,0.107177734375,-0.118408203125,-0.591552734375,0.1224
1.3129770992366412,1.1603053435114503,-0.22900763358778625,0.10693359375,-0.11962890625,-0.59375,0.12409999999999999
1.1297709923664123,1.0229007633587786,-0.183206106870229,0.105712890625,-0.11669921875,-0.58984375,0.1258
1.2366412213740459,0.9465648854961832,-0.1984732824427481,0.10791015625,-0.119140625,-0.594970703125,0.1275
1.083969465648855,1.1603053435114503,-0.3053435114503817,0.107666015625,-0.125244140625,-0.5908203125,0.12919999999999998
1.2366412213740459,1.1908396946564885,-0.22900763358778625,0.107177734375,-0.12109375,-0.59423828125,0.1309
1.450381679389313,1.1145038167938932,-0.32061068702290074,0.1064453125,-0.116455078125,-0.60498046875,0.1326
1.4198473282442747,1.297709923664122,-0.2748091603053435,0.109130859375,-0.120849609375,-0.59521484375,0.1343
1.5419847328244274,1.2061068702290076,-0.21374045801526717,0.109130859375,-0.119873046875,-0.589111328125,0.13599999999999998
1.618320610687023,1.2366412213740459,-0.2595419847328244,0.111572265625,-0.12255859375,-0.592041015625,0.1377
1.5725190839694656,1.2213740458015268,-0.2900763358778626,0.111572265625,-0.1201171875,-0.5908203125,0.1394
1.7251908396946565,1.083969465648855,-0.2900763358778626,0.1064453125,-0.1220703125,-0.594970703125,0.1411
1.6488549618320612,1.083969465648855,-0.3816793893129771,0.104736328125,-0.119140625,-0.58935546875,0.14279999999999998
1.9083969465648856,1.0381679389312977,-0.21374045801526717,0.10595703125,-0.120849609375,-0.59130859375,0.1445
1.4961832061068703,1.0229007633587786,-0.4580152671755725,0.102783203125,-0.115478515625,-0.589111328125,0.1462
1.4045801526717556,0.9923664122137404,-0.44274809160305345,0.1123046875,-0.12060546875,-0.595947265625,0.1479
1.2671755725190839,0.916030534351145,-0.48854961832061067,0.1015625,-0.116943359375,-0.589599609375,0.14959999999999998
1.6030534351145038,1.099236641221374,-0.32061068702290074,0.106689453125,-0.1181640625,-0.5908203125,0.1513
1.4809160305343512,0.8549618320610687,-0.3969465648854962,0.10595703125,-0.116943359375,-0.5869140625,0.153
1.4045801526717556,0.8091603053435115,-0.4732824427480916,0.108154296875,-0.12353515625,-0.59765625,0.1547
1.1908396946564885,0.8244274809160306,-0.4580152671755725,0.107421875,-0.119873046875,-0.6005859375,0.15639999999999998
1.2671755725190839,0.8396946564885496,-0.2595419847328244,0.111572265625,-0.118896484375,-0.6005859375,0.1581
1.1755725190839694,0.7175572519083969,-0.366412213740458,0.106201171875,-0.121337890625,-0.59716796875,0.1598
1.3282442748091603,0.9770992366412213,-0.32061068702290074,0.104736328125,-0.121337890625,-0.598876953125,0.1615
1.282442748091603,0.9007633587786259,-0.33587786259541985,0.10498046875,-0.116455078125,-0.594482421875,0.16319999999999998
1.3129770992366412,0.9618320610687023,-0.3053435114503817,0.107177734375,-0.114990234375,-0.59521484375,0.1649
1.4961832061068703,1.0076335877862594,-0.2595419847328244,0.107666015625,-0.118408203125,-0.593017578125,0.1666
1.2213740458015268,0.9312977099236641,-0.22900763358778625,0.108154296875,-0.1240234375,-0.596435546875,0.16829999999999998
1.3129770992366412,1.0229007633587786,-0.24427480916030533,0.105712890625,-0.123046875,-0.593017578125,0.16999999999999998
1.3435114503816794,0.8702290076335878,-0.3053435114503817,0.10693359375,-0.120849609375,-0.593017578125,0.1717
1.4045801526717556,0.8854961832061069,-0.22900763358778625,0.109375,-0.117919921875,-0.59033203125,0.1734
1.465648854961832,1.0076335877862594,-0.1984732824427481,0.109619140625,-0.122802734375,-0.60009765625,0.17509999999999998
1.5114503816793894,1.0534351145038168,-0.3053435114503817,0.10595703125,-0.12060546875,-0.594970703125,0.17679999999999998
1.3740458015267176,0.8702290076335878,-0.183206106870229,0.111572265625,-0.11962890625,-0.59765625,0.1785
1.450381679389313,0.9312977099236641,-0.2595419847328244,0.11279296875,-0.12158203125,-0.594970703125,0.1802
1.5572519083969465,1.0534351145038168,-0.13740458015267176,0.106689453125,-0.119873046875,-0.59130859375,0.18189999999999998
1.6488549618320612,1.2366412213740459,-0.16793893129770993,0.1083984375,-0.122314453125,-0.59130859375,0.18359999999999999
1.816793893129771,0.9465648854961832,-0.12213740458015267,0.10595703125,-0.122314453125,-0.59619140625,0.1853
1.9389312977099236,1.1297709923664123,-0.183206106870229,0.107177734375,-0.1240234375,-0.595703125,0.187
1.8931297709923665,1.2671755725190839,-0.030534351145038167,0.106689453125,-0.116943359375,-0.585693359375,0.18869999999999998
2.045801526717557,1.251908396946565,-0.12213740458015267,0.1064453125,-0.1162109375,-0.58984375,0.19039999999999999
1.9083969465648856,1.1297709923664123,-0.030534351145038167,0.106201171875,-0.11962890625,-0.60009765625,0.1921
2.1068702290076335,1.2671755725190839,-0.04580152671755725,0.104736328125,-0.11767578125,-0.5908203125,0.1938
2.122137404580153,1.2671755725190839,-0.030534351145038167,0.105224609375,-0.11865234375,-0.595947265625,0.19549999999999998
2.198473282442748,1.297709923664122,-0.10687022900763359,0.10693359375,-0.127197265625,-0.59716796875,0.1972
2.33587786259542,1.251908396946565,-0.12213740458015267,0.103759765625,-0.1201171875,-0.589599609375,0.1989
2.122137404580153,1.4045801526717556,0.061068702290076333,0.099853515625,-0.119384765625,-0.595458984375,0.2006
2.351145038167939,1.3587786259541985,0.061068702290076333,0.1083984375,-0.12158203125,-0.59228515625,0.20229999999999998
2.519083969465649,1.297709923664122,0.0,0.109619140625,-0.12109375,-0.59521484375,0.204
2.564885496183206,1.3740458015267176,0.21374045801526717,0.100830078125,-0.12158203125,-0.5927734375,0.2057
2.4427480916030535,1.4198473282442747,0.21374045801526717,0.10400390625,-0.121337890625,-0.592529296875,0.2074
2.3969465648854964,1.4351145038167938,0.15267175572519084,0.1083984375,-0.11962890625,-0.59375,0.20909999999999998
2.5801526717557253,1.618320610687023,0.22900763358778625,0.10595703125,-0.11962890625,-0.595458984375,0.2108
2.687022900763359,1.6030534351145038,0.24427480916030533,0.10791015625,-0.11572265625,-0.593994140625,0.2125
2.564885496183206,1.7251908396946565,0.2595419847328244,0.106689453125,-0.11962890625,-0.594482421875,0.2142
2.50381679389313,1.786259541984733,0.24427480916030533,0.104736328125,-0.11767578125,-0.591064453125,0.21589999999999998
2.549618320610687,1.7099236641221374,0.12213740458015267,0.1044921875,-0.11572265625,-0.59619140625,0.2176
2.3969465648854964,1.6641221374045803,0.22900763358778625,0.10400390625,-0.123291015625,-0.59765625,0.2193
2.366412213740458,1.7404580152671756,0.10687022900763359,0.108642578125,-0.120849609375,-0.60302734375,0.22099999999999997
2.50381679389313,1.9694656488549618,-0.0916030534351145,0.1083984375,-0.12255859375,-0.604248046875,0.22269999999999998
2.595419847328244,2.0,-0.04580152671755725,0.1083984375,-0.119873046875,-0.601318359375,0.2244
2.5343511450381677,1.9694656488549618,-0.2748091603053435,0.10791015625,-0.1181640625,-0.597412109375,0.2261
2.4122137404580153,1.9541984732824427,-0.3053435114503817,0.107666015625,-0.122314453125,-0.5966796875,0.22779999999999997
2.595419847328244,2.045801526717557,-0.2900763358778626,0.11083984375,-0.125732421875,-0.5947265625,0.22949999999999998
2.687022900763359,2.198473282442748,-0.366412213740458,0.0986328125,-0.1240234375,-0.603271484375,0.2312
2.50381679389313,2.183206106870229,-0.5190839694656488,0.103515625,-0.118896484375,-0.59423828125,0.2329
2.595419847328244,2.4122137404580153,-0.5648854961832062,0.10302734375,-0.12353515625,-0.595947265625,0.23459999999999998
2.5801526717557253,2.4427480916030535,-0.6717557251908397,0.1064453125,-0.122802734375,-0.59716796875,0.23629999999999998
2.6564885496183206,2.4732824427480917,-0.6870229007633588,0.107666015625,-0.1162109375,-0.603759765625,0.238
2.4885496183206106,2.366412213740458,-0.6870229007633588,0.103271484375,-0.119140625,-0.603759765625,0.2397
2.717557251908397,2.6106870229007635,-0.6717557251908397,0.10986328125,-0.1240234375,-0.5966796875,0.24139999999999998
2.4885496183206106,2.595419847328244,-0.6870229007633588,0.103271484375,-0.122802734375,-0.600830078125,0.24309999999999998
2.4885496183206106,2.732824427480916,-0.7480916030534351,0.10302734375,-0.120361328125,-0.5986328125,0.2448
2.595419847328244,2.687022900763359,-0.9465648854961832,0.106201171875,-0.1220703125,-0.597900390625,0.2465
2.381679389312977,2.8091603053435112,-0.8091603053435115,0.10546875,-0.121826171875,-0.594970703125,0.24819999999999998
2.4122137404580153,2.7480916030534353,-0.9007633587786259,0.10546875,-0.124267578125,-0.597900390625,0.24989999999999998
2.4885496183206106,3.053435114503817,-0.916030534351145,0.109375,-0.120361328125,-0.6044921875,0.2516
2.1374045801526718,3.053435114503817,-1.1908396946564885,0.1044921875,-0.12646484375,-0.599853515625,0.25329999999999997
2.0916030534351147,3.1297709923664123,-1.1297709923664123,0.107177734375,-0.11865234375,-0.60107421875,0.255
2.33587786259542,3.1755725190839694,-1.1450381679389312,0.110595703125,-0.1201171875,-0.602294921875,0.2567
2.198473282442748,3.0381679389312977,-1.282442748091603,0.102783203125,-0.125244140625,-0.6064453125,0.25839999999999996
2.0610687022900764,3.2061068702290076,-1.4351145038167938,0.109130859375,-0.119873046875,-0.603271484375,0.2601
1.8778625954198473,3.068702290076336,-1.2671755725190839,0.1103515625,-0.12451171875,-0.59814453125,0.2618
1.7251908396946565,3.1603053435114505,-1.2061068702290076,0.11083984375,-0.120849609375,-0.59716796875,0.2635
1.5419847328244274,3.114503816793893,-1.2213740458015268,0.110107421875,-0.11962890625,-0.6025390625,0.2652
1.6641221374045803,3.2061068702290076,-1.4198473282442747,0.110107421875,-0.120849609375,-0.59521484375,0.26689999999999997
1.6030534351145038,3.312977099236641,-1.297709923664122,0.109375,-0.123046875,-0.600341796875,0.2686
1.816793893129771,3.0839694656488548,-1.3587786259541985,0.111328125,-0.120849609375,-0.6005859375,0.2703
1.633587786259542,3.0839694656488548,-1.2671755725190839,0.107177734375,-0.1220703125,-0.593505859375,0.27199999999999996
1.6793893129770991,3.0381679389312977,-1.3893129770992367,0.1064453125,-0.12255859375,-0.602294921875,0.2737
1.7099236641221374,3.0229007633587788,-1.3129770992366412,0.111083984375,-0.11962890625,-0.5986328125,0.2754
1.618320610687023,3.2061068702290076,-1.4045801526717556,0.109130859375,-0.1240234375,-0.60009765625,0.27709999999999996
1.6030534351145038,2.9160305343511452,-1.297709923664122,0.10400390625,-0.115234375,-0.59814453125,0.2788
1.8473282442748091,2.854961832061069,-1.3893129770992367,0.108642578125,-0.119873046875,-0.598388671875,0.28049999999999997
1.786259541984733,3.0076335877862594,-1.2671755725190839,0.108154296875,-0.115478515625,-0.6015625,0.2822
1.5725190839694656,2.9160305343511452,-1.465648854961832,0.114501953125,-0.11767578125,-0.600341796875,0.2839
1.5877862595419847,2.9160305343511452,-1.1755725190839694,0.110107421875,-0.11865234375,-0.590087890625,0.28559999999999997
1.465648854961832,2.900763358778626,-1.251908396946565,0.10693359375,-0.11865234375,-0.596923828125,0.2873
1.5267175572519085,2.7022900763358777,-1.3587786259541985,0.109130859375,-0.120361328125,-0.6044921875,0.289
1.465648854961832,2.7480916030534353,-1.3129770992366412,0.108642578125,-0.118896484375,-0.603515625,0.29069999999999996
1.3587786259541985,2.564885496183206,-1.2671755725190839,0.11376953125,-0.119140625,-0.60009765625,0.2924
1.1450381679389312,2.687022900763359,-1.3740458015267176,0.109619140625,-0.118408203125,-0.596923828125,0.2941
1.1908396946564885,2.687022900763359,-1.1603053435114503,0.109619140625,-0.117431640625,-0.603759765625,0.2958
1.0381679389312977,2.595419847328244,-1.4351145038167938,0.10888671875,-0.119140625,-0.60302734375,0.2975
1.0534351145038168,2.564885496183206,-1.4809160305343512,0.107421875,-0.116943359375,-0.601806640625,0.29919999999999997
1.0381679389312977,2.6106870229007635,-1.4198473282442747,0.10888671875,-0.11474609375,-0.600830078125,0.3009
0.8091603053435115,2.381679389312977,-1.3587786259541985,0.11181640625,-0.1181640625,-0.597900390625,0.3026
0.9618320610687023,2.3053435114503817,-1.5419847328244274,0.11279296875,-0.1181640625,-0.603759765625,0.30429999999999996
0.7633587786259542,2.122137404580153,-1.5572519083969465,0.112060546875,-0.11572265625,-0.609130859375,0.306
0.9007633587786259,2.198473282442748,-1.8015267175572518,0.10888671875,-0.11279296875,-0.6064453125,0.3077
1.0076335877862594,2.0610687022900764,-1.618320610687023,0.11181640625,-0.1201171875,-0.59912109375,0.3094
1.1145038167938932,2.045801526717557,-1.6793893129770991,0.11181640625,-0.119140625,-0.604736328125,0.3111
0.9618320610687023,2.0,-1.6641221374045803,0.11328125,-0.1142578125,-0.605224609375,0.31279999999999997
1.1145038167938932,1.9694656488549618,-1.7251908396946565,0.108642578125,-0.12060546875,-0.593994140625,0.3145
1.0381679389312977,1.5267175572519085,-1.7251908396946565,0.112548828125,-0.11279296875,-0.614990234375,0.3162
1.1297709923664123,1.5877862595419847,-1.8778625954198473,0.1162109375,-0.116455078125,-0.606201171875,0.31789999999999996
1.0381679389312977,1.4045801526717556,-1.9236641221374047,0.1103515625,-0.11083984375,-0.601318359375,0.3196
1.251908396946565,1.4045801526717556,-2.0610687022900764,0.110595703125,-0.11474609375,-0.594482421875,0.3213
1.2213740458015268,1.2671755725190839,-1.8931297709923665,0.113525390625,-0.11962890625,-0.597900390625,0.323
1.2366412213740459,1.1450381679389312,-1.9541984732824427,0.113037109375,-0.114990234375,-0.603515625,0.3247
1.3282442748091603,1.1145038167938932,-2.015267175572519,0.108154296875,-0.1123046875,-0.6005859375,0.32639999999999997
1.282442748091603,0.9007633587786259,-2.0916030534351147,0.108154296875,-0.116943359375,-0.603759765625,0.3281
1.5114503816793894,0.7786259541984732,-2.015267175572519,0.111083984375,-0.113037109375,-0.6015625,0.3298
1.5725190839694656,0.7480916030534351,-2.0916030534351147,0.11376953125,-0.1142578125,-0.6015625,0.33149999999999996
1.5572519083969465,0.7480916030534351,-2.045801526717557,0.111328125,-0.1201171875,-0.6025390625,0.3332
1.465648854961832,0.8396946564885496,-2.213740458015267,0.109619140625,-0.11865234375,-0.604248046875,0.3349
1.7404580152671756,0.4122137404580153,-2.1526717557251906,0.11083984375,-0.121826171875,-0.59814453125,0.33659999999999995
1.6488549618320612,0.366412213740458,-2.16793893129771,0.110595703125,-0.116455078125,-0.59912109375,0.3383
1.6793893129770991,0.3053435114503817,-2.2442748091603053,0.111328125,-0.1181640625,-0.60205078125,0.33999999999999997
1.6488549618320612,0.4580152671755725,-2.2290076335877864,0.1123046875,-0.121826171875,-0.596923828125,0.3417
1.5267175572519085,0.21374045801526717,-2.16793893129771,0.10888671875,-0.118896484375,-0.600341796875,0.3434
1.297709923664122,0.3511450381679389,-2.213740458015267,0.107666015625,-0.118408203125,-0.599853515625,0.34509999999999996
1.4198473282442747,0.5648854961832062,-2.1068702290076335,0.10302734375,-0.120361328125,-0.6005859375,0.3468
1.4351145038167938,0.32061068702290074,-2.2442748091603053,0.111328125,-0.11962890625,-0.6005859375,0.3485
1.2366412213740459,0.44274809160305345,-2.2442748091603053,0.108642578125,-0.12158203125,-0.604736328125,0.35019999999999996
1.2061068702290076,0.3969465648854962,-2.33587786259542,0.1044921875,-0.118408203125,-0.60546875,0.3519
1.2366412213740459,0.3511450381679389,-2.2290076335877864,0.107177734375,-0.122314453125,-0.603759765625,0.35359999999999997
1.0381679389312977,0.366412213740458,-2.3053435114503817,0.108642578125,-0.124267578125,-0.602783203125,0.3553
0.9312977099236641,0.33587786259541985,-2.2442748091603053,0.106689453125,-0.118896484375,-0.6025390625,0.357
0.7786259541984732,0.2595419847328244,-2.50381679389313,0.10302734375,-0.123779296875,-0.599365234375,0.35869999999999996
0.5954198473282443,0.16793893129770993,-2.4732824427480917,0.10107421875,-0.121337890625,-0.596923828125,0.3604
0.7633587786259542,0.2748091603053435,-2.6259541984732824,0.102783203125,-0.126220703125,-0.59326171875,0.3621
0.5954198473282443,0.3511450381679389,-2.6106870229007635,0.10205078125,-0.12158203125,-0.594970703125,0.36379999999999996
0.24427480916030533,0.0916030534351145,-2.8091603053435112,0.107177734375,-0.120361328125,-0.593017578125,0.3655
-0.015267175572519083,0.21374045801526717,-2.7480916030534353,0.11083984375,-0.115234375,-0.603759765625,0.36719999999999997
-0.030534351145038167,0.44274809160305345,-2.9618320610687023,0.110107421875,-0.11669921875,-0.604248046875,0.3689
-0.2595419847328244,0.366412213740458,-2.931297709923664,0.103515625,-0.119140625,-0.6025390625,0.3706
-0.2900763358778626,0.3053435114503817,-2.8091603053435112,0.109130859375,-0.1162109375,-0.597900390625,0.37229999999999996
-0.33587786259541985,0.3816793893129771,-2.8702290076335877,0.10791015625,-0.11767578125,-0.60009765625,0.374
-0.48854961832061067,0.5190839694656488,-3.0381679389312977,0.106689453125,-0.11865234375,-0.6005859375,0.3757
-0.732824427480916,0.7022900763358778,-2.7938931297709924,0.10302734375,-0.119384765625,-0.599365234375,0.37739999999999996
-0.7175572519083969,0.5648854961832062,-2.900763358778626,0.106201171875,-0.11474609375,-0.594970703125,0.3791
-0.7480916030534351,0.6717557251908397,-3.1297709923664123,0.10888671875,-0.119140625,-0.60107421875,0.38079999999999997
-1.0534351145038168,0.6870229007633588,-2.9770992366412212,0.10498046875,-0.12451171875,-0.5947265625,0.38249999999999995
-0.8244274809160306,0.7938931297709924,-3.1603053435114505,0.103271484375,-0.118408203125,-0.595947265625,0.3842
-0.6412213740458015,0.6564885496183206,-3.068702290076336,0.104248046875,-0.11962890625,-0.593017578125,0.38589999999999997
-0.8244274809160306,0.549618320610687,-3.053435114503817,0.10205078125,-0.120361328125,-0.60400390625,0.3876
-0.7633587786259542,0.7022900763358778,-3.0381679389312977,0.1044921875,-0.119140625,-0.597900390625,0.3893
-1.0076335877862594,0.7022900763358778,-3.1297709923664123,0.1044921875,-0.120361328125,-0.60107421875,0.39099999999999996
-1.282442748091603,0.6717557251908397,-3.2213740458015265,0.1044921875,-0.12158203125,-0.595947265625,0.3927
-1.1145038167938932,0.732824427480916,-3.3435114503816794,0.10693359375,-0.11669921875,-0.596435546875,0.3944
-1.1297709923664123,0.7786259541984732,-3.267175572519084,0.103271484375,-0.11474609375,-0.59765625,0.39609999999999995
-1.083969465648855,0.6717557251908397,-3.2977099236641223,0.1015625,-0.118408203125,-0.597900390625,0.3978
-1.3129770992366412,0.7938931297709924,-3.404580152671756,0.103759765625,-0.115478515625,-0.592529296875,0.39949999999999997
-1.251908396946565,0.8244274809160306,-3.312977099236641,0.104736328125,-0.11572265625,-0.58984375,0.4012
-1.1145038167938932,0.8244274809160306,-3.267175572519084,0.1064453125,-0.113525390625,-0.599853515625,0.4029
-1.0229007633587786,0.8396946564885496,-3.2061068702290076,0.102783203125,-0.119140625,-0.600341796875,0.40459999999999996
-0.8549618320610687,0.7175572519083969,-3.5267175572519083,0.102294921875,-0.121337890625,-0.59814453125,0.4063
-0.8244274809160306,0.7480916030534351,-3.49618320610687,0.1025390625,-0.12158203125,-0.600341796875,0.408
-0.549618320610687,0.8702290076335878,-3.435114503816794,0.104736328125,-0.11572265625,-0.5947265625,0.40969999999999995
-0.3816793893129771,0.7786259541984732,-3.450381679389313,0.10205078125,-0.119873046875,-0.60107421875,0.4114
-0.4122137404580153,0.7938931297709924,-3.2977099236641223,0.10205078125,-0.1220703125,-0.60009765625,0.41309999999999997
-0.33587786259541985,0.7022900763358778,-3.3893129770992365,0.101318359375,-0.118408203125,-0.603515625,0.4148
-0.061068702290076333,0.916030534351145,-3.267175572519084,0.103271484375,-0.121826171875,-0.590087890625,0.4165
-0.12213740458015267,0.7022900763358778,-3.1908396946564888,0.10400390625,-0.12109375,-0.595703125,0.41819999999999996
-0.1984732824427481,0.7938931297709924,-3.2061068702290076,0.098876953125,-0.120361328125,-0.6044921875,0.4199
-0.42748091603053434,0.9312977099236641,-3.2061068702290076,0.107421875,-0.11865234375,-0.595703125,0.4216
-0.2900763358778626,0.8702290076335878,-3.1755725190839694,0.10498046875,-0.11865234375,-0.6064453125,0.42329999999999995
-0.3816793893129771,0.916030534351145,-3.267175572519084,0.105712890625,-0.122314453125,-0.605224609375,0.425
-0.48854961832061067,0.8549618320610687,-3.0381679389312977,0.100341796875,-0.112060546875,-0.597412109375,0.42669999999999997
-0.4580152671755725,0.8244274809160306,-2.8091603053435112,0.1005859375,-0.11962890625,-0.597900390625,0.4284
-0.24427480916030533,0.8854961832061069,-2.900763358778626,0.1044921875,-0.123291015625,-0.598876953125,0.4301
-0.5801526717557252,0.7938931297709924,-2.8702290076335877,0.105224609375,-0.123291015625,-0.594482421875,0.43179999999999996
-0.6106870229007634,0.6259541984732825,-2.8702290076335877,0.106201171875,-0.116455078125,-0.597412109375,0.4335
-0.6259541984732825,0.6564885496183206,-2.900763358778626,0.10546875,-0.121337890625,-0.596435546875,0.4352
-0.6870229007633588,0.48854961832061067,-2.717557251908397,0.102783203125,-0.122314453125,-0.60498046875,0.43689999999999996
-0.5648854961832062,0.44274809160305345,-2.6106870229007635,0.10888671875,-0.12255859375,-0.59375,0.4386
-0.5190839694656488,0.5038167938931297,-2.687022900763359,0.103759765625,-0.12255859375,-0.596923828125,0.44029999999999997
-0.6870229007633588,0.33587786259541985,-2.519083969465649,0.102294921875,-0.122314453125,-0.59619140625,0.44199999999999995
-0.5954198473282443,0.2748091603053435,-2.519083969465649,0.107421875,-0.1220703125,-0.60107421875,0.4437
-0.6717557251908397,0.0,-2.6564885496183206,0.098876953125,-0.1201171875,-0.5966796875,0.44539999999999996
-0.7480916030534351,-0.04580152671755725,-2.519083969465649,0.103515625,-0.11865234375,-0.60302734375,0.4471
-0.7480916030534351,-0.0916030534351145,-2.6717557251908395,0.10400390625,-0.12109375,-0.591552734375,0.4488
-0.7480916030534351,-0.1984732824427481,-2.7938931297709924,0.104736328125,-0.12109375,-0.593505859375,0.45049999999999996
-0.8702290076335878,-0.21374045801526717,-2.8702290076335877,0.10498046875,-0.1181640625,-0.5966796875,0.4522
-0.8854961832061069,-0.22900763358778625,-2.717557251908397,0.104248046875,-0.11767578125,-0.59423828125,0.45389999999999997
-0.8702290076335878,-0.24427480916030533,-2.885496183206107,0.10302734375,-0.120849609375,-0.5966796875,0.45559999999999995
-0.8549618320610687,-0.366412213740458,-2.7480916030534353,0.103271484375,-0.12548828125,-0.593994140625,0.4573
-1.0076335877862594,-0.4732824427480916,-2.7022900763358777,0.1015625,-0.1142578125,-0.598876953125,0.45899999999999996
-0.8396946564885496,-0.32061068702290074,-2.50381679389313,0.10888671875,-0.121337890625,-0.595703125,0.4607
-0.7480916030534351,-0.549618320610687,-2.717557251908397,0.10302734375,-0.113037109375,-0.5908203125,0.4624
-0.9465648854961832,-0.549618320610687,-2.519083969465649,0.1025390625,-0.11865234375,-0.59423828125,0.46409999999999996
-0.5343511450381679,-0.4732824427480916,-2.519083969465649,0.1015625,-0.115966796875,-0.59033203125,0.4658
-0.48854961832061067,-0.4732824427480916,-2.519083969465649,0.105224609375,-0.114501953125,-0.589111328125,0.46749999999999997
-0.5343511450381679,-0.549618320610687,-2.4732824427480917,0.101318359375,-0.113037109375,-0.59765625,0.46919999999999995
-0.5343511450381679,-0.3816793893129771,-2.366412213740458,0.099365234375,-0.113525390625,-0.593994140625,0.4709
-0.42748091603053434,-0.33587786259541985,-2.4122137404580153,0.098388671875,-0.117919921875,-0.601318359375,0.47259999999999996
-0.2900763358778626,-0.32061068702290074,-2.2900763358778624,0.10498046875,-0.116455078125,-0.59814453125,0.4743
-0.2595419847328244,-0.2595419847328244,-2.33587786259542,0.104736328125,-0.11083984375,-0.60107421875,0.476
-0.16793893129770993,-0.21374045801526717,-2.2442748091603053,0.10205078125,-0.113037109375,-0.58349609375,0.47769999999999996
0.030534351145038167,-0.16793893129770993,-2.183206106870229,0.098876953125,-0.119140625,-0.585693359375,0.4794
0.07633587786259542,-0.15267175572519084,-1.9541984732824427,0.09716796875,-0.111083984375,-0.589111328125,0.48109999999999997
0.13740458015267176,-0.0916030534351145,-2.1526717557251906,0.101318359375,-0.113037109375,-0.59716796875,0.48279999999999995
0.4580152671755725,0.04580152671755725,-2.030534351145038,0.103759765625,-0.117431640625,-0.5947265625,0.4845
0.4122137404580153,-0.16793893129770993,-1.9389312977099236,0.1025390625,-0.11279296875,-0.591796875,0.48619999999999997
0.5038167938931297,-0.15267175572519084,-1.8931297709923665,0.10546875,-0.11572265625,-0.595947265625,0.4879
0.7480916030534351,-0.1984732824427481,-1.8625954198473282,0.103515625,-0.10888671875,-0.593505859375,0.4896
0.5954198473282443,-0.0916030534351145,-2.1374045801526718,0.1015625,-0.111328125,-0.59130859375,0.49129999999999996
0.7938931297709924,-0.183206106870229,-2.213740458015267,0.0986328125,-0.111083984375,-0.5888671875,0.493
0.7022900763358778,-0.0916030534351145,-2.030534351145038,0.1015625,-0.1142578125,-0.5927734375,0.4947
0.5954198473282443,-0.22900763358778625,-2.33587786259542,0.106689453125,-0.1123046875,-0.6005859375,0.49639999999999995
0.7938931297709924,-0.12213740458015267,-2.33587786259542,0.10205078125,-0.111328125,-0.59130859375,0.4981
0.5954198473282443,-0.21374045801526717,-2.3053435114503817,0.103759765625,-0.113525390625,-0.590087890625,0.49979999999999997
0.44274809160305345,-0.07633587786259542,-2.0610687022900764,0.10546875,-0.11083984375,-0.59814453125,0.5015
0.549618320610687,-0.0916030534351145,-2.183206106870229,0.10595703125,-0.11474609375,-0.6015625,0.5032
0.366412213740458,-0.13740458015267176,-2.213740458015267,0.1064453125,-0.116943359375,-0.60302734375,0.5049
0.22900763358778625,-0.04580152671755725,-2.2900763358778624,0.103515625,-0.114501953125,-0.60009765625,0.5065999999999999
0.2595419847328244,0.0,-2.3206106870229006,0.1044921875,-0.117431640625,-0.592529296875,0.5083
0.183206106870229,0.0,-2.3053435114503817,0.108154296875,-0.114013671875,-0.599853515625,0.51
0.015267175572519083,0.04580152671755725,-2.1374045801526718,0.10302734375,-0.1162109375,-0.602783203125,0.5116999999999999
-0.22900763358778625,0.183206106870229,-2.3053435114503817,0.10400390625,-0.11669921875,-0.606201171875,0.5134
-0.061068702290076333,0.16793893129770993,-2.015267175572519,0.10205078125,-0.114013671875,-0.597412109375,0.5151
-0.15267175572519084,0.030534351145038167,-2.2595419847328246,0.1064453125,-0.11767578125,-0.6005859375,0.5167999999999999
-0.07633587786259542,0.0916030534351145,-1.984732824427481,0.105712890625,-0.1201171875,-0.59814453125,0.5185
-0.24427480916030533,0.3053435114503817,-1.9389312977099236,0.10693359375,-0.11669921875,-0.60302734375,0.5202
-0.3511450381679389,0.2900763358778626,-1.8931297709923665,0.101806640625,-0.11572265625,-0.60498046875,0.5218999999999999
-0.33587786259541985,0.33587786259541985,-1.7557251908396947,0.1044921875,-0.119873046875,-0.589599609375,0.5236
-0.16793893129770993,0.12213740458015267,-1.9694656488549618,0.105712890625,-0.119384765625,-0.58642578125,0.5253
-0.42748091603053434,0.183206106870229,-1.8625954198473282,0.10498046875,-0.117431640625,-0.599365234375,0.527
-0.1984732824427481,0.24427480916030533,-1.8015267175572518,0.10302734375,-0.11572265625,-0.604736328125,0.5287
-0.24427480916030533,0.183206106870229,-1.9236641221374047,0.101806640625,-0.115966796875,-0.598876953125,0.5304
-0.2900763358778626,0.12213740458015267,-1.7251908396946565,0.100341796875,-0.114013671875,-0.605224609375,0.5321
-0.3511450381679389,0.33587786259541985,-1.9083969465648856,0.1044921875,-0.118408203125,-0.596435546875,0.5337999999999999
-0.5038167938931297,0.5190839694656488,-1.7709923664122138,0.106201171875,-0.115966796875,-0.59619140625,0.5355
-0.3511450381679389,0.3816793893129771,-1.8473282442748091,0.098388671875,-0.115234375,-0.596923828125,0.5372
-0.42748091603053434,0.42748091603053434,-1.7099236641221374,0.103759765625,-0.114501953125,-0.586669921875,0.5388999999999999
-0.3969465648854962,0.366412213740458,-1.5419847328244274,0.102294921875,-0.1171875,-0.5869140625,0.5406
-0.4732824427480916,0.6564885496183206,-1.5877862595419847,0.101318359375,-0.1142578125,-0.5927734375,0.5423
-0.3053435114503817,0.6259541984732825,-1.5114503816793894,0.103515625,-0.118896484375,-0.59814453125,0.5439999999999999
-0.2748091603053435,0.7786259541984732,-1.465648854961832,0.1025390625,-0.11376953125,-0.59912109375,0.5457
-0.22900763358778625,0.6564885496183206,-1.5725190839694656,0.10595703125,-0.118408203125,-0.59912109375,0.5474
-0.4732824427480916,0.6870229007633588,-1.3893129770992367,0.1044921875,-0.120849609375,-0.595947265625,0.5490999999999999
-0.030534351145038167,0.916030534351145,-1.3435114503816794,0.103271484375,-0.1103515625,-0.59423828125,0.5508
0.16793893129770993,0.7175572519083969,-1.4045801526717556,0.10302734375,-0.114501953125,-0.5908203125,0.5525
0.13740458015267176,0.8854961832061069,-1.2366412213740459,0.103271484375,-0.1171875,-0.603759765625,0.5541999999999999
0.32061068702290074,1.0076335877862594,-1.251908396946565,0.102294921875,-0.114013671875,-0.591796875,0.5559
0.4122137404580153,1.1450381679389312,-1.4045801526717556,0.0986328125,-0.114501953125,-0.588134765625,0.5576
0.549618320610687,0.9465648854961832,-1.3282442748091603,0.10107421875,-0.115966796875,-0.59033203125,0.5593
0.549618320610687,1.1755725190839694,-1.1755725190839694,0.103515625,-0.119140625,-0.59521484375,0.5609999999999999
0.6717557251908397,1.1450381679389312,-1.0534351145038168,0.102783203125,-0.120849609375,-0.5927734375,0.5627
0.7480916030534351,1.1908396946564885,-1.1603053435114503,0.101318359375,-0.11865234375,-0.594970703125,0.5644
0.6412213740458015,1.6641221374045803,-1.0687022900763359,0.09814453125,-0.1201171875,-0.59619140625,0.5660999999999999
1.0229007633587786,1.4809160305343512,-0.9770992366412213,0.10107421875,-0.119384765625,-0.591796875,0.5678
1.0229007633587786,1.3282442748091603,-0.732824427480916,0.10205078125,-0.11376953125,-0.596435546875,0.5695
0.8854961832061069,1.6488549618320612,-0.7938931297709924,0.107177734375,-0.11376953125,-0.59619140625,0.5711999999999999
0.9312977099236641,1.6488549618320612,-0.7633587786259542,0.1015625,-0.11865234375,-0.596923828125,0.5729
1.0076335877862594,1.5725190839694656,-0.6259541984732825,0.097412109375,-0.116455078125,-0.591552734375,0.5746
1.0229007633587786,1.6488549618320612,-0.7175572519083969,0.102294921875,-0.11572265625,-0.586181640625,0.5762999999999999
1.0534351145038168,1.6641221374045803,-0.8091603053435115,0.104248046875,-0.116943359375,-0.594970703125,0.578
1.1603053435114503,1.6793893129770991,-0.6564885496183206,0.10205078125,-0.11376953125,-0.59619140625,0.5797
1.3129770992366412,1.633587786259542,-0.6870229007633588,0.098876953125,-0.1123046875,-0.6044921875,0.5813999999999999
1.2061068702290076,1.7404580152671756,-0.5648854961832062,0.10205078125,-0.119873046875,-0.592041015625,0.5831
1.2671755725190839,1.9083969465648856,-0.24427480916030533,0.109130859375,-0.117919921875,-0.59521484375,0.5848
1.450381679389313,2.0610687022900764,-0.5038167938931297,0.110595703125,-0.112060546875,-0.59375,0.5865
1.5419847328244274,2.0,-0.5954198473282443,0.102294921875,-0.115234375,-0.605712890625,0.5882
1.4961832061068703,2.0610687022900764,-0.5343511450381679,0.097900390625,-0.11572265625,-0.6005859375,0.5899
1.5114503816793894,1.984732824427481,-0.3969465648854962,0.10302734375,-0.11474609375,-0.5908203125,0.5916
1.5114503816793894,2.198473282442748,-0.3053435114503817,0.105224609375,-0.11865234375,-0.6025390625,0.5932999999999999
1.7099236641221374,2.1374045801526718,-0.5801526717557252,0.103515625,-0.116455078125,-0.59619140625,0.595
1.6641221374045803,2.3053435114503817,-0.6259541984732825,0.104736328125,-0.115966796875,-0.59130859375,0.5967
1.8473282442748091,2.2290076335877864,-0.4122137404580153,0.110595703125,-0.116943359375,-0.599365234375,0.5983999999999999
1.6488549618320612,2.1526717557251906,-0.5038167938931297,0.1103515625,-0.116943359375,-0.601806640625,0.6001
1.7709923664122138,2.4122137404580153,-0.5038167938931297,0.1025390625,-0.112548828125,-0.601318359375,0.6018
1.618320610687023,2.366412213740458,-0.33587786259541985,0.102783203125,-0.115478515625,-0.60205078125,0.6034999999999999
1.83206106870229,2.3206106870229006,-0.4122137404580153,0.107177734375,-0.116455078125,-0.59375,0.6052
1.633587786259542,2.351145038167939,-0.3816793893129771,0.104248046875,-0.1220703125,-0.59765625,0.6069
1.786259541984733,2.351145038167939,-0.183206106870229,0.10986328125,-0.116455078125,-0.6005859375,0.6085999999999999
1.5572519083969465,2.4122137404580153,-0.12213740458015267,0.10498046875,-0.11962890625,-0.601806640625,0.6103
1.6488549618320612,2.2900763358778624,-0.21374045801526717,0.109130859375,-0.115478515625,-0.59521484375,0.612
1.7251908396946565,2.351145038167939,-0.32061068702290074,0.11083984375,-0.121337890625,-0.605712890625,0.6136999999999999
1.7099236641221374,2.4122137404580153,-0.10687022900763359,0.10205078125,-0.115478515625,-0.5986328125,0.6154
1.9236641221374047,2.3206106870229006,-0.1984732824427481,0.1015625,-0.11376953125,-0.587890625,0.6171
1.8473282442748091,2.366412213740458,-0.16793893129770993,0.109375,-0.11962890625,-0.60302734375,0.6188
1.9389312977099236,2.351145038167939,-0.33587786259541985,0.10986328125,-0.1171875,-0.5986328125,0.6204999999999999
1.984732824427481,2.183206106870229,-0.3053435114503817,0.110107421875,-0.115966796875,-0.593994140625,0.6222
1.7404580152671756,2.427480916030534,-0.07633587786259542,0.1044921875,-0.11767578125,-0.59912109375,0.6239
1.7709923664122138,2.213740458015267,-0.21374045801526717,0.103515625,-0.12255859375,-0.60009765625,0.6255999999999999
1.8931297709923665,2.015267175572519,-0.4122137404580153,0.1103515625,-0.112060546875,-0.5966796875,0.6273
1.9694656488549618,2.0763358778625953,-0.33587786259541985,0.10595703125,-0.11669921875,-0.592041015625,0.629
1.984732824427481,2.16793893129771,-0.5038167938931297,0.104736328125,-0.1142578125,-0.58935546875,0.6306999999999999
1.83206106870229,2.122137404580153,-0.4580152671755725,0.10595703125,-0.114990234375,-0.59619140625,0.6324
1.816793893129771,2.015267175572519,-0.6564885496183206,0.105712890625,-0.1181640625,-0.598388671875,0.6341
1.8015267175572518,2.0610687022900764,-0.6870229007633588,0.1083984375,-0.1142578125,-0.59326171875,0.6357999999999999
1.6641221374045803,1.8931297709923665,-0.7633587786259542,0.1064453125,-0.121826171875,-0.597900390625,0.6375
1.7099236641221374,2.045801526717557,-0.7022900763358778,0.10400390625,-0.1201171875,-0.59228515625,0.6392
1.6030534351145038,1.9541984732824427,-0.7633587786259542,0.105712890625,-0.115234375,-0.595458984375,0.6408999999999999
1.7709923664122138,2.0916030534351147,-0.8396946564885496,0.1064453125,-0.119873046875,-0.596923828125,0.6426
1.816793893129771,2.0,-0.9770992366412213,0.10107421875,-0.1181640625,-0.598876953125,0.6443
1.4809160305343512,2.183206106870229,-0.8091603053435115,0.107177734375,-0.115966796875,-0.600341796875,0.646
1.5877862595419847,2.2290076335877864,-0.9923664122137404,0.106201171875,-0.116943359375,-0.594482421875,0.6476999999999999
1.786259541984733,2.122137404580153,-0.7786259541984732,0.099853515625,-0.117431640625,-0.593017578125,0.6494
1.465648854961832,2.030534351145038,-0.8702290076335878,0.108642578125,-0.12060546875,-0.59326171875,0.6511
1.450381679389313,2.2442748091603053,-0.8396946564885496,0.109619140625,-0.11474609375,-0.593017578125,0.6527999999999999
1.4045801526717556,2.213740458015267,-0.9618320610687023,0.103271484375,-0.1201171875,-0.599853515625,0.6545
1.450381679389313,2.1526717557251906,-1.0076335877862594,0.1064453125,-0.12158203125,-0.59375,0.6562
1.3587786259541985,2.183206106870229,-1.083969465648855,0.10546875,-0.12109375,-0.601318359375,0.6578999999999999
1.3282442748091603,2.2595419847328246,-0.8549618320610687,0.1005859375,-0.123046875,-0.60009765625,0.6596
1.5267175572519085,2.2900763358778624,-0.8854961832061069,0.104248046875,-0.12255859375,-0.599853515625,0.6613
1.5877862595419847,2.33587786259542,-0.7022900763358778,0.101806640625,-0.1220703125,-0.59619140625,0.6629999999999999
1.6030534351145038,2.2290076335877864,-0.9618320610687023,0.106689453125,-0.12451171875,-0.600341796875,0.6647
1.465648854961832,2.427480916030534,-0.8244274809160306,0.102294921875,-0.1201171875,-0.595703125,0.6664
1.5267175572519085,2.3206106870229006,-0.9007633587786259,0.10302734375,-0.118896484375,-0.600341796875,0.6680999999999999
1.5267175572519085,2.3206106870229006,-0.9007633587786259,0.103759765625,-0.120849609375,-0.589111328125,0.6698
1.4198473282442747,2.427480916030534,-1.0687022900763359,0.1025390625,-0.1162109375,-0.5908203125,0.6715
1.4045801526717556,2.3206106870229006,-0.7480916030534351,0.099853515625,-0.117431640625,-0.58935546875,0.6731999999999999
1.1145038167938932,2.3206106870229006,-0.9923664122137404,0.101806640625,-0.1181640625,-0.59521484375,0.6748999999999999
1.1450381679389312,2.198473282442748,-0.8396946564885496,0.10693359375,-0.118408203125,-0.59814453125,0.6766
1.2213740458015268,2.3053435114503817,-1.0381679389312977,0.105712890625,-0.11669921875,-0.6025390625,0.6783
0.9923664122137404,2.2595419847328246,-1.099236641221374,0.109619140625,-0.11474609375,-0.58837890625,0.6799999999999999
1.0229007633587786,2.2290076335877864,-1.1297709923664123,0.114013671875,-0.119140625,-0.590576171875,0.6817
1.0381679389312977,2.183206106870229,-0.9465648854961832,0.105712890625,-0.115234375,-0.5908203125,0.6834
0.8396946564885496,2.122137404580153,-1.1908396946564885,0.108154296875,-0.121337890625,-0.5986328125,0.6850999999999999
0.8396946564885496,2.0610687022900764,-1.099236641221374,0.108154296875,-0.12158203125,-0.598388671875,0.6868
0.6717557251908397,2.1374045801526718,-0.9923664122137404,0.10888671875,-0.117919921875,-0.5908203125,0.6885
0.6564885496183206,1.8625954198473282,-1.099236641221374,0.10986328125,-0.1123046875,-0.593017578125,0.6901999999999999
0.6564885496183206,1.984732824427481,-1.0229007633587786,0.105224609375,-0.116455078125,-0.59619140625,0.6919
0.5801526717557252,1.8778625954198473,-1.0534351145038168,0.1064453125,-0.11328125,-0.595947265625,0.6936
0.549618320610687,1.9236641221374047,-1.1145038167938932,0.10302734375,-0.1171875,-0.599609375,0.6952999999999999
0.7480916030534351,2.0763358778625953,-1.0229007633587786,0.1064453125,-0.115478515625,-0.590576171875,0.697
0.7938931297709924,2.015267175572519,-1.1603053435114503,0.1123046875,-0.11181640625,-0.5947265625,0.6987
0.8091603053435115,1.9236641221374047,-1.0381679389312977,0.1083984375,-0.11572265625,-0.587646484375,0.7003999999999999
0.9770992366412213,1.7709923664122138,-1.083969465648855,0.107421875,-0.11474609375,-0.603759765625,0.7021
1.0229007633587786,1.7251908396946565,-0.9923664122137404,0.110595703125,-0.112548828125,-0.595458984375,0.7038
1.1450381679389312,1.618320610687023,-1.2366412213740459,0.106201171875,-0.110107421875,-0.594970703125,0.7055
1.2061068702290076,1.7251908396946565,-0.9770992366412213,0.1044921875,-0.113525390625,-0.60107421875,0.7071999999999999
1.4351145038167938,1.633587786259542,-0.9923664122137404,0.10791015625,-0.109619140625,-0.596435546875,0.7089
1.6030534351145038,1.5725190839694656,-1.0076335877862594,0.109619140625,-0.1142578125,-0.60009765625,0.7106
1.3893129770992367,1.6030534351145038,-0.8091603053435115,0.111328125,-0.120361328125,-0.587646484375,0.7122999999999999
1.2671755725190839,1.5877862595419847,-0.9007633587786259,0.10888671875,-0.1162109375,-0.59375,0.714
1.7099236641221374,1.4809160305343512,-1.0534351145038168,0.107666015625,-0.113037109375,-0.591552734375,0.7157
1.5114503816793894,1.465648854961832,-0.8854961832061069,0.103515625,-0.107177734375,-0.5966796875,0.7173999999999999
1.6030534351145038,1.5114503816793894,-1.1297709923664123,0.110595703125,-0.11083984375,-0.586669921875,0.7191
1.7557251908396947,1.5267175572519085,-1.0534351145038168,0.10888671875,-0.1103515625,-0.593017578125,0.7208
1.7557251908396947,1.3893129770992367,-0.8396946564885496,0.10498046875,-0.111083984375,-0.595703125,0.7224999999999999
1.7251908396946565,1.5114503816793894,-0.6717557251908397,0.107421875,-0.112060546875,-0.595703125,0.7242
1.7709923664122138,1.5572519083969465,-0.7938931297709924,0.107666015625,-0.1142578125,-0.599365234375,0.7259
1.7099236641221374,1.6030534351145038,-0.6106870229007634,0.108154296875,-0.108642578125,-0.595947265625,0.7275999999999999
1.7404580152671756,1.465648854961832,-0.7938931297709924,0.105712890625,-0.112548828125,-0.60009765625,0.7293
1.9236641221374047,1.4045801526717556,-0.7633587786259542,0.10595703125,-0.113525390625,-0.597900390625,0.731
1.8778625954198473,1.3893129770992367,-0.6717557251908397,0.10888671875,-0.11328125,-0.597900390625,0.7326999999999999
1.6946564885496183,1.5114503816793894,-0.732824427480916,0.10693359375,-0.1142578125,-0.604736328125,0.7343999999999999
2.0,1.450381679389313,-0.6564885496183206,0.1064453125,-0.111572265625,-0.60302734375,0.7361
1.8778625954198473,1.3893129770992367,-0.8091603053435115,0.10986328125,-0.11181640625,-0.596923828125,0.7378
1.9083969465648856,1.450381679389313,-0.9618320610687023,0.106201171875,-0.121337890625,-0.600341796875,0.7394999999999999
1.984732824427481,1.2366412213740459,-0.8244274809160306,0.10546875,-0.111328125,-0.591552734375,0.7412
1.8015267175572518,1.3893129770992367,-0.9465648854961832,0.101318359375,-0.11767578125,-0.59619140625,0.7429
1.8931297709923665,1.3740458015267176,-0.9465648854961832,0.10107421875,-0.115966796875,-0.598876953125,0.7445999999999999
1.8778625954198473,1.099236641221374,-0.9618320610687023,0.10498046875,-0.11572265625,-0.588134765625,0.7463
1.618320610687023,1.2061068702290076,-1.0687022900763359,0.10693359375,-0.114013671875,-0.5947265625,0.748
1.5572519083969465,1.297709923664122,-1.1450381679389312,0.104248046875,-0.116455078125,-0.59912109375,0.7496999999999999
1.6946564885496183,1.251908396946565,-1.0229007633587786,0.105712890625,-0.1201171875,-0.595947265625,0.7514
1.5267175572519085,1.083969465648855,-1.1145038167938932,0.102294921875,-0.115478515625,-0.5947265625,0.7531
1.3740458015267176,1.3740458015267176,-1.083969465648855,0.110595703125,-0.123779296875,-0.592041015625,0.7547999999999999
1.450381679389313,1.4198473282442747,-0.9923664122137404,0.1064453125,-0.11474609375,-0.595703125,0.7565
1.5267175572519085,1.2061068702290076,-1.0229007633587786,0.103515625,-0.1171875,-0.599609375,0.7582
1.1908396946564885,1.3740458015267176,-1.1908396946564885,0.10546875,-0.123046875,-0.591796875,0.7598999999999999
1.4045801526717556,1.297709923664122,-1.099236641221374,0.101806640625,-0.115234375,-0.591064453125,0.7615999999999999
1.1145038167938932,1.1603053435114503,-1.1145038167938932,0.105224609375,-0.11572265625,-0.604248046875,0.7633
1.0381679389312977,1.2366412213740459,-1.099236641221374,0.105712890625,-0.1142578125,-0.599853515625,0.7649999999999999
1.3435114503816794,1.1450381679389312,-0.7633587786259542,0.109130859375,-0.1171875,-0.59912109375,0.7666999999999999
1.099236641221374,1.1145038167938932,-0.9465648854961832,0.102294921875,-0.1171875,-0.604248046875,0.7684
1.0229007633587786,1.0534351145038168,-0.9465648854961832,0.1064453125,-0.116455078125,-0.597900390625,0.7701
1.251908396946565,1.0534351145038168,-0.8549618320610687,0.1044921875,-0.1142578125,-0.599609375,0.7717999999999999
1.0076335877862594,0.9465648854961832,-0.8396946564885496,0.102783203125,-0.11474609375,-0.601318359375,0.7735
0.9007633587786259,0.9007633587786259,-0.8702290076335878,0.108154296875,-0.116455078125,-0.590087890625,0.7752
1.1603053435114503,0.9465648854961832,-0.8244274809160306,0.106201171875,-0.116943359375,-0.5986328125,0.7768999999999999
1.3893129770992367,0.9618320610687023,-0.8549618320610687,0.10546875,-0.11572265625,-0.5947265625,0.7786
1.1603053435114503,0.9465648854961832,-0.7786259541984732,0.1083984375,-0.11962890625,-0.60302734375,0.7803
1.251908396946565,1.0381679389312977,-0.7480916030534351,0.105224609375,-0.120361328125,-0.596923828125,0.7819999999999999
1.465648854961832,0.9312977099236641,-0.8396946564885496,0.1025390625,-0.1162109375,-0.59814453125,0.7837
1.3282442748091603,0.8396946564885496,-0.8702290076335878,0.106201171875,-0.114013671875,-0.603271484375,0.7854
1.282442748091603,0.9465648854961832,-0.7480916030534351,0.10693359375,-0.114990234375,-0.607421875,0.7870999999999999
1.5725190839694656,1.0229007633587786,-0.7786259541984732,0.108154296875,-0.120361328125,-0.587646484375,0.7888
1.3893129770992367,0.9007633587786259,-0.8396946564885496,0.108642578125,-0.115234375,-0.5966796875,0.7905
1.3893129770992367,0.7786259541984732,-0.8244274809160306,0.106689453125,-0.117919921875,-0.595947265625,0.7921999999999999
1.4198473282442747,0.8854961832061069,-0.916030534351145,0.105712890625,-0.11376953125,-0.59130859375,0.7938999999999999
1.4961832061068703,1.0076335877862594,-0.9465648854961832,0.113525390625,-0.117431640625,-0.59326171875,0.7956
1.4045801526717556,1.0076335877862594,-0.6564885496183206,0.10400390625,-0.11865234375,-0.595703125,0.7973
1.3282442748091603,0.8854961832061069,-0.7480916030534351,0.107177734375,-0.11328125,-0.597900390625,0.7989999999999999
1.1603053435114503,0.9465648854961832,-0.8244274809160306,0.108154296875,-0.114501953125,-0.599609375,0.8007
1.3129770992366412,1.1908396946564885,-0.8396946564885496,0.110107421875,-0.117919921875,-0.59912109375,0.8024
1.297709923664122,1.0076335877862594,-0.9923664122137404,0.11328125,-0.117431640625,-0.59716796875,0.8040999999999999
1.099236641221374,0.916030534351145,-0.8396946564885496,0.108154296875,-0.119140625,-0.599365234375,0.8058
1.5267175572519085,0.9312977099236641,-0.5801526717557252,0.106201171875,-0.110107421875,-0.59814453125,0.8075
1.5114503816793894,0.8854961832061069,-0.7175572519083969,0.106201171875,-0.116943359375,-0.596923828125,0.8091999999999999
1.5877862595419847,0.9007633587786259,-0.6412213740458015,0.104248046875,-0.11474609375,-0.6025390625,0.8109
1.6488549618320612,0.9923664122137404,-0.6717557251908397,0.104736328125,-0.113525390625,-0.606689453125,0.8126
1.7404580152671756,0.9618320610687023,-0.6412213740458015,0.110595703125,-0.11328125,-0.595947265625,0.8142999999999999
1.9694656488549618,0.9618320610687023,-0.5954198473282443,0.1083984375,-0.112548828125,-0.608642578125,0.816
1.9083969465648856,0.8396946564885496,-0.5038167938931297,0.104248046875,-0.11767578125,-0.602783203125,0.8177
2.045801526717557,0.8244274809160306,-0.5801526717557252,0.10107421875,-0.114501953125,-0.600830078125,0.8193999999999999
1.9694656488549618,0.9618320610687023,-0.4580152671755725,0.10693359375,-0.1142578125,-0.601318359375,0.8210999999999999
2.1374045801526718,0.7938931297709924,-0.6259541984732825,0.111083984375,-0.12109375,-0.598388671875,0.8228
2.183206106870229,0.6412213740458015,-0.5343511450381679,0.103515625,-0.119140625,-0.60107421875,0.8244999999999999
2.16793893129771,0.7938931297709924,-0.5954198473282443,0.1064453125,-0.12158203125,-0.603271484375,0.8261999999999999
2.183206106870229,0.7786259541984732,-0.4580152671755725,0.103515625,-0.11572265625,-0.591796875,0.8279
2.3206106870229006,0.732824427480916,-0.3053435114503817,0.10546875,-0.11767578125,-0.58935546875,0.8296
2.4580152671755724,0.7633587786259542,-0.3969465648854962,0.106689453125,-0.122314453125,-0.59326171875,0.8312999999999999
2.33587786259542,0.8396946564885496,-0.4580152671755725,0.107177734375,-0.1201171875,-0.60009765625,0.833
2.3206106870229006,0.7480916030534351,-0.24427480916030533,0.106689453125,-0.11572265625,-0.60498046875,0.8347
2.33587786259542,0.6870229007633588,-0.5343511450381679,0.100341796875,-0.11865234375,-0.599365234375,0.8363999999999999
2.1526717557251906,0.7938931297709924,-0.3816793893129771,0.100341796875,-0.11376953125,-0.599853515625,0.8381
2.0916030534351147,0.8702290076335878,-0.6106870229007634,0.102294921875,-0.11669921875,-0.59521484375,0.8398
2.122137404580153,0.9618320610687023,-0.5801526717557252,0.10595703125,-0.11962890625,-0.600341796875,0.8414999999999999
2.1526717557251906,0.9618320610687023,-0.6717557251908397,0.106201171875,-0.121337890625,-0.6005859375,0.8432
1.9236641221374047,0.9007633587786259,-0.549618320610687,0.103271484375,-0.122802734375,-0.5947265625,0.8449
1.9541984732824427,1.0534351145038168,-0.6717557251908397,0.099609375,-0.118896484375,-0.60498046875,0.8465999999999999
2.030534351145038,1.1603053435114503,-0.7786259541984732,0.097900390625,-0.11865234375,-0.59765625,0.8482999999999999
1.8931297709923665,1.1297709923664123,-0.7022900763358778,0.10546875,-0.117431640625,-0.59326171875,0.85
2.183206106870229,1.1755725190839694,-0.7175572519083969,0.10791015625,-0.116943359375,-0.594482421875,0.8516999999999999
2.0,1.1145038167938932,-0.7786259541984732,0.103271484375,-0.1201171875,-0.6015625,0.8533999999999999
2.2290076335877864,1.465648854961832,-0.6717557251908397,0.1044921875,-0.117431640625,-0.59716796875,0.8551
2.366412213740458,1.5114503816793894,-0.6870229007633588,0.105712890625,-0.12109375,-0.602783203125,0.8568
2.198473282442748,1.465648854961832,-0.7022900763358778,0.106689453125,-0.117431640625,-0.59423828125,0.8584999999999999
2.3969465648854964,1.5572519083969465,-0.9007633587786259,0.101806640625,-0.11962890625,-0.594482421875,0.8602
2.381679389312977,1.6793893129770991,-0.6412213740458015,0.0986328125,-0.12060546875,-0.60009765625,0.8619
2.427480916030534,1.6793893129770991,-0.6412213740458015,0.10888671875,-0.116455078125,-0.595703125,0.8635999999999999
2.1526717557251906,1.7709923664122138,-0.5954198473282443,0.104736328125,-0.125244140625,-0.6064453125,0.8653
2.2442748091603053,2.0763358778625953,-0.8702290076335878,0.101318359375,-0.12109375,-0.591064453125,0.867
2.0763358778625953,1.7709923664122138,-0.7480916030534351,0.1044921875,-0.12158203125,-0.605224609375,0.8686999999999999
2.030534351145038,1.8778625954198473,-0.4732824427480916,0.102783203125,-0.120361328125,-0.599609375,0.8704
2.2595419847328246,1.8778625954198473,-0.3969465648854962,0.1015625,-0.114501953125,-0.60693359375,0.8721
1.9236641221374047,2.045801526717557,-0.5038167938931297,0.1025390625,-0.120361328125,-0.593017578125,0.8737999999999999
1.8625954198473282,2.2442748091603053,-0.42748091603053434,0.105224609375,-0.122314453125,-0.593994140625,0.8755
1.984732824427481,2.2748091603053435,-0.3053435114503817,0.109619140625,-0.117431640625,-0.602783203125,0.8772
1.9694656488549618,2.2595419847328246,-0.183206106870229,0.108642578125,-0.114501953125,-0.599853515625,0.8788999999999999
2.0,2.0916030534351147,-0.030534351145038167,0.10595703125,-0.120849609375,-0.59521484375,0.8805999999999999
1.83206106870229,2.183206106870229,-0.10687022900763359,0.101318359375,-0.115966796875,-0.59619140625,0.8823
2.015267175572519,2.2595419847328246,-0.2595419847328244,0.1083984375,-0.121337890625,-0.589599609375,0.8839999999999999
2.1374045801526718,2.198473282442748,-0.0916030534351145,0.10400390625,-0.12109375,-0.588623046875,0.8856999999999999
1.83206106870229,2.2748091603053435,-0.030534351145038167,0.10791015625,-0.119384765625,-0.58935546875,0.8874
2.2290076335877864,2.351145038167939,0.0,0.106201171875,-0.121337890625,-0.597412109375,0.8891
2.2442748091603053,2.50381679389313,0.061068702290076333,0.106201171875,-0.118408203125,-0.59521484375,0.8907999999999999
2.2595419847328246,2.2290076335877864,-0.015267175572519083,0.107177734375,-0.118408203125,-0.59912109375,0.8925
2.3206106870229006,2.2442748091603053,-0.10687022900763359,0.105224609375,-0.11962890625,-0.603515625,0.8942
2.2442748091603053,2.366412213740458,0.0916030534351145,0.10205078125,-0.122314453125,-0.5927734375,0.8958999999999999
2.427480916030534,2.5343511450381677,0.061068702290076333,0.112060546875,-0.12158203125,-0.59375,0.8976
2.2595419847328246,2.4427480916030535,0.183206106870229,0.1103515625,-0.11865234375,-0.592529296875,0.8993
2.5343511450381677,2.6717557251908395,-0.10687022900763359,0.103759765625,-0.116455078125,-0.5908203125,0.9009999999999999
2.50381679389313,2.6717557251908395,0.13740458015267176,0.105712890625,-0.120361328125,-0.601806640625,0.9027
2.427480916030534,2.717557251908397,0.07633587786259542,0.104248046875,-0.125244140625,-0.601318359375,0.9044
2.213740458015267,2.8244274809160306,-0.015267175572519083,0.102783203125,-0.115234375,-0.583984375,0.9060999999999999
2.5801526717557253,2.854961832061069,-0.15267175572519084,0.109130859375,-0.116943359375,-0.5986328125,0.9077999999999999
2.3969465648854964,3.0076335877862594,0.030534351145038167,0.1123046875,-0.1142578125,-0.5986328125,0.9095
2.33587786259542,2.900763358778626,-0.04580152671755725,0.1083984375,-0.1103515625,-0.59619140625,0.9111999999999999
2.519083969465649,2.9770992366412212,0.10687022900763359,0.105712890625,-0.11962890625,-0.5947265625,0.9128999999999999
2.3053435114503817,3.0076335877862594,-0.061068702290076333,0.106689453125,-0.1142578125,-0.592529296875,0.9146
2.3206106870229006,2.9923664122137406,-0.04580152671755725,0.105712890625,-0.11279296875,-0.596435546875,0.9163
2.7022900763358777,3.114503816793893,-0.1984732824427481,0.111328125,-0.11474609375,-0.595458984375,0.9179999999999999
2.564885496183206,3.0381679389312977,0.015267175572519083,0.107421875,-0.11767578125,-0.591796875,0.9197
2.5343511450381677,3.114503816793893,-0.2900763358778626,0.1083984375,-0.11474609375,-0.591552734375,0.9214
2.6259541984732824,3.145038167938931,-0.1984732824427481,0.109130859375,-0.11669921875,-0.595703125,0.9230999999999999
2.519083969465649,3.099236641221374,-0.32061068702290074,0.115478515625,-0.1123046875,-0.59814453125,0.9248
2.5343511450381677,3.114503816793893,-0.4580152671755725,0.114501953125,-0.113037109375,-0.5986328125,0.9265
2.7022900763358777,2.9923664122137406,-0.5038167938931297,0.1083984375,-0.116455078125,-0.603759765625,0.9281999999999999
2.549618320610687,3.0076335877862594,-0.44274809160305345,0.110595703125,-0.1162109375,-0.604248046875,0.9299
2.4580152671755724,2.8396946564885495,-0.7022900763358778,0.1142578125,-0.114013671875,-0.59375,0.9316
2.6106870229007635,2.595419847328244,-0.549618320610687,0.112548828125,-0.11328125,-0.59521484375,0.9332999999999999
2.595419847328244,2.6106870229007635,-0.6564885496183206,0.108642578125,-0.115478515625,-0.598388671875,0.9349999999999999
2.717557251908397,2.4122137404580153,-0.3969465648854962,0.1142578125,-0.117431640625,-0.602783203125,0.9367
2.4732824427480917,2.2442748091603053,-0.5343511450381679,0.11669921875,-0.11572265625,-0.59814453125,0.9383999999999999
2.7022900763358777,2.519083969465649,-0.7938931297709924,0.1103515625,-0.115234375,-0.6025390625,0.9400999999999999
2.7480916030534353,2.564885496183206,-0.9465648854961832,0.114013671875,-0.112548828125,-0.60595703125,0.9418
2.6717557251908395,2.4580152671755724,-0.549618320610687,0.116455078125,-0.11767578125,-0.60546875,0.9434999999999999
2.595419847328244,2.4580152671755724,-0.44274809160305345,0.11474609375,-0.115234375,-0.5966796875,0.9451999999999999
2.7938931297709924,2.2900763358778624,-0.4580152671755725,0.114013671875,-0.1201171875,-0.613037109375,0.9469
2.7786259541984735,2.2748091603053435,-0.8244274809160306,0.113525390625,-0.120361328125,-0.599365234375,0.9486
3.0076335877862594,2.213740458015267,-0.549618320610687,0.1103515625,-0.11669921875,-0.59716796875,0.9502999999999999
2.7480916030534353,1.9083969465648856,-0.48854961832061067,0.11328125,-0.1181640625,-0.596923828125,0.952
2.5343511450381677,1.7557251908396947,-0.6259541984732825,0.1103515625,-0.11962890625,-0.604736328125,0.9537
2.7022900763358777,1.9083969465648856,-0.6106870229007634,0.1142578125,-0.12158203125,-0.59912109375,0.9553999999999999
2.717557251908397,1.9694656488549618,-0.7175572519083969,0.113037109375,-0.1162109375,-0.603759765625,0.9571
2.4885496183206106,1.8473282442748091,-0.7938931297709924,0.112060546875,-0.11962890625,-0.604736328125,0.9588
2.0916030534351147,1.7099236641221374,-0.8549618320610687,0.10888671875,-0.116943359375,-0.600341796875,0.9604999999999999
2.198473282442748,1.7557251908396947,-0.9618320610687023,0.1103515625,-0.12060546875,-0.60205078125,0.9621999999999999
1.9389312977099236,1.8473282442748091,-0.916030534351145,0.1123046875,-0.11767578125,-0.5927734375,0.9639
1.3893129770992367,1.5725190839694656,-1.2213740458015268,0.110107421875,-0.11962890625,-0.603515625,0.9655999999999999
1.3587786259541985,1.5114503816793894,-1.2061068702290076,0.107666015625,-0.117431640625,-0.607421875,0.9672999999999999
1.0534351145038168,1.450381679389313,-1.0229007633587786,0.111572265625,-0.119873046875,-0.60400390625,0.969
0.9465648854961832,1.5419847328244274,-1.251908396946565,0.10986328125,-0.1220703125,-0.6123046875,0.9706999999999999
0.7633587786259542,1.450381679389313,-1.4045801526717556,0.109375,-0.11767578125,-0.612060546875,0.9723999999999999
0.6870229007633588,1.465648854961832,-1.450381679389313,0.114501953125,-0.120849609375,-0.60205078125,0.9741
0.732824427480916,1.3893129770992367,-1.5572519083969465,0.1064453125,-0.118896484375,-0.595703125,0.9758
0.6106870229007634,1.3129770992366412,-1.5725190839694656,0.1103515625,-0.124755859375,-0.596923828125,0.9774999999999999
0.5801526717557252,1.4351145038167938,-1.816793893129771,0.10693359375,-0.123779296875,-0.60986328125,0.9792
0.5954198473282443,1.3740458015267176,-1.7557251908396947,0.108154296875,-0.118408203125,-0.603515625,0.9809
0.5954198473282443,1.3435114503816794,-1.9541984732824427,0.10546875,-0.11572265625,-0.599365234375,0.9825999999999999
0.3969465648854962,1.2213740458015268,-2.0763358778625953,0.10791015625,-0.123291015625,-0.590576171875,0.9843
0.48854961832061067,1.3282442748091603,-1.816793893129771,0.111083984375,-0.118408203125,-0.5966796875,0.986
0.6259541984732825,1.297709923664122,-2.0610687022900764,0.108642578125,-0.1201171875,-0.59521484375,0.9876999999999999
0.13740458015267176,1.297709923664122,-2.122137404580153,0.11181640625,-0.122802734375,-0.59375,0.9894
0.3816793893129771,1.282442748091603,-2.0763358778625953,0.10400390625,-0.12109375,-0.601806640625,0.9911
0.24427480916030533,1.4198473282442747,-2.030534351145038,0.107421875,-0.119384765625,-0.604248046875,0.9927999999999999
0.21374045801526717,1.3587786259541985,-2.213740458015267,0.1044921875,-0.119384765625,-0.598388671875,0.9944999999999999
0.015267175572519083,1.1908396946564885,-2.045801526717557,0.1083984375,-0.118896484375,-0.59912109375,0.9962
-0.061068702290076333,1.3893129770992367,-2.122137404580153,0.10986328125,-0.118408203125,-0.602294921875,0.9978999999999999
-0.061068702290076333,1.4045801526717556,-2.122137404580153,0.105712890625,-0.12109375,-0.59765625,0.9995999999999999
0.12213740458015267,1.4045801526717556,-1.8931297709923665,0.114501953125,-0.119873046875,-0.592041015625,1.0012999999999999
-0.061068702290076333,1.5114503816793894,-1.984732824427481,0.108642578125,-0.122314453125,-0.600341796875,1.003
-0.16793893129770993,1.4961832061068703,-1.9083969465648856,0.11279296875,-0.123046875,-0.600830078125,1.0047
-0.061068702290076333,1.4351145038167938,-1.8015267175572518,0.10888671875,-0.11572265625,-0.599609375,1.0064
0.0916030534351145,1.297709923664122,-1.9694656488549618,0.1103515625,-0.118408203125,-0.597900390625,1.0081
-0.030534351145038167,1.282442748091603,-1.8473282442748091,0.111328125,-0.12060546875,-0.607421875,1.0098
0.061068702290076333,1.3740458015267176,-1.9083969465648856,0.114990234375,-0.116943359375,-0.60546875,1.0114999999999998
-0.07633587786259542,1.4045801526717556,-2.015267175572519,0.109130859375,-0.122314453125,-0.60546875,1.0131999999999999
-0.07633587786259542,1.5267175572519085,-2.0916030534351147,0.1123046875,-0.116455078125,-0.595458984375,1.0149
0.07633587786259542,1.4198473282442747,-1.984732824427481,0.1123046875,-0.10986328125,-0.595458984375,1.0166
-0.030534351145038167,1.4198473282442747,-2.0763358778625953,0.109375,-0.11474609375,-0.596435546875,1.0183
-0.10687022900763359,1.4045801526717556,-2.030534351145038,0.108642578125,-0.122802734375,-0.60302734375,1.02
0.21374045801526717,1.4198473282442747,-2.0610687022900764,0.10986328125,-0.121337890625,-0.5986328125,1.0217
0.2595419847328244,1.2671755725190839,-1.9389312977099236,0.107421875,-0.1201171875,-0.59228515625,1.0233999999999999
0.030534351145038167,1.2061068702290076,-2.030534351145038,0.112060546875,-0.1162109375,-0.595458984375,1.0251
0.0,1.5114503816793894,-2.0763358778625953,0.10986328125,-0.12109375,-0.591796875,1.0268
0.04580152671755725,1.450381679389313,-2.030534351145038,0.10693359375,-0.117919921875,-0.59326171875,1.0285
0.015267175572519083,1.2366412213740459,-1.9083969465648856,0.1083984375,-0.110595703125,-0.59716796875,1.0302
-0.015267175572519083,1.297709923664122,-1.8015267175572518,0.104248046875,-0.12158203125,-0.595458984375,1.0319
0.16793893129770993,1.3893129770992367,-1.8015267175572518,0.108154296875,-0.12353515625,-0.60205078125,1.0335999999999999
0.13740458015267176,1.282442748091603,-1.8015267175572518,0.10791015625,-0.126220703125,-0.595703125,1.0352999999999999
0.04580152671755725,1.450381679389313,-1.633587786259542,0.10791015625,-0.1201171875,-0.59228515625,1.037
-0.015267175572519083,1.4045801526717556,-1.7099236641221374,0.10791015625,-0.1201171875,-0.588134765625,1.0387
0.2595419847328244,1.3129770992366412,-1.465648854961832,0.113525390625,-0.122314453125,-0.59716796875,1.0404
0.07633587786259542,1.3129770992366412,-1.5572519083969465,0.10498046875,-0.11962890625,-0.603759765625,1.0421
0.1984732824427481,1.4351145038167938,-1.465648854961832,0.11181640625,-0.122314453125,-0.60595703125,1.0437999999999998
0.3969465648854962,1.4045801526717556,-1.618320610687023,0.10400390625,-0.120849609375,-0.601806640625,1.0454999999999999
0.07633587786259542,1.3282442748091603,-1.5267175572519085,0.11376953125,-0.1162109375,-0.601318359375,1.0472
0.015267175572519083,1.3893129770992367,-1.4961832061068703,0.109130859375,-0.11767578125,-0.601806640625,1.0489
0.07633587786259542,1.3587786259541985,-1.4809160305343512,0.111572265625,-0.117431640625,-0.6015625,1.0506
0.04580152671755725,1.3587786259541985,-1.7251908396946565,0.107666015625,-0.121826171875,-0.598876953125,1.0523
-0.04580152671755725,1.4198473282442747,-1.618320610687023,0.102294921875,-0.12158203125,-0.59375,1.054
0.0,1.3129770992366412,-1.9083969465648856,0.103759765625,-0.120361328125,-0.596923828125,1.0556999999999999
0.04580152671755725,1.3587786259541985,-1.7099236641221374,0.103271484375,-0.114013671875,-0.599853515625,1.0574
0.04580152671755725,1.3282442748091603,-1.6946564885496183,0.107177734375,-0.117919921875,-0.597412109375,1.0591
0.0916030534351145,1.5114503816793894,-1.7404580152671756,0.10400390625,-0.11669921875,-0.60546875,1.0608
-0.030534351145038167,1.7099236641221374,-1.9389312977099236,0.106689453125,-0.113525390625,-0.59619140625,1.0625
0.030534351145038167,1.5419847328244274,-1.7099236641221374,0.104736328125,-0.1103515625,-0.595703125,1.0642
0.061068702290076333,1.5725190839694656,-1.8625954198473282,0.106201171875,-0.110595703125,-0.59326171875,1.0658999999999998
0.2595419847328244,1.6946564885496183,-1.9389312977099236,0.109130859375,-0.113037109375,-0.611572265625,1.0675999999999999
0.2748091603053435,1.6030534351145038,-2.0610687022900764,0.1064453125,-0.119384765625,-0.596923828125,1.0693
0.42748091603053434,1.6488549618320612,-1.9083969465648856,0.1015625,-0.117431640625,-0.597900390625,1.071
0.6259541984732825,1.6793893129770991,-1.984732824427481,0.1015625,-0.1181640625,-0.597412109375,1.0727
0.9618320610687023,1.7251908396946565,-1.8473282442748091,0.103271484375,-0.1162109375,-0.599365234375,1.0744
1.0534351145038168,1.8778625954198473,-2.198473282442748,0.104248046875,-0.113037109375,-0.5966796875,1.0760999999999998
1.1145038167938932,1.83206106870229,-1.7251908396946565,0.1064453125,-0.114013671875,-0.598388671875,1.0777999999999999
1.2366412213740459,1.9083969465648856,-1.786259541984733,0.1025390625,-0.113525390625,-0.59423828125,1.0795
1.450381679389313,2.045801526717557,-1.83206106870229,0.102294921875,-0.113525390625,-0.60107421875,1.0812
1.4198473282442747,2.122137404580153,-1.9236641221374047,0.104736328125,-0.114990234375,-0.59716796875,1.0829
1.2213740458015268,2.015267175572519,-1.9389312977099236,0.1044921875,-0.11572265625,-0.598388671875,1.0846
1.2671755725190839,2.1526717557251906,-2.0,0.107177734375,-0.11474609375,-0.599853515625,1.0863
1.0687022900763359,2.16793893129771,-1.8625954198473282,0.105712890625,-0.115478515625,-0.602294921875,1.0879999999999999
1.0687022900763359,2.2442748091603053,-1.8625954198473282,0.107421875,-0.114501953125,-0.599609375,1.0897
1.3129770992366412,2.3969465648854964,-1.9083969465648856,0.10498046875,-0.118896484375,-0.593017578125,1.0914
1.297709923664122,2.4122137404580153,-1.984732824427481,0.106201171875,-0.116455078125,-0.59521484375,1.0931
1.0687022900763359,2.3969465648854964,-1.8625954198473282,0.10498046875,-0.117919921875,-0.599365234375,1.0948
1.0687022900763359,2.4580152671755724,-1.984732824427481,0.10546875,-0.123046875,-0.591796875,1.0965
0.9312977099236641,2.763358778625954,-1.8931297709923665,0.104736328125,-0.121826171875,-0.600830078125,1.0981999999999998
0.9770992366412213,2.564885496183206,-2.1374045801526718,0.10888671875,-0.11962890625,-0.597900390625,1.0998999999999999
0.9618320610687023,2.717557251908397,-2.030534351145038,0.107177734375,-0.11474609375,-0.60009765625,1.1016
0.8549618320610687,2.7480916030534353,-2.0763358778625953,0.107177734375,-0.116943359375,-0.59716796875,1.1033
0.916030534351145,2.763358778625954,-2.0610687022900764,0.10546875,-0.1162109375,-0.59326171875,1.105
1.1145038167938932,2.732824427480916,-2.030534351145038,0.1064453125,-0.124267578125,-0.60546875,1.1067
0.7633587786259542,2.7480916030534353,-1.816793893129771,0.102783203125,-0.11865234375,-0.6005859375,1.1083999999999998
0.6870229007633588,2.8396946564885495,-2.122137404580153,0.107177734375,-0.124267578125,-0.590087890625,1.1100999999999999
0.6259541984732825,2.8244274809160306,-1.7557251908396947,0.1044921875,-0.119873046875,-0.593017578125,1.1118
0.549618320610687,2.8396946564885495,-1.8625954198473282,0.10595703125,-0.12548828125,-0.60498046875,1.1135
0.3816793893129771,2.9770992366412212,-1.8778625954198473,0.109619140625,-0.11962890625,-0.59521484375,1.1152
0.366412213740458,3.0076335877862594,-1.786259541984733,0.1103515625,-0.122314453125,-0.595947265625,1.1169
0.3053435114503817,2.9618320610687023,-1.6488549618320612,0.10498046875,-0.124267578125,-0.591552734375,1.1186
0.04580152671755725,2.885496183206107,-1.7709923664122138,0.10791015625,-0.122314453125,-0.595458984375,1.1202999999999999
-0.15267175572519084,2.854961832061069,-1.633587786259542,0.108642578125,-0.120849609375,-0.59375,1.1219999999999999
-0.32061068702290074,2.8091603053435112,-1.4809160305343512,0.108642578125,-0.12109375,-0.6015625,1.1237
-0.15267175572519084,2.7938931297709924,-1.4961832061068703,0.10400390625,-0.123291015625,-0.591796875,1.1254
-0.33587786259541985,2.763358778625954,-1.3740458015267176,0.106201171875,-0.1162109375,-0.60302734375,1.1271
-0.5190839694656488,2.763358778625954,-1.1908396946564885,0.109619140625,-0.1171875,-0.60693359375,1.1288
-0.24427480916030533,2.687022900763359,-1.251908396946565,0.106689453125,-0.11767578125,-0.597412109375,1.1304999999999998
-0.3816793893129771,2.687022900763359,-1.0534351145038168,0.10595703125,-0.115234375,-0.599609375,1.1321999999999999
-0.183206106870229,2.4580152671755724,-1.083969465648855,0.108154296875,-0.115478515625,-0.59521484375,1.1339
-0.2900763358778626,2.6106870229007635,-1.083969465648855,0.1123046875,-0.114013671875,-0.60302734375,1.1356
-0.13740458015267176,2.4580152671755724,-1.0381679389312977,0.1103515625,-0.12109375,-0.593994140625,1.1373
-0.015267175572519083,2.381679389312977,-0.9465648854961832,0.10888671875,-0.121826171875,-0.59521484375,1.139
-0.2595419847328244,2.351145038167939,-0.916030534351145,0.1123046875,-0.11962890625,-0.595703125,1.1407
0.061068702290076333,2.2900763358778624,-0.8702290076335878,0.114990234375,-0.115966796875,-0.597900390625,1.1423999999999999
0.44274809160305345,2.2595419847328246,-0.9770992366412213,0.10986328125,-0.120849609375,-0.6005859375,1.1441
0.061068702290076333,2.2900763358778624,-1.0381679389312977,0.10888671875,-0.1142578125,-0.59765625,1.1458
0.3053435114503817,2.0916030534351147,-0.8396946564885496,0.110595703125,-0.11669921875,-0.591796875,1.1475
0.42748091603053434,2.030534351145038,-0.8549618320610687,0.111328125,-0.111572265625,-0.59130859375,1.1492
0.3816793893129771,2.045801526717557,-1.0076335877862594,0.104736328125,-0.113525390625,-0.59619140625,1.1509
0.5190839694656488,2.1068702290076335,-0.9770992366412213,0.107421875,-0.113037109375,-0.586669921875,1.1525999999999998
0.5801526717557252,2.030534351145038,-0.8244274809160306,0.112060546875,-0.115234375,-0.59375,1.1542999999999999
0.8549618320610687,2.0610687022900764,-0.8396946564885496,0.110107421875,-0.119140625,-0.592529296875,1.156
1.0381679389312977,2.015267175572519,-0.732824427480916,0.110595703125,-0.117431640625,-0.59716796875,1.1577
1.1450381679389312,1.9236641221374047,-0.7633587786259542,0.110595703125,-0.1171875,-0.595703125,1.1594
1.2213740458015268,1.984732824427481,-0.7175572519083969,0.109375,-0.12060546875,-0.600830078125,1.1611
1.618320610687023,2.1068702290076335,-0.6717557251908397,0.105224609375,-0.117919921875,-0.5966796875,1.1627999999999998
1.7404580152671756,2.1526717557251906,-0.5343511450381679,0.107177734375,-0.11865234375,-0.586669921875,1.1644999999999999
1.7251908396946565,2.1068702290076335,-0.7022900763358778,0.10986328125,-0.11865234375,-0.598388671875,1.1662
1.83206106870229,1.9236641221374047,-0.5954198473282443,0.11328125,-0.114013671875,-0.59521484375,1.1679
1.786259541984733,1.8473282442748091,-0.6717557251908397,0.107421875,-0.1181640625,-0.593017578125,1.1696
1.8473282442748091,1.633587786259542,-0.8091603053435115,0.107177734375,-0.12060546875,-0.590576171875,1.1713
2.1068702290076335,1.5114503816793894,-0.8244274809160306,0.108154296875,-0.12451171875,-0.5908203125,1.173
1.8473282442748091,1.5572519083969465,-0.9312977099236641,0.10888671875,-0.12158203125,-0.5888671875,1.1746999999999999
1.633587786259542,1.6641221374045803,-0.9618320610687023,0.106201171875,-0.1220703125,-0.59375,1.1764
1.816793893129771,1.282442748091603,-0.9618320610687023,0.10498046875,-0.123291015625,-0.603759765625,1.1781
1.6946564885496183,1.3587786259541985,-1.1145038167938932,0.1064453125,-0.11865234375,-0.595458984375,1.1798
1.8931297709923665,1.251908396946565,-1.2213740458015268,0.106201171875,-0.12109375,-0.605224609375,1.1815
1.7709923664122138,1.2061068702290076,-1.450381679389313,0.104736328125,-0.12353515625,-0.593994140625,1.1832
1.816793893129771,1.297709923664122,-1.4198473282442747,0.1064453125,-0.122314453125,-0.599609375,1.1848999999999998
1.6488549618320612,1.1755725190839694,-1.618320610687023,0.107666015625,-0.118896484375,-0.60595703125,1.1865999999999999
1.6488549618320612,1.1450381679389312,-1.6488549618320612,0.106689453125,-0.11865234375,-0.597412109375,1.1883
1.8931297709923665,0.9923664122137404,-1.8625954198473282,0.107666015625,-0.124267578125,-0.59619140625,1.19
1.9541984732824427,1.0381679389312977,-1.7557251908396947,0.10498046875,-0.120849609375,-0.59912109375,1.1917
1.83206106870229,0.9923664122137404,-1.9694656488549618,0.101806640625,-0.120849609375,-0.59130859375,1.1934
1.6793893129770991,0.7938931297709924,-2.0,0.103759765625,-0.121826171875,-0.59375,1.1950999999999998
1.7251908396946565,0.8549618320610687,-2.183206106870229,0.10205078125,-0.122802734375,-0.6015625,1.1967999999999999
1.4351145038167938,0.9770992366412213,-2.0610687022900764,0.106689453125,-0.120849609375,-0.58935546875,1.1985
1.1908396946564885,1.0229007633587786,-2.2442748091603053,0.1025390625,-0.117919921875,-0.59521484375,1.2002
1.1603053435114503,1.0229007633587786,-2.33587786259542,0.104248046875,-0.12353515625,-0.589111328125,1.2019
0.9465648854961832,1.0076335877862594,-2.519083969465649,0.101318359375,-0.121337890625,-0.595947265625,1.2036
0.7786259541984732,1.099236641221374,-2.4580152671755724,0.107421875,-0.11474609375,-0.60107421875,1.2053
0.366412213740458,1.3740458015267176,-2.5343511450381677,0.10791015625,-0.122802734375,-0.60107421875,1.2069999999999999
0.183206106870229,1.3587786259541985,-2.4580152671755724,0.103515625,-0.123779296875,-0.59326171875,1.2086999999999999
0.030534351145038167,1.282442748091603,-2.732824427480916,0.106201171875,-0.11474609375,-0.606201171875,1.2104
-0.15267175572519084,1.4198473282442747,-2.4427480916030535,0.1064453125,-0.1201171875,-0.6005859375,1.2121
-0.4122137404580153,1.6488549618320612,-2.687022900763359,0.10791015625,-0.119384765625,-0.598388671875,1.2138
-0.2595419847328244,1.6488549618320612,-2.6564885496183206,0.10546875,-0.116455078125,-0.595703125,1.2155
-0.3969465648854962,1.7099236641221374,-2.7022900763358777,0.108154296875,-0.12158203125,-0.5927734375,1.2171999999999998
-0.6717557251908397,1.6030534351145038,-2.6106870229007635,0.11083984375,-0.125732421875,-0.597412109375,1.2188999999999999
-0.8244274809160306,1.7099236641221374,-2.732824427480916,0.1123046875,-0.121826171875,-0.590087890625,1.2206
-0.7175572519083969,1.4961832061068703,-2.8396946564885495,0.110107421875,-0.119873046875,-0.58984375,1.2223
-0.6870229007633588,1.5877862595419847,-2.854961832061069,0.107421875,-0.11181640625,-0.59619140625,1.224
-0.8091603053435115,1.6488549618320612,-2.687022900763359,0.1103515625,-0.120849609375,-0.594970703125,1.2257
-0.9007633587786259,1.4351145038167938,-2.9770992366412212,0.10791015625,-0.113037109375,-0.597412109375,1.2273999999999998
-0.5954198473282443,1.5267175572519085,-2.763358778625954,0.110595703125,-0.116943359375,-0.6005859375,1.2290999999999999
-0.8091603053435115,1.4198473282442747,-2.732824427480916,0.115966796875,-0.1171875,-0.59716796875,1.2308
-0.7786259541984732,1.4045801526717556,-2.7022900763358777,0.1103515625,-0.116455078125,-0.58642578125,1.2325
-0.6564885496183206,1.3893129770992367,-2.9770992366412212,0.112060546875,-0.117431640625,-0.59716796875,1.2342
-0.8091603053435115,1.450381679389313,-2.7480916030534353,0.111572265625,-0.117431640625,-0.60791015625,1.2359
-0.9770992366412213,1.4809160305343512,-2.8396946564885495,0.114990234375,-0.118896484375,-0.60302734375,1.2376
-0.9618320610687023,1.465648854961832,-2.8702290076335877,0.11328125,-0.120361328125,-0.60009765625,1.2392999999999998
-1.0687022900763359,1.3740458015267176,-2.931297709923664,0.1083984375,-0.112060546875,-0.600341796875,1.2409999999999999
-0.9465648854961832,1.4198473282442747,-2.854961832061069,0.111328125,-0.112548828125,-0.597900390625,1.2427
-1.0076335877862594,1.4198473282442747,-2.9160305343511452,0.111572265625,-0.11474609375,-0.59521484375,1.2444
-0.6870229007633588,1.251908396946565,-2.6412213740458017,0.112548828125,-0.11328125,-0.59326171875,1.2461
-0.8244274809160306,1.3740458015267176,-2.7786259541984735,0.111572265625,-0.1162109375,-0.59375,1.2478
-0.916030534351145,1.3587786259541985,-2.4580152671755724,0.11474609375,-0.12158203125,-0.601806640625,1.2494999999999998
-0.6564885496183206,1.3435114503816794,-2.4732824427480917,0.114990234375,-0.11669921875,-0.59765625,1.2511999999999999
-0.6717557251908397,1.3893129770992367,-2.4732824427480917,0.109375,-0.113525390625,-0.6015625,1.2529
-0.5038167938931297,1.1297709923664123,-2.4427480916030535,0.108642578125,-0.107666015625,-0.593017578125,1.2546
-0.42748091603053434,1.1450381679389312,-2.2442748091603053,0.111083984375,-0.10791015625,-0.591796875,1.2563
-0.3969465648854962,1.2213740458015268,-2.33587786259542,0.1123046875,-0.111572265625,-0.58935546875,1.258
-0.5343511450381679,1.2366412213740459,-2.2442748091603053,0.114013671875,-0.11181640625,-0.590087890625,1.2596999999999998
-0.2595419847328244,1.1145038167938932,-2.366412213740458,0.11279296875,-0.1103515625,-0.589111328125,1.2613999999999999
0.015267175572519083,1.1297709923664123,-2.2290076335877864,0.11083984375,-0.11083984375,-0.59326171875,1.2631
-0.2900763358778626,1.0687022900763359,-2.351145038167939,0.10986328125,-0.113525390625,-0.599365234375,1.2648
-0.1984732824427481,1.0076335877862594,-2.1374045801526718,0.109619140625,-0.114501953125,-0.604248046875,1.2665
0.030534351145038167,1.3282442748091603,-2.2442748091603053,0.109619140625,-0.1123046875,-0.597412109375,1.2682
0.13740458015267176,1.2671755725190839,-2.1526717557251906,0.111572265625,-0.116455078125,-0.599853515625,1.2699
-0.0916030534351145,1.0687022900763359,-2.0,0.103271484375,-0.112060546875,-0.60009765625,1.2715999999999998
0.0,1.1297709923664123,-2.0,0.106201171875,-0.10986328125,-0.601318359375,1.2732999999999999
0.16793893129770993,1.4045801526717556,-2.0,0.1064453125,-0.119384765625,-0.60498046875,1.275
0.4580152671755725,1.251908396946565,-1.8473282442748091,0.109619140625,-0.11328125,-0.604248046875,1.2767
0.44274809160305345,1.2213740458015268,-1.8778625954198473,0.103515625,-0.11962890625,-0.59619140625,1.2784
0.3969465648854962,1.3435114503816794,-1.6793893129770991,0.1103515625,-0.113525390625,-0.59033203125,1.2801
0.44274809160305345,1.297709923664122,-1.7251908396946565,0.111328125,-0.11474609375,-0.592529296875,1.2817999999999998
0.6717557251908397,1.1450381679389312,-1.465648854961832,0.10888671875,-0.114013671875,-0.59375,1.2834999999999999
0.5648854961832062,1.1755725190839694,-1.8015267175572518,0.1044921875,-0.111328125,-0.6015625,1.2852
0.8549618320610687,1.297709923664122,-1.5419847328244274,0.10791015625,-0.117919921875,-0.592529296875,1.2869
1.1297709923664123,1.2213740458015268,-1.6030534351145038,0.10888671875,-0.11376953125,-0.60009765625,1.2886
1.0229007633587786,1.1145038167938932,-1.4961832061068703,0.105224609375,-0.115234375,-0.593017578125,1.2903
0.9770992366412213,0.9923664122137404,-1.6030534351145038,0.114013671875,-0.114501953125,-0.6015625,1.292
1.251908396946565,1.1755725190839694,-1.4961832061068703,0.106689453125,-0.114990234375,-0.59228515625,1.2936999999999999
1.1603053435114503,0.9923664122137404,-1.2366412213740459,0.10498046875,-0.115234375,-0.587890625,1.2953999999999999
1.5267175572519085,1.099236641221374,-1.1908396946564885,0.1123046875,-0.115478515625,-0.589599609375,1.2971
1.5725190839694656,1.2061068702290076,-1.4809160305343512,0.114501953125,-0.113525390625,-0.59375,1.2988
1.465648854961832,1.2366412213740459,-1.0381679389312977,0.1181640625,-0.11181640625,-0.5888671875,1.3005
1.4045801526717556,1.1908396946564885,-0.9465648854961832,0.1064453125,-0.115478515625,-0.593505859375,1.3022
1.5419847328244274,1.251908396946565,-1.1145038167938932,0.102783203125,-0.118896484375,-0.598388671875,1.3038999999999998
1.3282442748091603,1.2061068702290076,-1.1297709923664123,0.107177734375,-0.11572265625,-0.58935546875,1.3055999999999999
1.297709923664122,1.2213740458015268,-0.916030534351145,0.10791015625,-0.109619140625,-0.60009765625,1.3073
1.4045801526717556,1.465648854961832,-0.7480916030534351,0.100830078125,-0.111572265625,-0.587890625,1.309
1.2213740458015268,1.4198473282442747,-0.6412213740458015,0.1044921875,-0.120849609375,-0.59765625,1.3107
1.1145038167938932,1.3893129770992367,-0.8244274809160306,0.102783203125,-0.115234375,-0.5927734375,1.3124
1.3893129770992367,1.3129770992366412,-0.7938931297709924,0.1083984375,-0.117919921875,-0.588623046875,1.3140999999999998
1.465648854961832,1.6641221374045803,-0.7938931297709924,0.109619140625,-0.118408203125,-0.591552734375,1.3157999999999999
1.3893129770992367,1.8473282442748091,-0.7022900763358778,0.1103515625,-0.119140625,-0.597900390625,1.3175
1.4809160305343512,1.7404580152671756,-0.7633587786259542,0.104736328125,-0.1181640625,-0.591796875,1.3192
1.465648854961832,1.7404580152671756,-0.7633587786259542,0.1015625,-0.117919921875,-0.600341796875,1.3209
1.8015267175572518,1.9389312977099236,-0.9007633587786259,0.1044921875,-0.11572265625,-0.60009765625,1.3226
1.984732824427481,1.9083969465648856,-0.7480916030534351,0.10302734375,-0.111328125,-0.6005859375,1.3243
1.8931297709923665,2.1526717557251906,-1.0381679389312977,0.105224609375,-0.11865234375,-0.601806640625,1.3259999999999998
1.9083969465648856,2.3206106870229006,-0.9618320610687023,0.10693359375,-0.118896484375,-0.597412109375,1.3276999999999999
2.1374045801526718,2.33587786259542,-0.916030534351145,0.1044921875,-0.114013671875,-0.599609375,1.3294
2.0610687022900764,2.3053435114503817,-0.8091603053435115,0.103759765625,-0.113525390625,-0.587890625,1.3311
1.9541984732824427,2.5801526717557253,-1.0534351145038168,0.103271484375,-0.11767578125,-0.598876953125,1.3328
1.9236641221374047,2.4580152671755724,-1.1297709923664123,0.106689453125,-0.11474609375,-0.59912109375,1.3345
2.16793893129771,2.595419847328244,-1.0687022900763359,0.10400390625,-0.1171875,-0.5986328125,1.3361999999999998
2.0763358778625953,2.7480916030534353,-1.1755725190839694,0.10302734375,-0.11962890625,-0.5986328125,1.3378999999999999
1.8931297709923665,2.732824427480916,-1.2061068702290076,0.107421875,-0.113525390625,-0.593505859375,1.3396
2.0916030534351147,2.8702290076335877,-1.0687022900763359,0.112060546875,-0.117919921875,-0.598876953125,1.3413
2.213740458015267,2.717557251908397,-1.0687022900763359,0.10693359375,-0.12109375,-0.600830078125,1.343
2.198473282442748,2.5343511450381677,-1.099236641221374,0.11376953125,-0.1220703125,-0.58837890625,1.3447
2.1374045801526718,2.6259541984732824,-1.3129770992366412,0.1123046875,-0.11865234375,-0.594970703125,1.3463999999999998
1.9236641221374047,2.8396946564885495,-1.2213740458015268,0.1064453125,-0.119140625,-0.600341796875,1.3480999999999999
1.7099236641221374,2.6259541984732824,-1.282442748091603,0.1142578125,-0.11865234375,-0.600341796875,1.3497999999999999
1.786259541984733,2.427480916030534,-1.465648854961832,0.1162109375,-0.118896484375,-0.601806640625,1.3515
1.786259541984733,2.6106870229007635,-1.4198473282442747,0.111083984375,-0.11572265625,-0.59423828125,1.3532
1.465648854961832,2.687022900763359,-1.5419847328244274,0.112060546875,-0.11669921875,-0.597900390625,1.3549
1.5419847328244274,2.519083969465649,-1.5725190839694656,0.109130859375,-0.11328125,-0.59423828125,1.3566
1.3740458015267176,2.6106870229007635,-1.6030534351145038,0.111083984375,-0.1171875,-0.594482421875,1.3582999999999998
1.1755725190839694,2.5801526717557253,-1.7251908396946565,0.107177734375,-0.117431640625,-0.59130859375,1.3599999999999999
1.0381679389312977,2.5343511450381677,-1.83206106870229,0.110595703125,-0.11572265625,-0.599365234375,1.3617
0.8091603053435115,2.4885496183206106,-1.6488549618320612,0.10986328125,-0.11865234375,-0.59375,1.3634
0.7175572519083969,2.4885496183206106,-1.7251908396946565,0.11376953125,-0.116943359375,-0.610595703125,1.3651
0.9465648854961832,2.381679389312977,-1.8015267175572518,0.110595703125,-0.116455078125,-0.596435546875,1.3668
0.6870229007633588,2.3206106870229006,-1.984732824427481,0.109619140625,-0.11865234375,-0.59765625,1.3684999999999998
0.6259541984732825,2.213740458015267,-1.6641221374045803,0.113037109375,-0.116455078125,-0.601806640625,1.3701999999999999
0.549618320610687,2.4122137404580153,-1.8778625954198473,0.110595703125,-0.11767578125,-0.6025390625,1.3719
0.6259541984732825,2.183206106870229,-1.9541984732824427,0.1103515625,-0.116943359375,-0.614501953125,1.3736
0.3816793893129771,2.122137404580153,-1.9236641221374047,0.1103515625,-0.1162109375,-0.60009765625,1.3753
0.366412213740458,2.0,-2.045801526717557,0.112060546875,-0.118408203125,-0.60205078125,1.377
0.3969465648854962,2.0916030534351147,-1.9083969465648856,0.11474609375,-0.11865234375,-0.603759765625,1.3786999999999998
0.32061068702290074,1.9083969465648856,-1.8473282442748091,0.11572265625,-0.113037109375,-0.59375,1.3803999999999998
0.3053435114503817,1.8931297709923665,-1.8931297709923665,0.112548828125,-0.11572265625,-0.58837890625,1.3820999999999999
0.030534351145038167,1.7557251908396947,-1.9083969465648856,0.11376953125,-0.1123046875,-0.598876953125,1.3838
0.1984732824427481,1.618320610687023,-2.0610687022900764,0.112548828125,-0.113525390625,-0.5927734375,1.3855
0.10687022900763359,1.7404580152671756,-2.0763358778625953,0.11083984375,-0.1123046875,-0.594970703125,1.3872
0.15267175572519084,1.7099236641221374,-2.045801526717557,0.113037109375,-0.114013671875,-0.59326171875,1.3889
0.1984732824427481,1.5267175572519085,-1.8473282442748091,0.109619140625,-0.11474609375,-0.59814453125,1.3905999999999998
0.15267175572519084,1.633587786259542,-2.030534351145038,0.109375,-0.1171875,-0.58984375,1.3922999999999999
0.061068702290076333,1.465648854961832,-1.984732824427481,0.11279296875,-0.110595703125,-0.598876953125,1.394
0.12213740458015267,1.282442748091603,-2.122137404580153,0.10888671875,-0.113525390625,-0.5947265625,1.3957
0.061068702290076333,1.3435114503816794,-1.984732824427481,0.11328125,-0.11767578125,-0.5966796875,1.3974
0.13740458015267176,1.251908396946565,-1.9389312977099236,0.1103515625,-0.11376953125,-0.592041015625,1.3991
-0.2900763358778626,1.3129770992366412,-1.9236641221374047,0.111572265625,-0.112060546875,-0.600830078125,1.4007999999999998
0.0,1.2213740458015268,-1.984732824427481,0.11376953125,-0.114013671875,-0.6005859375,1.4024999999999999
0.3816793893129771,1.1297709923664123,-1.9541984732824427,0.112060546875,-0.111328125,-0.5966796875,1.4042
0.22900763358778625,1.2061068702290076,-2.0,0.108642578125,-0.111572265625,-0.594970703125,1.4059
0.3511450381679389,1.0534351145038168,-1.7251908396946565,0.109375,-0.113525390625,-0.59521484375,1.4076
0.48854961832061067,1.1297709923664123,-1.8625954198473282,0.1083984375,-0.112548828125,-0.590576171875,1.4093
0.7480916030534351,1.099236641221374,-1.984732824427481,0.1064453125,-0.11279296875,-0.609130859375,1.411
0.6717557251908397,1.0229007633587786,-1.9694656488549618,0.110107421875,-0.112060546875,-0.600341796875,1.4126999999999998
0.6106870229007634,1.1908396946564885,-1.83206106870229,0.110595703125,-0.11669921875,-0.59619140625,1.4143999999999999
0.6564885496183206,1.1297709923664123,-1.7251908396946565,0.111572265625,-0.115478515625,-0.59375,1.4161
0.4732824427480916,1.0687022900763359,-1.83206106870229,0.10888671875,-0.113037109375,-0.595703125,1.4178
0.9007633587786259,1.099236641221374,-1.7251908396946565,0.114990234375,-0.11376953125,-0.598388671875,1.4195
0.7633587786259542,1.0076335877862594,-1.5419847328244274,0.11376953125,-0.109619140625,-0.594970703125,1.4212
0.5954198473282443,0.9465648854961832,-1.7099236641221374,0.113037109375,-0.113037109375,-0.59423828125,1.4228999999999998
0.6870229007633588,0.9770992366412213,-1.4961832061068703,0.107421875,-0.11279296875,-0.593505859375,1.4245999999999999
0.7633587786259542,0.8549618320610687,-1.5725190839694656,0.11083984375,-0.10888671875,-0.59814453125,1.4263
0.7175572519083969,0.916030534351145,-1.450381679389313,0.112060546875,-0.11474609375,-0.599365234375,1.428
0.9770992366412213,0.9312977099236641,-1.5419847328244274,0.1103515625,-0.11181640625,-0.594482421875,1.4297
0.9312977099236641,0.8854961832061069,-1.5267175572519085,0.109619140625,-0.111083984375,-0.591796875,1.4314
0.8702290076335878,0.9923664122137404,-1.5267175572519085,0.109375,-0.1103515625,-0.599365234375,1.4330999999999998
0.8854961832061069,0.9770992366412213,-1.3282442748091603,0.10498046875,-0.114990234375,-0.598388671875,1.4347999999999999
0.9618320610687023,1.1450381679389312,-1.5419847328244274,0.110595703125,-0.114501953125,-0.601806640625,1.4364999999999999
0.7938931297709924,1.1450381679389312,-1.3587786259541985,0.10791015625,-0.11083984375,-0.597900390625,1.4382
0.8854961832061069,1.1908396946564885,-1.5114503816793894,0.106201171875,-0.113525390625,-0.59619140625,1.4399
0.7175572519083969,1.1297709923664123,-1.450381679389313,0.10693359375,-0.114501953125,-0.587158203125,1.4416
0.916030534351145,1.1145038167938932,-1.6030534351145038,0.1083984375,-0.112548828125,-0.593505859375,1.4433
1.0534351145038168,1.083969465648855,-1.251908396946565,0.107177734375,-0.11572265625,-0.606201171875,1.4449999999999998
1.0076335877862594,1.0687022900763359,-1.3282442748091603,0.1083984375,-0.117919921875,-0.600830078125,1.4466999999999999
1.083969465648855,1.1297709923664123,-1.282442748091603,0.104248046875,-0.114013671875,-0.592529296875,1.4484
0.8244274809160306,0.9007633587786259,-1.3893129770992367,0.105712890625,-0.115234375,-0.600341796875,1.4501
0.9923664122137404,1.0381679389312977,-1.4351145038167938,0.10791015625,-0.111572265625,-0.591552734375,1.4518
1.282442748091603,1.297709923664122,-1.3740458015267176,0.111083984375,-0.1083984375,-0.59765625,1.4535
0.9312977099236641,1.083969465648855,-1.465648854961832,0.108154296875,-0.114501953125,-0.595947265625,1.4551999999999998
1.1297709923664123,1.1755725190839694,-1.633587786259542,0.109375,-0.110595703125,-0.594970703125,1.4568999999999999
1.3129770992366412,1.0534351145038168,-1.3129770992366412,0.10888671875,-0.108642578125,-0.59619140625,1.4586
1.3587786259541985,1.0687022900763359,-1.5114503816793894,0.105712890625,-0.1142578125,-0.59521484375,1.4603
1.4809160305343512,1.1297709923664123,-1.3129770992366412,0.110107421875,-0.111572265625,-0.593994140625,1.462
1.3282442748091603,1.1145038167938932,-1.3435114503816794,0.10693359375,-0.11083984375,-0.5966796875,1.4637
1.7404580152671756,1.3282442748091603,-1.3893129770992367,0.10791015625,-0.11279296875,-0.587646484375,1.4653999999999998
1.5419847328244274,1.251908396946565,-1.1908396946564885,0.107666015625,-0.119384765625,-0.602783203125,1.4670999999999998
1.618320610687023,1.1297709923664123,-1.251908396946565,0.107421875,-0.114501953125,-0.593017578125,1.4687999999999999
1.83206106870229,1.2366412213740459,-1.3282442748091603,0.10986328125,-0.108154296875,-0.59765625,1.4705
1.7709923664122138,1.3129770992366412,-1.0076335877862594,0.111083984375,-0.11474609375,-0.598876953125,1.4722
1.6488549618320612,1.282442748091603,-1.3587786259541985,0.1083984375,-0.1123046875,-0.58740234375,1.4739
1.7709923664122138,1.1450381679389312,-1.1603053435114503,0.109130859375,-0.118896484375,-0.593017578125,1.4756
1.9236641221374047,1.4198473282442747,-1.251908396946565,0.10498046875,-0.11962890625,-0.600341796875,1.4772999999999998
1.9236641221374047,1.3587786259541985,-1.2061068702290076,0.1103515625,-0.10888671875,-0.587890625,1.4789999999999999
1.7709923664122138,1.465648854961832,-1.282442748091603,0.111083984375,-0.112548828125,-0.6005859375,1.4807
1.7099236641221374,1.3435114503816794,-1.1297709923664123,0.107177734375,-0.11474609375,-0.595703125,1.4824
1.816793893129771,1.4351145038167938,-1.3282442748091603,0.102783203125,-0.1142578125,-0.599365234375,1.4841
1.9694656488549618,1.5267175572519085,-1.2671755725190839,0.104736328125,-0.1103515625,-0.597412109375,1.4858
1.7557251908396947,1.6793893129770991,-1.282442748091603,0.108642578125,-0.11279296875,-0.600341796875,1.4874999999999998
1.7404580152671756,1.5877862595419847,-1.5267175572519085,0.107421875,-0.119384765625,-0.588623046875,1.4891999999999999
1.8778625954198473,1.5877862595419847,-1.5419847328244274,0.108154296875,-0.1171875,-0.59375,1.4909
1.7404580152671756,1.6488549618320612,-1.5114503816793894,0.107421875,-0.116455078125,-0.59228515625,1.4926
1.5725190839694656,1.5419847328244274,-1.7557251908396947,0.107421875,-0.119140625,-0.599853515625,1.4943
1.6641221374045803,1.618320610687023,-1.6488549618320612,0.10986328125,-0.1220703125,-0.592529296875,1.496
1.6946564885496183,1.465648854961832,-1.8778625954198473,0.105712890625,-0.12109375,-0.596435546875,1.4976999999999998
1.5877862595419847,1.6946564885496183,-1.9083969465648856,0.103515625,-0.12158203125,-0.597900390625,1.4993999999999998
1.7099236641221374,1.5114503816793894,-1.9694656488549618,0.109130859375,-0.121337890625,-0.59423828125,1.5010999999999999
1.6030534351145038,1.3740458015267176,-2.045801526717557,0.113037109375,-0.12451171875,-0.59423828125,1.5028
1.6030534351145038,1.5267175572519085,-1.9083969465648856,0.104736328125,-0.11962890625,-0.59619140625,1.5045
1.6488549618320612,1.4045801526717556,-1.8931297709923665,0.107666015625,-0.12255859375,-0.5888671875,1.5062
1.5572519083969465,1.618320610687023,-2.015267175572519,0.10498046875,-0.1201171875,-0.588134765625,1.5079
1.465648854961832,1.6488549618320612,-1.8931297709923665,0.10986328125,-0.123291015625,-0.597412109375,1.5095999999999998
1.5114503816793894,1.450381679389313,-2.030534351145038,0.10693359375,-0.119384765625,-0.6044921875,1.5112999999999999
1.4809160305343512,1.465648854961832,-1.8778625954198473,0.108642578125,-0.123779296875,-0.6044921875,1.513
1.5419847328244274,1.6030534351145038,-1.8015267175572518,0.108154296875,-0.117919921875,-0.596923828125,1.5147
1.3282442748091603,1.4351145038167938,-1.8625954198473282,0.111572265625,-0.1201171875,-0.5966796875,1.5164
1.0076335877862594,1.4809160305343512,-1.9541984732824427,0.10791015625,-0.1142578125,-0.587890625,1.5181
1.1145038167938932,1.4045801526717556,-1.7099236641221374,0.11083984375,-0.125244140625,-0.595458984375,1.5197999999999998
0.9923664122137404,1.4809160305343512,-1.5877862595419847,0.106201171875,-0.121337890625,-0.59033203125,1.5214999999999999
1.1297709923664123,1.3893129770992367,-1.7557251908396947,0.10791015625,-0.1162109375,-0.60205078125,1.5231999999999999
1.099236641221374,1.2061068702290076,-1.9083969465648856,0.114990234375,-0.117431640625,-0.60400390625,1.5249
0.7786259541984732,1.1145038167938932,-1.5877862595419847,0.109619140625,-0.11572265625,-0.60205078125,1.5266
0.9618320610687023,1.1450381679389312,-1.6946564885496183,0.11083984375,-0.117919921875,-0.596923828125,1.5283
0.7022900763358778,1.1450381679389312,-1.7251908396946565,0.113037109375,-0.117431640625,-0.593017578125,1.5299999999999998
0.5648854961832062,1.083969465648855,-1.9083969465648856,0.10595703125,-0.11669921875,-0.59619140625,1.5316999999999998
0.44274809160305345,1.099236641221374,-1.786259541984733,0.11474609375,-0.11572265625,-0.60009765625,1.5333999999999999
0.5648854961832062,1.083969465648855,-1.8778625954198473,0.10791015625,-0.11474609375,-0.604248046875,1.5351
0.48854961832061067,0.9923664122137404,-1.8473282442748091,0.105712890625,-0.114990234375,-0.605712890625,1.5368
0.44274809160305345,0.8854961832061069,-1.8015267175572518,0.10693359375,-0.116943359375,-0.59912109375,1.5385
0.5801526717557252,0.9007633587786259,-1.984732824427481,0.111083984375,-0.113037109375,-0.596923828125,1.5402
0.7786259541984732,0.9618320610687023,-1.8778625954198473,0.1083984375,-0.1181640625,-0.594970703125,1.5418999999999998
0.48854961832061067,0.7480916030534351,-2.015267175572519,0.113525390625,-0.117919921875,-0.586669921875,1.5435999999999999
0.8091603053435115,0.5801526717557252,-2.1526717557251906,0.113525390625,-0.12109375,-0.594970703125,1.5453
0.7786259541984732,0.6106870229007634,-2.183206106870229,0.1044921875,-0.12109375,-0.59912109375,1.547
0.916030534351145,0.7175572519083969,-2.2900763358778624,0.11083984375,-0.1181640625,-0.592529296875,1.5487
1.2061068702290076,0.7480916030534351,-2.2595419847328246,0.10205078125,-0.117431640625,-0.60595703125,1.5504
1.099236641221374,0.5343511450381679,-2.122137404580153,0.1064453125,-0.11962890625,-0.60546875,1.5520999999999998
1.1145038167938932,0.6412213740458015,-2.183206106870229,0.106201171875,-0.110107421875,-0.5966796875,1.5537999999999998
1.2213740458015268,0.5954198473282443,-2.427480916030534,0.106689453125,-0.11572265625,-0.592041015625,1.5554999999999999
1.2366412213740459,0.6106870229007634,-2.2748091603053435,0.10400390625,-0.123046875,-0.5908203125,1.5572
1.297709923664122,0.7480916030534351,-2.0916030534351147,0.10546875,-0.120361328125,-0.59326171875,1.5589
1.4809160305343512,0.8702290076335878,-2.0,0.105224609375,-0.10888671875,-0.599365234375,1.5606
1.2213740458015268,0.7633587786259542,-2.1068702290076335,0.09765625,-0.1171875,-0.59521484375,1.5623
1.2061068702290076,0.8396946564885496,-2.1068702290076335,0.1025390625,-0.115478515625,-0.602783203125,1.5639999999999998
1.2213740458015268,0.7480916030534351,-2.045801526717557,0.108642578125,-0.114013671875,-0.593505859375,1.5656999999999999
1.2366412213740459,0.6870229007633588,-1.9694656488549618,0.10498046875,-0.112060546875,-0.598388671875,1.5674
1.251908396946565,0.8244274809160306,-2.0610687022900764,0.10546875,-0.113525390625,-0.599365234375,1.5691
1.3282442748091603,1.0534351145038168,-1.9389312977099236,0.11181640625,-0.113525390625,-0.592041015625,1.5708
1.3740458015267176,0.8854961832061069,-1.8625954198473282,0.111572265625,-0.113037109375,-0.591796875,1.5725
1.2213740458015268,0.7786259541984732,-1.984732824427481,0.1083984375,-0.11572265625,-0.597900390625,1.5741999999999998
1.251908396946565,0.916030534351145,-1.9236641221374047,0.10693359375,-0.11669921875,-0.593505859375,1.5758999999999999
1.450381679389313,0.8091603053435115,-2.2442748091603053,0.1064453125,-0.118408203125,-0.59619140625,1.5776
1.282442748091603,0.7175572519083969,-1.9541984732824427,0.10791015625,-0.114501953125,-0.593505859375,1.5793
1.2213740458015268,0.8702290076335878,-2.1068702290076335,0.111572265625,-0.118896484375,-0.599609375,1.581
1.3435114503816794,0.6717557251908397,-2.030534351145038,0.106689453125,-0.113525390625,-0.60205078125,1.5827
1.3129770992366412,0.6870229007633588,-2.2595419847328246,0.105224609375,-0.113037109375,-0.595703125,1.5843999999999998
1.2213740458015268,0.5343511450381679,-2.1526717557251906,0.107177734375,-0.1123046875,-0.603759765625,1.5860999999999998
1.282442748091603,0.5801526717557252,-2.0763358778625953,0.1064453125,-0.115234375,-0.59765625,1.5877999999999999
0.9312977099236641,0.5038167938931297,-2.2290076335877864,0.107177734375,-0.114501953125,-0.6005859375,1.5895
1.1450381679389312,0.5343511450381679,-2.33587786259542,0.107666015625,-0.1142578125,-0.59814453125,1.5912
0.9923664122137404,0.4732824427480916,-2.2442748091603053,0.10400390625,-0.116943359375,-0.58837890625,1.5929
0.9618320610687023,0.6412213740458015,-2.2900763358778624,0.103271484375,-0.113037109375,-0.597900390625,1.5946
1.0687022900763359,0.5343511450381679,-2.2290076335877864,0.110595703125,-0.108154296875,-0.59814453125,1.5962999999999998
1.0381679389312977,0.6106870229007634,-2.1068702290076335,0.103271484375,-0.10986328125,-0.593994140625,1.5979999999999999
1.297709923664122,0.549618320610687,-2.0916030534351147,0.110107421875,-0.109619140625,-0.599609375,1.5997
1.0687022900763359,0.7938931297709924,-2.015267175572519,0.105712890625,-0.113037109375,-0.600341796875,1.6014
1.099236641221374,0.7022900763358778,-1.8473282442748091,0.106201171875,-0.112548828125,-0.598876953125,1.6031
1.2671755725190839,0.8244274809160306,-1.9389312977099236,0.104248046875,-0.115234375,-0.594482421875,1.6048
1.0229007633587786,0.8244274809160306,-1.7557251908396947,0.105224609375,-0.109375,-0.59814453125,1.6064999999999998
1.3435114503816794,0.9465648854961832,-1.6793893129770991,0.10400390625,-0.109130859375,-0.59619140625,1.6081999999999999
1.618320610687023,1.0381679389312977,-1.4961832061068703,0.105224609375,-0.117431640625,-0.603759765625,1.6098999999999999
1.251908396946565,1.083969465648855,-1.5114503816793894,0.111328125,-0.112548828125,-0.60888671875,1.6116
1.2061068702290076,1.1908396946564885,-1.5725190839694656,0.1083984375,-0.113525390625,-0.602783203125,1.6133
1.1145038167938932,1.4045801526717556,-1.5267175572519085,0.10791015625,-0.111328125,-0.600341796875,1.615
1.083969465648855,1.3740458015267176,-1.3282442748091603,0.106689453125,-0.109375,-0.596923828125,1.6166999999999998
1.083969465648855,1.4045801526717556,-1.1908396946564885,0.106201171875,-0.115234375,-0.59521484375,1.6183999999999998
0.9007633587786259,1.3740458015267176,-1.1603053435114503,0.1123046875,-0.11572265625,-0.595947265625,1.6200999999999999
0.8702290076335878,1.450381679389313,-1.083969465648855,0.10791015625,-0.110107421875,-0.60205078125,1.6218
0.8091603053435115,1.6030534351145038,-1.0534351145038168,0.1064453125,-0.110107421875,-0.598388671875,1.6235
0.6717557251908397,1.633587786259542,-1.0381679389312977,0.106689453125,-0.110107421875,-0.595947265625,1.6252
0.5801526717557252,1.7404580152671756,-0.9465648854961832,0.10546875,-0.114990234375,-0.59716796875,1.6269
0.7480916030534351,1.6793893129770991,-1.1145038167938932,0.10693359375,-0.1142578125,-0.59375,1.6285999999999998
0.366412213740458,1.6946564885496183,-0.8702290076335878,0.107177734375,-0.1142578125,-0.60009765625,1.6302999999999999
0.5343511450381679,1.618320610687023,-0.9465648854961832,0.10693359375,-0.111328125,-0.60107421875,1.632
0.6106870229007634,1.5877862595419847,-0.6564885496183206,0.105712890625,-0.111572265625,-0.59619140625,1.6337
0.2900763358778626,1.8931297709923665,-0.7175572519083969,0.1064453125,-0.112060546875,-0.599853515625,1.6354
0.21374045801526717,1.9236641221374047,-0.5648854961832062,0.107421875,-0.1123046875,-0.598388671875,1.6371
0.12213740458015267,1.9541984732824427,-0.6717557251908397,0.11181640625,-0.115234375,-0.5947265625,1.6387999999999998
0.0,1.83206106870229,-0.4732824427480916,0.1064453125,-0.110595703125,-0.602783203125,1.6404999999999998
-0.24427480916030533,1.8778625954198473,-0.549618320610687,0.1083984375,-0.109375,-0.59814453125,1.6421999999999999
-0.3816793893129771,1.8473282442748091,-0.5801526717557252,0.111083984375,-0.11376953125,-0.5986328125,1.6439
-0.5343511450381679,1.8625954198473282,-0.42748091603053434,0.108154296875,-0.110595703125,-0.60107421875,1.6456
-0.6564885496183206,1.9694656488549618,-0.5648854961832062,0.10986328125,-0.10888671875,-0.604736328125,1.6473
-0.44274809160305345,1.9694656488549618,-0.4732824427480916,0.1064453125,-0.109130859375,-0.606689453125,1.6489999999999998
-0.6564885496183206,2.015267175572519,-0.2748091603053435,0.109619140625,-0.11083984375,-0.601806640625,1.6506999999999998
-0.5343511450381679,2.1068702290076335,-0.42748091603053434,0.109375,-0.1123046875,-0.59521484375,1.6523999999999999
-0.4732824427480916,2.381679389312977,-0.1984732824427481,0.108154296875,-0.113037109375,-0.601806640625,1.6541
-0.2748091603053435,2.2748091603053435,-0.061068702290076333,0.109619140625,-0.114990234375,-0.6015625,1.6558
-0.04580152671755725,2.33587786259542,-0.04580152671755725,0.10693359375,-0.10888671875,-0.607666015625,1.6575
-0.2748091603053435,2.2595419847328246,-0.061068702290076333,0.111572265625,-0.111328125,-0.60107421875,1.6592
-0.3053435114503817,2.3053435114503817,0.030534351145038167,0.11181640625,-0.108154296875,-0.60009765625,1.6608999999999998
-0.13740458015267176,2.198473282442748,0.061068702290076333,0.1083984375,-0.111083984375,-0.599609375,1.6625999999999999
-0.21374045801526717,2.4122137404580153,-0.061068702290076333,0.10498046875,-0.113037109375,-0.59326171875,1.6643
-0.015267175572519083,2.3969465648854964,0.10687022900763359,0.10546875,-0.108642578125,-0.5966796875,1.666
0.0,2.2900763358778624,0.24427480916030533,0.111572265625,-0.10986328125,-0.608154296875,1.6677
0.2748091603053435,2.427480916030534,0.015267175572519083,0.10546875,-0.11376953125,-0.60107421875,1.6694
0.3511450381679389,2.33587786259542,0.2900763358778626,0.105712890625,-0.10546875,-0.6044921875,1.6710999999999998
0.44274809160305345,2.381679389312977,0.3053435114503817,0.107177734375,-0.108642578125,-0.603271484375,1.6727999999999998
0.7786259541984732,2.351145038167939,0.4580152671755725,0.108154296875,-0.108642578125,-0.60546875,1.6744999999999999
0.7938931297709924,2.2748091603053435,0.33587786259541985,0.107177734375,-0.110595703125,-0.6064453125,1.6762
0.9618320610687023,2.2748091603053435,0.42748091603053434,0.114501953125,-0.11083984375,-0.6015625,1.6779
0.9465648854961832,2.3053435114503817,0.2595419847328244,0.10595703125,-0.11083984375,-0.607421875,1.6796
1.0229007633587786,2.2595419847328246,0.2748091603053435,0.106201171875,-0.1083984375,-0.601806640625,1.6813
1.3435114503816794,2.16793893129771,0.24427480916030533,0.10888671875,-0.112548828125,-0.600341796875,1.6829999999999998
1.450381679389313,2.045801526717557,0.33587786259541985,0.11328125,-0.11572265625,-0.60546875,1.6846999999999999
1.465648854961832,2.0763358778625953,0.32061068702290074,0.109619140625,-0.111083984375,-0.60302734375,1.6864
1.5114503816793894,2.030534351145038,0.22900763358778625,0.106689453125,-0.10986328125,-0.601806640625,1.6881
1.5725190839694656,2.198473282442748,0.366412213740458,0.106689453125,-0.115234375,-0.5947265625,1.6898
1.8015267175572518,2.0916030534351147,0.2900763358778626,0.109619140625,-0.114501953125,-0.605712890625,1.6915
1.6488549618320612,2.0,0.2595419847328244,0.10400390625,-0.1123046875,-0.59619140625,1.6931999999999998
1.6793893129770991,1.8778625954198473,0.15267175572519084,0.111083984375,-0.109619140625,-0.59814453125,1.6948999999999999
1.618320610687023,2.015267175572519,0.015267175572519083,0.1064453125,-0.11328125,-0.59912109375,1.6965999999999999
1.5877862595419847,2.2442748091603053,0.2748091603053435,0.106201171875,-0.111328125,-0.601806640625,1.6983
1.8778625954198473,2.1068702290076335,0.16793893129770993,0.105712890625,-0.12060546875,-0.59912109375,1.7
1.7099236641221374,2.0916030534351147,0.3053435114503817,0.1103515625,-0.11865234375,-0.604248046875,1.7017
1.5114503816793894,2.2748091603053435,0.12213740458015267,0.105712890625,-0.119873046875,-0.598876953125,1.7033999999999998
1.5419847328244274,2.2442748091603053,0.015267175572519083,0.108154296875,-0.115234375,-0.5908203125,1.7050999999999998
1.5267175572519085,2.2290076335877864,0.15267175572519084,0.105224609375,-0.1181640625,-0.593994140625,1.7067999999999999
1.450381679389313,2.2442748091603053,0.4122137404580153,0.10693359375,-0.119140625,-0.605224609375,1.7085
1.297709923664122,2.3206106870229006,0.16793893129770993,0.103515625,-0.1181640625,-0.60009765625,1.7102
1.3740458015267176,2.2748091603053435,0.3816793893129771,0.1044921875,-0.11865234375,-0.598876953125,1.7119
1.1755725190839694,2.33587786259542,0.15267175572519084,0.106689453125,-0.1220703125,-0.6025390625,1.7136
1.1297709923664123,2.366412213740458,0.2900763358778626,0.10205078125,-0.1201171875,-0.603515625,1.7152999999999998
1.0687022900763359,2.3206106870229006,0.1984732824427481,0.10400390625,-0.1201171875,-0.59716796875,1.7169999999999999
0.9312977099236641,2.4580152671755724,0.21374045801526717,0.101318359375,-0.12353515625,-0.60302734375,1.7187
0.7938931297709924,2.3206106870229006,0.15267175572519084,0.10498046875,-0.12109375,-0.602294921875,1.7204
0.549618320610687,2.4427480916030535,0.33587786259541985,0.102294921875,-0.120361328125,-0.59423828125,1.7221
0.5038167938931297,2.33587786259542,0.16793893129770993,0.10986328125,-0.118896484375,-0.598388671875,1.7238
0.4122137404580153,2.351145038167939,0.13740458015267176,0.10986328125,-0.118408203125,-0.600341796875,1.7254999999999998
0.3969465648854962,2.366412213740458,0.2595419847328244,0.10205078125,-0.11767578125,-0.601318359375,1.7271999999999998
0.030534351145038167,2.4580152671755724,0.16793893129770993,0.109130859375,-0.11865234375,-0.5947265625,1.7288999999999999
-0.1984732824427481,2.5343511450381677,0.061068702290076333,0.105224609375,-0.117431640625,-0.599609375,1.7306
-0.33587786259541985,2.427480916030534,0.15267175572519084,0.1103515625,-0.1220703125,-0.609619140625,1.7323
-0.6259541984732825,2.50381679389313,0.061068702290076333,0.107177734375,-0.118408203125,-0.60498046875,1.734
-0.8396946564885496,2.5801526717557253,0.030534351145038167,0.1103515625,-0.119140625,-0.59912109375,1.7356999999999998
-0.7786259541984732,2.50381679389313,-0.24427480916030533,0.106689453125,-0.121826171875,-0.603271484375,1.7373999999999998
-0.8549618320610687,2.4885496183206106,-0.030534351145038167,0.108642578125,-0.117431640625,-0.601318359375,1.7390999999999999
-1.0687022900763359,2.5343511450381677,-0.10687022900763359,0.111572265625,-0.12060546875,-0.60693359375,1.7408
-1.282442748091603,2.6717557251908395,-0.2595419847328244,0.107666015625,-0.1201171875,-0.598388671875,1.7425
-1.3435114503816794,2.5801526717557253,-0.183206106870229,0.110107421875,-0.1201171875,-0.594970703125,1.7442
-1.0229007633587786,2.33587786259542,-0.10687022900763359,0.10986328125,-0.123779296875,-0.5888671875,1.7459
-1.1145038167938932,2.3969465648854964,-0.12213740458015267,0.11376953125,-0.120361328125,-0.591796875,1.7475999999999998
-1.099236641221374,2.427480916030534,-0.2595419847328244,0.10791015625,-0.119140625,-0.593994140625,1.7492999999999999
-0.8091603053435115,2.4122137404580153,-0.15267175572519084,0.110595703125,-0.1181640625,-0.596435546875,1.751
-0.6106870229007634,2.427480916030534,-0.2748091603053435,0.11328125,-0.11767578125,-0.59423828125,1.7527
-0.5343511450381679,2.33587786259542,-0.4580152671755725,0.112548828125,-0.114990234375,-0.599365234375,1.7544
-0.7938931297709924,2.366412213740458,-0.33587786259541985,0.111083984375,-0.1181640625,-0.598388671875,1.7561
-0.4580152671755725,2.351145038167939,-0.33587786259541985,0.1083984375,-0.116943359375,-0.600830078125,1.7577999999999998
-0.2748091603053435,2.183206106870229,-0.4580152671755725,0.110107421875,-0.116455078125,-0.59912109375,1.7594999999999998
-0.4732824427480916,2.2748091603053435,-0.5190839694656488,0.115234375,-0.113525390625,-0.606689453125,1.7611999999999999
-0.3511450381679389,2.122137404580153,-0.7633587786259542,0.112060546875,-0.111328125,-0.594482421875,1.7629
-0.3053435114503817,2.2595419847328246,-0.6717557251908397,0.106689453125,-0.1103515625,-0.5966796875,1.7646
-0.3969465648854962,2.33587786259542,-0.6870229007633588,0.114501953125,-0.10986328125,-0.599365234375,1.7663
-0.3969465648854962,2.2595419847328246,-0.6259541984732825,0.11474609375,-0.114013671875,-0.598876953125,1.7679999999999998
-0.2748091603053435,2.183206106870229,-0.8549618320610687,0.114013671875,-0.11376953125,-0.604248046875,1.7696999999999998
-0.3969465648854962,2.33587786259542,-0.916030534351145,0.111328125,-0.114013671875,-0.596435546875,1.7713999999999999
-0.2748091603053435,2.2748091603053435,-0.8091603053435115,0.10986328125,-0.11669921875,-0.595703125,1.7731
-0.13740458015267176,2.366412213740458,-0.9007633587786259,0.111083984375,-0.113525390625,-0.58984375,1.7748
-0.04580152671755725,2.33587786259542,-1.0229007633587786,0.11181640625,-0.112548828125,-0.59765625,1.7765
0.10687022900763359,2.1374045801526718,-1.0687022900763359,0.1123046875,-0.1103515625,-0.594970703125,1.7782
0.32061068702290074,2.2290076335877864,-1.1755725190839694,0.113037109375,-0.116455078125,-0.59619140625,1.7798999999999998
0.2748091603053435,2.2900763358778624,-1.0076335877862594,0.109130859375,-0.115234375,-0.593505859375,1.7815999999999999
0.7480916030534351,2.1374045801526718,-1.1297709923664123,0.10498046875,-0.1162109375,-0.5830078125,1.7832999999999999
0.8854961832061069,2.122137404580153,-1.083969465648855,0.109619140625,-0.112060546875,-0.58984375,1.785
0.8396946564885496,2.3969465648854964,-1.4045801526717556,0.11376953125,-0.112060546875,-0.593994140625,1.7867
1.099236641221374,2.366412213740458,-1.3282442748091603,0.110595703125,-0.114013671875,-0.599609375,1.7884
1.2213740458015268,2.2595419847328246,-1.083969465648855,0.11328125,-0.114013671875,-0.597412109375,1.7900999999999998
1.0687022900763359,2.4885496183206106,-1.099236641221374,0.1162109375,-0.119873046875,-0.595703125,1.7917999999999998
1.2213740458015268,2.5801526717557253,-0.9618320610687023,0.114990234375,-0.122314453125,-0.5927734375,1.7934999999999999
1.251908396946565,2.5801526717557253,-0.916030534351145,0.111083984375,-0.11669921875,-0.593505859375,1.7952
1.083969465648855,2.50381679389313,-1.0687022900763359,0.111328125,-0.121337890625,-0.59423828125,1.7969
1.083969465648855,2.427480916030534,-0.6259541984732825,0.110107421875,-0.1162109375,-0.595703125,1.7986
1.0687022900763359,2.564885496183206,-0.6870229007633588,0.117431640625,-0.118408203125,-0.589599609375,1.8002999999999998
0.9618320610687023,2.595419847328244,-0.7175572519083969,0.113525390625,-0.11474609375,-0.586669921875,1.8019999999999998
