gyrox1,gyroy1,gyroz1,accelx1,accely1,accelz1,Time
0.8244274809160306,1.2061068702290076,-1.1145038167938932,-0.46435546875,0.000732421875,-0.137451171875,0.0
0.9618320610687023,0.9923664122137404,-1.0076335877862594,-0.463134765625,0.0029296875,-0.140380859375,0.0017
0.916030534351145,1.1450381679389312,-0.9770992366412213,-0.465576171875,0.00390625,-0.1328125,0.0034
0.8702290076335878,1.099236641221374,-0.9923664122137404,-0.466552734375,0.001220703125,-0.13427734375,0.0050999999999999995
0.7633587786259542,1.0076335877862594,-0.9618320610687023,-0.46142578125,0.005126953125,-0.12841796875,0.0068
0.7786259541984732,1.0229007633587786,-0.732824427480916,-0.46484375,0.003173828125,-0.133544921875,0.008499999999999999
0.7633587786259542,1.0534351145038168,-0.9923664122137404,-0.4599609375,0.004150390625,-0.13232421875,0.010199999999999999
0.6870229007633588,1.083969465648855,-0.7938931297709924,-0.461181640625,-0.003173828125,-0.13427734375,0.011899999999999999
0.6106870229007634,1.0687022900763359,-1.0534351145038168,-0.463134765625,0.00146484375,-0.135986328125,0.0136
0.5190839694656488,1.1297709923664123,-0.8244274809160306,-0.462890625,0.001708984375,-0.126708984375,0.0153
0.916030534351145,1.1145038167938932,-0.8702290076335878,-0.470458984375,-0.001708984375,-0.13671875,0.016999999999999998
0.8091603053435115,1.3435114503816794,-1.1297709923664123,-0.461181640625,0.000732421875,-0.139892578125,0.018699999999999998
0.6564885496183206,1.251908396946565,-1.0229007633587786,-0.463623046875,0.0,-0.14404296875,0.020399999999999998
0.6564885496183206,1.450381679389313,-0.9770992366412213,-0.46435546875,-0.004638671875,-0.13916015625,0.022099999999999998
0.7786259541984732,1.450381679389313,-1.099236641221374,-0.462158203125,0.000244140625,-0.138916015625,0.023799999999999998
0.9312977099236641,1.7404580152671756,-1.0381679389312977,-0.46728515625,-0.004150390625,-0.13818359375,0.0255
0.9465648854961832,1.7251908396946565,-1.2061068702290076,-0.46142578125,-0.00732421875,-0.13671875,0.0272
1.0381679389312977,1.7709923664122138,-1.1603053435114503,-0.462890625,-0.00439453125,-0.1328125,0.0289
1.2366412213740459,1.7557251908396947,-1.1755725190839694,-0.468017578125,-0.004150390625,-0.13623046875,0.0306
1.282442748091603,1.6793893129770991,-1.0534351145038168,-0.46337890625,-0.005859375,-0.13623046875,0.032299999999999995
1.1603053435114503,1.5114503816793894,-1.1145038167938932,-0.461181640625,-0.00341796875,-0.133056640625,0.033999999999999996
1.1297709923664123,1.5572519083969465,-1.083969465648855,-0.466064453125,-0.007568359375,-0.138916015625,0.035699999999999996
0.8702290076335878,1.5572519083969465,-1.3435114503816794,-0.458740234375,-0.00439453125,-0.137451171875,0.037399999999999996
1.297709923664122,1.7251908396946565,-1.0687022900763359,-0.464599609375,-0.006103515625,-0.138427734375,0.039099999999999996
1.4351145038167938,1.633587786259542,-1.1297709923664123,-0.46240234375,0.000732421875,-0.13134765625,0.040799999999999996
1.1450381679389312,1.5419847328244274,-1.0076335877862594,-0.46337890625,-0.000244140625,-0.145751953125,0.042499999999999996
1.3740458015267176,1.5572519083969465,-1.0381679389312977,-0.464599609375,-0.004638671875,-0.13232421875,0.044199999999999996
1.4809160305343512,1.6641221374045803,-1.1908396946564885,-0.46826171875,-0.005615234375,-0.130859375,0.045899999999999996
1.3893129770992367,1.7557251908396947,-1.1603053435114503,-0.469482421875,-0.007568359375,-0.13671875,0.047599999999999996
1.2213740458015268,1.8015267175572518,-1.0076335877862594,-0.466552734375,-0.004638671875,-0.136474609375,0.0493
1.2061068702290076,1.9389312977099236,-0.9618320610687023,-0.465576171875,-0.00732421875,-0.131103515625,0.051
1.2213740458015268,2.1068702290076335,-0.9923664122137404,-0.46875,0.000732421875,-0.134033203125,0.0527
1.3129770992366412,1.984732824427481,-0.7786259541984732,-0.4697265625,0.001708984375,-0.144775390625,0.0544
1.0381679389312977,2.183206106870229,-0.8091603053435115,-0.468505859375,-0.002197265625,-0.136962890625,0.0561
1.1297709923664123,2.2442748091603053,-0.7022900763358778,-0.471435546875,-0.001220703125,-0.13818359375,0.0578
1.0534351145038168,2.33587786259542,-0.732824427480916,-0.466796875,0.002685546875,-0.140625,0.0595
1.0534351145038168,2.4580152671755724,-0.7022900763358778,-0.472900390625,0.002197265625,-0.143798828125,0.0612
1.1450381679389312,2.6259541984732824,-0.6717557251908397,-0.47509765625,0.00048828125,-0.1416015625,0.0629
0.9465648854961832,2.564885496183206,-0.7633587786259542,-0.4677734375,-0.00048828125,-0.147216796875,0.06459999999999999
0.9770992366412213,2.6106870229007635,-0.6259541984732825,-0.46875,0.00244140625,-0.136474609375,0.0663
1.0687022900763359,2.6259541984732824,-0.4580152671755725,-0.4736328125,0.003173828125,-0.138427734375,0.06799999999999999
1.0381679389312977,2.6564885496183206,-0.4122137404580153,-0.472412109375,0.002685546875,-0.140625,0.0697
1.1145038167938932,2.549618320610687,-0.2900763358778626,-0.473388671875,0.001220703125,-0.13330078125,0.07139999999999999
1.0534351145038168,2.595419847328244,-0.3816793893129771,-0.470703125,0.00146484375,-0.136962890625,0.0731
0.8549618320610687,2.6259541984732824,-0.2748091603053435,-0.466064453125,0.0009765625,-0.140625,0.07479999999999999
0.9312977099236641,2.4122137404580153,-0.0916030534351145,-0.46728515625,0.002197265625,-0.138916015625,0.0765
0.8702290076335878,2.3053435114503817,-0.13740458015267176,-0.466064453125,0.002197265625,-0.1337890625,0.07819999999999999
0.8854961832061069,2.198473282442748,-0.5190839694656488,-0.46826171875,-0.001953125,-0.130126953125,0.0799
0.7786259541984732,2.183206106870229,-0.44274809160305345,-0.46875,-0.000244140625,-0.126953125,0.08159999999999999
0.7480916030534351,2.2442748091603053,-0.4732824427480916,-0.464599609375,0.000244140625,-0.130859375,0.0833
0.44274809160305345,1.9694656488549618,-0.3816793893129771,-0.462890625,-0.000732421875,-0.13818359375,0.08499999999999999
0.16793893129770993,1.9389312977099236,-0.6412213740458015,-0.46533203125,0.0068359375,-0.1279296875,0.0867
0.33587786259541985,1.7709923664122138,-0.5038167938931297,-0.465576171875,0.00341796875,-0.128173828125,0.08839999999999999
0.33587786259541985,1.5725190839694656,-0.3511450381679389,-0.459716796875,0.0029296875,-0.13232421875,0.0901
0.24427480916030533,1.6030534351145038,-0.5343511450381679,-0.46435546875,-0.001220703125,-0.133544921875,0.09179999999999999
-0.0916030534351145,1.5572519083969465,-0.7633587786259542,-0.464111328125,0.002685546875,-0.13134765625,0.0935
0.0,1.5267175572519085,-0.8244274809160306,-0.466552734375,0.000244140625,-0.136962890625,0.09519999999999999
0.015267175572519083,1.633587786259542,-0.8702290076335878,-0.4677734375,0.00439453125,-0.133056640625,0.0969
0.0,1.5877862595419847,-0.8091603053435115,-0.464599609375,-0.0009765625,-0.134521484375,0.0986
-0.13740458015267176,1.5267175572519085,-0.732824427480916,-0.466064453125,-0.002197265625,-0.13232421875,0.1003
-0.07633587786259542,1.251908396946565,-0.6412213740458015,-0.46630859375,-0.001953125,-0.1357421875,0.102
0.24427480916030533,1.4351145038167938,-0.7175572519083969,-0.4658203125,-0.0009765625,-0.1337890625,0.1037
0.15267175572519084,1.297709923664122,-0.8702290076335878,-0.466064453125,-0.00048828125,-0.136962890625,0.1054
0.015267175572519083,1.3129770992366412,-0.9770992366412213,-0.464599609375,0.0,-0.13037109375,0.1071
0.2595419847328244,1.297709923664122,-0.9465648854961832,-0.462646484375,-0.000244140625,-0.135986328125,0.1088
0.1984732824427481,0.9923664122137404,-0.7633587786259542,-0.46044921875,-0.00439453125,-0.129638671875,0.11049999999999999
0.22900763358778625,1.0534351145038168,-0.7938931297709924,-0.464599609375,-0.00341796875,-0.131103515625,0.1122
0.13740458015267176,1.1450381679389312,-1.0534351145038168,-0.45947265625,0.000732421875,-0.138916015625,0.11389999999999999
0.13740458015267176,1.1603053435114503,-0.8091603053435115,-0.469482421875,0.002685546875,-0.136474609375,0.1156
0.42748091603053434,1.0687022900763359,-0.9007633587786259,-0.46875,0.00537109375,-0.13134765625,0.11729999999999999
0.4732824427480916,1.0687022900763359,-0.8091603053435115,-0.4619140625,0.00390625,-0.135986328125,0.119
0.32061068702290074,1.1755725190839694,-0.9007633587786259,-0.465087890625,0.00244140625,-0.135498046875,0.12069999999999999
0.21374045801526717,1.5419847328244274,-0.9923664122137404,-0.468994140625,0.005615234375,-0.145751953125,0.1224
0.44274809160305345,1.450381679389313,-0.9618320610687023,-0.468017578125,0.000732421875,-0.12841796875,0.12409999999999999
0.42748091603053434,1.450381679389313,-0.916030534351145,-0.466552734375,-0.00244140625,-0.132568359375,0.1258
0.16793893129770993,1.6641221374045803,-1.0229007633587786,-0.468017578125,0.0029296875,-0.134033203125,0.1275
0.22900763358778625,1.8778625954198473,-1.0229007633587786,-0.46728515625,0.004150390625,-0.133056640625,0.12919999999999998
0.42748091603053434,1.7099236641221374,-1.2061068702290076,-0.46484375,0.001953125,-0.13623046875,0.1309
0.32061068702290074,1.6030534351145038,-1.1755725190839694,-0.46142578125,0.00244140625,-0.12841796875,0.1326
0.0,1.7557251908396947,-1.1603053435114503,-0.466796875,0.001220703125,-0.13134765625,0.1343
0.2900763358778626,1.633587786259542,-1.2671755725190839,-0.4619140625,0.000244140625,-0.134033203125,0.13599999999999998
0.16793893129770993,1.786259541984733,-1.5419847328244274,-0.465087890625,-0.003662109375,-0.128173828125,0.1377
0.3511450381679389,1.5877862595419847,-1.083969465648855,-0.46435546875,0.0009765625,-0.1337890625,0.1394
0.366412213740458,1.618320610687023,-1.1450381679389312,-0.465576171875,0.00439453125,-0.1337890625,0.1411
0.5954198473282443,1.5725190839694656,-1.3893129770992367,-0.46484375,0.000244140625,-0.139404296875,0.14279999999999998
0.8244274809160306,1.465648854961832,-1.251908396946565,-0.467041015625,0.001708984375,-0.132080078125,0.1445
0.6259541984732825,1.6030534351145038,-1.1755725190839694,-0.46533203125,0.00146484375,-0.133056640625,0.1462
0.7633587786259542,1.465648854961832,-1.083969465648855,-0.46630859375,0.001220703125,-0.132568359375,0.1479
0.7786259541984732,1.5725190839694656,-1.083969465648855,-0.460693359375,0.00390625,-0.13134765625,0.14959999999999998
0.9312977099236641,1.6946564885496183,-1.465648854961832,-0.461669921875,0.00390625,-0.141357421875,0.1513
0.6259541984732825,1.7099236641221374,-1.0534351145038168,-0.46240234375,0.001220703125,-0.135498046875,0.153
0.8549618320610687,1.5572519083969465,-1.282442748091603,-0.45751953125,0.00537109375,-0.135986328125,0.1547
0.8396946564885496,1.450381679389313,-1.1755725190839694,-0.468017578125,0.007568359375,-0.126953125,0.15639999999999998
1.0076335877862594,1.4351145038167938,-1.1755725190839694,-0.462890625,0.001220703125,-0.135009765625,0.1581
0.8702290076335878,1.4809160305343512,-1.1450381679389312,-0.462646484375,0.00732421875,-0.12744140625,0.1598
0.7480916030534351,1.465648854961832,-1.3587786259541985,-0.4619140625,0.00341796875,-0.140869140625,0.1615
0.9007633587786259,1.3282442748091603,-1.3282442748091603,-0.465576171875,0.005615234375,-0.130859375,0.16319999999999998
0.5954198473282443,1.3129770992366412,-1.3740458015267176,-0.465576171875,0.005615234375,-0.129150390625,0.1649
0.7786259541984732,1.4198473282442747,-1.450381679389313,-0.4619140625,0.005615234375,-0.13671875,0.1666
0.8091603053435115,1.4045801526717556,-1.2671755725190839,-0.465087890625,-0.000244140625,-0.13037109375,0.16829999999999998
0.5954198473282443,1.1755725190839694,-1.083969465648855,-0.4609375,-0.0009765625,-0.13671875,0.16999999999999998
0.7786259541984732,1.1450381679389312,-1.3129770992366412,-0.464111328125,0.001220703125,-0.134033203125,0.1717
0.5801526717557252,1.3129770992366412,-1.618320610687023,-0.469482421875,0.005615234375,-0.12646484375,0.1734
0.7633587786259542,1.2671755725190839,-1.3893129770992367,-0.46728515625,0.00244140625,-0.12939453125,0.17509999999999998
0.9618320610687023,1.3893129770992367,-1.465648854961832,-0.47216796875,0.003662109375,-0.132080078125,0.17679999999999998
1.1145038167938932,1.3435114503816794,-1.465648854961832,-0.462158203125,0.0,-0.133056640625,0.1785
0.916030534351145,1.2671755725190839,-1.3587786259541985,-0.471923828125,-0.0029296875,-0.1396484375,0.1802
0.9618320610687023,1.3740458015267176,-1.4961832061068703,-0.46435546875,-0.002197265625,-0.139892578125,0.18189999999999998
1.4045801526717556,1.4961832061068703,-1.4045801526717556,-0.4638671875,-0.001953125,-0.13525390625,0.18359999999999999
1.297709923664122,1.1603053435114503,-1.2213740458015268,-0.464599609375,0.003662109375,-0.13818359375,0.1853
1.465648854961832,1.1603053435114503,-1.3587786259541985,-0.46337890625,-0.000732421875,-0.13916015625,0.187
1.5877862595419847,1.2671755725190839,-1.251908396946565,-0.460205078125,0.00341796875,-0.1357421875,0.18869999999999998
1.5877862595419847,1.099236641221374,-1.3435114503816794,-0.4619140625,0.004638671875,-0.128662109375,0.19039999999999999
1.6946564885496183,1.2061068702290076,-1.2671755725190839,-0.466064453125,0.0,-0.138671875,0.1921
1.5419847328244274,1.251908396946565,-1.3435114503816794,-0.4638671875,0.00390625,-0.143310546875,0.1938
1.6793893129770991,1.3435114503816794,-1.2061068702290076,-0.466796875,0.000732421875,-0.142333984375,0.19549999999999998
1.6030534351145038,1.3740458015267176,-1.3587786259541985,-0.462158203125,0.00146484375,-0.13037109375,0.1972
1.2366412213740459,1.3893129770992367,-1.2061068702290076,-0.462646484375,0.001708984375,-0.137451171875,0.1989
1.2366412213740459,1.3129770992366412,-1.2671755725190839,-0.46728515625,0.0009765625,-0.136474609375,0.2006
1.4351145038167938,1.618320610687023,-1.297709923664122,-0.46533203125,-0.0009765625,-0.130859375,0.20229999999999998
1.1755725190839694,1.6641221374045803,-1.1755725190839694,-0.464111328125,0.0,-0.139892578125,0.204
0.9312977099236641,1.4351145038167938,-1.3129770992366412,-0.467041015625,0.002685546875,-0.1396484375,0.2057
0.916030534351145,1.3893129770992367,-1.465648854961832,-0.46240234375,-0.003173828125,-0.13671875,0.2074
1.1603053435114503,1.3435114503816794,-1.3893129770992367,-0.462158203125,0.000244140625,-0.133056640625,0.20909999999999998
0.9770992366412213,1.3740458015267176,-1.5877862595419847,-0.467041015625,0.0009765625,-0.144287109375,0.2108
1.0229007633587786,1.5572519083969465,-1.2671755725190839,-0.4599609375,-0.007080078125,-0.130615234375,0.2125
0.6717557251908397,1.4351145038167938,-1.2671755725190839,-0.46240234375,0.001220703125,-0.138916015625,0.2142
0.8396946564885496,1.3587786259541985,-1.3740458015267176,-0.46240234375,0.00439453125,-0.141845703125,0.21589999999999998
0.8702290076335878,1.2366412213740459,-1.4198473282442747,-0.467529296875,-0.00146484375,-0.1357421875,0.2176
0.7480916030534351,1.2061068702290076,-1.1297709923664123,-0.46142578125,0.001220703125,-0.135986328125,0.2193
0.8091603053435115,1.0229007633587786,-1.3893129770992367,-0.4638671875,0.00634765625,-0.1318359375,0.22099999999999997
0.7938931297709924,1.2061068702290076,-1.0534351145038168,-0.45849609375,0.004638671875,-0.135498046875,0.22269999999999998
0.7633587786259542,1.1755725190839694,-1.1603053435114503,-0.466552734375,0.0009765625,-0.132080078125,0.2244
0.8396946564885496,1.0687022900763359,-1.2671755725190839,-0.46435546875,0.000244140625,-0.130615234375,0.2261
0.9007633587786259,1.0229007633587786,-1.5877862595419847,-0.4638671875,-0.001708984375,-0.143310546875,0.22779999999999997
0.8091603053435115,0.9770992366412213,-1.4198473282442747,-0.470947265625,0.00341796875,-0.13037109375,0.22949999999999998
0.7175572519083969,0.9465648854961832,-1.282442748091603,-0.46923828125,0.002685546875,-0.14208984375,0.2312
0.7786259541984732,1.1297709923664123,-1.1908396946564885,-0.471923828125,-0.0029296875,-0.139404296875,0.2329
0.8549618320610687,1.297709923664122,-1.3587786259541985,-0.4697265625,0.00146484375,-0.13818359375,0.23459999999999998
0.7022900763358778,1.1755725190839694,-1.1450381679389312,-0.467041015625,0.002197265625,-0.130859375,0.23629999999999998
0.6412213740458015,1.083969465648855,-1.3435114503816794,-0.47021484375,0.002685546875,-0.132080078125,0.238
0.7633587786259542,1.2061068702290076,-1.3129770992366412,-0.46435546875,0.007568359375,-0.139404296875,0.2397
0.732824427480916,1.1908396946564885,-1.3587786259541985,-0.468017578125,-0.0009765625,-0.131591796875,0.24139999999999998
0.44274809160305345,1.083969465648855,-1.3129770992366412,-0.464599609375,0.002197265625,-0.13525390625,0.24309999999999998
0.1984732824427481,1.1908396946564885,-1.5114503816793894,-0.463134765625,-0.007080078125,-0.14404296875,0.2448
0.3053435114503817,1.3129770992366412,-1.5877862595419847,-0.462646484375,0.002197265625,-0.133056640625,0.2465
0.2595419847328244,1.297709923664122,-1.633587786259542,-0.4638671875,-0.002685546875,-0.126708984375,0.24819999999999998
0.16793893129770993,1.3435114503816794,-1.633587786259542,-0.4658203125,-0.004150390625,-0.128662109375,0.24989999999999998
-0.0916030534351145,1.2366412213740459,-1.8015267175572518,-0.462646484375,0.002685546875,-0.13330078125,0.2516
-0.061068702290076333,1.1908396946564885,-1.5267175572519085,-0.46533203125,-0.001220703125,-0.14013671875,0.25329999999999997
0.0916030534351145,0.8396946564885496,-1.5267175572519085,-0.465087890625,-0.0048828125,-0.136962890625,0.255
-0.030534351145038167,0.9770992366412213,-1.6946564885496183,-0.470947265625,0.00146484375,-0.1376953125,0.2567
0.22900763358778625,0.9007633587786259,-1.7251908396946565,-0.4677734375,0.003173828125,-0.134033203125,0.25839999999999996
0.015267175572519083,0.8702290076335878,-1.5419847328244274,-0.468017578125,0.002685546875,-0.140625,0.2601
-0.07633587786259542,0.7480916030534351,-1.5725190839694656,-0.464599609375,-0.00048828125,-0.138916015625,0.2618
-0.030534351145038167,0.6412213740458015,-1.3893129770992367,-0.4609375,-0.0009765625,-0.13427734375,0.2635
0.3053435114503817,0.8244274809160306,-1.618320610687023,-0.47119140625,-0.004638671875,-0.133056640625,0.2652
0.04580152671755725,0.5648854961832062,-1.3129770992366412,-0.4677734375,-0.0029296875,-0.13623046875,0.26689999999999997
0.6106870229007634,0.549618320610687,-1.5267175572519085,-0.46923828125,0.001953125,-0.134521484375,0.2686
0.5801526717557252,0.6106870229007634,-1.5419847328244274,-0.460693359375,-0.000244140625,-0.135498046875,0.2703
0.3511450381679389,0.6717557251908397,-1.6030534351145038,-0.4619140625,0.00390625,-0.140380859375,0.27199999999999996
0.3816793893129771,0.9007633587786259,-1.5572519083969465,-0.465576171875,-0.0029296875,-0.13134765625,0.2737
0.5648854961832062,0.7480916030534351,-1.6946564885496183,-0.466796875,-0.0087890625,-0.138916015625,0.2754
0.24427480916030533,0.7938931297709924,-1.6946564885496183,-0.46630859375,-0.00244140625,-0.138916015625,0.27709999999999996
0.16793893129770993,1.1145038167938932,-1.7557251908396947,-0.461181640625,0.0,-0.150390625,0.2788
0.030534351145038167,0.9923664122137404,-1.5419847328244274,-0.466796875,-0.005615234375,-0.139404296875,0.28049999999999997
0.015267175572519083,1.0229007633587786,-1.6641221374045803,-0.46875,0.002685546875,-0.1376953125,0.2822
0.04580152671755725,1.1145038167938932,-1.6488549618320612,-0.466064453125,0.000732421875,-0.130126953125,0.2839
-0.2595419847328244,1.2366412213740459,-1.3893129770992367,-0.46435546875,0.00146484375,-0.134033203125,0.28559999999999997
-0.2748091603053435,1.1297709923664123,-1.5572519083969465,-0.46435546875,-0.001220703125,-0.142578125,0.2873
-0.44274809160305345,1.1145038167938932,-1.4045801526717556,-0.464599609375,0.0029296875,-0.13818359375,0.289
-0.3511450381679389,1.1908396946564885,-1.282442748091603,-0.46728515625,0.000732421875,-0.1357421875,0.29069999999999996
-0.5038167938931297,1.1297709923664123,-1.3587786259541985,-0.466796875,0.000244140625,-0.13134765625,0.2924
-0.366412213740458,1.2213740458015268,-1.4809160305343512,-0.466796875,0.004150390625,-0.137939453125,0.2941
-0.4732824427480916,1.0687022900763359,-1.4809160305343512,-0.467041015625,-0.004638671875,-0.134765625,0.2958
-0.7022900763358778,1.2213740458015268,-1.3129770992366412,-0.46435546875,0.00341796875,-0.1396484375,0.2975
-0.5954198473282443,1.1603053435114503,-1.5114503816793894,-0.462890625,0.001220703125,-0.135498046875,0.29919999999999997
-0.6870229007633588,1.2671755725190839,-1.3587786259541985,-0.464599609375,0.000244140625,-0.1337890625,0.3009
-0.5190839694656488,1.2213740458015268,-1.251908396946565,-0.4638671875,-0.007080078125,-0.137451171875,0.3026
-0.366412213740458,1.297709923664122,-1.4809160305343512,-0.470703125,0.0,-0.1396484375,0.30429999999999996
-0.16793893129770993,1.1755725190839694,-1.4045801526717556,-0.468994140625,-0.001220703125,-0.141357421875,0.306
-0.2595419847328244,0.9923664122137404,-1.465648854961832,-0.466064453125,-0.00537109375,-0.13818359375,0.3077
-0.2900763358778626,1.083969465648855,-1.2213740458015268,-0.468017578125,-0.0029296875,-0.138916015625,0.3094
-0.13740458015267176,1.297709923664122,-1.465648854961832,-0.464111328125,-0.00390625,-0.14404296875,0.3111
-0.12213740458015267,1.251908396946565,-1.465648854961832,-0.46826171875,0.00244140625,-0.13623046875,0.31279999999999997
-0.3511450381679389,1.3893129770992367,-1.282442748091603,-0.46630859375,-0.002197265625,-0.13623046875,0.3145
-0.24427480916030533,1.2061068702290076,-1.3587786259541985,-0.46923828125,0.000244140625,-0.139892578125,0.3162
-0.12213740458015267,1.0381679389312977,-1.4045801526717556,-0.46630859375,0.00341796875,-0.134033203125,0.31789999999999996
-0.3816793893129771,1.2366412213740459,-1.465648854961832,-0.468505859375,-0.003173828125,-0.137939453125,0.3196
-0.366412213740458,1.2671755725190839,-1.5572519083969465,-0.4677734375,0.0009765625,-0.1279296875,0.3213
-0.030534351145038167,1.1450381679389312,-1.4961832061068703,-0.47021484375,0.002197265625,-0.131591796875,0.323
-0.061068702290076333,1.251908396946565,-1.5572519083969465,-0.462158203125,0.00390625,-0.1376953125,0.3247
-0.3511450381679389,1.0534351145038168,-1.5114503816793894,-0.4619140625,0.004150390625,-0.139892578125,0.32639999999999997
-0.3053435114503817,1.1145038167938932,-1.5419847328244274,-0.468017578125,0.00439453125,-0.1328125,0.3281
-0.33587786259541985,1.1145038167938932,-1.4809160305343512,-0.466064453125,0.000244140625,-0.139404296875,0.3298
-0.16793893129770993,1.1908396946564885,-1.5877862595419847,-0.46044921875,-0.00048828125,-0.135986328125,0.33149999999999996
-0.2748091603053435,1.1145038167938932,-1.4961832061068703,-0.462646484375,0.002197265625,-0.13427734375,0.3332
-0.44274809160305345,1.1145038167938932,-1.6030534351145038,-0.466796875,0.004638671875,-0.139892578125,0.3349
-0.366412213740458,0.9465648854961832,-1.5572519083969465,-0.467041015625,0.0078125,-0.131103515625,0.33659999999999995
-0.0916030534351145,1.0381679389312977,-1.5114503816793894,-0.46533203125,-0.00390625,-0.14453125,0.3383
-0.2595419847328244,1.0534351145038168,-1.450381679389313,-0.463623046875,0.00390625,-0.136474609375,0.33999999999999997
-0.4732824427480916,1.1450381679389312,-1.6030534351145038,-0.467041015625,0.0009765625,-0.133056640625,0.3417
-0.6564885496183206,1.0534351145038168,-1.4351145038167938,-0.467041015625,0.00341796875,-0.135498046875,0.3434
-0.5801526717557252,1.0229007633587786,-1.5419847328244274,-0.465087890625,0.000732421875,-0.1376953125,0.34509999999999996
-0.5343511450381679,1.0229007633587786,-1.4045801526717556,-0.46337890625,0.00439453125,-0.126220703125,0.3468
-0.3816793893129771,0.8702290076335878,-1.4809160305343512,-0.461181640625,0.00244140625,-0.135009765625,0.3485
-0.5038167938931297,0.9618320610687023,-1.5725190839694656,-0.464111328125,0.001953125,-0.1328125,0.35019999999999996
-0.3816793893129771,0.7786259541984732,-1.4045801526717556,-0.471923828125,0.005859375,-0.13671875,0.3519
-0.5343511450381679,0.732824427480916,-1.4045801526717556,-0.463134765625,-0.000732421875,-0.1416015625,0.35359999999999997
-0.48854961832061067,0.8396946564885496,-1.5267175572519085,-0.46240234375,0.00244140625,-0.14453125,0.3553
-0.22900763358778625,0.732824427480916,-1.465648854961832,-0.46240234375,0.003662109375,-0.135986328125,0.357
-0.24427480916030533,0.8549618320610687,-1.6488549618320612,-0.468017578125,0.00830078125,-0.144775390625,0.35869999999999996
-0.15267175572519084,0.8091603053435115,-1.6946564885496183,-0.4619140625,0.00537109375,-0.140380859375,0.3604
-0.2900763358778626,0.732824427480916,-1.816793893129771,-0.470947265625,0.004150390625,-0.134765625,0.3621
-0.0916030534351145,0.916030534351145,-1.4809160305343512,-0.461669921875,0.004638671875,-0.13134765625,0.36379999999999996
-0.10687022900763359,0.916030534351145,-1.8778625954198473,-0.463134765625,0.005615234375,-0.138427734375,0.3655
-0.12213740458015267,0.9007633587786259,-1.618320610687023,-0.464111328125,0.0029296875,-0.139892578125,0.36719999999999997
0.183206106870229,0.9312977099236641,-1.6641221374045803,-0.4619140625,0.00146484375,-0.13232421875,0.3689
0.2748091603053435,1.1145038167938932,-1.633587786259542,-0.470947265625,0.005126953125,-0.13623046875,0.3706
0.2595419847328244,1.1450381679389312,-1.618320610687023,-0.470703125,0.005126953125,-0.138916015625,0.37229999999999996
0.5190839694656488,1.0687022900763359,-1.6488549618320612,-0.462890625,0.005859375,-0.138916015625,0.374
0.5343511450381679,1.2671755725190839,-1.5725190839694656,-0.463134765625,0.0029296875,-0.13671875,0.3757
0.4732824427480916,1.4045801526717556,-1.5267175572519085,-0.46142578125,0.00146484375,-0.140380859375,0.37739999999999996
0.44274809160305345,1.282442748091603,-1.5725190839694656,-0.462890625,0.000732421875,-0.13232421875,0.3791
0.5343511450381679,1.3740458015267176,-1.5877862595419847,-0.46875,0.00048828125,-0.13134765625,0.38079999999999997
0.5038167938931297,1.2671755725190839,-1.6793893129770991,-0.46728515625,0.00390625,-0.139892578125,0.38249999999999995
0.6564885496183206,1.251908396946565,-1.450381679389313,-0.467041015625,0.00244140625,-0.133056640625,0.3842
0.6259541984732825,1.4809160305343512,-1.4351145038167938,-0.46435546875,0.0,-0.1298828125,0.38589999999999997
0.7633587786259542,1.282442748091603,-1.6793893129770991,-0.460205078125,0.004150390625,-0.133544921875,0.3876
0.6564885496183206,1.1145038167938932,-1.984732824427481,-0.4619140625,0.00341796875,-0.135009765625,0.3893
0.7175572519083969,1.282442748091603,-1.7709923664122138,-0.462158203125,0.002685546875,-0.136474609375,0.39099999999999996
1.0381679389312977,1.4198473282442747,-1.786259541984733,-0.47021484375,0.001708984375,-0.13427734375,0.3927
1.0381679389312977,1.2061068702290076,-1.8015267175572518,-0.464599609375,0.000732421875,-0.120361328125,0.3944
0.7480916030534351,1.1450381679389312,-1.7557251908396947,-0.467041015625,0.000244140625,-0.129150390625,0.39609999999999995
0.7938931297709924,1.1603053435114503,-1.633587786259542,-0.4609375,0.005126953125,-0.123291015625,0.3978
0.9618320610687023,1.1450381679389312,-1.816793893129771,-0.466552734375,0.002197265625,-0.138916015625,0.39949999999999997
1.2061068702290076,1.297709923664122,-1.8778625954198473,-0.464599609375,0.005615234375,-0.137451171875,0.4012
1.0076335877862594,1.4198473282442747,-1.7099236641221374,-0.4677734375,0.004638671875,-0.130859375,0.4029
1.0076335877862594,1.251908396946565,-1.83206106870229,-0.466552734375,0.00634765625,-0.139404296875,0.40459999999999996
1.2213740458015268,1.3282442748091603,-1.6030534351145038,-0.466064453125,0.006103515625,-0.135498046875,0.4063
1.3282442748091603,1.3435114503816794,-1.5725190839694656,-0.467041015625,0.0087890625,-0.133544921875,0.408
1.297709923664122,1.251908396946565,-1.6641221374045803,-0.4638671875,0.003662109375,-0.13427734375,0.40969999999999995
1.4961832061068703,1.3435114503816794,-1.465648854961832,-0.46826171875,0.0048828125,-0.13134765625,0.4114
1.1908396946564885,1.465648854961832,-1.5725190839694656,-0.46533203125,0.003173828125,-0.13720703125,0.41309999999999997
1.450381679389313,1.465648854961832,-1.7099236641221374,-0.4677734375,0.002197265625,-0.12890625,0.4148
1.786259541984733,1.5572519083969465,-1.7099236641221374,-0.464599609375,0.000244140625,-0.13818359375,0.4165
1.633587786259542,1.6488549618320612,-1.7251908396946565,-0.464599609375,-0.0009765625,-0.135986328125,0.41819999999999996
1.5267175572519085,1.5419847328244274,-1.6641221374045803,-0.4658203125,0.00244140625,-0.139404296875,0.4199
1.5877862595419847,1.7709923664122138,-1.7251908396946565,-0.467041015625,0.002197265625,-0.131103515625,0.4216
1.7557251908396947,1.7557251908396947,-1.7251908396946565,-0.46435546875,0.0,-0.1328125,0.42329999999999995
1.618320610687023,1.8931297709923665,-1.816793893129771,-0.466552734375,0.005126953125,-0.142578125,0.425
1.816793893129771,1.7557251908396947,-1.6946564885496183,-0.462158203125,-0.000732421875,-0.137939453125,0.42669999999999997
1.7099236641221374,1.7251908396946565,-1.8778625954198473,-0.46142578125,-0.000244140625,-0.13720703125,0.4284
1.9541984732824427,1.7099236641221374,-1.6641221374045803,-0.466552734375,-0.00146484375,-0.13525390625,0.4301
1.8778625954198473,1.7557251908396947,-1.618320610687023,-0.46533203125,-0.004150390625,-0.134033203125,0.43179999999999996
1.450381679389313,1.7709923664122138,-1.83206106870229,-0.46875,-0.002685546875,-0.137939453125,0.4335
1.3435114503816794,1.618320610687023,-1.6793893129770991,-0.46337890625,0.004638671875,-0.13720703125,0.4352
1.450381679389313,1.5725190839694656,-1.6641221374045803,-0.4638671875,0.001953125,-0.133544921875,0.43689999999999996
1.4198473282442747,1.3740458015267176,-1.83206106870229,-0.464111328125,-0.004150390625,-0.125244140625,0.4386
1.5877862595419847,1.5114503816793894,-1.8473282442748091,-0.4638671875,-0.00439453125,-0.12646484375,0.44029999999999997
1.251908396946565,1.2213740458015268,-1.7099236641221374,-0.46142578125,-0.00439453125,-0.131591796875,0.44199999999999995
1.2061068702290076,1.2061068702290076,-1.633587786259542,-0.462646484375,-0.00439453125,-0.12646484375,0.4437
1.0229007633587786,1.0687022900763359,-1.7709923664122138,-0.4580078125,-0.00048828125,-0.129150390625,0.44539999999999996
0.9923664122137404,0.916030534351145,-1.6946564885496183,-0.462890625,-0.002685546875,-0.146240234375,0.4471
0.8549618320610687,1.1297709923664123,-1.816793893129771,-0.463134765625,-0.00439453125,-0.1396484375,0.4488
0.9312977099236641,1.0229007633587786,-1.633587786259542,-0.4658203125,-0.000732421875,-0.1416015625,0.45049999999999996
1.083969465648855,1.0229007633587786,-1.786259541984733,-0.4677734375,-0.002685546875,-0.138671875,0.4522
0.9007633587786259,1.0687022900763359,-1.6946564885496183,-0.459228515625,0.000244140625,-0.130859375,0.45389999999999997
0.6717557251908397,0.9312977099236641,-1.6946564885496183,-0.46240234375,0.000732421875,-0.14453125,0.45559999999999995
0.732824427480916,1.0076335877862594,-1.4809160305343512,-0.46044921875,-0.00048828125,-0.147216796875,0.4573
0.6106870229007634,1.1145038167938932,-1.7709923664122138,-0.46630859375,0.0,-0.135498046875,0.45899999999999996
0.6259541984732825,1.297709923664122,-1.6793893129770991,-0.466552734375,-0.004150390625,-0.1337890625,0.4607
0.4580152671755725,1.2366412213740459,-1.7557251908396947,-0.465087890625,-0.00244140625,-0.128662109375,0.4624
0.3816793893129771,1.282442748091603,-1.6641221374045803,-0.4638671875,-0.003173828125,-0.13720703125,0.46409999999999996
0.3969465648854962,1.2213740458015268,-1.6641221374045803,-0.470458984375,-0.00439453125,-0.139404296875,0.4658
0.061068702290076333,1.3129770992366412,-1.5267175572519085,-0.46337890625,-0.001220703125,-0.1435546875,0.46749999999999997
0.2748091603053435,1.4961832061068703,-1.6793893129770991,-0.4658203125,-0.004150390625,-0.139892578125,0.46919999999999995
0.15267175572519084,1.2671755725190839,-1.5267175572519085,-0.465087890625,-0.004638671875,-0.13916015625,0.4709
0.2748091603053435,1.1603053435114503,-1.5419847328244274,-0.466064453125,0.000732421875,-0.132080078125,0.47259999999999996
0.2900763358778626,1.2213740458015268,-1.5114503816793894,-0.464599609375,-0.000732421875,-0.138671875,0.4743
0.16793893129770993,1.1145038167938932,-1.5267175572519085,-0.459716796875,-0.004638671875,-0.127197265625,0.476
0.15267175572519084,1.0687022900763359,-1.816793893129771,-0.466552734375,0.0029296875,-0.138916015625,0.47769999999999996
0.13740458015267176,1.0076335877862594,-1.7251908396946565,-0.465087890625,-0.00244140625,-0.132080078125,0.4794
0.12213740458015267,1.0381679389312977,-1.4198473282442747,-0.468994140625,0.0009765625,-0.129150390625,0.48109999999999997
0.183206106870229,1.1145038167938932,-1.633587786259542,-0.466064453125,0.00390625,-0.140625,0.48279999999999995
0.2900763358778626,0.9312977099236641,-1.5877862595419847,-0.464599609375,0.001708984375,-0.135009765625,0.4845
0.0,0.8854961832061069,-1.3893129770992367,-0.464599609375,0.003173828125,-0.138916015625,0.48619999999999997
-0.04580152671755725,0.916030534351145,-1.2213740458015268,-0.466064453125,0.001220703125,-0.134033203125,0.4879
0.15267175572519084,1.1450381679389312,-1.5419847328244274,-0.4609375,0.0009765625,-0.134765625,0.4896
0.04580152671755725,0.9465648854961832,-1.3435114503816794,-0.464599609375,0.0009765625,-0.1318359375,0.49129999999999996
0.22900763358778625,0.9770992366412213,-1.3435114503816794,-0.464599609375,-0.00244140625,-0.13330078125,0.493
0.21374045801526717,1.099236641221374,-1.1908396946564885,-0.467529296875,0.0,-0.138671875,0.4947
0.2595419847328244,0.8244274809160306,-1.2213740458015268,-0.468017578125,-0.00048828125,-0.135986328125,0.49639999999999995
0.2595419847328244,1.083969465648855,-1.2061068702290076,-0.470947265625,0.005859375,-0.13671875,0.4981
0.0916030534351145,1.1145038167938932,-1.3740458015267176,-0.4677734375,0.0029296875,-0.131591796875,0.49979999999999997
0.10687022900763359,1.2366412213740459,-1.3587786259541985,-0.4638671875,-0.000244140625,-0.135986328125,0.5015
0.015267175572519083,1.3740458015267176,-1.1297709923664123,-0.464599609375,0.00390625,-0.134033203125,0.5032
0.12213740458015267,1.282442748091603,-1.083969465648855,-0.462646484375,0.007568359375,-0.137451171875,0.5049
0.2595419847328244,1.4351145038167938,-1.1603053435114503,-0.46142578125,0.0029296875,-0.134033203125,0.5065999999999999
0.3816793893129771,1.5114503816793894,-1.1603053435114503,-0.468017578125,0.00537109375,-0.133056640625,0.5083
0.3511450381679389,1.4351145038167938,-1.1755725190839694,-0.46923828125,0.0,-0.1396484375,0.51
0.22900763358778625,1.3129770992366412,-0.9923664122137404,-0.463623046875,0.002197265625,-0.1337890625,0.5116999999999999
0.2595419847328244,1.4809160305343512,-1.0381679389312977,-0.46533203125,0.002197265625,-0.127685546875,0.5134
0.22900763358778625,1.3740458015267176,-1.0687022900763359,-0.464599609375,0.00048828125,-0.132080078125,0.5151
0.1984732824427481,1.450381679389313,-0.9770992366412213,-0.4599609375,0.00048828125,-0.134765625,0.5167999999999999
0.5190839694656488,1.5267175572519085,-1.099236641221374,-0.461181640625,-0.00048828125,-0.133056640625,0.5185
0.366412213740458,1.450381679389313,-0.8549618320610687,-0.46240234375,0.00146484375,-0.137939453125,0.5202
0.04580152671755725,1.1755725190839694,-0.9923664122137404,-0.470458984375,0.0009765625,-0.125244140625,0.5218999999999999
0.2900763358778626,0.9923664122137404,-1.2366412213740459,-0.467529296875,0.0,-0.1318359375,0.5236
0.3969465648854962,1.3282442748091603,-1.083969465648855,-0.463623046875,-0.0009765625,-0.131103515625,0.5253
0.32061068702290074,1.3740458015267176,-1.0076335877862594,-0.46826171875,0.000244140625,-0.1337890625,0.527
0.22900763358778625,1.3587786259541985,-1.0381679389312977,-0.463134765625,0.0029296875,-0.128662109375,0.5287
0.16793893129770993,1.5572519083969465,-1.3129770992366412,-0.46630859375,-0.000244140625,-0.132568359375,0.5304
0.3053435114503817,1.3129770992366412,-1.251908396946565,-0.45947265625,-0.000244140625,-0.13720703125,0.5321
0.33587786259541985,1.450381679389313,-1.1297709923664123,-0.466064453125,-0.00048828125,-0.13916015625,0.5337999999999999
0.549618320610687,1.450381679389313,-1.297709923664122,-0.46435546875,0.002197265625,-0.13720703125,0.5355
0.5801526717557252,1.251908396946565,-1.4198473282442747,-0.4697265625,0.00341796875,-0.130859375,0.5372
0.5648854961832062,1.1450381679389312,-1.251908396946565,-0.465576171875,-0.00048828125,-0.131103515625,0.5388999999999999
0.6412213740458015,1.0076335877862594,-1.2671755725190839,-0.462890625,0.00048828125,-0.128662109375,0.5406
0.7633587786259542,1.3129770992366412,-1.282442748091603,-0.466552734375,0.003662109375,-0.133544921875,0.5423
0.7022900763358778,1.1603053435114503,-1.2671755725190839,-0.46240234375,0.00341796875,-0.13232421875,0.5439999999999999
0.9312977099236641,1.0076335877862594,-1.3740458015267176,-0.463623046875,0.0048828125,-0.13916015625,0.5457
1.1450381679389312,0.9770992366412213,-1.2671755725190839,-0.4638671875,0.00341796875,-0.12939453125,0.5474
0.6870229007633588,0.7022900763358778,-1.1603053435114503,-0.462890625,0.000732421875,-0.130126953125,0.5490999999999999
0.916030534351145,0.8854961832061069,-1.2366412213740459,-0.460693359375,-0.002197265625,-0.140869140625,0.5508
1.083969465648855,0.9618320610687023,-1.2213740458015268,-0.463623046875,0.000732421875,-0.1396484375,0.5525
0.9923664122137404,0.8549618320610687,-1.2061068702290076,-0.46630859375,0.0029296875,-0.1396484375,0.5541999999999999
1.0381679389312977,1.0229007633587786,-1.1145038167938932,-0.4638671875,-0.001708984375,-0.1279296875,0.5559
0.916030534351145,1.0076335877862594,-1.251908396946565,-0.46533203125,0.00439453125,-0.1328125,0.5576
0.8549618320610687,0.916030534351145,-1.1603053435114503,-0.467529296875,0.00439453125,-0.14111328125,0.5593
1.0381679389312977,0.9770992366412213,-1.1297709923664123,-0.467529296875,0.000244140625,-0.147216796875,0.5609999999999999
0.8091603053435115,1.2061068702290076,-1.4809160305343512,-0.46484375,0.00244140625,-0.138671875,0.5627
0.8244274809160306,0.9618320610687023,-1.1145038167938932,-0.46484375,-0.00341796875,-0.140625,0.5644
0.9007633587786259,1.099236641221374,-0.916030534351145,-0.46923828125,0.001220703125,-0.13232421875,0.5660999999999999
0.9923664122137404,1.2213740458015268,-0.8854961832061069,-0.463623046875,-0.00048828125,-0.135009765625,0.5678
0.9007633587786259,1.1450381679389312,-1.0381679389312977,-0.4638671875,-0.00146484375,-0.124755859375,0.5695
1.0687022900763359,1.1297709923664123,-0.916030534351145,-0.464599609375,0.00830078125,-0.135009765625,0.5711999999999999
1.0534351145038168,0.9770992366412213,-1.0534351145038168,-0.4638671875,0.00146484375,-0.13330078125,0.5729
1.0687022900763359,1.0229007633587786,-0.8396946564885496,-0.45849609375,0.0009765625,-0.1337890625,0.5746
1.0534351145038168,1.0229007633587786,-0.9312977099236641,-0.4638671875,0.001708984375,-0.1337890625,0.5762999999999999
1.1603053435114503,0.9923664122137404,-0.8244274809160306,-0.46875,0.001708984375,-0.14013671875,0.578
1.251908396946565,1.1603053435114503,-1.0076335877862594,-0.462646484375,0.00341796875,-0.13818359375,0.5797
1.0534351145038168,1.0229007633587786,-0.9465648854961832,-0.4619140625,0.0009765625,-0.137451171875,0.5813999999999999
1.0687022900763359,1.2061068702290076,-0.916030534351145,-0.462890625,0.00390625,-0.135009765625,0.5831
1.0687022900763359,1.1297709923664123,-0.7480916030534351,-0.45947265625,0.003173828125,-0.134765625,0.5848
0.9007633587786259,1.2366412213740459,-0.7786259541984732,-0.46240234375,0.00390625,-0.13720703125,0.5865
1.0229007633587786,1.0381679389312977,-0.7633587786259542,-0.465087890625,0.000244140625,-0.13232421875,0.5882
1.3129770992366412,1.0534351145038168,-0.732824427480916,-0.46142578125,0.00244140625,-0.14306640625,0.5899
0.9618320610687023,1.083969465648855,-0.8702290076335878,-0.466796875,0.004638671875,-0.14013671875,0.5916
1.2366412213740459,1.083969465648855,-0.9312977099236641,-0.463623046875,-0.001220703125,-0.13916015625,0.5932999999999999
1.0381679389312977,1.0534351145038168,-0.8396946564885496,-0.469482421875,-0.001708984375,-0.128173828125,0.595
1.083969465648855,0.6259541984732825,-0.8396946564885496,-0.468505859375,-0.00048828125,-0.133544921875,0.5967
1.0381679389312977,0.732824427480916,-0.8549618320610687,-0.46533203125,0.003173828125,-0.134033203125,0.5983999999999999
0.7633587786259542,0.6412213740458015,-0.916030534351145,-0.46630859375,-0.002197265625,-0.127197265625,0.6001
0.8549618320610687,0.6106870229007634,-0.7938931297709924,-0.463623046875,-0.00341796875,-0.128173828125,0.6018
0.9007633587786259,0.5190839694656488,-1.0381679389312977,-0.4677734375,-0.000244140625,-0.131591796875,0.6034999999999999
0.7786259541984732,0.44274809160305345,-1.0534351145038168,-0.46337890625,0.00146484375,-0.12353515625,0.6052
0.7633587786259542,0.7175572519083969,-1.297709923664122,-0.463623046875,-0.000732421875,-0.128173828125,0.6069
0.7175572519083969,0.4122137404580153,-1.282442748091603,-0.46630859375,-0.000244140625,-0.140380859375,0.6085999999999999
0.6106870229007634,0.366412213740458,-1.251908396946565,-0.46484375,-0.0068359375,-0.1328125,0.6103
0.7175572519083969,0.6717557251908397,-1.0229007633587786,-0.471923828125,-0.0048828125,-0.140625,0.612
0.5801526717557252,0.6717557251908397,-1.3282442748091603,-0.46728515625,-0.002197265625,-0.135009765625,0.6136999999999999
0.5038167938931297,0.6259541984732825,-1.297709923664122,-0.466064453125,-0.001708984375,-0.131103515625,0.6154
0.6259541984732825,0.6717557251908397,-1.3435114503816794,-0.46630859375,-0.001708984375,-0.140869140625,0.6171
0.7786259541984732,0.7633587786259542,-1.2213740458015268,-0.4697265625,-0.000244140625,-0.13525390625,0.6188
0.732824427480916,0.5343511450381679,-1.1603053435114503,-0.46533203125,0.000732421875,-0.13818359375,0.6204999999999999
0.5801526717557252,0.6870229007633588,-1.4198473282442747,-0.4677734375,-0.001220703125,-0.13525390625,0.6222
0.549618320610687,0.7786259541984732,-1.5114503816793894,-0.469482421875,-0.00439453125,-0.130859375,0.6239
0.916030534351145,0.8244274809160306,-1.297709923664122,-0.466552734375,-0.001708984375,-0.1357421875,0.6255999999999999
0.6412213740458015,0.7786259541984732,-1.5267175572519085,-0.47216796875,0.0048828125,-0.13134765625,0.6273
0.5038167938931297,0.9618320610687023,-1.4809160305343512,-0.4609375,0.000732421875,-0.13232421875,0.629
0.8244274809160306,1.0229007633587786,-1.450381679389313,-0.4638671875,0.00244140625,-0.13232421875,0.6306999999999999
0.7480916030534351,0.8549618320610687,-1.3435114503816794,-0.468017578125,0.00048828125,-0.134033203125,0.6324
0.6717557251908397,1.0076335877862594,-1.4809160305343512,-0.467529296875,0.002197265625,-0.134033203125,0.6341
0.7022900763358778,1.1450381679389312,-1.297709923664122,-0.468017578125,0.00537109375,-0.13720703125,0.6357999999999999
0.6870229007633588,1.1297709923664123,-1.4351145038167938,-0.4638671875,0.002197265625,-0.129638671875,0.6375
0.9618320610687023,1.0229007633587786,-1.3435114503816794,-0.466796875,0.0,-0.134765625,0.6392
0.8091603053435115,1.0687022900763359,-1.4045801526717556,-0.46484375,0.001220703125,-0.13427734375,0.6408999999999999
0.8244274809160306,1.0076335877862594,-1.5725190839694656,-0.466796875,0.00390625,-0.13671875,0.6426
0.7480916030534351,1.083969465648855,-1.6641221374045803,-0.466064453125,0.001220703125,-0.144287109375,0.6443
0.9923664122137404,1.2061068702290076,-1.3740458015267176,-0.46337890625,0.006591796875,-0.145263671875,0.646
1.0229007633587786,0.8854961832061069,-1.3435114503816794,-0.466064453125,0.005126953125,-0.126953125,0.6476999999999999
0.6870229007633588,1.0381679389312977,-1.282442748091603,-0.46875,0.003173828125,-0.1396484375,0.6494
0.732824427480916,1.2061068702290076,-1.3893129770992367,-0.46923828125,0.00390625,-0.14111328125,0.6511
0.8244274809160306,1.251908396946565,-1.2366412213740459,-0.464111328125,0.00927734375,-0.13671875,0.6527999999999999
0.732824427480916,1.3435114503816794,-1.297709923664122,-0.463623046875,0.009521484375,-0.1318359375,0.6545
0.8091603053435115,1.2366412213740459,-1.4198473282442747,-0.47119140625,0.006591796875,-0.13427734375,0.6562
0.6412213740458015,1.3587786259541985,-1.3282442748091603,-0.462890625,0.004638671875,-0.1279296875,0.6578999999999999
1.0076335877862594,1.3129770992366412,-1.282442748091603,-0.470947265625,0.005615234375,-0.13720703125,0.6596
0.8549618320610687,1.2366412213740459,-1.3435114503816794,-0.46533203125,0.005615234375,-0.146484375,0.6613
0.9923664122137404,1.2213740458015268,-1.0076335877862594,-0.4697265625,0.00537109375,-0.138427734375,0.6629999999999999
1.0076335877862594,1.3282442748091603,-1.3282442748091603,-0.463623046875,0.003662109375,-0.139892578125,0.6647
0.7175572519083969,1.450381679389313,-1.3740458015267176,-0.46630859375,0.00390625,-0.134765625,0.6664
1.1297709923664123,1.450381679389313,-1.1297709923664123,-0.465576171875,0.0,-0.14111328125,0.6680999999999999
1.1297709923664123,1.3129770992366412,-1.0076335877862594,-0.467041015625,-0.00048828125,-0.133544921875,0.6698
1.1297709923664123,1.3282442748091603,-1.0534351145038168,-0.465087890625,0.00146484375,-0.135009765625,0.6715
1.282442748091603,1.6030534351145038,-1.1603053435114503,-0.466796875,0.000244140625,-0.14013671875,0.6731999999999999
1.2213740458015268,1.450381679389313,-0.9923664122137404,-0.46630859375,0.005126953125,-0.134765625,0.6748999999999999
1.282442748091603,1.5114503816793894,-1.0534351145038168,-0.468017578125,0.006103515625,-0.138427734375,0.6766
1.099236641221374,1.465648854961832,-1.0687022900763359,-0.468017578125,0.003662109375,-0.13720703125,0.6783
1.083969465648855,1.3740458015267176,-1.0076335877862594,-0.465576171875,0.00830078125,-0.132568359375,0.6799999999999999
1.0076335877862594,1.4351145038167938,-0.8702290076335878,-0.465576171875,0.002685546875,-0.13818359375,0.6817
1.0381679389312977,1.3435114503816794,-1.083969465648855,-0.464599609375,0.000732421875,-0.128662109375,0.6834
1.1908396946564885,1.0076335877862594,-1.0229007633587786,-0.466552734375,0.004150390625,-0.131103515625,0.6850999999999999
1.297709923664122,1.2213740458015268,-1.083969465648855,-0.46630859375,0.006591796875,-0.12939453125,0.6868
1.3435114503816794,1.1450381679389312,-0.9770992366412213,-0.468017578125,0.00244140625,-0.13623046875,0.6885
1.3129770992366412,1.2061068702290076,-0.9770992366412213,-0.463134765625,-0.0009765625,-0.13427734375,0.6901999999999999
1.0534351145038168,1.297709923664122,-1.083969465648855,-0.46240234375,0.005126953125,-0.13232421875,0.6919
1.2213740458015268,1.2366412213740459,-1.3435114503816794,-0.46728515625,-0.0029296875,-0.133544921875,0.6936
1.3435114503816794,1.282442748091603,-1.2061068702290076,-0.467529296875,-0.00244140625,-0.134033203125,0.6952999999999999
1.3893129770992367,1.2213740458015268,-1.3435114503816794,-0.468017578125,-0.001220703125,-0.131591796875,0.697
1.4045801526717556,1.0381679389312977,-1.1450381679389312,-0.46533203125,0.004150390625,-0.138427734375,0.6987
1.4961832061068703,1.1603053435114503,-1.3282442748091603,-0.4619140625,0.002685546875,-0.140380859375,0.7003999999999999
1.3893129770992367,1.1755725190839694,-1.3893129770992367,-0.4658203125,0.004638671875,-0.13623046875,0.7021
1.2061068702290076,1.2061068702290076,-1.3435114503816794,-0.470458984375,0.005126953125,-0.135009765625,0.7038
1.2671755725190839,1.099236641221374,-1.1908396946564885,-0.465087890625,0.000244140625,-0.133544921875,0.7055
1.1908396946564885,1.2366412213740459,-1.3740458015267176,-0.462646484375,-0.000244140625,-0.128173828125,0.7071999999999999
1.0229007633587786,1.5725190839694656,-1.297709923664122,-0.466552734375,-0.004150390625,-0.1318359375,0.7089
1.1603053435114503,1.3587786259541985,-1.297709923664122,-0.461669921875,0.00390625,-0.130126953125,0.7106
1.0534351145038168,1.4045801526717556,-1.282442748091603,-0.463623046875,-0.00048828125,-0.13623046875,0.7122999999999999
1.099236641221374,1.4045801526717556,-1.4351145038167938,-0.466064453125,-0.002685546875,-0.135009765625,0.714
0.8549618320610687,1.4351145038167938,-1.5419847328244274,-0.466064453125,-0.0009765625,-0.134033203125,0.7157
1.0687022900763359,1.4961832061068703,-1.4198473282442747,-0.465087890625,0.000244140625,-0.130615234375,0.7173999999999999
1.1908396946564885,1.5725190839694656,-1.3893129770992367,-0.466552734375,0.00341796875,-0.129150390625,0.7191
1.2213740458015268,1.5419847328244274,-1.5877862595419847,-0.46630859375,-0.00341796875,-0.139892578125,0.7208
1.1603053435114503,1.6030534351145038,-1.450381679389313,-0.4638671875,-0.003173828125,-0.135498046875,0.7224999999999999
1.1297709923664123,1.3893129770992367,-1.4809160305343512,-0.462890625,0.0,-0.13427734375,0.7242
1.3893129770992367,1.1603053435114503,-1.5725190839694656,-0.459716796875,-0.00244140625,-0.1376953125,0.7259
1.3435114503816794,1.282442748091603,-1.633587786259542,-0.46142578125,0.0009765625,-0.135009765625,0.7275999999999999
1.0381679389312977,1.2366412213740459,-1.4045801526717556,-0.46044921875,-0.002685546875,-0.134033203125,0.7293
1.3587786259541985,0.9770992366412213,-1.6030534351145038,-0.464111328125,0.000732421875,-0.13623046875,0.731
1.2671755725190839,1.0381679389312977,-1.5419847328244274,-0.461181640625,-0.00048828125,-0.13232421875,0.7326999999999999
1.282442748091603,0.916030534351145,-1.5419847328244274,-0.460205078125,0.00048828125,-0.133056640625,0.7343999999999999
1.282442748091603,0.9312977099236641,-1.4961832061068703,-0.46044921875,0.00244140625,-0.1337890625,0.7361
1.251908396946565,0.6870229007633588,-1.5725190839694656,-0.461181640625,0.00341796875,-0.132080078125,0.7378
1.1908396946564885,0.7938931297709924,-1.465648854961832,-0.461669921875,0.0,-0.134033203125,0.7394999999999999
0.9923664122137404,0.6412213740458015,-1.5877862595419847,-0.458740234375,-0.00244140625,-0.12841796875,0.7412
1.0534351145038168,0.6259541984732825,-1.5877862595419847,-0.46044921875,-0.0009765625,-0.1376953125,0.7429
0.8396946564885496,0.5954198473282443,-1.465648854961832,-0.458984375,-0.002685546875,-0.13671875,0.7445999999999999
1.0076335877862594,0.5038167938931297,-1.2061068702290076,-0.46240234375,0.0029296875,-0.1435546875,0.7463
1.083969465648855,0.3969465648854962,-1.4961832061068703,-0.46728515625,0.000732421875,-0.138916015625,0.748
0.8396946564885496,0.7022900763358778,-1.282442748091603,-0.46337890625,0.00048828125,-0.134033203125,0.7496999999999999
0.8854961832061069,0.7938931297709924,-1.4198473282442747,-0.46044921875,-0.003662109375,-0.13916015625,0.7514
1.1297709923664123,0.9923664122137404,-1.4045801526717556,-0.45947265625,-0.005615234375,-0.1318359375,0.7531
0.8244274809160306,1.1603053435114503,-1.4961832061068703,-0.461181640625,-0.001708984375,-0.14111328125,0.7547999999999999
0.7938931297709924,1.1297709923664123,-1.5267175572519085,-0.4609375,-0.00439453125,-0.13525390625,0.7565
1.1145038167938932,1.083969465648855,-1.4809160305343512,-0.46240234375,-0.001953125,-0.13623046875,0.7582
1.0229007633587786,1.2366412213740459,-1.465648854961832,-0.46240234375,-0.001708984375,-0.13525390625,0.7598999999999999
1.0076335877862594,1.4045801526717556,-1.6946564885496183,-0.4599609375,-0.00341796875,-0.142578125,0.7615999999999999
0.8854961832061069,1.4809160305343512,-1.297709923664122,-0.467529296875,-0.00048828125,-0.138916015625,0.7633
0.8091603053435115,1.3129770992366412,-1.5267175572519085,-0.466064453125,-0.001708984375,-0.13525390625,0.7649999999999999
0.7938931297709924,1.3129770992366412,-1.618320610687023,-0.46484375,-0.004150390625,-0.142822265625,0.7666999999999999
0.6870229007633588,1.5725190839694656,-1.4961832061068703,-0.469482421875,-0.00439453125,-0.140869140625,0.7684
0.6106870229007634,1.6641221374045803,-1.4809160305343512,-0.468017578125,0.0009765625,-0.135498046875,0.7701
0.5648854961832062,1.7709923664122138,-1.2061068702290076,-0.46728515625,0.000732421875,-0.1376953125,0.7717999999999999
0.5801526717557252,1.297709923664122,-1.3435114503816794,-0.465087890625,-0.00634765625,-0.13134765625,0.7735
0.7022900763358778,1.618320610687023,-1.4045801526717556,-0.459716796875,-0.004638671875,-0.128662109375,0.7752
0.6412213740458015,1.4809160305343512,-1.251908396946565,-0.47119140625,-0.00244140625,-0.1357421875,0.7768999999999999
0.3969465648854962,1.4198473282442747,-1.297709923664122,-0.46533203125,-0.004638671875,-0.12646484375,0.7786
0.44274809160305345,1.4045801526717556,-1.2061068702290076,-0.46630859375,-0.000732421875,-0.126220703125,0.7803
0.4580152671755725,1.282442748091603,-1.282442748091603,-0.4638671875,-0.007080078125,-0.1328125,0.7819999999999999
0.5038167938931297,1.1450381679389312,-1.4198473282442747,-0.4677734375,-0.001953125,-0.14404296875,0.7837
0.5648854961832062,1.1755725190839694,-1.4351145038167938,-0.46826171875,-0.00390625,-0.134521484375,0.7854
0.5801526717557252,1.1603053435114503,-1.4045801526717556,-0.465087890625,-0.0009765625,-0.140380859375,0.7870999999999999
0.5648854961832062,1.2213740458015268,-1.3587786259541985,-0.463134765625,-0.001953125,-0.139892578125,0.7888
0.33587786259541985,1.1145038167938932,-1.1908396946564885,-0.466796875,-0.0009765625,-0.1318359375,0.7905
0.6259541984732825,1.1603053435114503,-1.465648854961832,-0.469482421875,-0.00048828125,-0.14208984375,0.7921999999999999
0.4122137404580153,1.2671755725190839,-1.1297709923664123,-0.466552734375,0.001220703125,-0.135009765625,0.7938999999999999
0.4732824427480916,1.297709923664122,-1.1603053435114503,-0.469482421875,0.001953125,-0.130615234375,0.7956
0.4580152671755725,1.3282442748091603,-1.0534351145038168,-0.471435546875,0.001708984375,-0.138671875,0.7973
0.07633587786259542,1.4198473282442747,-0.9770992366412213,-0.467041015625,-0.004150390625,-0.135498046875,0.7989999999999999
0.16793893129770993,1.4961832061068703,-1.1145038167938932,-0.46826171875,-0.0009765625,-0.13623046875,0.8007
0.13740458015267176,1.3435114503816794,-1.0229007633587786,-0.472412109375,0.004638671875,-0.124267578125,0.8024
-0.015267175572519083,1.5877862595419847,-0.916030534351145,-0.4697265625,0.001708984375,-0.1318359375,0.8040999999999999
-0.24427480916030533,1.633587786259542,-0.9312977099236641,-0.47021484375,-0.001220703125,-0.135986328125,0.8058
-0.061068702290076333,1.3129770992366412,-0.916030534351145,-0.471435546875,-0.00390625,-0.1396484375,0.8075
-0.32061068702290074,1.5114503816793894,-0.916030534351145,-0.47216796875,-0.0029296875,-0.13427734375,0.8091999999999999
-0.3053435114503817,1.4961832061068703,-0.9923664122137404,-0.467041015625,0.002197265625,-0.13134765625,0.8109
0.015267175572519083,1.4045801526717556,-0.9618320610687023,-0.470703125,-0.003662109375,-0.13037109375,0.8126
-0.2595419847328244,1.4198473282442747,-1.1297709923664123,-0.466064453125,0.001220703125,-0.1259765625,0.8142999999999999
-0.4580152671755725,1.3893129770992367,-1.0534351145038168,-0.468994140625,0.00244140625,-0.13818359375,0.816
-0.5343511450381679,1.4198473282442747,-1.0687022900763359,-0.466552734375,0.0,-0.133544921875,0.8177
-0.5648854961832062,1.3587786259541985,-0.9618320610687023,-0.461669921875,0.00390625,-0.1298828125,0.8193999999999999
-0.5038167938931297,1.2366412213740459,-1.099236641221374,-0.4599609375,0.00390625,-0.1318359375,0.8210999999999999
-0.4122137404580153,1.2366412213740459,-0.7938931297709924,-0.460693359375,0.001220703125,-0.13330078125,0.8228
-0.7175572519083969,1.3129770992366412,-1.1145038167938932,-0.462158203125,-0.00048828125,-0.1337890625,0.8244999999999999
-0.5648854961832062,1.4351145038167938,-1.083969465648855,-0.468994140625,-0.002685546875,-0.12744140625,0.8261999999999999
-0.5801526717557252,1.251908396946565,-1.2366412213740459,-0.466552734375,0.00146484375,-0.132080078125,0.8279
-0.7022900763358778,1.2671755725190839,-1.3587786259541985,-0.461181640625,0.0,-0.125244140625,0.8296
-0.8244274809160306,1.3587786259541985,-1.450381679389313,-0.46240234375,0.00146484375,-0.132080078125,0.8312999999999999
-0.8549618320610687,1.3893129770992367,-1.3740458015267176,-0.46435546875,-0.000244140625,-0.1337890625,0.833
-0.7633587786259542,1.3282442748091603,-1.5419847328244274,-0.46484375,-0.001220703125,-0.139404296875,0.8347
-0.9007633587786259,1.1755725190839694,-1.633587786259542,-0.4619140625,0.004638671875,-0.128173828125,0.8363999999999999
-0.7480916030534351,1.0534351145038168,-1.465648854961832,-0.469482421875,0.0029296875,-0.135986328125,0.8381
-0.6717557251908397,0.9465648854961832,-1.465648854961832,-0.4580078125,0.00244140625,-0.131591796875,0.8398
-0.6717557251908397,1.0076335877862594,-1.6793893129770991,-0.462890625,0.00244140625,-0.1298828125,0.8414999999999999
-0.5190839694656488,0.9923664122137404,-1.450381679389313,-0.4677734375,0.004150390625,-0.137451171875,0.8432
-0.4122137404580153,1.099236641221374,-1.5572519083969465,-0.468505859375,0.001708984375,-0.1318359375,0.8449
-0.42748091603053434,1.0229007633587786,-1.633587786259542,-0.468017578125,0.0029296875,-0.129150390625,0.8465999999999999
-0.48854961832061067,0.9923664122137404,-1.6946564885496183,-0.46533203125,0.000732421875,-0.123291015625,0.8482999999999999
-0.33587786259541985,1.0381679389312977,-1.6488549618320612,-0.46533203125,-0.001220703125,-0.132568359375,0.85
-0.1984732824427481,0.9923664122137404,-1.9083969465648856,-0.466552734375,-0.001708984375,-0.130859375,0.8516999999999999
-0.15267175572519084,1.0687022900763359,-1.5114503816793894,-0.470703125,-0.00244140625,-0.127197265625,0.8533999999999999
-0.13740458015267176,1.251908396946565,-1.8931297709923665,-0.465576171875,0.0078125,-0.14453125,0.8551
-0.13740458015267176,1.5725190839694656,-1.633587786259542,-0.464599609375,0.009033203125,-0.133056640625,0.8568
0.2748091603053435,1.4045801526717556,-1.8015267175572518,-0.466796875,0.0078125,-0.140380859375,0.8584999999999999
0.061068702290076333,1.5572519083969465,-1.6793893129770991,-0.461669921875,0.005615234375,-0.129638671875,0.8602
0.2900763358778626,1.7404580152671756,-1.984732824427481,-0.461181640625,0.007568359375,-0.138916015625,0.8619
0.13740458015267176,1.7251908396946565,-1.8015267175572518,-0.46826171875,0.0078125,-0.1328125,0.8635999999999999
0.3969465648854962,1.7251908396946565,-1.8625954198473282,-0.468017578125,0.00390625,-0.14111328125,0.8653
0.3511450381679389,1.7099236641221374,-1.8473282442748091,-0.467041015625,0.006103515625,-0.13037109375,0.867
0.4122137404580153,1.7251908396946565,-1.984732824427481,-0.46484375,0.00634765625,-0.134521484375,0.8686999999999999
0.44274809160305345,1.816793893129771,-2.0,-0.465576171875,0.00927734375,-0.134765625,0.8704
0.4580152671755725,1.7404580152671756,-2.045801526717557,-0.46533203125,0.002197265625,-0.132080078125,0.8721
0.4732824427480916,1.633587786259542,-1.7709923664122138,-0.466796875,0.0029296875,-0.124755859375,0.8737999999999999
0.549618320610687,1.5419847328244274,-1.8473282442748091,-0.4658203125,0.008056640625,-0.135498046875,0.8755
0.5343511450381679,1.5877862595419847,-1.8015267175572518,-0.464111328125,0.00341796875,-0.14013671875,0.8772
0.6412213740458015,1.5877862595419847,-1.8778625954198473,-0.46875,0.006591796875,-0.138427734375,0.8788999999999999
0.7022900763358778,1.5572519083969465,-1.7251908396946565,-0.4677734375,0.003662109375,-0.140380859375,0.8805999999999999
0.5954198473282443,1.3587786259541985,-1.8473282442748091,-0.46533203125,0.00439453125,-0.137939453125,0.8823
0.8702290076335878,1.3893129770992367,-1.816793893129771,-0.461669921875,0.0087890625,-0.12744140625,0.8839999999999999
0.7175572519083969,1.6946564885496183,-1.6793893129770991,-0.463134765625,0.0068359375,-0.131591796875,0.8856999999999999
0.7022900763358778,1.3435114503816794,-1.7557251908396947,-0.45947265625,0.004150390625,-0.127685546875,0.8874
1.0229007633587786,1.633587786259542,-1.7251908396946565,-0.462890625,0.006103515625,-0.13134765625,0.8891
1.0534351145038168,1.5877862595419847,-1.7251908396946565,-0.467529296875,0.007568359375,-0.1416015625,0.8907999999999999
0.9770992366412213,1.6030534351145038,-1.7557251908396947,-0.463134765625,0.004638671875,-0.140380859375,0.8925
1.0076335877862594,1.6030534351145038,-1.7709923664122138,-0.466064453125,0.00927734375,-0.1357421875,0.8942
1.1908396946564885,1.5572519083969465,-1.9694656488549618,-0.4658203125,0.00244140625,-0.1337890625,0.8958999999999999
0.9770992366412213,1.6488549618320612,-1.9083969465648856,-0.46826171875,0.001220703125,-0.131591796875,0.8976
0.9923664122137404,1.5267175572519085,-1.8015267175572518,-0.465576171875,0.004638671875,-0.133544921875,0.8993
1.2061068702290076,1.4961832061068703,-1.9389312977099236,-0.461181640625,0.00439453125,-0.1357421875,0.9009999999999999
1.2061068702290076,1.5267175572519085,-1.618320610687023,-0.460693359375,0.003173828125,-0.138916015625,0.9027
1.5114503816793894,1.4809160305343512,-1.9389312977099236,-0.4599609375,0.0068359375,-0.13427734375,0.9044
1.3435114503816794,1.465648854961832,-1.9236641221374047,-0.463623046875,-0.0009765625,-0.132080078125,0.9060999999999999
1.3129770992366412,1.5572519083969465,-1.9083969465648856,-0.471435546875,0.00634765625,-0.130859375,0.9077999999999999
1.3893129770992367,1.465648854961832,-1.7099236641221374,-0.46875,0.00146484375,-0.136962890625,0.9095
1.3587786259541985,1.465648854961832,-1.7251908396946565,-0.46484375,0.0009765625,-0.133544921875,0.9111999999999999
1.5572519083969465,1.2213740458015268,-1.7404580152671756,-0.46630859375,0.000244140625,-0.14013671875,0.9128999999999999
1.6946564885496183,1.465648854961832,-1.816793893129771,-0.467041015625,0.003662109375,-0.13916015625,0.9146
1.618320610687023,1.5877862595419847,-1.984732824427481,-0.46484375,0.000244140625,-0.140380859375,0.9163
1.7099236641221374,1.3893129770992367,-1.83206106870229,-0.468505859375,0.001708984375,-0.14208984375,0.9179999999999999
1.816793893129771,1.4045801526717556,-1.7099236641221374,-0.46630859375,0.0009765625,-0.129638671875,0.9197
1.8931297709923665,1.5725190839694656,-1.633587786259542,-0.464599609375,0.0,-0.12841796875,0.9214
1.7251908396946565,1.6030534351145038,-1.7404580152671756,-0.46728515625,0.001708984375,-0.13916015625,0.9230999999999999
1.9541984732824427,1.450381679389313,-1.7557251908396947,-0.463134765625,-0.001220703125,-0.138916015625,0.9248
1.618320610687023,1.6488549618320612,-1.7251908396946565,-0.468017578125,0.002197265625,-0.133056640625,0.9265
1.7099236641221374,1.8473282442748091,-1.6793893129770991,-0.46337890625,0.00341796875,-0.135498046875,0.9281999999999999
1.8015267175572518,1.83206106870229,-1.7404580152671756,-0.462158203125,-0.00244140625,-0.146240234375,0.9299
1.4045801526717556,1.8015267175572518,-1.83206106870229,-0.4658203125,0.00732421875,-0.14013671875,0.9316
1.4198473282442747,1.9389312977099236,-1.786259541984733,-0.466796875,-0.000732421875,-0.135986328125,0.9332999999999999
1.2213740458015268,2.030534351145038,-1.6641221374045803,-0.462646484375,-0.00048828125,-0.139892578125,0.9349999999999999
1.099236641221374,1.8931297709923665,-1.7557251908396947,-0.464111328125,-0.002197265625,-0.13623046875,0.9367
1.083969465648855,1.8625954198473282,-1.8625954198473282,-0.459716796875,-0.0009765625,-0.13623046875,0.9383999999999999
0.9007633587786259,1.9694656488549618,-1.6793893129770991,-0.4609375,-0.000732421875,-0.13330078125,0.9400999999999999
0.6106870229007634,1.6488549618320612,-1.8931297709923665,-0.468505859375,-0.00048828125,-0.135009765625,0.9418
0.8549618320610687,1.7099236641221374,-1.6946564885496183,-0.46240234375,-0.001708984375,-0.139892578125,0.9434999999999999
0.732824427480916,1.5572519083969465,-1.9236641221374047,-0.462890625,-0.003173828125,-0.131591796875,0.9451999999999999
0.6259541984732825,1.5267175572519085,-1.7404580152671756,-0.462158203125,-0.00634765625,-0.128173828125,0.9469
0.6106870229007634,1.3740458015267176,-1.7099236641221374,-0.4677734375,-0.0068359375,-0.13134765625,0.9486
0.549618320610687,1.3282442748091603,-1.8931297709923665,-0.465087890625,-0.006591796875,-0.13427734375,0.9502999999999999
0.8396946564885496,1.1145038167938932,-1.9541984732824427,-0.462890625,0.0009765625,-0.133544921875,0.952
0.7633587786259542,1.2671755725190839,-1.8473282442748091,-0.466796875,-0.001220703125,-0.139892578125,0.9537
0.9923664122137404,1.1908396946564885,-1.8931297709923665,-0.46240234375,-0.00146484375,-0.133056640625,0.9553999999999999
0.7633587786259542,1.1145038167938932,-1.6946564885496183,-0.465087890625,-0.0029296875,-0.130126953125,0.9571
0.6717557251908397,1.0381679389312977,-1.83206106870229,-0.466552734375,-0.00146484375,-0.1396484375,0.9588
0.8244274809160306,0.9312977099236641,-1.816793893129771,-0.465576171875,-0.002197265625,-0.134033203125,0.9604999999999999
0.8091603053435115,1.0229007633587786,-2.015267175572519,-0.470458984375,-0.002197265625,-0.13037109375,0.9621999999999999
0.7938931297709924,1.083969465648855,-1.8015267175572518,-0.47265625,-0.0029296875,-0.135009765625,0.9639
0.5190839694656488,1.099236641221374,-1.6030534351145038,-0.46875,-0.00244140625,-0.14111328125,0.9655999999999999
0.5038167938931297,1.1450381679389312,-1.6641221374045803,-0.46923828125,-0.0029296875,-0.1435546875,0.9672999999999999
0.44274809160305345,1.251908396946565,-1.7404580152671756,-0.46728515625,-0.005859375,-0.13330078125,0.969
0.44274809160305345,1.0534351145038168,-1.6030534351145038,-0.466552734375,-0.004638671875,-0.13720703125,0.9706999999999999
0.366412213740458,1.251908396946565,-1.5572519083969465,-0.46923828125,0.001708984375,-0.13427734375,0.9723999999999999
0.549618320610687,1.1755725190839694,-1.6030534351145038,-0.465576171875,-0.006591796875,-0.1328125,0.9741
0.5038167938931297,1.099236641221374,-1.7099236641221374,-0.466064453125,-0.003662109375,-0.14111328125,0.9758
0.12213740458015267,1.251908396946565,-1.4351145038167938,-0.465087890625,0.0009765625,-0.131103515625,0.9774999999999999
-0.3511450381679389,1.297709923664122,-1.6946564885496183,-0.46728515625,-0.000732421875,-0.146484375,0.9792
-0.2748091603053435,1.2061068702290076,-1.450381679389313,-0.4677734375,-0.0068359375,-0.137451171875,0.9809
-0.2595419847328244,1.0229007633587786,-1.450381679389313,-0.468017578125,-0.006103515625,-0.14013671875,0.9825999999999999
-0.5648854961832062,1.1603053435114503,-1.450381679389313,-0.4580078125,-0.004638671875,-0.137939453125,0.9843
-0.6259541984732825,1.0534351145038168,-1.5419847328244274,-0.465576171875,-0.0048828125,-0.1318359375,0.986
-0.6564885496183206,1.0534351145038168,-1.282442748091603,-0.46435546875,-0.0068359375,-0.139404296875,0.9876999999999999
-0.8244274809160306,1.2366412213740459,-1.4045801526717556,-0.46533203125,-0.005126953125,-0.13525390625,0.9894
-0.9007633587786259,1.1603053435114503,-1.450381679389313,-0.46435546875,0.0029296875,-0.1328125,0.9911
-0.9312977099236641,0.9923664122137404,-1.4809160305343512,-0.466796875,0.001220703125,-0.127685546875,0.9927999999999999
-0.9618320610687023,1.1603053435114503,-1.251908396946565,-0.4638671875,-0.007080078125,-0.142578125,0.9944999999999999
-0.8702290076335878,1.3129770992366412,-1.5725190839694656,-0.466064453125,-0.007568359375,-0.13916015625,0.9962
-1.1603053435114503,1.4809160305343512,-1.3587786259541985,-0.461181640625,-0.000732421875,-0.140869140625,0.9978999999999999
-1.2213740458015268,1.1755725190839694,-1.3129770992366412,-0.461669921875,0.00048828125,-0.13232421875,0.9995999999999999
-1.1603053435114503,1.1297709923664123,-1.3740458015267176,-0.467041015625,-0.006591796875,-0.1318359375,1.0012999999999999
-1.3282442748091603,1.2671755725190839,-1.282442748091603,-0.466064453125,-0.00390625,-0.145751953125,1.003
-1.1755725190839694,1.1603053435114503,-1.4045801526717556,-0.464111328125,-0.001953125,-0.142822265625,1.0047
-0.9465648854961832,1.0687022900763359,-1.4198473282442747,-0.462158203125,0.000732421875,-0.135986328125,1.0064
-1.0687022900763359,1.1908396946564885,-1.4351145038167938,-0.46728515625,0.000732421875,-0.1337890625,1.0081
-1.1450381679389312,1.3435114503816794,-1.297709923664122,-0.468017578125,0.002197265625,-0.1279296875,1.0098
-1.251908396946565,1.4198473282442747,-1.282442748091603,-0.46533203125,-0.00537109375,-0.134765625,1.0114999999999998
-1.5267175572519085,1.3435114503816794,-1.2671755725190839,-0.46826171875,-0.001953125,-0.129638671875,1.0131999999999999
-1.5572519083969465,1.297709923664122,-1.1755725190839694,-0.464111328125,0.002197265625,-0.12841796875,1.0149
-1.5419847328244274,1.450381679389313,-1.4045801526717556,-0.461669921875,0.00341796875,-0.13818359375,1.0166
-1.465648854961832,1.3740458015267176,-1.297709923664122,-0.466552734375,0.001708984375,-0.135009765625,1.0183
-1.4045801526717556,1.4045801526717556,-1.4351145038167938,-0.47021484375,0.00048828125,-0.137939453125,1.02
-1.6641221374045803,1.3587786259541985,-1.1603053435114503,-0.462890625,0.000244140625,-0.141357421875,1.0217
-1.465648854961832,1.4351145038167938,-1.3587786259541985,-0.46240234375,0.002685546875,-0.13671875,1.0233999999999999
-1.786259541984733,1.1908396946564885,-1.0381679389312977,-0.46533203125,0.0029296875,-0.1416015625,1.0251
-1.786259541984733,1.465648854961832,-1.2061068702290076,-0.468505859375,0.000732421875,-0.13623046875,1.0268
-1.9389312977099236,1.3893129770992367,-1.3587786259541985,-0.467041015625,0.00537109375,-0.13232421875,1.0285
-1.4809160305343512,1.3893129770992367,-1.2213740458015268,-0.464111328125,0.00732421875,-0.13525390625,1.0302
-1.7557251908396947,1.3435114503816794,-1.1603053435114503,-0.46728515625,0.003662109375,-0.135498046875,1.0319
-1.9541984732824427,1.1908396946564885,-1.2213740458015268,-0.466552734375,0.0078125,-0.135009765625,1.0335999999999999
-2.122137404580153,1.2671755725190839,-1.251908396946565,-0.46923828125,0.004638671875,-0.133544921875,1.0352999999999999
-1.618320610687023,1.2671755725190839,-1.282442748091603,-0.46630859375,0.0029296875,-0.1318359375,1.037
-1.4351145038167938,1.3587786259541985,-1.4809160305343512,-0.466064453125,0.00390625,-0.134033203125,1.0387
-1.6488549618320612,1.3435114503816794,-1.3893129770992367,-0.466796875,0.004638671875,-0.133056640625,1.0404
-1.633587786259542,1.2671755725190839,-1.4351145038167938,-0.465087890625,0.0078125,-0.13671875,1.0421
-1.251908396946565,1.1908396946564885,-1.4045801526717556,-0.460205078125,0.004150390625,-0.13720703125,1.0437999999999998
-1.251908396946565,1.3129770992366412,-1.465648854961832,-0.4697265625,0.009033203125,-0.135498046875,1.0454999999999999
-1.0381679389312977,1.2671755725190839,-1.3129770992366412,-0.464111328125,0.004150390625,-0.137939453125,1.0472
-1.0381679389312977,1.3282442748091603,-1.5267175572519085,-0.463623046875,0.003173828125,-0.1318359375,1.0489
-0.8549618320610687,1.4809160305343512,-1.465648854961832,-0.46826171875,0.006103515625,-0.129638671875,1.0506
-0.6564885496183206,1.2213740458015268,-1.4809160305343512,-0.46630859375,0.008056640625,-0.136474609375,1.0523
-0.549618320610687,1.297709923664122,-1.5419847328244274,-0.463623046875,0.010009765625,-0.130126953125,1.054
-0.5801526717557252,1.3435114503816794,-1.3587786259541985,-0.466552734375,0.005126953125,-0.132568359375,1.0556999999999999
-0.24427480916030533,1.3740458015267176,-1.5419847328244274,-0.460205078125,0.009033203125,-0.136962890625,1.0574
0.061068702290076333,1.297709923664122,-1.7251908396946565,-0.462890625,0.005126953125,-0.131103515625,1.0591
0.10687022900763359,1.2213740458015268,-1.3129770992366412,-0.464599609375,0.003662109375,-0.136962890625,1.0608
0.13740458015267176,1.2671755725190839,-1.282442748091603,-0.462890625,0.004638671875,-0.134765625,1.0625
0.44274809160305345,1.297709923664122,-1.5572519083969465,-0.4619140625,0.006591796875,-0.130859375,1.0642
0.33587786259541985,1.1450381679389312,-1.4045801526717556,-0.466796875,0.010009765625,-0.1357421875,1.0658999999999998
0.549618320610687,1.0381679389312977,-1.618320610687023,-0.457763671875,0.004638671875,-0.132568359375,1.0675999999999999
0.549618320610687,1.0229007633587786,-1.7709923664122138,-0.46240234375,0.0048828125,-0.12890625,1.0693
0.5648854961832062,1.0076335877862594,-1.4351145038167938,-0.464599609375,0.00244140625,-0.1259765625,1.071
0.9007633587786259,0.8854961832061069,-1.633587786259542,-0.46240234375,0.00390625,-0.125732421875,1.0727
1.0534351145038168,0.8854961832061069,-1.5419847328244274,-0.470458984375,0.009521484375,-0.1328125,1.0744
0.9923664122137404,0.8396946564885496,-1.4961832061068703,-0.465087890625,0.004150390625,-0.1279296875,1.0760999999999998
0.9465648854961832,0.7480916030534351,-1.3740458015267176,-0.465576171875,0.002685546875,-0.12890625,1.0777999999999999
1.2213740458015268,0.6564885496183206,-1.618320610687023,-0.465576171875,0.00732421875,-0.140380859375,1.0795
1.3893129770992367,0.7022900763358778,-1.786259541984733,-0.462158203125,0.0068359375,-0.1318359375,1.0812
1.465648854961832,0.732824427480916,-1.3740458015267176,-0.46826171875,0.00634765625,-0.134033203125,1.0829
1.5877862595419847,0.549618320610687,-1.4961832061068703,-0.459716796875,0.001708984375,-0.13671875,1.0846
1.5572519083969465,0.5954198473282443,-1.6946564885496183,-0.46533203125,0.001953125,-0.130126953125,1.0863
1.5267175572519085,0.7175572519083969,-1.5877862595419847,-0.4619140625,0.00146484375,-0.13037109375,1.0879999999999999
1.5419847328244274,0.6717557251908397,-1.786259541984733,-0.4697265625,0.009521484375,-0.135986328125,1.0897
1.7709923664122138,0.732824427480916,-1.4961832061068703,-0.468505859375,0.00341796875,-0.1279296875,1.0914
1.83206106870229,0.6870229007633588,-1.4198473282442747,-0.467529296875,0.006103515625,-0.129150390625,1.0931
1.8015267175572518,0.4580152671755725,-1.4198473282442747,-0.46533203125,0.0078125,-0.138427734375,1.0948
1.9083969465648856,0.7022900763358778,-1.3893129770992367,-0.46728515625,0.004150390625,-0.130859375,1.0965
2.045801526717557,1.083969465648855,-1.4351145038167938,-0.465087890625,0.00537109375,-0.137451171875,1.0981999999999998
2.2748091603053435,0.8702290076335878,-1.4198473282442747,-0.4609375,0.0029296875,-0.141357421875,1.0998999999999999
2.3206106870229006,1.0687022900763359,-1.3282442748091603,-0.463134765625,0.002197265625,-0.133056640625,1.1016
2.3969465648854964,1.1755725190839694,-1.3587786259541985,-0.463134765625,0.001220703125,-0.12548828125,1.1033
2.5343511450381677,1.1450381679389312,-1.5267175572519085,-0.46826171875,0.005126953125,-0.1328125,1.105
2.6564885496183206,1.2366412213740459,-1.3893129770992367,-0.46435546875,0.00146484375,-0.133544921875,1.1067
2.732824427480916,1.1908396946564885,-1.2366412213740459,-0.463134765625,0.00341796875,-0.134033203125,1.1083999999999998
2.687022900763359,1.1755725190839694,-1.3129770992366412,-0.462890625,-0.001220703125,-0.130859375,1.1100999999999999
2.7938931297709924,1.1450381679389312,-1.4351145038167938,-0.461181640625,0.0029296875,-0.1318359375,1.1118
2.732824427480916,1.282442748091603,-1.3893129770992367,-0.468994140625,0.005126953125,-0.132568359375,1.1135
2.7938931297709924,1.1603053435114503,-1.1297709923664123,-0.463134765625,0.0,-0.12646484375,1.1152
2.6564885496183206,1.099236641221374,-1.4198473282442747,-0.469970703125,-0.00390625,-0.133544921875,1.1169
2.595419847328244,0.916030534351145,-1.4809160305343512,-0.46240234375,-0.001953125,-0.138427734375,1.1186
2.549618320610687,1.2671755725190839,-1.465648854961832,-0.463623046875,-0.007080078125,-0.127685546875,1.1202999999999999
2.366412213740458,1.099236641221374,-1.3893129770992367,-0.471435546875,-0.005615234375,-0.127685546875,1.1219999999999999
2.6412213740458017,1.0229007633587786,-1.4961832061068703,-0.4716796875,-0.000732421875,-0.1318359375,1.1237
2.4122137404580153,1.099236641221374,-1.297709923664122,-0.46630859375,0.00244140625,-0.128662109375,1.1254
2.2748091603053435,0.9770992366412213,-1.2213740458015268,-0.467041015625,0.00048828125,-0.13720703125,1.1271
2.1526717557251906,1.0229007633587786,-1.4045801526717556,-0.460205078125,-0.003173828125,-0.130615234375,1.1288
1.9389312977099236,0.9312977099236641,-1.5877862595419847,-0.46630859375,-0.00390625,-0.14111328125,1.1304999999999998
1.816793893129771,1.0687022900763359,-1.5877862595419847,-0.465087890625,-0.00390625,-0.142822265625,1.1321999999999999
1.7404580152671756,0.9770992366412213,-1.6946564885496183,-0.462158203125,-0.004150390625,-0.13525390625,1.1339
1.5572519083969465,1.0534351145038168,-1.5877862595419847,-0.465576171875,-0.00732421875,-0.14013671875,1.1356
1.2061068702290076,1.0076335877862594,-1.5419847328244274,-0.46484375,-0.004150390625,-0.133544921875,1.1373
1.3282442748091603,1.0229007633587786,-1.6946564885496183,-0.4609375,-0.005859375,-0.132080078125,1.139
1.1755725190839694,1.1450381679389312,-1.6793893129770991,-0.4697265625,0.0,-0.13330078125,1.1407
1.2061068702290076,0.9770992366412213,-1.633587786259542,-0.46240234375,-0.000244140625,-0.136962890625,1.1423999999999999
1.099236641221374,0.8854961832061069,-1.8015267175572518,-0.464111328125,-0.0029296875,-0.135986328125,1.1441
1.1908396946564885,0.8854961832061069,-1.786259541984733,-0.4619140625,-0.006103515625,-0.14013671875,1.1458
0.9312977099236641,0.8244274809160306,-1.83206106870229,-0.46435546875,-0.008056640625,-0.137939453125,1.1475
0.916030534351145,0.7786259541984732,-1.5572519083969465,-0.4658203125,-0.00537109375,-0.135009765625,1.1492
0.9618320610687023,0.6870229007633588,-1.7099236641221374,-0.46044921875,-0.00634765625,-0.1318359375,1.1509
0.9465648854961832,0.5343511450381679,-1.6793893129770991,-0.462646484375,-0.002685546875,-0.135009765625,1.1525999999999998
0.732824427480916,0.3816793893129771,-1.7099236641221374,-0.464599609375,-0.00537109375,-0.13134765625,1.1542999999999999
0.5801526717557252,0.42748091603053434,-1.786259541984733,-0.466796875,-0.004150390625,-0.135498046875,1.156
0.5343511450381679,0.22900763358778625,-1.7709923664122138,-0.4697265625,0.0,-0.13720703125,1.1577
0.48854961832061067,0.10687022900763359,-1.6641221374045803,-0.468505859375,-0.0029296875,-0.1455078125,1.1594
0.2900763358778626,0.061068702290076333,-1.618320610687023,-0.465576171875,0.00390625,-0.138427734375,1.1611
0.21374045801526717,0.24427480916030533,-1.5725190839694656,-0.465087890625,0.006591796875,-0.138427734375,1.1627999999999998
0.061068702290076333,0.1984732824427481,-1.7251908396946565,-0.46337890625,0.002197265625,-0.14306640625,1.1644999999999999
-0.13740458015267176,0.4122137404580153,-1.6488549618320612,-0.4677734375,-0.0009765625,-0.142578125,1.1662
-0.15267175572519084,0.2748091603053435,-1.5267175572519085,-0.470458984375,-0.0009765625,-0.135009765625,1.1679
-0.21374045801526717,0.4580152671755725,-1.3587786259541985,-0.467529296875,0.00341796875,-0.13671875,1.1696
-0.10687022900763359,0.44274809160305345,-1.4961832061068703,-0.4658203125,-0.00048828125,-0.137939453125,1.1713
-0.4580152671755725,0.4732824427480916,-1.3893129770992367,-0.463134765625,0.003662109375,-0.137939453125,1.173
-0.33587786259541985,0.549618320610687,-1.4351145038167938,-0.462890625,0.00439453125,-0.132568359375,1.1746999999999999
-0.366412213740458,0.6870229007633588,-1.4198473282442747,-0.466796875,-0.002197265625,-0.133056640625,1.1764
-0.366412213740458,0.6870229007633588,-1.297709923664122,-0.46630859375,0.002685546875,-0.135498046875,1.1781
-0.4732824427480916,0.5801526717557252,-1.1297709923664123,-0.463134765625,0.00390625,-0.13427734375,1.1798
-0.5190839694656488,0.8091603053435115,-1.2671755725190839,-0.46630859375,0.001953125,-0.136962890625,1.1815
-0.24427480916030533,0.7786259541984732,-1.3435114503816794,-0.461669921875,0.002197265625,-0.138671875,1.1832
-0.12213740458015267,0.7938931297709924,-1.0534351145038168,-0.46484375,0.002197265625,-0.128662109375,1.1848999999999998
-0.3053435114503817,0.7938931297709924,-1.099236641221374,-0.467529296875,-0.001708984375,-0.13720703125,1.1865999999999999
-0.0916030534351145,0.7633587786259542,-1.0229007633587786,-0.468994140625,0.005126953125,-0.130859375,1.1883
-0.16793893129770993,0.7938931297709924,-1.1297709923664123,-0.4677734375,-0.0009765625,-0.13720703125,1.19
-0.183206106870229,0.9770992366412213,-0.9770992366412213,-0.4677734375,0.004638671875,-0.13818359375,1.1917
-0.10687022900763359,0.9007633587786259,-1.099236641221374,-0.46875,0.006103515625,-0.1357421875,1.1934
-0.13740458015267176,0.916030534351145,-0.8549618320610687,-0.469970703125,0.004638671875,-0.139404296875,1.1950999999999998
-0.04580152671755725,1.083969465648855,-1.0687022900763359,-0.467529296875,-0.00048828125,-0.128662109375,1.1967999999999999
0.22900763358778625,0.9770992366412213,-0.9923664122137404,-0.46728515625,0.006103515625,-0.135498046875,1.1985
-0.015267175572519083,0.916030534351145,-1.1603053435114503,-0.465087890625,0.0029296875,-0.14208984375,1.2002
0.2595419847328244,0.7938931297709924,-1.1603053435114503,-0.46533203125,0.000244140625,-0.1298828125,1.2019
0.48854961832061067,0.6870229007633588,-1.297709923664122,-0.463623046875,0.0048828125,-0.13671875,1.2036
0.366412213740458,0.8244274809160306,-1.099236641221374,-0.466552734375,-0.00048828125,-0.143798828125,1.2053
0.3816793893129771,0.8396946564885496,-1.0687022900763359,-0.465576171875,0.00439453125,-0.135009765625,1.2069999999999999
0.5648854961832062,0.7938931297709924,-1.1145038167938932,-0.468017578125,0.0048828125,-0.123046875,1.2086999999999999
0.4580152671755725,0.6412213740458015,-1.083969465648855,-0.4658203125,0.00634765625,-0.12890625,1.2104
0.366412213740458,0.7480916030534351,-1.0381679389312977,-0.467041015625,0.00048828125,-0.140380859375,1.2121
0.5038167938931297,0.5801526717557252,-1.282442748091603,-0.461181640625,0.007080078125,-0.13671875,1.2138
0.549618320610687,0.7175572519083969,-1.0381679389312977,-0.45556640625,0.00341796875,-0.13623046875,1.2155
0.4580152671755725,0.6870229007633588,-1.1908396946564885,-0.46435546875,0.00341796875,-0.135498046875,1.2171999999999998
0.5343511450381679,0.7175572519083969,-1.0076335877862594,-0.466796875,0.0048828125,-0.132080078125,1.2188999999999999
0.5343511450381679,0.7786259541984732,-1.1908396946564885,-0.466796875,0.002685546875,-0.1298828125,1.2206
0.6564885496183206,0.7480916030534351,-1.1145038167938932,-0.465087890625,0.00634765625,-0.12646484375,1.2223
0.6412213740458015,0.6106870229007634,-1.1908396946564885,-0.46533203125,-0.002685546875,-0.127197265625,1.224
0.7022900763358778,0.8396946564885496,-0.9770992366412213,-0.470703125,0.001708984375,-0.13232421875,1.2257
0.7633587786259542,0.7022900763358778,-1.1145038167938932,-0.463623046875,0.003662109375,-0.126708984375,1.2273999999999998
0.8702290076335878,0.7786259541984732,-1.0076335877862594,-0.469970703125,0.00341796875,-0.140625,1.2290999999999999
1.1297709923664123,0.9312977099236641,-0.9923664122137404,-0.46630859375,-0.001708984375,-0.134765625,1.2308
1.0687022900763359,0.8854961832061069,-1.0229007633587786,-0.466796875,0.00634765625,-0.134521484375,1.2325
0.7480916030534351,0.9312977099236641,-1.1297709923664123,-0.4697265625,0.001708984375,-0.13525390625,1.2342
0.9007633587786259,0.916030534351145,-1.1145038167938932,-0.468017578125,0.00244140625,-0.139892578125,1.2359
1.0076335877862594,0.9312977099236641,-1.083969465648855,-0.465576171875,-0.00439453125,-0.140625,1.2376
0.916030534351145,0.9007633587786259,-1.0534351145038168,-0.469482421875,-0.003173828125,-0.1298828125,1.2392999999999998
0.7022900763358778,1.0229007633587786,-1.1908396946564885,-0.463623046875,-0.002197265625,-0.1298828125,1.2409999999999999
0.6564885496183206,0.9618320610687023,-1.0381679389312977,-0.46435546875,0.004638671875,-0.131591796875,1.2427
0.6259541984732825,0.9923664122137404,-1.3129770992366412,-0.46484375,0.001953125,-0.124267578125,1.2444
0.549618320610687,1.0229007633587786,-1.0687022900763359,-0.46826171875,-0.00537109375,-0.13232421875,1.2461
0.9312977099236641,0.9923664122137404,-1.2061068702290076,-0.46826171875,-0.00146484375,-0.140869140625,1.2478
0.7938931297709924,0.8549618320610687,-1.2213740458015268,-0.46435546875,0.00439453125,-0.140869140625,1.2494999999999998
0.549618320610687,0.916030534351145,-1.0229007633587786,-0.462890625,-0.00439453125,-0.142333984375,1.2511999999999999
0.7175572519083969,1.099236641221374,-1.0534351145038168,-0.46533203125,-0.002685546875,-0.133056640625,1.2529
0.5190839694656488,1.083969465648855,-1.1450381679389312,-0.46435546875,-0.000732421875,-0.132568359375,1.2546
0.7022900763358778,0.7938931297709924,-1.251908396946565,-0.468994140625,-0.002197265625,-0.13134765625,1.2563
0.7022900763358778,0.6412213740458015,-1.2366412213740459,-0.462890625,-0.00048828125,-0.142333984375,1.258
0.3816793893129771,1.0381679389312977,-1.282442748091603,-0.467041015625,0.000244140625,-0.13818359375,1.2596999999999998
0.5343511450381679,1.083969465648855,-1.1450381679389312,-0.466796875,-0.003173828125,-0.13037109375,1.2613999999999999
0.3511450381679389,0.9465648854961832,-1.2671755725190839,-0.463623046875,-0.003173828125,-0.12890625,1.2631
0.44274809160305345,0.916030534351145,-1.3587786259541985,-0.470703125,0.00439453125,-0.131103515625,1.2648
0.3053435114503817,0.8854961832061069,-1.3893129770992367,-0.46728515625,-0.001220703125,-0.134765625,1.2665
0.5343511450381679,0.8396946564885496,-1.4351145038167938,-0.46533203125,0.000244140625,-0.1435546875,1.2682
0.2595419847328244,0.9465648854961832,-1.3893129770992367,-0.4638671875,-0.002685546875,-0.139892578125,1.2699
0.44274809160305345,0.7938931297709924,-1.3129770992366412,-0.462890625,0.0048828125,-0.138427734375,1.2715999999999998
0.5038167938931297,0.9618320610687023,-1.4351145038167938,-0.463623046875,0.001708984375,-0.127197265625,1.2732999999999999
0.4580152671755725,0.7786259541984732,-1.5725190839694656,-0.461181640625,-0.00537109375,-0.1298828125,1.275
0.21374045801526717,0.732824427480916,-1.633587786259542,-0.467529296875,-0.00341796875,-0.133056640625,1.2767
0.15267175572519084,0.7633587786259542,-1.5572519083969465,-0.464111328125,-0.001953125,-0.13916015625,1.2784
0.3816793893129771,0.6564885496183206,-1.4198473282442747,-0.463623046875,0.00244140625,-0.1328125,1.2801
0.33587786259541985,0.7480916030534351,-1.450381679389313,-0.46240234375,0.00244140625,-0.1376953125,1.2817999999999998
0.2595419847328244,0.7633587786259542,-1.3893129770992367,-0.465576171875,0.00634765625,-0.1357421875,1.2834999999999999
0.4580152671755725,0.5954198473282443,-1.4809160305343512,-0.4658203125,-0.00439453125,-0.12158203125,1.2852
0.2900763358778626,0.6564885496183206,-1.5114503816793894,-0.465087890625,-0.000244140625,-0.135498046875,1.2869
0.42748091603053434,0.5801526717557252,-1.5572519083969465,-0.4619140625,-0.0048828125,-0.144287109375,1.2886
0.549618320610687,0.6259541984732825,-1.633587786259542,-0.465087890625,-0.00146484375,-0.135498046875,1.2903
0.4122137404580153,0.48854961832061067,-1.4045801526717556,-0.466064453125,0.000732421875,-0.13720703125,1.292
0.42748091603053434,0.48854961832061067,-1.465648854961832,-0.466064453125,-0.0009765625,-0.139892578125,1.2936999999999999
0.3816793893129771,0.3816793893129771,-1.4809160305343512,-0.469482421875,-0.000732421875,-0.140380859375,1.2953999999999999
0.4122137404580153,0.6412213740458015,-1.450381679389313,-0.46337890625,0.0078125,-0.12841796875,1.2971
0.4122137404580153,0.6106870229007634,-1.3587786259541985,-0.464599609375,-0.0009765625,-0.135498046875,1.2988
0.5190839694656488,0.6259541984732825,-1.4198473282442747,-0.471435546875,0.00146484375,-0.12890625,1.3005
0.4732824427480916,0.7022900763358778,-1.4045801526717556,-0.466552734375,0.00390625,-0.13720703125,1.3022
0.33587786259541985,0.7480916030534351,-1.4351145038167938,-0.4658203125,0.005615234375,-0.141357421875,1.3038999999999998
0.549618320610687,0.8854961832061069,-1.2366412213740459,-0.46630859375,0.00244140625,-0.139404296875,1.3055999999999999
0.6717557251908397,0.7938931297709924,-1.3893129770992367,-0.4638671875,0.00439453125,-0.135986328125,1.3073
0.6564885496183206,1.0534351145038168,-1.297709923664122,-0.46826171875,0.002685546875,-0.131591796875,1.309
0.916030534351145,1.0381679389312977,-1.297709923664122,-0.46630859375,0.0009765625,-0.1416015625,1.3107
0.8854961832061069,0.9618320610687023,-1.251908396946565,-0.463134765625,0.004150390625,-0.14404296875,1.3124
0.9465648854961832,0.9770992366412213,-1.4045801526717556,-0.467041015625,-0.001220703125,-0.132568359375,1.3140999999999998
1.2061068702290076,1.1297709923664123,-1.3129770992366412,-0.46533203125,0.0068359375,-0.1416015625,1.3157999999999999
1.0534351145038168,1.0076335877862594,-1.3435114503816794,-0.4619140625,0.002197265625,-0.134521484375,1.3175
1.0534351145038168,1.083969465648855,-1.3282442748091603,-0.463134765625,0.005859375,-0.131103515625,1.3192
1.083969465648855,1.0076335877862594,-1.4351145038167938,-0.4658203125,0.005615234375,-0.134033203125,1.3209
1.1145038167938932,1.099236641221374,-1.1450381679389312,-0.46337890625,0.002197265625,-0.138671875,1.3226
1.2213740458015268,1.0229007633587786,-1.1603053435114503,-0.46142578125,0.002197265625,-0.144775390625,1.3243
0.7022900763358778,0.9465648854961832,-1.1450381679389312,-0.464599609375,-0.002685546875,-0.130859375,1.3259999999999998
0.9618320610687023,0.8396946564885496,-1.2366412213740459,-0.464599609375,0.00537109375,-0.136962890625,1.3276999999999999
0.9007633587786259,1.0687022900763359,-1.3587786259541985,-0.46533203125,0.005126953125,-0.131103515625,1.3294
0.6717557251908397,1.0381679389312977,-1.450381679389313,-0.460205078125,0.00390625,-0.1318359375,1.3311
0.5801526717557252,1.2061068702290076,-1.1908396946564885,-0.462646484375,-0.0009765625,-0.13232421875,1.3328
0.5801526717557252,1.083969465648855,-1.2366412213740459,-0.46630859375,-0.001953125,-0.13037109375,1.3345
0.7175572519083969,0.7633587786259542,-1.1297709923664123,-0.466064453125,0.00244140625,-0.134765625,1.3361999999999998
0.4732824427480916,0.9465648854961832,-1.1908396946564885,-0.468994140625,0.00048828125,-0.1376953125,1.3378999999999999
0.4732824427480916,0.8549618320610687,-1.099236641221374,-0.468994140625,-0.001708984375,-0.13134765625,1.3396
0.5190839694656488,0.6412213740458015,-1.0687022900763359,-0.454833984375,0.002685546875,-0.143310546875,1.3413
0.5801526717557252,0.8244274809160306,-1.2061068702290076,-0.461181640625,0.001953125,-0.13232421875,1.343
0.44274809160305345,0.7786259541984732,-1.1755725190839694,-0.467041015625,0.0029296875,-0.13720703125,1.3447
0.549618320610687,0.6259541984732825,-1.1603053435114503,-0.47265625,0.000244140625,-0.116455078125,1.3463999999999998
0.7480916030534351,0.7633587786259542,-1.1145038167938932,-0.465087890625,0.00146484375,-0.130126953125,1.3480999999999999
0.5954198473282443,0.9007633587786259,-1.0229007633587786,-0.466064453125,0.0029296875,-0.131591796875,1.3497999999999999
0.8244274809160306,0.8091603053435115,-1.2366412213740459,-0.46240234375,0.0029296875,-0.13818359375,1.3515
1.0687022900763359,0.9923664122137404,-1.1145038167938932,-0.4658203125,-0.002197265625,-0.1357421875,1.3532
0.9770992366412213,1.0534351145038168,-1.3129770992366412,-0.47021484375,0.002685546875,-0.135498046875,1.3549
1.1450381679389312,0.9770992366412213,-1.2213740458015268,-0.471435546875,0.0,-0.140869140625,1.3566
1.1145038167938932,1.0076335877862594,-1.1908396946564885,-0.4638671875,0.00048828125,-0.13330078125,1.3582999999999998
1.282442748091603,1.1603053435114503,-1.2671755725190839,-0.465576171875,-0.0029296875,-0.121337890625,1.3599999999999999
1.3740458015267176,1.1603053435114503,-1.2061068702290076,-0.47119140625,0.000244140625,-0.13671875,1.3617
1.282442748091603,1.3282442748091603,-1.4045801526717556,-0.4609375,-0.002197265625,-0.13818359375,1.3634
1.3587786259541985,1.4045801526717556,-1.618320610687023,-0.465087890625,-0.005126953125,-0.13330078125,1.3651
1.2366412213740459,1.297709923664122,-1.3435114503816794,-0.46630859375,-0.00048828125,-0.13330078125,1.3668
1.0076335877862594,1.4351145038167938,-1.297709923664122,-0.465576171875,-0.0009765625,-0.140869140625,1.3684999999999998
1.1603053435114503,1.3740458015267176,-1.465648854961832,-0.4658203125,-0.00048828125,-0.12939453125,1.3701999999999999
0.9618320610687023,1.2061068702290076,-1.5114503816793894,-0.464599609375,0.00048828125,-0.1357421875,1.3719
1.1755725190839694,1.4809160305343512,-1.450381679389313,-0.46240234375,-0.00634765625,-0.1357421875,1.3736
0.8702290076335878,1.5725190839694656,-1.7709923664122138,-0.463623046875,0.001708984375,-0.14013671875,1.3753
0.6870229007633588,1.3435114503816794,-1.5725190839694656,-0.4697265625,0.00244140625,-0.137939453125,1.377
0.6412213740458015,1.083969465648855,-1.7251908396946565,-0.466064453125,-0.000732421875,-0.14111328125,1.3786999999999998
0.7175572519083969,1.1145038167938932,-1.6793893129770991,-0.466796875,0.00048828125,-0.13427734375,1.3803999999999998
0.4732824427480916,1.0534351145038168,-1.6793893129770991,-0.46337890625,0.000732421875,-0.1376953125,1.3820999999999999
0.3816793893129771,1.3435114503816794,-1.5877862595419847,-0.46435546875,0.0068359375,-0.129150390625,1.3838
0.2900763358778626,1.0534351145038168,-1.7404580152671756,-0.46533203125,-0.001708984375,-0.138427734375,1.3855
0.3969465648854962,1.1450381679389312,-1.7709923664122138,-0.46435546875,0.00048828125,-0.129150390625,1.3872
0.32061068702290074,1.2061068702290076,-1.9389312977099236,-0.4658203125,0.0,-0.135009765625,1.3889
0.4122137404580153,1.1145038167938932,-1.5572519083969465,-0.4658203125,-0.001953125,-0.135009765625,1.3905999999999998
0.1984732824427481,1.0687022900763359,-1.786259541984733,-0.462158203125,0.0009765625,-0.12890625,1.3922999999999999
0.33587786259541985,1.0381679389312977,-1.7709923664122138,-0.4638671875,-0.00048828125,-0.13525390625,1.394
0.549618320610687,1.0076335877862594,-1.6488549618320612,-0.469482421875,-0.00048828125,-0.141357421875,1.3957
0.5648854961832062,0.8854961832061069,-1.618320610687023,-0.46728515625,0.003662109375,-0.134033203125,1.3974
0.6259541984732825,0.8244274809160306,-1.816793893129771,-0.466552734375,0.00439453125,-0.13818359375,1.3991
0.5801526717557252,0.916030534351145,-1.6641221374045803,-0.46533203125,0.000732421875,-0.13525390625,1.4007999999999998
0.9007633587786259,0.9618320610687023,-1.5877862595419847,-0.46630859375,0.0029296875,-0.12890625,1.4024999999999999
0.732824427480916,0.9770992366412213,-1.6793893129770991,-0.46484375,0.00732421875,-0.14404296875,1.4042
0.7480916030534351,0.9618320610687023,-1.618320610687023,-0.46533203125,0.0029296875,-0.134521484375,1.4059
0.6717557251908397,0.9465648854961832,-1.6641221374045803,-0.464599609375,0.001220703125,-0.13232421875,1.4076
0.8549618320610687,0.8702290076335878,-1.6641221374045803,-0.46533203125,0.003662109375,-0.136962890625,1.4093
1.0229007633587786,1.0381679389312977,-1.7557251908396947,-0.466796875,0.0048828125,-0.1435546875,1.411
0.7480916030534351,1.2366412213740459,-1.633587786259542,-0.466796875,0.00830078125,-0.142578125,1.4126999999999998
0.8091603053435115,1.1450381679389312,-1.4961832061068703,-0.465576171875,0.00341796875,-0.137451171875,1.4143999999999999
0.732824427480916,1.2366412213740459,-1.465648854961832,-0.467529296875,0.000732421875,-0.135498046875,1.4161
0.732824427480916,1.3129770992366412,-1.6030534351145038,-0.46728515625,0.00146484375,-0.135498046875,1.4178
0.5343511450381679,1.450381679389313,-1.3893129770992367,-0.466796875,0.0009765625,-0.134033203125,1.4195
0.8396946564885496,1.5572519083969465,-1.5572519083969465,-0.466552734375,0.005615234375,-0.141845703125,1.4212
0.6106870229007634,1.5572519083969465,-1.4198473282442747,-0.467041015625,0.00341796875,-0.14111328125,1.4228999999999998
0.7938931297709924,1.6030534351145038,-1.4351145038167938,-0.470458984375,0.0068359375,-0.133056640625,1.4245999999999999
0.7022900763358778,1.7404580152671756,-1.5419847328244274,-0.46484375,0.007080078125,-0.1328125,1.4263
0.5343511450381679,1.786259541984733,-1.5114503816793894,-0.468505859375,0.006103515625,-0.140380859375,1.428
0.5648854961832062,1.4045801526717556,-1.633587786259542,-0.465576171875,0.003173828125,-0.133544921875,1.4297
0.6717557251908397,1.6488549618320612,-1.6946564885496183,-0.46533203125,0.00341796875,-0.133544921875,1.4314
0.48854961832061067,1.8015267175572518,-1.4961832061068703,-0.466796875,0.001953125,-0.1396484375,1.4330999999999998
0.7022900763358778,1.633587786259542,-1.4045801526717556,-0.462646484375,-0.00146484375,-0.14599609375,1.4347999999999999
0.5648854961832062,1.465648854961832,-1.3282442748091603,-0.4658203125,0.00244140625,-0.134765625,1.4364999999999999
0.7175572519083969,1.1145038167938932,-1.450381679389313,-0.4638671875,0.003173828125,-0.141357421875,1.4382
0.6412213740458015,1.1297709923664123,-1.4198473282442747,-0.4638671875,0.000244140625,-0.141845703125,1.4399
0.732824427480916,0.8396946564885496,-1.6641221374045803,-0.46435546875,-0.000244140625,-0.13671875,1.4416
0.8702290076335878,0.8854961832061069,-1.3282442748091603,-0.466552734375,0.006591796875,-0.12939453125,1.4433
0.5801526717557252,0.7480916030534351,-1.5419847328244274,-0.467041015625,-0.001708984375,-0.130126953125,1.4449999999999998
0.5801526717557252,0.9618320610687023,-1.2213740458015268,-0.46142578125,0.000732421875,-0.13916015625,1.4466999999999999
0.8702290076335878,0.9312977099236641,-1.3435114503816794,-0.460205078125,0.0048828125,-0.13330078125,1.4484
0.8396946564885496,0.9618320610687023,-1.2061068702290076,-0.466064453125,0.00390625,-0.12890625,1.4501
0.7022900763358778,0.9312977099236641,-1.2671755725190839,-0.46337890625,0.000732421875,-0.1318359375,1.4518
0.6412213740458015,0.9923664122137404,-1.3129770992366412,-0.461669921875,-0.00244140625,-0.133056640625,1.4535
0.6412213740458015,1.2213740458015268,-1.4045801526717556,-0.46337890625,0.0,-0.132080078125,1.4551999999999998
0.6564885496183206,1.0229007633587786,-1.297709923664122,-0.462890625,0.00048828125,-0.135498046875,1.4568999999999999
0.6106870229007634,1.1755725190839694,-1.465648854961832,-0.46435546875,-0.006591796875,-0.14208984375,1.4586
0.366412213740458,0.9923664122137404,-1.4045801526717556,-0.465576171875,-0.001953125,-0.13671875,1.4603
0.5648854961832062,0.8396946564885496,-1.251908396946565,-0.467041015625,-0.002685546875,-0.13232421875,1.462
0.5954198473282443,1.083969465648855,-1.282442748091603,-0.458251953125,-0.00048828125,-0.130615234375,1.4637
0.44274809160305345,0.8396946564885496,-1.4961832061068703,-0.466064453125,-0.003173828125,-0.13623046875,1.4653999999999998
0.7175572519083969,0.9465648854961832,-1.4809160305343512,-0.4697265625,-0.00146484375,-0.137451171875,1.4670999999999998
0.7938931297709924,0.7786259541984732,-1.282442748091603,-0.46875,0.0,-0.1376953125,1.4687999999999999
0.8702290076335878,0.8244274809160306,-1.1603053435114503,-0.45947265625,-0.0009765625,-0.133056640625,1.4705
0.9770992366412213,1.1145038167938932,-1.4809160305343512,-0.465576171875,0.005126953125,-0.130126953125,1.4722
0.8396946564885496,0.9312977099236641,-1.4351145038167938,-0.460205078125,0.00341796875,-0.137939453125,1.4739
0.8396946564885496,0.9923664122137404,-1.297709923664122,-0.46337890625,0.000244140625,-0.128173828125,1.4756
0.9465648854961832,0.9770992366412213,-1.2213740458015268,-0.467529296875,-0.003662109375,-0.137939453125,1.4772999999999998
1.0076335877862594,1.251908396946565,-1.3282442748091603,-0.46435546875,-0.001220703125,-0.135986328125,1.4789999999999999
1.0381679389312977,1.3435114503816794,-1.2366412213740459,-0.467529296875,-0.00439453125,-0.135498046875,1.4807
0.6870229007633588,1.3893129770992367,-1.465648854961832,-0.462890625,-0.001708984375,-0.140625,1.4824
0.7175572519083969,1.4045801526717556,-1.4045801526717556,-0.4658203125,-0.003662109375,-0.128173828125,1.4841
0.6412213740458015,1.4809160305343512,-1.5572519083969465,-0.466064453125,-0.00048828125,-0.13427734375,1.4858
0.9007633587786259,1.6030534351145038,-1.3587786259541985,-0.466796875,-0.0048828125,-0.136962890625,1.4874999999999998
0.8396946564885496,1.4351145038167938,-1.4198473282442747,-0.46923828125,-0.005859375,-0.130859375,1.4891999999999999
0.5343511450381679,1.7404580152671756,-1.4351145038167938,-0.467529296875,-0.004638671875,-0.134765625,1.4909
0.5801526717557252,1.7251908396946565,-1.5267175572519085,-0.470458984375,-0.0009765625,-0.13916015625,1.4926
0.6870229007633588,1.7404580152671756,-1.2061068702290076,-0.46875,-0.002197265625,-0.134033203125,1.4943
0.6717557251908397,1.8625954198473282,-1.3740458015267176,-0.469970703125,-0.00048828125,-0.134521484375,1.496
0.3511450381679389,1.5725190839694656,-1.3282442748091603,-0.465087890625,0.000244140625,-0.1298828125,1.4976999999999998
0.3511450381679389,1.6793893129770991,-1.6641221374045803,-0.47216796875,0.000732421875,-0.1298828125,1.4993999999999998
0.16793893129770993,1.6641221374045803,-1.5877862595419847,-0.466064453125,-0.0029296875,-0.135009765625,1.5010999999999999
0.42748091603053434,1.8625954198473282,-1.5877862595419847,-0.46826171875,-0.007568359375,-0.125244140625,1.5028
0.15267175572519084,1.5267175572519085,-1.618320610687023,-0.46826171875,0.00390625,-0.133056640625,1.5045
0.4122137404580153,1.5572519083969465,-1.4809160305343512,-0.467041015625,-0.007568359375,-0.135009765625,1.5062
0.015267175572519083,1.5572519083969465,-1.5267175572519085,-0.46728515625,-0.00634765625,-0.145751953125,1.5079
0.0916030534351145,1.5572519083969465,-1.5572519083969465,-0.465087890625,-0.0078125,-0.1318359375,1.5095999999999998
0.183206106870229,1.450381679389313,-1.5572519083969465,-0.46630859375,-0.000732421875,-0.132080078125,1.5112999999999999
0.183206106870229,1.3893129770992367,-1.6488549618320612,-0.469970703125,0.0,-0.12890625,1.513
-0.16793893129770993,1.4351145038167938,-1.4809160305343512,-0.46728515625,0.005126953125,-0.1416015625,1.5147
0.0,1.465648854961832,-1.5572519083969465,-0.463134765625,-0.00341796875,-0.14013671875,1.5164
0.12213740458015267,1.450381679389313,-1.618320610687023,-0.4677734375,0.004150390625,-0.139404296875,1.5181
-0.2900763358778626,1.5572519083969465,-1.3740458015267176,-0.468994140625,-0.0048828125,-0.143798828125,1.5197999999999998
-0.1984732824427481,1.4961832061068703,-1.450381679389313,-0.46923828125,0.005615234375,-0.1396484375,1.5214999999999999
-0.12213740458015267,1.282442748091603,-1.5725190839694656,-0.4638671875,-0.003662109375,-0.13623046875,1.5231999999999999
-0.04580152671755725,1.3129770992366412,-1.450381679389313,-0.46435546875,-0.00146484375,-0.1376953125,1.5249
-0.15267175572519084,1.465648854961832,-1.4198473282442747,-0.466552734375,-0.00048828125,-0.13720703125,1.5266
-0.44274809160305345,1.4351145038167938,-1.6030534351145038,-0.464599609375,0.001220703125,-0.133544921875,1.5283
-0.48854961832061067,1.5114503816793894,-1.4198473282442747,-0.464111328125,-0.00439453125,-0.140625,1.5299999999999998
-0.3969465648854962,1.4809160305343512,-1.4809160305343512,-0.465576171875,0.003662109375,-0.134521484375,1.5316999999999998
-0.48854961832061067,1.5725190839694656,-1.450381679389313,-0.4609375,0.002197265625,-0.134521484375,1.5333999999999999
-0.7022900763358778,1.465648854961832,-1.6030534351145038,-0.46630859375,-0.001220703125,-0.132568359375,1.5351
-0.732824427480916,1.4198473282442747,-1.5725190839694656,-0.464599609375,0.005615234375,-0.133056640625,1.5368
-0.7480916030534351,1.465648854961832,-1.6030534351145038,-0.463623046875,0.004150390625,-0.138916015625,1.5385
-0.9007633587786259,1.2671755725190839,-1.7251908396946565,-0.46044921875,0.0029296875,-0.1357421875,1.5402
-0.8091603053435115,1.3435114503816794,-1.5725190839694656,-0.46533203125,-0.00244140625,-0.136962890625,1.5418999999999998
-1.1145038167938932,1.3435114503816794,-1.6946564885496183,-0.4638671875,-0.000244140625,-0.136474609375,1.5435999999999999
-1.3587786259541985,1.5572519083969465,-1.7709923664122138,-0.46484375,0.00146484375,-0.125732421875,1.5453
-1.1755725190839694,1.6641221374045803,-1.6641221374045803,-0.467041015625,0.003173828125,-0.13037109375,1.547
-1.2366412213740459,1.251908396946565,-1.7404580152671756,-0.4599609375,-0.002197265625,-0.13720703125,1.5487
-1.3435114503816794,1.465648854961832,-1.6488549618320612,-0.46630859375,0.00439453125,-0.13525390625,1.5504
-1.465648854961832,1.4045801526717556,-1.816793893129771,-0.4609375,0.00732421875,-0.138427734375,1.5520999999999998
-1.5267175572519085,1.3129770992366412,-1.9389312977099236,-0.462890625,0.0009765625,-0.12890625,1.5537999999999998
-1.4351145038167938,1.297709923664122,-1.7557251908396947,-0.4638671875,-0.00048828125,-0.124755859375,1.5554999999999999
-1.297709923664122,1.282442748091603,-1.7251908396946565,-0.463134765625,0.0029296875,-0.125,1.5572
-1.0076335877862594,1.1145038167938932,-1.8625954198473282,-0.462158203125,0.0068359375,-0.12744140625,1.5589
-0.8244274809160306,1.3740458015267176,-1.83206106870229,-0.45947265625,0.00927734375,-0.1279296875,1.5606
-0.9618320610687023,1.3282442748091603,-1.8931297709923665,-0.4580078125,0.0048828125,-0.1376953125,1.5623
-0.9312977099236641,1.1908396946564885,-1.618320610687023,-0.4638671875,0.004638671875,-0.130859375,1.5639999999999998
-0.9007633587786259,1.0229007633587786,-1.7557251908396947,-0.4609375,0.003173828125,-0.128662109375,1.5656999999999999
-0.5343511450381679,1.1145038167938932,-1.4809160305343512,-0.463134765625,0.004150390625,-0.137451171875,1.5674
-0.732824427480916,1.1755725190839694,-1.7099236641221374,-0.46484375,0.00927734375,-0.131591796875,1.5691
-0.32061068702290074,1.083969465648855,-1.8015267175572518,-0.463623046875,0.006103515625,-0.1259765625,1.5708
-0.22900763358778625,1.251908396946565,-1.7557251908396947,-0.468017578125,0.00244140625,-0.13232421875,1.5725
-0.3816793893129771,1.2671755725190839,-1.7251908396946565,-0.465087890625,0.001220703125,-0.141357421875,1.5741999999999998
0.061068702290076333,1.3282442748091603,-1.8931297709923665,-0.460205078125,0.002685546875,-0.122314453125,1.5758999999999999
-0.030534351145038167,1.3740458015267176,-1.7251908396946565,-0.4638671875,0.010986328125,-0.135009765625,1.5776
0.15267175572519084,1.3129770992366412,-1.7709923664122138,-0.46337890625,0.0078125,-0.12841796875,1.5793
0.48854961832061067,1.4809160305343512,-1.618320610687023,-0.461181640625,0.000732421875,-0.130126953125,1.581
0.7938931297709924,1.5572519083969465,-1.8473282442748091,-0.463134765625,0.00390625,-0.127197265625,1.5827
0.6259541984732825,1.5267175572519085,-1.7404580152671756,-0.46240234375,0.004638671875,-0.131103515625,1.5843999999999998
0.7175572519083969,1.7251908396946565,-1.8778625954198473,-0.464111328125,0.002197265625,-0.140380859375,1.5860999999999998
0.8702290076335878,1.6488549618320612,-1.786259541984733,-0.461181640625,0.001953125,-0.127197265625,1.5877999999999999
0.8091603053435115,1.7557251908396947,-1.8015267175572518,-0.462890625,0.000732421875,-0.13330078125,1.5895
0.9770992366412213,1.8931297709923665,-1.8015267175572518,-0.466552734375,-0.00146484375,-0.1337890625,1.5912
1.1450381679389312,1.786259541984733,-1.984732824427481,-0.466064453125,0.00048828125,-0.1396484375,1.5929
1.2366412213740459,1.6030534351145038,-1.8015267175572518,-0.46142578125,0.001708984375,-0.13623046875,1.5946
1.1908396946564885,1.618320610687023,-1.8015267175572518,-0.46484375,0.003662109375,-0.13330078125,1.5962999999999998
1.3129770992366412,1.465648854961832,-1.83206106870229,-0.46337890625,0.004638671875,-0.1328125,1.5979999999999999
1.3740458015267176,1.3587786259541985,-1.984732824427481,-0.46533203125,0.00439453125,-0.127685546875,1.5997
1.465648854961832,1.4045801526717556,-1.7251908396946565,-0.4638671875,0.00341796875,-0.14306640625,1.6014
1.1603053435114503,1.4961832061068703,-1.8625954198473282,-0.460205078125,0.007080078125,-0.13134765625,1.6031
1.0534351145038168,1.4351145038167938,-1.7404580152671756,-0.466064453125,0.006591796875,-0.137451171875,1.6048
1.1908396946564885,1.4809160305343512,-1.8778625954198473,-0.458740234375,0.003173828125,-0.127685546875,1.6064999999999998
1.083969465648855,1.4045801526717556,-1.7709923664122138,-0.46435546875,0.00439453125,-0.12890625,1.6081999999999999
1.2213740458015268,1.297709923664122,-1.633587786259542,-0.467529296875,0.000732421875,-0.12548828125,1.6098999999999999
1.0534351145038168,1.3282442748091603,-1.5419847328244274,-0.46044921875,0.001220703125,-0.129150390625,1.6116
1.0076335877862594,1.465648854961832,-1.633587786259542,-0.465087890625,0.00634765625,-0.134033203125,1.6133
1.0534351145038168,1.5114503816793894,-1.5877862595419847,-0.4619140625,0.00537109375,-0.1376953125,1.615
0.916030534351145,1.5877862595419847,-1.6793893129770991,-0.4638671875,0.01123046875,-0.131591796875,1.6166999999999998
0.7022900763358778,1.3282442748091603,-1.5114503816793894,-0.4638671875,0.00537109375,-0.13037109375,1.6183999999999998
1.099236641221374,1.465648854961832,-1.5419847328244274,-0.463623046875,0.004150390625,-0.140380859375,1.6200999999999999
1.0076335877862594,1.4809160305343512,-1.5725190839694656,-0.46435546875,0.0009765625,-0.139892578125,1.6218
1.0534351145038168,1.4198473282442747,-1.7251908396946565,-0.462646484375,0.0068359375,-0.135009765625,1.6235
1.2671755725190839,1.3129770992366412,-1.5572519083969465,-0.465087890625,0.006591796875,-0.133056640625,1.6252
0.8702290076335878,1.3129770992366412,-1.5725190839694656,-0.465087890625,0.00390625,-0.14306640625,1.6269
1.297709923664122,1.3282442748091603,-1.3587786259541985,-0.463134765625,0.001708984375,-0.14404296875,1.6285999999999998
1.297709923664122,1.282442748091603,-1.4809160305343512,-0.4619140625,-0.0009765625,-0.13525390625,1.6302999999999999
1.4045801526717556,0.9618320610687023,-1.4045801526717556,-0.4638671875,0.002197265625,-0.135498046875,1.632
1.1297709923664123,0.9618320610687023,-1.5267175572519085,-0.463134765625,0.00048828125,-0.13427734375,1.6337
1.2213740458015268,0.8854961832061069,-1.5572519083969465,-0.465087890625,-0.0009765625,-0.131103515625,1.6354
1.1908396946564885,1.0381679389312977,-1.618320610687023,-0.464111328125,0.0,-0.141845703125,1.6371
1.4198473282442747,0.8244274809160306,-1.4961832061068703,-0.466064453125,0.0009765625,-0.130859375,1.6387999999999998
1.5267175572519085,0.9923664122137404,-1.3282442748091603,-0.468505859375,0.002197265625,-0.132568359375,1.6404999999999998
1.4961832061068703,0.8549618320610687,-1.4198473282442747,-0.468017578125,0.002685546875,-0.130859375,1.6421999999999999
1.5572519083969465,1.083969465648855,-1.4961832061068703,-0.472412109375,-0.00439453125,-0.140380859375,1.6439
1.4351145038167938,0.8091603053435115,-1.3740458015267176,-0.468017578125,-0.001220703125,-0.138916015625,1.6456
1.5267175572519085,0.9770992366412213,-1.2061068702290076,-0.47216796875,-0.002197265625,-0.13232421875,1.6473
1.3435114503816794,1.0687022900763359,-1.465648854961832,-0.463134765625,-0.0009765625,-0.127685546875,1.6489999999999998
1.6793893129770991,1.1908396946564885,-1.3740458015267176,-0.46630859375,0.00341796875,-0.134033203125,1.6506999999999998
1.5114503816793894,0.9770992366412213,-1.2366412213740459,-0.464599609375,0.00146484375,-0.132568359375,1.6523999999999999
1.2366412213740459,1.2671755725190839,-1.4198473282442747,-0.466796875,0.0029296875,-0.13525390625,1.6541
0.9923664122137404,1.3129770992366412,-1.465648854961832,-0.463134765625,0.001953125,-0.134521484375,1.6558
1.0229007633587786,1.2061068702290076,-1.251908396946565,-0.46728515625,0.00048828125,-0.1220703125,1.6575
1.282442748091603,1.1755725190839694,-1.3740458015267176,-0.463623046875,-0.0009765625,-0.13232421875,1.6592
1.1603053435114503,1.3129770992366412,-1.251908396946565,-0.469970703125,-0.00146484375,-0.1337890625,1.6608999999999998
1.1297709923664123,1.2061068702290076,-1.1145038167938932,-0.464111328125,-0.003662109375,-0.139892578125,1.6625999999999999
1.083969465648855,1.2671755725190839,-1.2366412213740459,-0.46337890625,-0.00048828125,-0.13916015625,1.6643
1.0534351145038168,1.2213740458015268,-1.4961832061068703,-0.463623046875,0.000732421875,-0.13134765625,1.666
1.0076335877862594,1.450381679389313,-1.1755725190839694,-0.466796875,0.003173828125,-0.1337890625,1.6677
0.8396946564885496,1.5419847328244274,-1.2671755725190839,-0.462158203125,0.001953125,-0.1298828125,1.6694
0.7938931297709924,1.4961832061068703,-1.4351145038167938,-0.46875,0.00146484375,-0.1318359375,1.6710999999999998
0.6870229007633588,1.2671755725190839,-1.3282442748091603,-0.470947265625,0.0,-0.1328125,1.6727999999999998
0.6870229007633588,1.450381679389313,-1.2671755725190839,-0.463134765625,-0.001953125,-0.13427734375,1.6744999999999999
0.7480916030534351,1.465648854961832,-1.282442748091603,-0.46533203125,-0.005859375,-0.145751953125,1.6762
0.5954198473282443,1.5267175572519085,-1.4351145038167938,-0.46728515625,0.005126953125,-0.1298828125,1.6779
0.5954198473282443,1.282442748091603,-1.3740458015267176,-0.4677734375,0.00048828125,-0.138671875,1.6796
0.7633587786259542,1.5572519083969465,-1.2061068702290076,-0.46435546875,-0.001953125,-0.14453125,1.6813
0.549618320610687,1.5725190839694656,-1.5725190839694656,-0.46435546875,0.003662109375,-0.130126953125,1.6829999999999998
0.48854961832061067,1.282442748091603,-1.3435114503816794,-0.46875,0.000732421875,-0.130859375,1.6846999999999999
0.5190839694656488,1.4961832061068703,-1.3893129770992367,-0.46435546875,-0.000244140625,-0.133544921875,1.6864
0.6412213740458015,1.3587786259541985,-1.3129770992366412,-0.461669921875,-0.00537109375,-0.135986328125,1.6881
0.5954198473282443,1.2671755725190839,-1.4809160305343512,-0.466552734375,-0.0009765625,-0.1279296875,1.6898
0.5343511450381679,1.1908396946564885,-1.4198473282442747,-0.46630859375,0.002685546875,-0.1337890625,1.6915
0.5801526717557252,1.3435114503816794,-1.4809160305343512,-0.463134765625,0.000732421875,-0.133544921875,1.6931999999999998
0.4580152671755725,1.0687022900763359,-1.5267175572519085,-0.46240234375,-0.003173828125,-0.13671875,1.6948999999999999
0.366412213740458,1.099236641221374,-1.4351145038167938,-0.468505859375,-0.005859375,-0.13037109375,1.6965999999999999
0.22900763358778625,1.083969465648855,-1.282442748091603,-0.46875,-0.00146484375,-0.129150390625,1.6983
0.4732824427480916,0.8854961832061069,-1.3129770992366412,-0.46337890625,-0.00048828125,-0.14013671875,1.7
0.5343511450381679,0.9465648854961832,-1.2213740458015268,-0.4619140625,-0.0029296875,-0.138671875,1.7017
0.4122137404580153,0.7938931297709924,-1.4809160305343512,-0.46435546875,-0.00341796875,-0.13427734375,1.7033999999999998
0.2748091603053435,0.6259541984732825,-1.3740458015267176,-0.463134765625,-0.001953125,-0.1298828125,1.7050999999999998
0.030534351145038167,0.9312977099236641,-1.4809160305343512,-0.462646484375,0.0078125,-0.13134765625,1.7067999999999999
0.04580152671755725,0.9923664122137404,-1.2061068702290076,-0.46142578125,0.003662109375,-0.135498046875,1.7085
0.3816793893129771,0.7480916030534351,-1.4809160305343512,-0.466796875,0.000244140625,-0.133544921875,1.7102
-0.07633587786259542,0.5648854961832062,-1.3893129770992367,-0.4599609375,-0.00244140625,-0.125732421875,1.7119
-0.04580152671755725,0.5801526717557252,-1.465648854961832,-0.46142578125,0.000732421875,-0.127197265625,1.7136
0.3053435114503817,0.6870229007633588,-1.0076335877862594,-0.46240234375,-0.00537109375,-0.135009765625,1.7152999999999998
0.4580152671755725,0.6259541984732825,-1.3587786259541985,-0.463134765625,-0.002685546875,-0.1318359375,1.7169999999999999
0.33587786259541985,0.44274809160305345,-1.2213740458015268,-0.4599609375,0.001953125,-0.141845703125,1.7187
0.4732824427480916,0.7633587786259542,-1.1908396946564885,-0.46337890625,0.003173828125,-0.138916015625,1.7204
0.4580152671755725,0.6412213740458015,-1.2671755725190839,-0.462646484375,-0.002197265625,-0.13818359375,1.7221
0.5343511450381679,0.6106870229007634,-1.3129770992366412,-0.470458984375,-0.000244140625,-0.13427734375,1.7238
0.5190839694656488,0.5343511450381679,-1.282442748091603,-0.46630859375,-0.00244140625,-0.130859375,1.7254999999999998
0.5954198473282443,0.6870229007633588,-1.3282442748091603,-0.468017578125,-0.00048828125,-0.13037109375,1.7271999999999998
0.4580152671755725,0.8854961832061069,-1.0076335877862594,-0.465576171875,0.0029296875,-0.14208984375,1.7288999999999999
0.5648854961832062,0.8702290076335878,-1.251908396946565,-0.464599609375,0.000732421875,-0.1376953125,1.7306
0.7633587786259542,0.8244274809160306,-1.2366412213740459,-0.4677734375,-0.001953125,-0.128662109375,1.7323
0.4122137404580153,0.8549618320610687,-1.2061068702290076,-0.462646484375,0.0,-0.1318359375,1.734
0.5038167938931297,0.7786259541984732,-1.3282442748091603,-0.45947265625,0.000732421875,-0.1298828125,1.7356999999999998
0.549618320610687,0.7175572519083969,-1.083969465648855,-0.4697265625,0.000732421875,-0.134765625,1.7373999999999998
0.5038167938931297,0.8091603053435115,-1.0534351145038168,-0.4697265625,0.00244140625,-0.12890625,1.7390999999999999
0.4732824427480916,0.9465648854961832,-1.3435114503816794,-0.45947265625,0.000732421875,-0.139892578125,1.7408
0.4732824427480916,0.8244274809160306,-0.9618320610687023,-0.46435546875,0.000244140625,-0.128662109375,1.7425
0.4580152671755725,0.8854961832061069,-1.0229007633587786,-0.463623046875,0.000244140625,-0.131103515625,1.7442
0.366412213740458,0.6870229007633588,-0.9312977099236641,-0.45849609375,0.001708984375,-0.135009765625,1.7459
0.2900763358778626,0.7786259541984732,-0.916030534351145,-0.46240234375,0.002197265625,-0.13720703125,1.7475999999999998
0.33587786259541985,0.8854961832061069,-1.0687022900763359,-0.464599609375,0.0,-0.1337890625,1.7492999999999999
0.2748091603053435,0.5954198473282443,-0.9923664122137404,-0.4658203125,0.008056640625,-0.14208984375,1.751
0.3053435114503817,0.6259541984732825,-0.916030534351145,-0.464599609375,0.0068359375,-0.1435546875,1.7527
0.549618320610687,0.5190839694656488,-1.2366412213740459,-0.46630859375,0.001220703125,-0.134033203125,1.7544
0.5038167938931297,0.8854961832061069,-0.9923664122137404,-0.462158203125,0.0009765625,-0.132080078125,1.7561
0.48854961832061067,0.7938931297709924,-0.7938931297709924,-0.4619140625,0.002197265625,-0.12890625,1.7577999999999998
0.5038167938931297,0.8091603053435115,-0.9465648854961832,-0.462890625,0.00390625,-0.131591796875,1.7594999999999998
0.5343511450381679,0.9007633587786259,-1.0229007633587786,-0.46435546875,0.003173828125,-0.1220703125,1.7611999999999999
0.6870229007633588,0.9618320610687023,-0.8702290076335878,-0.465576171875,0.00146484375,-0.13720703125,1.7629
0.7480916030534351,0.9923664122137404,-0.9465648854961832,-0.4658203125,0.005859375,-0.136474609375,1.7646
0.6717557251908397,1.0076335877862594,-0.7022900763358778,-0.4599609375,0.000244140625,-0.135009765625,1.7663
0.6412213740458015,0.8854961832061069,-0.7480916030534351,-0.46875,0.00146484375,-0.1298828125,1.7679999999999998
0.732824427480916,1.099236641221374,-0.9618320610687023,-0.464599609375,0.004638671875,-0.128173828125,1.7696999999999998
0.732824427480916,1.083969465648855,-0.7633587786259542,-0.4599609375,0.004150390625,-0.1337890625,1.7713999999999999
0.6106870229007634,1.0534351145038168,-0.7022900763358778,-0.467529296875,0.009033203125,-0.13427734375,1.7731
0.6717557251908397,1.3740458015267176,-0.6870229007633588,-0.468994140625,0.005615234375,-0.127197265625,1.7748
0.3816793893129771,1.2213740458015268,-0.7480916030534351,-0.467529296875,-0.001220703125,-0.1318359375,1.7765
0.4122137404580153,1.1297709923664123,-0.8244274809160306,-0.46142578125,0.00341796875,-0.137451171875,1.7782
0.3053435114503817,1.4351145038167938,-0.9923664122137404,-0.46142578125,0.008056640625,-0.1328125,1.7798999999999998
0.32061068702290074,1.3282442748091603,-0.8549618320610687,-0.45849609375,0.001953125,-0.126953125,1.7815999999999999
0.1984732824427481,1.297709923664122,-0.8396946564885496,-0.463623046875,-0.001953125,-0.1298828125,1.7832999999999999
0.4122137404580153,1.282442748091603,-0.916030534351145,-0.4677734375,0.000244140625,-0.13330078125,1.785
0.3053435114503817,0.9923664122137404,-1.282442748091603,-0.46728515625,-0.000732421875,-0.130126953125,1.7867
0.3816793893129771,1.2061068702290076,-0.8244274809160306,-0.465087890625,0.0029296875,-0.13134765625,1.7884
0.44274809160305345,1.1145038167938932,-0.9465648854961832,-0.458984375,0.001708984375,-0.126220703125,1.7900999999999998
0.5954198473282443,0.9007633587786259,-0.9618320610687023,-0.456787109375,-0.00048828125,-0.126953125,1.7917999999999998
0.6106870229007634,0.8854961832061069,-0.9007633587786259,-0.46630859375,0.0029296875,-0.1328125,1.7934999999999999
