gyrox1,gyroy1,gyroz1,accelx1,accely1,accelz1,Time
0.0916030534351145,1.7709923664122138,-0.8244274809160306,-0.447509765625,-0.08203125,-0.20947265625,0.0
0.0,1.7557251908396947,-0.9007633587786259,-0.453857421875,-0.082275390625,-0.21044921875,0.0017
0.12213740458015267,1.8015267175572518,-0.7786259541984732,-0.45361328125,-0.0859375,-0.212158203125,0.0034
0.44274809160305345,1.6488549618320612,-0.9007633587786259,-0.448486328125,-0.079833984375,-0.2041015625,0.0050999999999999995
0.22900763358778625,1.786259541984733,-0.6870229007633588,-0.4521484375,-0.082763671875,-0.20751953125,0.0068
0.21374045801526717,1.8015267175572518,-0.7938931297709924,-0.454833984375,-0.0791015625,-0.206298828125,0.008499999999999999
0.3053435114503817,1.6946564885496183,-0.7022900763358778,-0.449951171875,-0.082275390625,-0.2080078125,0.010199999999999999
0.32061068702290074,1.7404580152671756,-0.8396946564885496,-0.450439453125,-0.078857421875,-0.205078125,0.011899999999999999
0.366412213740458,1.6946564885496183,-0.7175572519083969,-0.455322265625,-0.079345703125,-0.212158203125,0.0136
0.3969465648854962,1.6946564885496183,-0.7633587786259542,-0.450439453125,-0.081787109375,-0.2109375,0.0153
0.5801526717557252,1.6030534351145038,-0.732824427480916,-0.448486328125,-0.07958984375,-0.216064453125,0.016999999999999998
0.48854961832061067,1.5572519083969465,-0.8396946564885496,-0.446533203125,-0.080810546875,-0.2021484375,0.018699999999999998
0.48854961832061067,1.6946564885496183,-0.6259541984732825,-0.44921875,-0.081787109375,-0.209228515625,0.020399999999999998
0.5038167938931297,1.6030534351145038,-0.8091603053435115,-0.44921875,-0.07861328125,-0.204345703125,0.022099999999999998
0.22900763358778625,1.465648854961832,-0.6412213740458015,-0.44873046875,-0.0791015625,-0.21044921875,0.023799999999999998
0.2595419847328244,1.3435114503816794,-0.7480916030534351,-0.448974609375,-0.077880859375,-0.21142578125,0.0255
0.2595419847328244,1.3893129770992367,-0.6564885496183206,-0.448486328125,-0.0791015625,-0.205810546875,0.0272
0.0916030534351145,1.4045801526717556,-0.8549618320610687,-0.4501953125,-0.076171875,-0.216796875,0.0289
0.061068702290076333,1.3587786259541985,-0.7786259541984732,-0.453125,-0.077392578125,-0.2099609375,0.0306
0.07633587786259542,1.282442748091603,-0.7175572519083969,-0.450927734375,-0.0771484375,-0.21826171875,0.032299999999999995
-0.1984732824427481,1.3587786259541985,-0.5648854961832062,-0.445556640625,-0.076416015625,-0.21142578125,0.033999999999999996
0.015267175572519083,1.1755725190839694,-0.732824427480916,-0.450439453125,-0.080078125,-0.206298828125,0.035699999999999996
-0.13740458015267176,1.282442748091603,-0.6564885496183206,-0.44873046875,-0.07373046875,-0.21240234375,0.037399999999999996
-0.4580152671755725,1.3129770992366412,-0.732824427480916,-0.450927734375,-0.076416015625,-0.208251953125,0.039099999999999996
-0.3053435114503817,1.2061068702290076,-0.48854961832061067,-0.447998046875,-0.0791015625,-0.207763671875,0.040799999999999996
-0.13740458015267176,1.0687022900763359,-0.5343511450381679,-0.4482421875,-0.078125,-0.215576171875,0.042499999999999996
-0.32061068702290074,1.1145038167938932,-0.5801526717557252,-0.453125,-0.073486328125,-0.20751953125,0.044199999999999996
-0.4732824427480916,1.1297709923664123,-0.6564885496183206,-0.449951171875,-0.076416015625,-0.216064453125,0.045899999999999996
-0.42748091603053434,1.0381679389312977,-0.4732824427480916,-0.4443359375,-0.0791015625,-0.209716796875,0.047599999999999996
-0.33587786259541985,1.1145038167938932,-0.42748091603053434,-0.449462890625,-0.07470703125,-0.20458984375,0.0493
-0.48854961832061067,1.0534351145038168,-0.5343511450381679,-0.452880859375,-0.078369140625,-0.21875,0.051
-0.48854961832061067,1.0687022900763359,-0.4122137404580153,-0.453369140625,-0.07666015625,-0.220947265625,0.0527
-0.4122137404580153,1.1145038167938932,-0.366412213740458,-0.450927734375,-0.073486328125,-0.216552734375,0.0544
-0.366412213740458,1.251908396946565,-0.5038167938931297,-0.454345703125,-0.08203125,-0.209228515625,0.0561
-0.366412213740458,1.099236641221374,-0.42748091603053434,-0.453369140625,-0.078125,-0.215087890625,0.0578
-0.33587786259541985,1.2061068702290076,-0.5343511450381679,-0.45263671875,-0.076904296875,-0.208984375,0.0595
-0.3053435114503817,1.1450381679389312,-0.4122137404580153,-0.45751953125,-0.0791015625,-0.21337890625,0.0612
-0.366412213740458,1.3740458015267176,-0.4122137404580153,-0.448974609375,-0.080078125,-0.208740234375,0.0629
-0.2748091603053435,1.297709923664122,-0.48854961832061067,-0.452880859375,-0.07568359375,-0.207275390625,0.06459999999999999
-0.22900763358778625,1.2213740458015268,-0.44274809160305345,-0.44970703125,-0.074462890625,-0.21337890625,0.0663
-0.5190839694656488,1.2061068702290076,-0.32061068702290074,-0.447509765625,-0.0791015625,-0.215087890625,0.06799999999999999
-0.33587786259541985,1.4198473282442747,-0.5343511450381679,-0.451904296875,-0.078125,-0.214599609375,0.0697
-0.10687022900763359,1.2213740458015268,-0.5190839694656488,-0.44970703125,-0.084228515625,-0.21435546875,0.07139999999999999
-0.44274809160305345,1.4045801526717556,-0.5648854961832062,-0.45458984375,-0.073974609375,-0.205078125,0.0731
-0.24427480916030533,1.5267175572519085,-0.7175572519083969,-0.45751953125,-0.0771484375,-0.214111328125,0.07479999999999999
-0.22900763358778625,1.633587786259542,-0.5343511450381679,-0.454833984375,-0.080810546875,-0.21142578125,0.0765
-0.2900763358778626,1.5267175572519085,-0.5954198473282443,-0.456298828125,-0.08349609375,-0.2099609375,0.07819999999999999
-0.07633587786259542,1.450381679389313,-0.6564885496183206,-0.455322265625,-0.07470703125,-0.206298828125,0.0799
-0.061068702290076333,1.3740458015267176,-0.7022900763358778,-0.454833984375,-0.07958984375,-0.20654296875,0.08159999999999999
-0.04580152671755725,1.3435114503816794,-0.5801526717557252,-0.453369140625,-0.076904296875,-0.2109375,0.0833
0.15267175572519084,1.3740458015267176,-0.6870229007633588,-0.450927734375,-0.079833984375,-0.20947265625,0.08499999999999999
0.061068702290076333,1.4961832061068703,-0.6106870229007634,-0.454833984375,-0.06982421875,-0.214111328125,0.0867
0.13740458015267176,1.633587786259542,-0.7022900763358778,-0.455810546875,-0.0791015625,-0.209228515625,0.08839999999999999
0.015267175572519083,1.5267175572519085,-0.7938931297709924,-0.453857421875,-0.080078125,-0.21240234375,0.0901
0.10687022900763359,1.5572519083969465,-0.8702290076335878,-0.452392578125,-0.0771484375,-0.214599609375,0.09179999999999999
0.030534351145038167,1.633587786259542,-0.8854961832061069,-0.4580078125,-0.076171875,-0.208740234375,0.0935
0.0,1.4809160305343512,-0.8091603053435115,-0.451416015625,-0.077880859375,-0.212890625,0.09519999999999999
0.04580152671755725,1.618320610687023,-1.083969465648855,-0.451171875,-0.077880859375,-0.20556640625,0.0969
-0.0916030534351145,1.8473282442748091,-0.7633587786259542,-0.448974609375,-0.078857421875,-0.20654296875,0.0986
-0.07633587786259542,1.6488549618320612,-1.0076335877862594,-0.454833984375,-0.078369140625,-0.20703125,0.1003
-0.015267175572519083,1.7251908396946565,-0.916030534351145,-0.451171875,-0.07421875,-0.208251953125,0.102
-0.030534351145038167,1.4961832061068703,-0.9312977099236641,-0.453857421875,-0.070068359375,-0.205810546875,0.1037
-0.22900763358778625,1.4351145038167938,-0.9007633587786259,-0.450439453125,-0.083251953125,-0.211669921875,0.1054
0.12213740458015267,1.5572519083969465,-1.0381679389312977,-0.450927734375,-0.076171875,-0.215576171875,0.1071
0.16793893129770993,1.3435114503816794,-1.0229007633587786,-0.453369140625,-0.077880859375,-0.207275390625,0.1088
0.10687022900763359,1.7404580152671756,-1.0229007633587786,-0.448486328125,-0.080810546875,-0.214111328125,0.11049999999999999
0.10687022900763359,1.8778625954198473,-1.099236641221374,-0.45361328125,-0.08251953125,-0.209228515625,0.1122
0.1984732824427481,1.7099236641221374,-1.1603053435114503,-0.45263671875,-0.07958984375,-0.20751953125,0.11389999999999999
0.2595419847328244,1.465648854961832,-1.2061068702290076,-0.455810546875,-0.07666015625,-0.204345703125,0.1156
0.2748091603053435,1.6030534351145038,-1.2213740458015268,-0.456298828125,-0.0791015625,-0.214111328125,0.11729999999999999
0.2595419847328244,1.5114503816793894,-0.9618320610687023,-0.45556640625,-0.078857421875,-0.21337890625,0.119
0.33587786259541985,1.4351145038167938,-1.1603053435114503,-0.451416015625,-0.075439453125,-0.213623046875,0.12069999999999999
0.5190839694656488,1.465648854961832,-1.1297709923664123,-0.451416015625,-0.077392578125,-0.215087890625,0.1224
0.4732824427480916,1.5877862595419847,-0.8854961832061069,-0.451171875,-0.071533203125,-0.208251953125,0.12409999999999999
0.3053435114503817,1.5725190839694656,-1.0381679389312977,-0.456298828125,-0.074462890625,-0.20849609375,0.1258
0.4580152671755725,1.7099236641221374,-1.0229007633587786,-0.451904296875,-0.083251953125,-0.208740234375,0.1275
0.4122137404580153,1.6641221374045803,-0.9465648854961832,-0.455078125,-0.079345703125,-0.216552734375,0.12919999999999998
0.4732824427480916,1.618320610687023,-0.9770992366412213,-0.4560546875,-0.076171875,-0.203125,0.1309
0.4580152671755725,1.6946564885496183,-1.0687022900763359,-0.45556640625,-0.077392578125,-0.205810546875,0.1326
0.44274809160305345,1.6793893129770991,-0.9618320610687023,-0.45361328125,-0.083740234375,-0.2109375,0.1343
0.42748091603053434,1.7099236641221374,-1.0381679389312977,-0.45068359375,-0.07958984375,-0.217041015625,0.13599999999999998
0.4122137404580153,1.7251908396946565,-1.0229007633587786,-0.455810546875,-0.076416015625,-0.22021484375,0.1377
0.3511450381679389,1.6641221374045803,-1.0076335877862594,-0.45068359375,-0.081298828125,-0.215576171875,0.1394
0.42748091603053434,1.5419847328244274,-0.8854961832061069,-0.453857421875,-0.076171875,-0.20654296875,0.1411
0.3511450381679389,1.4961832061068703,-0.9770992366412213,-0.452880859375,-0.076416015625,-0.208740234375,0.14279999999999998
0.0916030534351145,1.450381679389313,-0.8396946564885496,-0.448486328125,-0.07861328125,-0.209716796875,0.1445
0.2900763358778626,1.5267175572519085,-0.9770992366412213,-0.452392578125,-0.08154296875,-0.21240234375,0.1462
0.3816793893129771,1.5572519083969465,-0.7786259541984732,-0.449462890625,-0.080322265625,-0.212158203125,0.1479
0.21374045801526717,1.5725190839694656,-0.7480916030534351,-0.453857421875,-0.0751953125,-0.21484375,0.14959999999999998
0.2748091603053435,1.6030534351145038,-0.7633587786259542,-0.447998046875,-0.077880859375,-0.2080078125,0.1513
0.2595419847328244,1.4198473282442747,-0.9923664122137404,-0.448974609375,-0.0771484375,-0.211181640625,0.153
0.12213740458015267,1.4045801526717556,-0.5801526717557252,-0.451904296875,-0.083251953125,-0.207275390625,0.1547
0.42748091603053434,1.4045801526717556,-0.916030534351145,-0.452392578125,-0.07958984375,-0.204833984375,0.15639999999999998
0.32061068702290074,1.3587786259541985,-0.7938931297709924,-0.451904296875,-0.07958984375,-0.209716796875,0.1581
0.21374045801526717,1.3435114503816794,-0.7633587786259542,-0.447021484375,-0.078369140625,-0.20849609375,0.1598
0.42748091603053434,1.450381679389313,-0.8854961832061069,-0.452392578125,-0.07470703125,-0.2099609375,0.1615
0.21374045801526717,1.282442748091603,-0.9618320610687023,-0.45458984375,-0.081298828125,-0.211669921875,0.16319999999999998
0.16793893129770993,1.1603053435114503,-0.8396946564885496,-0.44970703125,-0.0791015625,-0.21337890625,0.1649
0.3053435114503817,1.1603053435114503,-0.7938931297709924,-0.451171875,-0.077392578125,-0.204833984375,0.1666
0.15267175572519084,1.1145038167938932,-0.8396946564885496,-0.449462890625,-0.078857421875,-0.21044921875,0.16829999999999998
0.3053435114503817,1.2671755725190839,-1.0076335877862594,-0.454833984375,-0.080810546875,-0.210205078125,0.16999999999999998
0.15267175572519084,1.297709923664122,-0.7938931297709924,-0.447998046875,-0.080322265625,-0.217041015625,0.1717
0.3816793893129771,1.2671755725190839,-0.9465648854961832,-0.447509765625,-0.0830078125,-0.20849609375,0.1734
0.3511450381679389,1.1450381679389312,-0.7938931297709924,-0.44580078125,-0.08203125,-0.2158203125,0.17509999999999998
0.15267175572519084,1.0687022900763359,-0.8244274809160306,-0.44873046875,-0.075927734375,-0.215087890625,0.17679999999999998
0.2748091603053435,1.2061068702290076,-0.6717557251908397,-0.448974609375,-0.0771484375,-0.214599609375,0.1785
0.24427480916030533,1.3435114503816794,-0.8854961832061069,-0.446044921875,-0.082275390625,-0.204833984375,0.1802
0.24427480916030533,1.3740458015267176,-0.732824427480916,-0.44873046875,-0.081787109375,-0.202880859375,0.18189999999999998
0.12213740458015267,1.2671755725190839,-0.8702290076335878,-0.44970703125,-0.0771484375,-0.2099609375,0.18359999999999999
0.0916030534351145,1.3740458015267176,-0.5648854961832062,-0.45068359375,-0.081787109375,-0.215087890625,0.1853
0.13740458015267176,1.2213740458015268,-0.8549618320610687,-0.44970703125,-0.081787109375,-0.208740234375,0.187
0.22900763358778625,1.099236641221374,-0.732824427480916,-0.4501953125,-0.075439453125,-0.2060546875,0.18869999999999998
0.183206106870229,1.0381679389312977,-0.6412213740458015,-0.44677734375,-0.081298828125,-0.200439453125,0.19039999999999999
0.183206106870229,0.9923664122137404,-0.6870229007633588,-0.451171875,-0.077392578125,-0.201904296875,0.1921
0.04580152671755725,0.9618320610687023,-0.6259541984732825,-0.44580078125,-0.074951171875,-0.2109375,0.1938
0.24427480916030533,0.8702290076335878,-0.48854961832061067,-0.451904296875,-0.079345703125,-0.20703125,0.19549999999999998
0.33587786259541985,0.8549618320610687,-0.5648854961832062,-0.455078125,-0.078125,-0.21435546875,0.1972
0.1984732824427481,0.7786259541984732,-0.3816793893129771,-0.44921875,-0.086181640625,-0.212646484375,0.1989
0.42748091603053434,1.0229007633587786,-0.48854961832061067,-0.450439453125,-0.078125,-0.21826171875,0.2006
0.3969465648854962,0.9923664122137404,-0.5190839694656488,-0.45458984375,-0.082275390625,-0.208740234375,0.20229999999999998
0.3053435114503817,1.1145038167938932,-0.6412213740458015,-0.451416015625,-0.076416015625,-0.211669921875,0.204
0.5954198473282443,0.9618320610687023,-0.3816793893129771,-0.454833984375,-0.07666015625,-0.20458984375,0.2057
0.6259541984732825,1.0687022900763359,-0.48854961832061067,-0.453369140625,-0.081787109375,-0.2109375,0.2074
0.732824427480916,1.1145038167938932,-0.5954198473282443,-0.4541015625,-0.0771484375,-0.20654296875,0.20909999999999998
0.9007633587786259,1.0229007633587786,-0.732824427480916,-0.4560546875,-0.082275390625,-0.205322265625,0.2108
0.7633587786259542,0.916030534351145,-0.5801526717557252,-0.45556640625,-0.080078125,-0.210205078125,0.2125
0.6564885496183206,1.0229007633587786,-0.7480916030534351,-0.45556640625,-0.081298828125,-0.2060546875,0.2142
0.6106870229007634,0.9465648854961832,-0.6717557251908397,-0.450927734375,-0.07958984375,-0.210205078125,0.21589999999999998
0.8091603053435115,0.7786259541984732,-0.7022900763358778,-0.451416015625,-0.0791015625,-0.210205078125,0.2176
0.6717557251908397,0.8244274809160306,-0.549618320610687,-0.44677734375,-0.076904296875,-0.209228515625,0.2193
0.7175572519083969,0.8396946564885496,-0.8854961832061069,-0.447021484375,-0.07666015625,-0.21337890625,0.22099999999999997
0.6870229007633588,0.9007633587786259,-0.7938931297709924,-0.452880859375,-0.076171875,-0.216064453125,0.22269999999999998
0.6412213740458015,0.916030534351145,-0.8702290076335878,-0.450927734375,-0.07421875,-0.21826171875,0.2244
0.7175572519083969,0.8702290076335878,-0.5954198473282443,-0.447509765625,-0.076171875,-0.21728515625,0.2261
0.42748091603053434,1.083969465648855,-0.8702290076335878,-0.450927734375,-0.077880859375,-0.21337890625,0.22779999999999997
0.3969465648854962,0.9770992366412213,-0.6259541984732825,-0.45703125,-0.076171875,-0.2236328125,0.22949999999999998
0.3053435114503817,1.0076335877862594,-0.6870229007633588,-0.454345703125,-0.080078125,-0.213134765625,0.2312
0.4732824427480916,1.083969465648855,-0.8854961832061069,-0.450927734375,-0.07373046875,-0.220703125,0.2329
0.2748091603053435,1.1145038167938932,-0.7022900763358778,-0.45458984375,-0.080810546875,-0.208740234375,0.23459999999999998
0.2748091603053435,0.9923664122137404,-0.5801526717557252,-0.45703125,-0.0791015625,-0.207275390625,0.23629999999999998
0.48854961832061067,1.099236641221374,-0.8702290076335878,-0.453857421875,-0.080078125,-0.21142578125,0.238
0.48854961832061067,1.2061068702290076,-0.7938931297709924,-0.4609375,-0.07568359375,-0.2158203125,0.2397
0.4122137404580153,1.2366412213740459,-0.7786259541984732,-0.45263671875,-0.080810546875,-0.210205078125,0.24139999999999998
0.4580152671755725,1.251908396946565,-0.7175572519083969,-0.451416015625,-0.07666015625,-0.20947265625,0.24309999999999998
0.48854961832061067,1.251908396946565,-0.8854961832061069,-0.44873046875,-0.077880859375,-0.21142578125,0.2448
0.5038167938931297,1.465648854961832,-0.8091603053435115,-0.4560546875,-0.077392578125,-0.219482421875,0.2465
0.44274809160305345,1.3893129770992367,-0.7938931297709924,-0.457275390625,-0.076171875,-0.217529296875,0.24819999999999998
0.5343511450381679,1.4351145038167938,-0.6106870229007634,-0.45263671875,-0.078369140625,-0.215576171875,0.24989999999999998
0.6106870229007634,1.4351145038167938,-0.8854961832061069,-0.45458984375,-0.08056640625,-0.21435546875,0.2516
0.5343511450381679,1.3740458015267176,-0.6412213740458015,-0.452880859375,-0.077392578125,-0.213134765625,0.25329999999999997
0.4580152671755725,1.5419847328244274,-0.8702290076335878,-0.45068359375,-0.07958984375,-0.205810546875,0.255
0.4580152671755725,1.5877862595419847,-0.7480916030534351,-0.44775390625,-0.08154296875,-0.217529296875,0.2567
0.732824427480916,1.5877862595419847,-0.8396946564885496,-0.454345703125,-0.080322265625,-0.216796875,0.25839999999999996
0.5038167938931297,1.4351145038167938,-0.8244274809160306,-0.450439453125,-0.07861328125,-0.213623046875,0.2601
0.7480916030534351,1.465648854961832,-0.916030534351145,-0.449462890625,-0.072265625,-0.216064453125,0.2618
0.8244274809160306,1.450381679389313,-0.732824427480916,-0.44677734375,-0.082275390625,-0.20849609375,0.2635
0.7022900763358778,1.4198473282442747,-0.732824427480916,-0.451171875,-0.079833984375,-0.206298828125,0.2652
0.9007633587786259,1.3893129770992367,-0.7022900763358778,-0.4501953125,-0.077880859375,-0.212158203125,0.26689999999999997
0.7175572519083969,1.2671755725190839,-0.6106870229007634,-0.4541015625,-0.07763671875,-0.211669921875,0.2686
0.6564885496183206,1.1908396946564885,-0.7938931297709924,-0.454345703125,-0.080322265625,-0.21630859375,0.2703
0.7480916030534351,1.083969465648855,-0.732824427480916,-0.45166015625,-0.078857421875,-0.21337890625,0.27199999999999996
0.6870229007633588,1.1603053435114503,-0.6106870229007634,-0.451904296875,-0.08154296875,-0.203369140625,0.2737
0.7786259541984732,1.1908396946564885,-0.7938931297709924,-0.450439453125,-0.0791015625,-0.20947265625,0.2754
0.6717557251908397,1.282442748091603,-0.7633587786259542,-0.449951171875,-0.076171875,-0.207763671875,0.27709999999999996
0.8091603053435115,1.297709923664122,-0.8702290076335878,-0.453369140625,-0.079345703125,-0.208740234375,0.2788
0.8244274809160306,1.4351145038167938,-0.6717557251908397,-0.452880859375,-0.075927734375,-0.206298828125,0.28049999999999997
0.9465648854961832,1.4045801526717556,-0.7480916030534351,-0.450927734375,-0.075927734375,-0.209716796875,0.2822
0.9770992366412213,1.1603053435114503,-0.6717557251908397,-0.451904296875,-0.08251953125,-0.20849609375,0.2839
0.9007633587786259,1.251908396946565,-0.8091603053435115,-0.450927734375,-0.077392578125,-0.214599609375,0.28559999999999997
1.1603053435114503,1.1755725190839694,-0.7938931297709924,-0.451171875,-0.07666015625,-0.20458984375,0.2873
0.916030534351145,1.3587786259541985,-0.6259541984732825,-0.4521484375,-0.078369140625,-0.212890625,0.289
0.8702290076335878,1.1450381679389312,-0.6870229007633588,-0.451416015625,-0.078125,-0.208984375,0.29069999999999996
1.1297709923664123,1.0687022900763359,-0.6870229007633588,-0.448974609375,-0.0751953125,-0.207275390625,0.2924
1.1145038167938932,1.0229007633587786,-0.549618320610687,-0.44921875,-0.075927734375,-0.209716796875,0.2941
1.1755725190839694,0.916030534351145,-0.6564885496183206,-0.4482421875,-0.076904296875,-0.210205078125,0.2958
1.2213740458015268,0.7786259541984732,-0.4580152671755725,-0.44921875,-0.077392578125,-0.205322265625,0.2975
1.1755725190839694,0.8244274809160306,-0.4580152671755725,-0.456298828125,-0.07763671875,-0.214111328125,0.29919999999999997
0.9312977099236641,0.6259541984732825,-0.5343511450381679,-0.455078125,-0.076171875,-0.205810546875,0.3009
0.9770992366412213,0.6106870229007634,-0.4580152671755725,-0.453125,-0.077392578125,-0.20361328125,0.3026
1.1145038167938932,0.5343511450381679,-0.5801526717557252,-0.44677734375,-0.0771484375,-0.205078125,0.30429999999999996
0.9312977099236641,0.6412213740458015,-0.4122137404580153,-0.453369140625,-0.07470703125,-0.21826171875,0.306
0.9007633587786259,0.5190839694656488,-0.42748091603053434,-0.454833984375,-0.077880859375,-0.207763671875,0.3077
0.9923664122137404,0.549618320610687,-0.2748091603053435,-0.454345703125,-0.07421875,-0.208984375,0.3094
1.099236641221374,0.549618320610687,-0.5038167938931297,-0.450927734375,-0.074951171875,-0.208740234375,0.3111
1.0076335877862594,0.4732824427480916,-0.3816793893129771,-0.45166015625,-0.075927734375,-0.200439453125,0.31279999999999997
1.1297709923664123,0.42748091603053434,-0.6106870229007634,-0.453369140625,-0.078369140625,-0.21630859375,0.3145
1.1450381679389312,0.3511450381679389,-0.3816793893129771,-0.45703125,-0.078857421875,-0.218017578125,0.3162
0.9770992366412213,0.5954198473282443,-0.3511450381679389,-0.453125,-0.076904296875,-0.208251953125,0.31789999999999996
1.251908396946565,0.6564885496183206,-0.3511450381679389,-0.4501953125,-0.076416015625,-0.21435546875,0.3196
1.465648854961832,0.6412213740458015,-0.5801526717557252,-0.4501953125,-0.080322265625,-0.2099609375,0.3213
1.2671755725190839,0.4580152671755725,-0.2595419847328244,-0.451416015625,-0.08203125,-0.213623046875,0.323
1.282442748091603,0.5648854961832062,-0.4122137404580153,-0.45556640625,-0.07421875,-0.201416015625,0.3247
1.4045801526717556,0.6106870229007634,-0.5801526717557252,-0.458740234375,-0.07763671875,-0.208984375,0.32639999999999997
1.282442748091603,0.6717557251908397,-0.44274809160305345,-0.456298828125,-0.0771484375,-0.212890625,0.3281
1.1908396946564885,0.5343511450381679,-0.2900763358778626,-0.447509765625,-0.076904296875,-0.212890625,0.3298
1.1908396946564885,0.3969465648854962,-0.3816793893129771,-0.452880859375,-0.072509765625,-0.21435546875,0.33149999999999996
1.1450381679389312,0.42748091603053434,-0.6412213740458015,-0.450927734375,-0.072998046875,-0.2109375,0.3332
1.1297709923664123,0.5038167938931297,-0.5343511450381679,-0.453369140625,-0.075927734375,-0.213134765625,0.3349
0.9770992366412213,0.3511450381679389,-0.5343511450381679,-0.452392578125,-0.0751953125,-0.207763671875,0.33659999999999995
1.0381679389312977,0.4122137404580153,-0.6259541984732825,-0.456787109375,-0.0751953125,-0.210205078125,0.3383
1.1297709923664123,0.6106870229007634,-0.5954198473282443,-0.449462890625,-0.072998046875,-0.216552734375,0.33999999999999997
1.0381679389312977,0.6412213740458015,-0.4732824427480916,-0.453125,-0.076171875,-0.216552734375,0.3417
0.8396946564885496,0.6412213740458015,-0.4580152671755725,-0.4541015625,-0.07666015625,-0.212158203125,0.3434
0.7786259541984732,0.6564885496183206,-0.6106870229007634,-0.45654296875,-0.082763671875,-0.209228515625,0.34509999999999996
0.916030534351145,0.8396946564885496,-0.5190839694656488,-0.453125,-0.074462890625,-0.21044921875,0.3468
0.7022900763358778,0.7480916030534351,-0.5648854961832062,-0.45263671875,-0.07470703125,-0.21533203125,0.3485
0.9007633587786259,0.732824427480916,-0.6412213740458015,-0.455078125,-0.0771484375,-0.21630859375,0.35019999999999996
0.7786259541984732,0.916030534351145,-0.7022900763358778,-0.45654296875,-0.075439453125,-0.208740234375,0.3519
0.8244274809160306,1.0381679389312977,-0.6717557251908397,-0.4521484375,-0.076416015625,-0.20947265625,0.35359999999999997
0.8854961832061069,1.0381679389312977,-0.7633587786259542,-0.452880859375,-0.078125,-0.220947265625,0.3553
0.9618320610687023,1.0076335877862594,-0.7175572519083969,-0.45458984375,-0.07763671875,-0.2109375,0.357
0.8244274809160306,1.1755725190839694,-0.9007633587786259,-0.45263671875,-0.0830078125,-0.207763671875,0.35869999999999996
0.7938931297709924,1.0534351145038168,-0.7480916030534351,-0.4482421875,-0.078369140625,-0.216064453125,0.3604
0.9465648854961832,1.099236641221374,-0.7786259541984732,-0.44970703125,-0.078857421875,-0.212890625,0.3621
0.7786259541984732,1.1755725190839694,-0.8702290076335878,-0.453857421875,-0.07177734375,-0.216552734375,0.36379999999999996
0.9923664122137404,1.1450381679389312,-0.8091603053435115,-0.451171875,-0.0791015625,-0.21923828125,0.3655
1.0229007633587786,1.3893129770992367,-0.9007633587786259,-0.44970703125,-0.077392578125,-0.219482421875,0.36719999999999997
1.099236641221374,1.282442748091603,-0.8549618320610687,-0.4541015625,-0.077880859375,-0.213623046875,0.3689
0.7633587786259542,1.3740458015267176,-0.9007633587786259,-0.45703125,-0.078369140625,-0.2080078125,0.3706
0.8854961832061069,1.2061068702290076,-0.916030534351145,-0.4521484375,-0.072998046875,-0.216064453125,0.37229999999999996
1.2061068702290076,1.251908396946565,-0.732824427480916,-0.447265625,-0.07861328125,-0.216796875,0.374
0.916030534351145,1.3435114503816794,-1.0076335877862594,-0.451171875,-0.08154296875,-0.20947265625,0.3757
0.9923664122137404,1.4198473282442747,-0.8549618320610687,-0.451904296875,-0.078125,-0.211181640625,0.37739999999999996
0.732824427480916,1.5419847328244274,-0.9770992366412213,-0.45263671875,-0.083251953125,-0.212646484375,0.3791
0.7633587786259542,1.465648854961832,-0.9618320610687023,-0.449462890625,-0.07666015625,-0.21630859375,0.38079999999999997
1.0229007633587786,1.1603053435114503,-1.2061068702290076,-0.450927734375,-0.076904296875,-0.210205078125,0.38249999999999995
0.8549618320610687,1.3129770992366412,-1.1145038167938932,-0.45849609375,-0.079833984375,-0.20947265625,0.3842
0.8702290076335878,1.297709923664122,-1.2213740458015268,-0.45458984375,-0.069580078125,-0.2060546875,0.38589999999999997
0.6717557251908397,1.1297709923664123,-0.9618320610687023,-0.4541015625,-0.07470703125,-0.2109375,0.3876
0.6106870229007634,1.297709923664122,-0.8854961832061069,-0.453857421875,-0.072509765625,-0.205810546875,0.3893
0.5343511450381679,1.297709923664122,-0.9465648854961832,-0.45751953125,-0.0791015625,-0.215087890625,0.39099999999999996
0.732824427480916,1.282442748091603,-1.0381679389312977,-0.454833984375,-0.07568359375,-0.20458984375,0.3927
0.44274809160305345,1.2671755725190839,-0.916030534351145,-0.45263671875,-0.07666015625,-0.21240234375,0.3944
0.4580152671755725,1.099236641221374,-0.9923664122137404,-0.45263671875,-0.07861328125,-0.20849609375,0.39609999999999995
0.5190839694656488,1.297709923664122,-0.8854961832061069,-0.45654296875,-0.0810546875,-0.2099609375,0.3978
0.5343511450381679,0.9770992366412213,-0.916030534351145,-0.455078125,-0.076416015625,-0.209228515625,0.39949999999999997
0.6564885496183206,1.1755725190839694,-0.9312977099236641,-0.45068359375,-0.073974609375,-0.199951171875,0.4012
0.4122137404580153,1.1755725190839694,-0.9770992366412213,-0.452392578125,-0.071533203125,-0.2041015625,0.4029
0.3816793893129771,0.7786259541984732,-0.8244274809160306,-0.45263671875,-0.07568359375,-0.207763671875,0.40459999999999996
0.4732824427480916,0.9618320610687023,-0.9312977099236641,-0.451904296875,-0.069580078125,-0.20068359375,0.4063
0.5801526717557252,1.0076335877862594,-0.8549618320610687,-0.453125,-0.077392578125,-0.20751953125,0.408
0.5343511450381679,0.9465648854961832,-0.916030534351145,-0.449462890625,-0.0791015625,-0.20947265625,0.40969999999999995
0.5648854961832062,0.9465648854961832,-0.8549618320610687,-0.4560546875,-0.07568359375,-0.209228515625,0.4114
0.6259541984732825,0.8244274809160306,-0.8396946564885496,-0.4541015625,-0.0791015625,-0.197265625,0.41309999999999997
0.7633587786259542,0.6412213740458015,-0.6870229007633588,-0.44873046875,-0.07568359375,-0.213134765625,0.4148
0.9465648854961832,0.8244274809160306,-0.8244274809160306,-0.44775390625,-0.0751953125,-0.21240234375,0.4165
0.8854961832061069,0.6106870229007634,-0.732824427480916,-0.452392578125,-0.07470703125,-0.2060546875,0.41819999999999996
0.9465648854961832,0.5648854961832062,-0.9770992366412213,-0.45068359375,-0.077392578125,-0.21337890625,0.4199
1.1908396946564885,0.6259541984732825,-0.7786259541984732,-0.44970703125,-0.0751953125,-0.20703125,0.4216
1.0229007633587786,0.7633587786259542,-0.9007633587786259,-0.451416015625,-0.076904296875,-0.20751953125,0.42329999999999995
0.9923664122137404,0.5801526717557252,-0.7633587786259542,-0.449462890625,-0.081787109375,-0.210693359375,0.425
1.297709923664122,0.42748091603053434,-0.9312977099236641,-0.454345703125,-0.0791015625,-0.21826171875,0.42669999999999997
1.0534351145038168,0.732824427480916,-0.7786259541984732,-0.45361328125,-0.079833984375,-0.206298828125,0.4284
0.916030534351145,0.48854961832061067,-0.9618320610687023,-0.455322265625,-0.07861328125,-0.208251953125,0.4301
1.0076335877862594,0.44274809160305345,-0.9923664122137404,-0.44873046875,-0.069091796875,-0.21337890625,0.43179999999999996
1.3129770992366412,0.5801526717557252,-0.8549618320610687,-0.450439453125,-0.072509765625,-0.2109375,0.4335
1.1297709923664123,0.6564885496183206,-0.6412213740458015,-0.4521484375,-0.076416015625,-0.213134765625,0.4352
1.0229007633587786,0.5954198473282443,-0.9007633587786259,-0.45166015625,-0.07763671875,-0.201171875,0.43689999999999996
0.8702290076335878,0.6412213740458015,-0.9007633587786259,-0.453857421875,-0.07958984375,-0.2021484375,0.4386
0.8244274809160306,0.7938931297709924,-0.916030534351145,-0.45166015625,-0.077392578125,-0.2109375,0.44029999999999997
1.083969465648855,0.6106870229007634,-0.7786259541984732,-0.447265625,-0.073974609375,-0.212646484375,0.44199999999999995
0.7786259541984732,0.6564885496183206,-0.8702290076335878,-0.451171875,-0.07373046875,-0.21728515625,0.4437
0.6717557251908397,0.5343511450381679,-0.7633587786259542,-0.45166015625,-0.078369140625,-0.21337890625,0.44539999999999996
0.5190839694656488,0.6412213740458015,-0.7480916030534351,-0.455810546875,-0.07861328125,-0.21923828125,0.4471
0.6870229007633588,0.7633587786259542,-0.6564885496183206,-0.451904296875,-0.07568359375,-0.215087890625,0.4488
0.1984732824427481,0.4732824427480916,-0.8396946564885496,-0.45166015625,-0.075927734375,-0.2119140625,0.45049999999999996
0.33587786259541985,0.7022900763358778,-0.8549618320610687,-0.453369140625,-0.074951171875,-0.20947265625,0.4522
0.32061068702290074,0.7022900763358778,-1.0076335877862594,-0.449951171875,-0.080078125,-0.2119140625,0.45389999999999997
0.16793893129770993,0.7175572519083969,-0.8244274809160306,-0.45458984375,-0.07958984375,-0.21826171875,0.45559999999999995
0.2900763358778626,0.732824427480916,-0.9618320610687023,-0.4560546875,-0.073974609375,-0.2158203125,0.4573
0.015267175572519083,0.6870229007633588,-0.9312977099236641,-0.453125,-0.073974609375,-0.207275390625,0.45899999999999996
0.21374045801526717,0.8244274809160306,-0.7480916030534351,-0.45458984375,-0.075927734375,-0.21044921875,0.4607
0.22900763358778625,0.7786259541984732,-0.8854961832061069,-0.451904296875,-0.077880859375,-0.20654296875,0.4624
-0.0916030534351145,0.8091603053435115,-0.9312977099236641,-0.454345703125,-0.078369140625,-0.217529296875,0.46409999999999996
0.21374045801526717,0.8854961832061069,-0.9465648854961832,-0.454833984375,-0.074462890625,-0.207763671875,0.4658
0.3511450381679389,0.9618320610687023,-0.9465648854961832,-0.450439453125,-0.078369140625,-0.21142578125,0.46749999999999997
0.2595419847328244,0.9312977099236641,-0.9312977099236641,-0.45458984375,-0.075439453125,-0.201416015625,0.46919999999999995
0.3969465648854962,0.9770992366412213,-1.083969465648855,-0.4501953125,-0.076904296875,-0.211181640625,0.4709
0.549618320610687,0.9923664122137404,-1.1603053435114503,-0.45166015625,-0.077880859375,-0.208251953125,0.47259999999999996
0.44274809160305345,1.0534351145038168,-1.1450381679389312,-0.452880859375,-0.078369140625,-0.209228515625,0.4743
0.6106870229007634,1.1297709923664123,-1.1603053435114503,-0.452880859375,-0.076171875,-0.208251953125,0.476
0.6717557251908397,1.1450381679389312,-1.0229007633587786,-0.453125,-0.081787109375,-0.208984375,0.47769999999999996
0.7633587786259542,1.3129770992366412,-1.1908396946564885,-0.452392578125,-0.0791015625,-0.211669921875,0.4794
1.083969465648855,1.1145038167938932,-1.3587786259541985,-0.453857421875,-0.076904296875,-0.218017578125,0.48109999999999997
0.9465648854961832,1.3282442748091603,-1.1755725190839694,-0.453369140625,-0.08154296875,-0.21044921875,0.48279999999999995
1.1450381679389312,1.282442748091603,-1.282442748091603,-0.456298828125,-0.080810546875,-0.2060546875,0.4845
0.9312977099236641,1.083969465648855,-1.282442748091603,-0.44873046875,-0.081298828125,-0.210693359375,0.48619999999999997
1.0534351145038168,1.1755725190839694,-1.3587786259541985,-0.451416015625,-0.08251953125,-0.2099609375,0.4879
1.1145038167938932,1.1603053435114503,-1.4351145038167938,-0.4501953125,-0.07568359375,-0.2158203125,0.4896
1.083969465648855,0.9923664122137404,-1.5114503816793894,-0.447998046875,-0.078369140625,-0.21044921875,0.49129999999999996
1.1908396946564885,1.1297709923664123,-1.4351145038167938,-0.45068359375,-0.07666015625,-0.21337890625,0.493
0.9770992366412213,1.1603053435114503,-1.5725190839694656,-0.4541015625,-0.078125,-0.209228515625,0.4947
1.0076335877862594,1.251908396946565,-1.4351145038167938,-0.448486328125,-0.08056640625,-0.20849609375,0.49639999999999995
1.0534351145038168,1.3893129770992367,-1.2671755725190839,-0.456298828125,-0.073974609375,-0.211181640625,0.4981
0.8549618320610687,1.282442748091603,-1.633587786259542,-0.453857421875,-0.0771484375,-0.21142578125,0.49979999999999997
0.916030534351145,1.3740458015267176,-1.6030534351145038,-0.452392578125,-0.077880859375,-0.207763671875,0.5015
0.9618320610687023,1.3129770992366412,-1.5572519083969465,-0.451171875,-0.077880859375,-0.206298828125,0.5032
0.9465648854961832,1.2671755725190839,-1.83206106870229,-0.450927734375,-0.0751953125,-0.2099609375,0.5049
0.9312977099236641,1.2671755725190839,-1.6641221374045803,-0.455078125,-0.07421875,-0.21044921875,0.5065999999999999
0.8549618320610687,1.1450381679389312,-1.6488549618320612,-0.45068359375,-0.0732421875,-0.2236328125,0.5083
0.7480916030534351,1.1755725190839694,-1.7251908396946565,-0.452880859375,-0.072998046875,-0.21044921875,0.51
0.8091603053435115,1.083969465648855,-1.6488549618320612,-0.451416015625,-0.0751953125,-0.210693359375,0.5116999999999999
0.8244274809160306,1.2671755725190839,-1.5877862595419847,-0.453369140625,-0.077880859375,-0.215576171875,0.5134
0.7633587786259542,1.1450381679389312,-1.618320610687023,-0.446533203125,-0.07568359375,-0.204345703125,0.5151
0.6412213740458015,1.1145038167938932,-1.4809160305343512,-0.450439453125,-0.078125,-0.20458984375,0.5167999999999999
0.5343511450381679,1.1450381679389312,-1.465648854961832,-0.4560546875,-0.07666015625,-0.20947265625,0.5185
0.5343511450381679,0.9465648854961832,-1.6946564885496183,-0.454833984375,-0.076171875,-0.21435546875,0.5202
0.7633587786259542,0.9923664122137404,-1.3129770992366412,-0.4521484375,-0.072998046875,-0.213623046875,0.5218999999999999
0.6717557251908397,1.0381679389312977,-1.3740458015267176,-0.452880859375,-0.07568359375,-0.203857421875,0.5236
0.8549618320610687,0.9465648854961832,-1.282442748091603,-0.4462890625,-0.074462890625,-0.20849609375,0.5253
0.8091603053435115,1.0534351145038168,-1.3129770992366412,-0.447509765625,-0.07763671875,-0.2041015625,0.527
0.6259541984732825,1.0076335877862594,-1.3587786259541985,-0.447509765625,-0.0771484375,-0.206787109375,0.5287
1.0381679389312977,0.916030534351145,-1.3587786259541985,-0.45361328125,-0.0810546875,-0.20166015625,0.5304
1.0076335877862594,0.8396946564885496,-1.1755725190839694,-0.4541015625,-0.07763671875,-0.20166015625,0.5321
0.9312977099236641,0.8396946564885496,-1.2671755725190839,-0.453857421875,-0.07470703125,-0.201904296875,0.5337999999999999
0.8854961832061069,0.916030534351145,-1.0534351145038168,-0.451171875,-0.07666015625,-0.20703125,0.5355
0.9007633587786259,1.099236641221374,-1.297709923664122,-0.458984375,-0.07373046875,-0.208984375,0.5372
0.916030534351145,0.7938931297709924,-1.1908396946564885,-0.459716796875,-0.07373046875,-0.201904296875,0.5388999999999999
0.9465648854961832,0.732824427480916,-1.1145038167938932,-0.4541015625,-0.079833984375,-0.208984375,0.5406
0.916030534351145,0.6717557251908397,-0.9923664122137404,-0.4560546875,-0.079345703125,-0.20556640625,0.5423
0.9465648854961832,0.7022900763358778,-1.2061068702290076,-0.4521484375,-0.07421875,-0.20947265625,0.5439999999999999
0.8549618320610687,0.6564885496183206,-1.1297709923664123,-0.449462890625,-0.076171875,-0.2021484375,0.5457
0.8854961832061069,0.732824427480916,-1.1755725190839694,-0.450927734375,-0.078369140625,-0.20556640625,0.5474
0.6717557251908397,0.5648854961832062,-1.1755725190839694,-0.45263671875,-0.08154296875,-0.20849609375,0.5490999999999999
0.8091603053435115,0.5190839694656488,-1.3740458015267176,-0.453125,-0.08154296875,-0.21875,0.5508
0.7022900763358778,0.7175572519083969,-1.1603053435114503,-0.451171875,-0.079833984375,-0.219482421875,0.5525
0.8549618320610687,0.3969465648854962,-1.2671755725190839,-0.4560546875,-0.075927734375,-0.213134765625,0.5541999999999999
0.8702290076335878,0.5801526717557252,-1.099236641221374,-0.455322265625,-0.07373046875,-0.2109375,0.5559
0.8244274809160306,0.6717557251908397,-1.1603053435114503,-0.453857421875,-0.078125,-0.201904296875,0.5576
0.8702290076335878,0.7175572519083969,-1.2671755725190839,-0.44970703125,-0.072509765625,-0.2099609375,0.5593
0.7786259541984732,0.5038167938931297,-1.3893129770992367,-0.4560546875,-0.07568359375,-0.205078125,0.5609999999999999
0.6870229007633588,0.6106870229007634,-1.083969465648855,-0.45068359375,-0.07861328125,-0.212158203125,0.5627
1.0076335877862594,0.5801526717557252,-1.2366412213740459,-0.452880859375,-0.076904296875,-0.20947265625,0.5644
1.0076335877862594,0.549618320610687,-1.1908396946564885,-0.45166015625,-0.0771484375,-0.210693359375,0.5660999999999999
0.8549618320610687,0.8549618320610687,-1.282442748091603,-0.4599609375,-0.073974609375,-0.210693359375,0.5678
0.9312977099236641,0.6870229007633588,-1.1297709923664123,-0.453857421875,-0.078857421875,-0.20751953125,0.5695
1.0381679389312977,0.6106870229007634,-1.2366412213740459,-0.455322265625,-0.07666015625,-0.216064453125,0.5711999999999999
0.7022900763358778,0.6717557251908397,-1.2061068702290076,-0.4580078125,-0.07666015625,-0.211181640625,0.5729
0.549618320610687,0.7480916030534351,-1.450381679389313,-0.451416015625,-0.076904296875,-0.21435546875,0.5746
0.7022900763358778,0.8549618320610687,-1.1603053435114503,-0.4580078125,-0.07666015625,-0.20849609375,0.5762999999999999
0.7022900763358778,0.6564885496183206,-1.1297709923664123,-0.457275390625,-0.0751953125,-0.2041015625,0.578
0.6564885496183206,0.6870229007633588,-1.1755725190839694,-0.458984375,-0.073486328125,-0.210693359375,0.5797
0.6717557251908397,0.8549618320610687,-1.2061068702290076,-0.451416015625,-0.0751953125,-0.212646484375,0.5813999999999999
0.8244274809160306,0.9312977099236641,-1.282442748091603,-0.45068359375,-0.07470703125,-0.207763671875,0.5831
0.6412213740458015,0.9465648854961832,-1.2671755725190839,-0.453369140625,-0.073974609375,-0.21484375,0.5848
0.42748091603053434,1.0076335877862594,-1.0381679389312977,-0.455322265625,-0.073486328125,-0.21728515625,0.5865
0.6106870229007634,0.9312977099236641,-1.4809160305343512,-0.455322265625,-0.0810546875,-0.203125,0.5882
0.5648854961832062,0.9312977099236641,-1.0381679389312977,-0.456298828125,-0.07421875,-0.208984375,0.5899
0.5190839694656488,1.0687022900763359,-1.3129770992366412,-0.453857421875,-0.07421875,-0.21484375,0.5916
0.44274809160305345,0.9007633587786259,-1.2671755725190839,-0.45068359375,-0.072998046875,-0.211669921875,0.5932999999999999
0.5190839694656488,1.0534351145038168,-1.4045801526717556,-0.450439453125,-0.07421875,-0.2080078125,0.595
0.42748091603053434,1.251908396946565,-1.2671755725190839,-0.458740234375,-0.07470703125,-0.211669921875,0.5967
0.4122137404580153,1.1755725190839694,-1.3893129770992367,-0.4541015625,-0.078125,-0.223388671875,0.5983999999999999
0.5343511450381679,1.1297709923664123,-1.282442748091603,-0.45361328125,-0.08154296875,-0.215576171875,0.6001
0.5343511450381679,1.3282442748091603,-1.3893129770992367,-0.4521484375,-0.077880859375,-0.20703125,0.6018
0.6412213740458015,1.2366412213740459,-1.465648854961832,-0.4501953125,-0.0771484375,-0.212158203125,0.6034999999999999
0.7022900763358778,1.3282442748091603,-1.4045801526717556,-0.44873046875,-0.0771484375,-0.212646484375,0.6052
0.8549618320610687,1.2061068702290076,-1.3282442748091603,-0.45458984375,-0.080810546875,-0.208984375,0.6069
0.7022900763358778,1.2671755725190839,-1.5725190839694656,-0.455078125,-0.08154296875,-0.211669921875,0.6085999999999999
0.7480916030534351,1.1603053435114503,-1.450381679389313,-0.4501953125,-0.077880859375,-0.2041015625,0.6103
0.9923664122137404,1.2366412213740459,-1.6030534351145038,-0.448974609375,-0.073974609375,-0.21484375,0.612
1.0229007633587786,1.1603053435114503,-1.618320610687023,-0.44921875,-0.08251953125,-0.211669921875,0.6136999999999999
1.0381679389312977,1.282442748091603,-1.6946564885496183,-0.453125,-0.08154296875,-0.201416015625,0.6154
0.916030534351145,1.2213740458015268,-1.8015267175572518,-0.45263671875,-0.078369140625,-0.205810546875,0.6171
1.099236641221374,1.5114503816793894,-1.8625954198473282,-0.457275390625,-0.078369140625,-0.212646484375,0.6188
0.9770992366412213,1.3129770992366412,-1.7404580152671756,-0.451171875,-0.080810546875,-0.207275390625,0.6204999999999999
1.0076335877862594,1.297709923664122,-1.816793893129771,-0.451416015625,-0.07958984375,-0.2119140625,0.6222
0.9770992366412213,1.4809160305343512,-1.8015267175572518,-0.452392578125,-0.075927734375,-0.213623046875,0.6239
0.9465648854961832,1.3740458015267176,-1.7557251908396947,-0.4501953125,-0.0810546875,-0.211181640625,0.6255999999999999
0.9923664122137404,1.3435114503816794,-1.6946564885496183,-0.4501953125,-0.07958984375,-0.200927734375,0.6273
1.0687022900763359,1.282442748091603,-1.9236641221374047,-0.452880859375,-0.07958984375,-0.208740234375,0.629
0.9465648854961832,1.3129770992366412,-1.6793893129770991,-0.453369140625,-0.07421875,-0.2119140625,0.6306999999999999
0.7938931297709924,1.282442748091603,-1.8625954198473282,-0.451416015625,-0.075927734375,-0.20361328125,0.6324
0.8549618320610687,1.282442748091603,-1.7404580152671756,-0.447509765625,-0.07666015625,-0.208984375,0.6341
0.8091603053435115,1.282442748091603,-1.7404580152671756,-0.454345703125,-0.075439453125,-0.20361328125,0.6357999999999999
0.8702290076335878,1.297709923664122,-1.7557251908396947,-0.456298828125,-0.07421875,-0.20849609375,0.6375
1.0076335877862594,1.3129770992366412,-2.030534351145038,-0.4560546875,-0.07373046875,-0.208984375,0.6392
0.916030534351145,1.3435114503816794,-1.6488549618320612,-0.45166015625,-0.07666015625,-0.2099609375,0.6408999999999999
0.7175572519083969,1.2671755725190839,-1.7709923664122138,-0.451171875,-0.077880859375,-0.212646484375,0.6426
0.7938931297709924,1.3435114503816794,-1.5572519083969465,-0.4521484375,-0.07470703125,-0.21533203125,0.6443
0.7938931297709924,1.2213740458015268,-1.633587786259542,-0.4482421875,-0.0751953125,-0.20263671875,0.646
0.9770992366412213,1.3435114503816794,-1.7557251908396947,-0.45361328125,-0.078125,-0.19873046875,0.6476999999999999
0.916030534351145,1.1908396946564885,-1.618320610687023,-0.44775390625,-0.077880859375,-0.200927734375,0.6494
0.8702290076335878,1.251908396946565,-1.5267175572519085,-0.450927734375,-0.07666015625,-0.204833984375,0.6511
1.0076335877862594,1.0534351145038168,-1.5572519083969465,-0.45263671875,-0.074462890625,-0.203369140625,0.6527999999999999
0.9465648854961832,1.1908396946564885,-1.6488549618320612,-0.451171875,-0.07568359375,-0.209716796875,0.6545
0.7938931297709924,1.1908396946564885,-1.6641221374045803,-0.45263671875,-0.075439453125,-0.21533203125,0.6562
0.9770992366412213,1.0381679389312977,-1.5572519083969465,-0.447998046875,-0.08154296875,-0.21484375,0.6578999999999999
0.8244274809160306,1.0381679389312977,-1.6030534351145038,-0.451171875,-0.072021484375,-0.208251953125,0.6596
0.6870229007633588,1.2213740458015268,-1.6030534351145038,-0.447998046875,-0.075927734375,-0.207275390625,0.6613
0.5954198473282443,1.0229007633587786,-1.5267175572519085,-0.45556640625,-0.083740234375,-0.21533203125,0.6629999999999999
0.6870229007633588,1.2671755725190839,-1.5267175572519085,-0.45556640625,-0.0751953125,-0.21044921875,0.6647
0.6106870229007634,1.1755725190839694,-1.5114503816793894,-0.45263671875,-0.07666015625,-0.2060546875,0.6664
0.7175572519083969,1.083969465648855,-1.450381679389313,-0.45068359375,-0.07666015625,-0.213134765625,0.6680999999999999
0.6412213740458015,1.083969465648855,-1.6030534351145038,-0.453125,-0.080810546875,-0.209228515625,0.6698
0.6259541984732825,0.9923664122137404,-1.5877862595419847,-0.448486328125,-0.07861328125,-0.210693359375,0.6715
0.8091603053435115,0.9618320610687023,-1.3740458015267176,-0.45263671875,-0.07958984375,-0.20703125,0.6731999999999999
0.8549618320610687,0.9770992366412213,-1.5572519083969465,-0.4521484375,-0.081298828125,-0.2001953125,0.6748999999999999
0.5343511450381679,0.9007633587786259,-1.7251908396946565,-0.452392578125,-0.0791015625,-0.215576171875,0.6766
0.549618320610687,0.9312977099236641,-1.6488549618320612,-0.453125,-0.07568359375,-0.216552734375,0.6783
0.4732824427480916,0.7175572519083969,-1.4809160305343512,-0.45166015625,-0.082275390625,-0.207763671875,0.6799999999999999
0.5190839694656488,0.8854961832061069,-1.5267175572519085,-0.453369140625,-0.0751953125,-0.212646484375,0.6817
0.732824427480916,0.9007633587786259,-1.450381679389313,-0.4541015625,-0.072998046875,-0.214599609375,0.6834
0.4732824427480916,0.6564885496183206,-1.5877862595419847,-0.4501953125,-0.08056640625,-0.20458984375,0.6850999999999999
0.32061068702290074,0.8549618320610687,-1.5114503816793894,-0.45263671875,-0.07861328125,-0.211669921875,0.6868
0.6259541984732825,0.7786259541984732,-1.5114503816793894,-0.45361328125,-0.07958984375,-0.209716796875,0.6885
0.33587786259541985,0.7938931297709924,-1.5419847328244274,-0.454833984375,-0.082763671875,-0.21826171875,0.6901999999999999
0.2900763358778626,0.6717557251908397,-1.6946564885496183,-0.451416015625,-0.076904296875,-0.21484375,0.6919
0.16793893129770993,0.7633587786259542,-1.4961832061068703,-0.45556640625,-0.07373046875,-0.2158203125,0.6936
0.3053435114503817,0.9007633587786259,-1.5725190839694656,-0.453369140625,-0.073974609375,-0.2138671875,0.6952999999999999
0.2900763358778626,0.9618320610687023,-1.633587786259542,-0.4560546875,-0.0732421875,-0.210693359375,0.697
0.15267175572519084,1.2061068702290076,-1.5725190839694656,-0.453369140625,-0.072998046875,-0.216796875,0.6987
0.24427480916030533,0.9923664122137404,-1.4045801526717556,-0.454345703125,-0.07568359375,-0.210693359375,0.7003999999999999
0.22900763358778625,1.1603053435114503,-1.3893129770992367,-0.4462890625,-0.081298828125,-0.212158203125,0.7021
0.183206106870229,1.297709923664122,-1.4351145038167938,-0.4453125,-0.076904296875,-0.214599609375,0.7038
0.12213740458015267,1.2213740458015268,-1.4351145038167938,-0.444580078125,-0.077880859375,-0.215576171875,0.7055
0.1984732824427481,1.4198473282442747,-1.297709923664122,-0.445068359375,-0.074951171875,-0.207763671875,0.7071999999999999
0.4580152671755725,1.3740458015267176,-1.465648854961832,-0.44970703125,-0.07763671875,-0.2119140625,0.7089
0.32061068702290074,1.4198473282442747,-1.4045801526717556,-0.457275390625,-0.075927734375,-0.211669921875,0.7106
0.0916030534351145,1.5267175572519085,-1.3893129770992367,-0.4521484375,-0.074462890625,-0.216064453125,0.7122999999999999
0.183206106870229,1.5114503816793894,-1.3893129770992367,-0.447998046875,-0.073974609375,-0.211181640625,0.714
0.44274809160305345,1.4809160305343512,-1.3587786259541985,-0.447509765625,-0.07763671875,-0.208740234375,0.7157
0.33587786259541985,1.6641221374045803,-1.3893129770992367,-0.451904296875,-0.0810546875,-0.211669921875,0.7173999999999999
0.2748091603053435,1.5725190839694656,-1.4961832061068703,-0.451171875,-0.072021484375,-0.221923828125,0.7191
0.42748091603053434,1.5725190839694656,-1.465648854961832,-0.447509765625,-0.073486328125,-0.20849609375,0.7208
0.3511450381679389,1.618320610687023,-1.4809160305343512,-0.450927734375,-0.076904296875,-0.212890625,0.7224999999999999
0.549618320610687,1.6030534351145038,-1.3129770992366412,-0.450439453125,-0.076171875,-0.2080078125,0.7242
0.42748091603053434,1.6793893129770991,-1.4351145038167938,-0.449462890625,-0.07568359375,-0.207275390625,0.7259
0.48854961832061067,1.7404580152671756,-1.099236641221374,-0.45263671875,-0.080322265625,-0.205810546875,0.7275999999999999
0.732824427480916,1.7099236641221374,-1.282442748091603,-0.449462890625,-0.0791015625,-0.20458984375,0.7293
0.6259541984732825,1.6488549618320612,-1.251908396946565,-0.452880859375,-0.07568359375,-0.20458984375,0.731
0.7175572519083969,1.6793893129770991,-1.3129770992366412,-0.4482421875,-0.0771484375,-0.204833984375,0.7326999999999999
0.6870229007633588,1.6793893129770991,-1.4351145038167938,-0.45166015625,-0.07275390625,-0.20263671875,0.7343999999999999
0.732824427480916,1.6488549618320612,-1.3587786259541985,-0.44775390625,-0.08203125,-0.211181640625,0.7361
0.8549618320610687,1.5267175572519085,-1.3282442748091603,-0.4541015625,-0.074951171875,-0.214599609375,0.7378
0.7022900763358778,1.7404580152671756,-1.2061068702290076,-0.44970703125,-0.073486328125,-0.205810546875,0.7394999999999999
0.5190839694656488,1.6946564885496183,-1.2366412213740459,-0.45068359375,-0.078125,-0.2021484375,0.7412
0.5954198473282443,1.4961832061068703,-1.5267175572519085,-0.451171875,-0.075927734375,-0.20751953125,0.7429
0.7022900763358778,1.7251908396946565,-1.4198473282442747,-0.45458984375,-0.076171875,-0.211669921875,0.7445999999999999
0.9770992366412213,1.6488549618320612,-1.4809160305343512,-0.4501953125,-0.07958984375,-0.20947265625,0.7463
0.7786259541984732,1.5877862595419847,-1.3129770992366412,-0.453857421875,-0.08056640625,-0.21044921875,0.748
0.8244274809160306,1.5419847328244274,-1.465648854961832,-0.4501953125,-0.079833984375,-0.206787109375,0.7496999999999999
0.9007633587786259,1.618320610687023,-1.3129770992366412,-0.453125,-0.07666015625,-0.20751953125,0.7514
0.9923664122137404,1.5419847328244274,-1.4198473282442747,-0.4541015625,-0.0732421875,-0.2138671875,0.7531
1.1450381679389312,1.5419847328244274,-1.5267175572519085,-0.457275390625,-0.075439453125,-0.2080078125,0.7547999999999999
0.6564885496183206,1.5114503816793894,-1.5419847328244274,-0.457763671875,-0.08447265625,-0.208984375,0.7565
0.8396946564885496,1.2061068702290076,-1.3740458015267176,-0.45654296875,-0.07666015625,-0.211181640625,0.7582
0.8396946564885496,1.3587786259541985,-1.5725190839694656,-0.45947265625,-0.074462890625,-0.205322265625,0.7598999999999999
0.6564885496183206,1.2366412213740459,-1.5419847328244274,-0.459716796875,-0.077392578125,-0.205322265625,0.7615999999999999
0.6106870229007634,1.282442748091603,-1.4961832061068703,-0.45654296875,-0.0810546875,-0.20654296875,0.7633
0.549618320610687,1.2366412213740459,-1.3129770992366412,-0.453125,-0.077392578125,-0.209716796875,0.7649999999999999
0.6106870229007634,1.1297709923664123,-1.4045801526717556,-0.452392578125,-0.07958984375,-0.208740234375,0.7666999999999999
0.6412213740458015,1.2366412213740459,-1.3893129770992367,-0.454345703125,-0.082275390625,-0.202880859375,0.7684
0.549618320610687,1.0381679389312977,-1.282442748091603,-0.455322265625,-0.079345703125,-0.213134765625,0.7701
0.6412213740458015,1.0381679389312977,-1.3435114503816794,-0.457763671875,-0.078125,-0.20751953125,0.7717999999999999
0.2748091603053435,1.0381679389312977,-1.4809160305343512,-0.451904296875,-0.078369140625,-0.203857421875,0.7735
0.2900763358778626,1.083969465648855,-1.3893129770992367,-0.455810546875,-0.07763671875,-0.216064453125,0.7752
0.4732824427480916,1.1450381679389312,-1.3587786259541985,-0.455322265625,-0.08056640625,-0.216552734375,0.7768999999999999
0.3053435114503817,0.8244274809160306,-1.3893129770992367,-0.454345703125,-0.076904296875,-0.20751953125,0.7786
0.32061068702290074,0.8091603053435115,-1.5419847328244274,-0.451904296875,-0.07958984375,-0.205810546875,0.7803
0.3969465648854962,0.9007633587786259,-1.3282442748091603,-0.4541015625,-0.072265625,-0.2158203125,0.7819999999999999
0.21374045801526717,0.8244274809160306,-1.2061068702290076,-0.458740234375,-0.07568359375,-0.212646484375,0.7837
0.16793893129770993,0.8396946564885496,-1.450381679389313,-0.45947265625,-0.078125,-0.217041015625,0.7854
-0.13740458015267176,0.9465648854961832,-1.5114503816793894,-0.455078125,-0.077392578125,-0.213134765625,0.7870999999999999
0.13740458015267176,1.099236641221374,-1.297709923664122,-0.452880859375,-0.076904296875,-0.2158203125,0.7888
-0.0916030534351145,1.1145038167938932,-1.3740458015267176,-0.451416015625,-0.07177734375,-0.212890625,0.7905
-0.061068702290076333,1.1297709923664123,-1.3129770992366412,-0.452880859375,-0.073974609375,-0.213134765625,0.7921999999999999
0.1984732824427481,1.251908396946565,-1.4351145038167938,-0.45556640625,-0.073974609375,-0.21044921875,0.7938999999999999
0.2900763358778626,1.3893129770992367,-1.282442748091603,-0.453857421875,-0.076171875,-0.21337890625,0.7956
0.22900763358778625,1.3435114503816794,-1.282442748091603,-0.455810546875,-0.076904296875,-0.21875,0.7973
0.21374045801526717,1.3282442748091603,-1.3282442748091603,-0.457275390625,-0.072265625,-0.218994140625,0.7989999999999999
0.24427480916030533,1.4045801526717556,-1.3587786259541985,-0.459228515625,-0.077880859375,-0.224853515625,0.8007
0.21374045801526717,1.3587786259541985,-1.3129770992366412,-0.45263671875,-0.073486328125,-0.213134765625,0.8024
0.16793893129770993,1.5419847328244274,-1.2366412213740459,-0.4541015625,-0.068115234375,-0.2138671875,0.8040999999999999
0.32061068702290074,1.5419847328244274,-1.2213740458015268,-0.4521484375,-0.072265625,-0.21484375,0.8058
0.366412213740458,1.633587786259542,-1.4045801526717556,-0.4521484375,-0.068359375,-0.209228515625,0.8075
0.2595419847328244,1.6793893129770991,-1.282442748091603,-0.45703125,-0.072998046875,-0.208740234375,0.8091999999999999
0.4732824427480916,1.786259541984733,-1.3282442748091603,-0.455322265625,-0.075927734375,-0.21923828125,0.8109
0.549618320610687,1.6946564885496183,-1.251908396946565,-0.451416015625,-0.078369140625,-0.208984375,0.8126
0.4732824427480916,1.7251908396946565,-1.3129770992366412,-0.44970703125,-0.067138671875,-0.220947265625,0.8142999999999999
0.5954198473282443,1.6793893129770991,-1.2061068702290076,-0.45361328125,-0.076171875,-0.20849609375,0.816
0.7022900763358778,1.816793893129771,-1.4198473282442747,-0.453857421875,-0.0751953125,-0.21728515625,0.8177
0.6870229007633588,1.8778625954198473,-1.1297709923664123,-0.454345703125,-0.07958984375,-0.208984375,0.8193999999999999
0.7175572519083969,1.6488549618320612,-1.5114503816793894,-0.454345703125,-0.072998046875,-0.213623046875,0.8210999999999999
0.7175572519083969,1.6641221374045803,-1.5114503816793894,-0.447998046875,-0.073974609375,-0.21044921875,0.8228
1.0381679389312977,1.984732824427481,-1.3129770992366412,-0.450439453125,-0.076904296875,-0.211181640625,0.8244999999999999
0.9618320610687023,1.8625954198473282,-1.3129770992366412,-0.4521484375,-0.078369140625,-0.20361328125,0.8261999999999999
1.1603053435114503,1.816793893129771,-1.4809160305343512,-0.45458984375,-0.072265625,-0.204833984375,0.8279
1.083969465648855,1.8015267175572518,-1.282442748091603,-0.44921875,-0.073974609375,-0.204833984375,0.8296
0.916030534351145,1.7404580152671756,-1.1755725190839694,-0.45361328125,-0.0712890625,-0.214599609375,0.8312999999999999
1.0076335877862594,1.7709923664122138,-1.3282442748091603,-0.453369140625,-0.076171875,-0.216064453125,0.833
0.9770992366412213,1.8625954198473282,-1.3740458015267176,-0.45263671875,-0.073486328125,-0.2158203125,0.8347
0.9007633587786259,1.7251908396946565,-1.5114503816793894,-0.449951171875,-0.07666015625,-0.20947265625,0.8363999999999999
0.9312977099236641,1.8015267175572518,-1.5725190839694656,-0.453857421875,-0.079345703125,-0.20556640625,0.8381
0.9618320610687023,1.6946564885496183,-1.3282442748091603,-0.449951171875,-0.07275390625,-0.20458984375,0.8398
0.8854961832061069,1.6946564885496183,-1.4198473282442747,-0.45068359375,-0.073486328125,-0.19775390625,0.8414999999999999
1.0534351145038168,1.5572519083969465,-1.4351145038167938,-0.4482421875,-0.07861328125,-0.204833984375,0.8432
1.1145038167938932,1.6030534351145038,-1.5572519083969465,-0.45166015625,-0.07958984375,-0.208740234375,0.8449
0.8702290076335878,1.5114503816793894,-1.5419847328244274,-0.453369140625,-0.081298828125,-0.20654296875,0.8465999999999999
1.0229007633587786,1.5419847328244274,-1.2213740458015268,-0.44482421875,-0.076171875,-0.199462890625,0.8482999999999999
1.083969465648855,1.2671755725190839,-1.251908396946565,-0.44921875,-0.08154296875,-0.201416015625,0.85
1.0381679389312977,1.3587786259541985,-1.5877862595419847,-0.44677734375,-0.074951171875,-0.2080078125,0.8516999999999999
0.8244274809160306,1.1603053435114503,-1.450381679389313,-0.445556640625,-0.076416015625,-0.203857421875,0.8533999999999999
0.9618320610687023,1.2061068702290076,-1.297709923664122,-0.451171875,-0.0771484375,-0.207275390625,0.8551
0.9007633587786259,1.2671755725190839,-1.450381679389313,-0.448486328125,-0.073974609375,-0.21142578125,0.8568
0.7938931297709924,1.3129770992366412,-1.4198473282442747,-0.444580078125,-0.076416015625,-0.20751953125,0.8584999999999999
0.8396946564885496,1.1145038167938932,-1.4198473282442747,-0.450927734375,-0.072021484375,-0.20166015625,0.8602
0.7175572519083969,1.099236641221374,-1.4045801526717556,-0.4482421875,-0.074951171875,-0.2109375,0.8619
0.732824427480916,1.099236641221374,-1.4045801526717556,-0.4501953125,-0.07666015625,-0.213134765625,0.8635999999999999
0.5801526717557252,1.1603053435114503,-1.4198473282442747,-0.455322265625,-0.071044921875,-0.212646484375,0.8653
0.5648854961832062,1.0076335877862594,-1.4961832061068703,-0.4501953125,-0.078857421875,-0.208984375,0.867
0.549618320610687,1.1603053435114503,-1.3587786259541985,-0.453125,-0.07958984375,-0.206298828125,0.8686999999999999
0.5648854961832062,1.0076335877862594,-1.3435114503816794,-0.4521484375,-0.076171875,-0.214111328125,0.8704
0.5190839694656488,0.9770992366412213,-1.3282442748091603,-0.4501953125,-0.076171875,-0.215576171875,0.8721
0.5343511450381679,0.9465648854961832,-1.4809160305343512,-0.45263671875,-0.075927734375,-0.21923828125,0.8737999999999999
0.6259541984732825,0.8244274809160306,-1.4045801526717556,-0.4482421875,-0.075439453125,-0.2119140625,0.8755
0.5343511450381679,0.8091603053435115,-1.4045801526717556,-0.451904296875,-0.07421875,-0.2099609375,0.8772
0.5648854961832062,0.9618320610687023,-1.282442748091603,-0.45166015625,-0.075927734375,-0.218017578125,0.8788999999999999
0.5190839694656488,0.7633587786259542,-1.4045801526717556,-0.4462890625,-0.0791015625,-0.208984375,0.8805999999999999
0.5190839694656488,0.916030534351145,-1.2061068702290076,-0.451904296875,-0.07080078125,-0.21435546875,0.8823
0.48854961832061067,0.9618320610687023,-1.2213740458015268,-0.4541015625,-0.0751953125,-0.207275390625,0.8839999999999999
0.6412213740458015,0.8702290076335878,-1.1755725190839694,-0.45703125,-0.0751953125,-0.20361328125,0.8856999999999999
0.6870229007633588,0.9007633587786259,-1.2061068702290076,-0.4541015625,-0.0751953125,-0.212158203125,0.8874
0.4580152671755725,0.8396946564885496,-1.297709923664122,-0.457275390625,-0.075439453125,-0.2138671875,0.8891
0.3969465648854962,0.8396946564885496,-1.2061068702290076,-0.455078125,-0.0751953125,-0.218017578125,0.8907999999999999
0.6870229007633588,0.8702290076335878,-1.3282442748091603,-0.449462890625,-0.0751953125,-0.2041015625,0.8925
0.549618320610687,0.8091603053435115,-1.2213740458015268,-0.45263671875,-0.073974609375,-0.2158203125,0.8942
0.48854961832061067,1.0534351145038168,-1.2671755725190839,-0.447021484375,-0.073486328125,-0.209228515625,0.8958999999999999
0.5954198473282443,1.0687022900763359,-1.4351145038167938,-0.45361328125,-0.073974609375,-0.2109375,0.8976
0.6412213740458015,1.1145038167938932,-1.1603053435114503,-0.454345703125,-0.072265625,-0.2099609375,0.8993
0.6412213740458015,1.1145038167938932,-1.2213740458015268,-0.45263671875,-0.0791015625,-0.2099609375,0.9009999999999999
0.6870229007633588,1.1450381679389312,-1.4045801526717556,-0.451171875,-0.073974609375,-0.2099609375,0.9027
0.5343511450381679,1.251908396946565,-1.297709923664122,-0.45458984375,-0.067626953125,-0.216552734375,0.9044
0.732824427480916,1.1603053435114503,-1.251908396946565,-0.449951171875,-0.078369140625,-0.22119140625,0.9060999999999999
0.6717557251908397,1.1755725190839694,-1.4351145038167938,-0.456298828125,-0.076904296875,-0.2177734375,0.9077999999999999
0.6870229007633588,1.2671755725190839,-1.450381679389313,-0.454345703125,-0.07177734375,-0.212646484375,0.9095
0.5343511450381679,1.282442748091603,-1.5114503816793894,-0.45361328125,-0.07470703125,-0.22021484375,0.9111999999999999
0.8702290076335878,1.297709923664122,-1.3740458015267176,-0.454833984375,-0.075439453125,-0.209716796875,0.9128999999999999
0.7633587786259542,1.465648854961832,-1.3893129770992367,-0.453125,-0.0732421875,-0.211669921875,0.9146
0.8396946564885496,1.1603053435114503,-1.4351145038167938,-0.453857421875,-0.074951171875,-0.2197265625,0.9163
0.6259541984732825,1.251908396946565,-1.4961832061068703,-0.451904296875,-0.0751953125,-0.221435546875,0.9179999999999999
0.7938931297709924,1.282442748091603,-1.4045801526717556,-0.45458984375,-0.075927734375,-0.2080078125,0.9197
0.9465648854961832,1.465648854961832,-1.786259541984733,-0.45849609375,-0.076171875,-0.215576171875,0.9214
1.0076335877862594,1.3587786259541985,-1.3893129770992367,-0.454833984375,-0.078369140625,-0.216552734375,0.9230999999999999
1.0534351145038168,1.3740458015267176,-1.5267175572519085,-0.45361328125,-0.074951171875,-0.208251953125,0.9248
0.9618320610687023,1.5419847328244274,-1.6488549618320612,-0.45458984375,-0.079345703125,-0.21533203125,0.9265
0.7938931297709924,1.633587786259542,-1.5877862595419847,-0.455810546875,-0.076904296875,-0.2109375,0.9281999999999999
0.9007633587786259,1.5572519083969465,-1.3740458015267176,-0.456298828125,-0.0751953125,-0.205810546875,0.9299
0.9923664122137404,1.633587786259542,-1.6488549618320612,-0.452880859375,-0.07666015625,-0.203369140625,0.9316
1.1755725190839694,1.5877862595419847,-1.5725190839694656,-0.453857421875,-0.078125,-0.216796875,0.9332999999999999
1.0687022900763359,1.633587786259542,-1.6946564885496183,-0.454345703125,-0.076171875,-0.21630859375,0.9349999999999999
0.9770992366412213,1.6641221374045803,-1.5725190839694656,-0.4560546875,-0.072998046875,-0.21826171875,0.9367
1.0076335877862594,1.6030534351145038,-1.6793893129770991,-0.453125,-0.076904296875,-0.210205078125,0.9383999999999999
1.1297709923664123,1.5114503816793894,-1.3587786259541985,-0.4541015625,-0.076904296875,-0.213623046875,0.9400999999999999
1.3129770992366412,1.6030534351145038,-1.7557251908396947,-0.456298828125,-0.073974609375,-0.20654296875,0.9418
1.251908396946565,1.5267175572519085,-1.618320610687023,-0.45458984375,-0.076904296875,-0.20849609375,0.9434999999999999
1.4351145038167938,1.5725190839694656,-1.8778625954198473,-0.449462890625,-0.076171875,-0.20263671875,0.9451999999999999
1.2366412213740459,1.5267175572519085,-1.618320610687023,-0.4560546875,-0.07421875,-0.20361328125,0.9469
1.1908396946564885,1.5572519083969465,-1.7557251908396947,-0.45361328125,-0.077880859375,-0.207275390625,0.9486
1.2213740458015268,1.4809160305343512,-1.4045801526717556,-0.452880859375,-0.0751953125,-0.214599609375,0.9502999999999999
1.2061068702290076,1.633587786259542,-1.6946564885496183,-0.455078125,-0.075927734375,-0.216064453125,0.952
1.4351145038167938,1.618320610687023,-1.5267175572519085,-0.453125,-0.080078125,-0.20458984375,0.9537
1.450381679389313,1.4351145038167938,-1.6641221374045803,-0.45361328125,-0.078125,-0.20947265625,0.9553999999999999
1.3587786259541985,1.6793893129770991,-1.6641221374045803,-0.457763671875,-0.076904296875,-0.209228515625,0.9571
1.2061068702290076,1.5419847328244274,-1.6030534351145038,-0.451416015625,-0.079345703125,-0.20849609375,0.9588
1.4809160305343512,1.465648854961832,-1.5572519083969465,-0.45361328125,-0.077392578125,-0.209716796875,0.9604999999999999
1.7404580152671756,1.5419847328244274,-1.7099236641221374,-0.449951171875,-0.0751953125,-0.2060546875,0.9621999999999999
1.3129770992366412,1.4198473282442747,-1.6946564885496183,-0.45361328125,-0.07666015625,-0.20556640625,0.9639
1.4809160305343512,1.5114503816793894,-1.465648854961832,-0.454345703125,-0.075439453125,-0.2021484375,0.9655999999999999
1.5267175572519085,1.633587786259542,-1.4809160305343512,-0.449462890625,-0.07861328125,-0.2177734375,0.9672999999999999
1.7404580152671756,1.450381679389313,-1.8015267175572518,-0.455322265625,-0.078125,-0.211669921875,0.969
1.2213740458015268,1.3893129770992367,-1.5419847328244274,-0.4541015625,-0.077880859375,-0.203857421875,0.9706999999999999
1.3282442748091603,1.4045801526717556,-1.618320610687023,-0.449462890625,-0.0791015625,-0.213134765625,0.9723999999999999
1.465648854961832,1.4198473282442747,-1.5114503816793894,-0.452392578125,-0.078369140625,-0.21435546875,0.9741
1.465648854961832,1.2671755725190839,-1.633587786259542,-0.45751953125,-0.077392578125,-0.213134765625,0.9758
1.3740458015267176,1.1450381679389312,-1.465648854961832,-0.45166015625,-0.07568359375,-0.206298828125,0.9774999999999999
1.4351145038167938,1.2061068702290076,-1.450381679389313,-0.454345703125,-0.076171875,-0.212646484375,0.9792
1.1450381679389312,1.2671755725190839,-1.5419847328244274,-0.4521484375,-0.075927734375,-0.2080078125,0.9809
1.1450381679389312,1.1297709923664123,-1.618320610687023,-0.45263671875,-0.070556640625,-0.21435546875,0.9825999999999999
1.3282442748091603,1.251908396946565,-1.3282442748091603,-0.4599609375,-0.07666015625,-0.20166015625,0.9843
1.0076335877862594,0.9770992366412213,-1.5419847328244274,-0.458740234375,-0.078125,-0.2041015625,0.986
1.0534351145038168,1.251908396946565,-1.3129770992366412,-0.45263671875,-0.079345703125,-0.21728515625,0.9876999999999999
0.9007633587786259,1.2061068702290076,-1.465648854961832,-0.451416015625,-0.075439453125,-0.21826171875,0.9894
1.0229007633587786,1.0381679389312977,-1.3587786259541985,-0.45361328125,-0.07861328125,-0.21337890625,0.9911
0.8549618320610687,0.9007633587786259,-1.3587786259541985,-0.456787109375,-0.0791015625,-0.214599609375,0.9927999999999999
1.099236641221374,1.1297709923664123,-1.3435114503816794,-0.453125,-0.08203125,-0.20361328125,0.9944999999999999
1.2061068702290076,0.9007633587786259,-1.3587786259541985,-0.451904296875,-0.0810546875,-0.216064453125,0.9962
1.0381679389312977,0.8702290076335878,-1.1603053435114503,-0.452880859375,-0.081298828125,-0.208740234375,0.9978999999999999
1.297709923664122,1.0381679389312977,-1.2213740458015268,-0.45458984375,-0.07568359375,-0.20458984375,0.9995999999999999
1.3282442748091603,0.8396946564885496,-1.3893129770992367,-0.451171875,-0.07958984375,-0.216796875,1.0012999999999999
1.1450381679389312,0.9312977099236641,-1.2671755725190839,-0.4501953125,-0.079833984375,-0.2099609375,1.003
1.3282442748091603,0.7938931297709924,-1.4198473282442747,-0.4521484375,-0.077880859375,-0.209716796875,1.0047
1.3282442748091603,1.0229007633587786,-1.5572519083969465,-0.451171875,-0.078369140625,-0.21044921875,1.0064
1.618320610687023,0.9770992366412213,-1.5419847328244274,-0.448974609375,-0.077392578125,-0.212890625,1.0081
1.3435114503816794,1.083969465648855,-1.5267175572519085,-0.45703125,-0.08349609375,-0.209716796875,1.0098
1.5114503816793894,1.297709923664122,-1.4045801526717556,-0.449951171875,-0.082763671875,-0.205322265625,1.0114999999999998
1.450381679389313,1.099236641221374,-1.618320610687023,-0.451904296875,-0.07373046875,-0.212890625,1.0131999999999999
1.3282442748091603,1.083969465648855,-1.633587786259542,-0.450927734375,-0.076904296875,-0.218017578125,1.0149
1.282442748091603,1.1603053435114503,-1.83206106870229,-0.458740234375,-0.080078125,-0.21044921875,1.0166
1.2366412213740459,1.1145038167938932,-1.633587786259542,-0.447509765625,-0.071044921875,-0.209716796875,1.0183
1.0381679389312977,1.297709923664122,-1.7709923664122138,-0.451171875,-0.073486328125,-0.212158203125,1.02
1.1755725190839694,1.3893129770992367,-1.7251908396946565,-0.456298828125,-0.07470703125,-0.22119140625,1.0217
0.9923664122137404,1.4198473282442747,-1.5267175572519085,-0.45751953125,-0.075927734375,-0.2158203125,1.0233999999999999
1.083969465648855,1.3893129770992367,-1.786259541984733,-0.45263671875,-0.07763671875,-0.213134765625,1.0251
0.9312977099236641,1.5114503816793894,-1.9389312977099236,-0.4521484375,-0.0712890625,-0.218505859375,1.0268
0.8702290076335878,1.6946564885496183,-1.8015267175572518,-0.453857421875,-0.075439453125,-0.21533203125,1.0285
1.0381679389312977,1.6793893129770991,-1.5572519083969465,-0.4560546875,-0.076904296875,-0.216552734375,1.0302
1.0534351145038168,1.816793893129771,-1.7709923664122138,-0.453369140625,-0.072265625,-0.2158203125,1.0319
1.0381679389312977,2.045801526717557,-1.83206106870229,-0.451904296875,-0.069091796875,-0.2080078125,1.0335999999999999
1.1145038167938932,1.9236641221374047,-1.6030534351145038,-0.451171875,-0.071533203125,-0.215576171875,1.0352999999999999
0.916030534351145,2.015267175572519,-1.9083969465648856,-0.45556640625,-0.072265625,-0.210693359375,1.037
0.7786259541984732,2.4122137404580153,-1.8473282442748091,-0.455810546875,-0.072509765625,-0.207763671875,1.0387
0.8396946564885496,2.16793893129771,-1.7251908396946565,-0.459228515625,-0.0703125,-0.20849609375,1.0404
1.0076335877862594,2.381679389312977,-1.6488549618320612,-0.453125,-0.069580078125,-0.208984375,1.0421
0.8702290076335878,2.4122137404580153,-1.8931297709923665,-0.458984375,-0.07470703125,-0.211669921875,1.0437999999999998
0.8854961832061069,2.2290076335877864,-1.984732824427481,-0.4619140625,-0.0703125,-0.21044921875,1.0454999999999999
0.9312977099236641,2.2900763358778624,-1.8778625954198473,-0.45849609375,-0.069580078125,-0.205078125,1.0472
0.9007633587786259,2.2442748091603053,-2.1068702290076335,-0.4619140625,-0.067626953125,-0.208740234375,1.0489
1.0687022900763359,2.4732824427480917,-2.030534351145038,-0.4619140625,-0.06982421875,-0.22314453125,1.0506
1.1603053435114503,2.4580152671755724,-2.0,-0.460205078125,-0.073486328125,-0.209228515625,1.0523
1.1297709923664123,2.50381679389313,-2.2748091603053435,-0.463134765625,-0.06787109375,-0.20703125,1.054
1.4351145038167938,2.2442748091603053,-2.3053435114503817,-0.456298828125,-0.069091796875,-0.20947265625,1.0556999999999999
1.2061068702290076,2.3969465648854964,-2.3206106870229006,-0.462646484375,-0.06591796875,-0.21044921875,1.0574
1.450381679389313,2.2900763358778624,-2.381679389312977,-0.4619140625,-0.070068359375,-0.21337890625,1.0591
1.5725190839694656,2.381679389312977,-2.427480916030534,-0.457275390625,-0.06640625,-0.212890625,1.0608
1.7251908396946565,2.3969465648854964,-2.6259541984732824,-0.460205078125,-0.0654296875,-0.205810546875,1.0625
1.7099236641221374,2.4732824427480917,-2.6259541984732824,-0.456787109375,-0.065185546875,-0.2080078125,1.0642
1.786259541984733,2.4122137404580153,-2.717557251908397,-0.4560546875,-0.064208984375,-0.213134765625,1.0658999999999998
1.8931297709923665,2.6106870229007635,-2.7938931297709924,-0.456298828125,-0.06298828125,-0.213623046875,1.0675999999999999
2.0916030534351147,2.717557251908397,-2.8091603053435112,-0.45263671875,-0.06640625,-0.2119140625,1.0693
2.2442748091603053,2.6106870229007635,-2.9160305343511452,-0.45458984375,-0.063720703125,-0.203369140625,1.071
2.5801526717557253,2.4885496183206106,-2.8702290076335877,-0.459228515625,-0.06298828125,-0.209228515625,1.0727
2.50381679389313,2.4122137404580153,-2.763358778625954,-0.454345703125,-0.068115234375,-0.2099609375,1.0744
2.4580152671755724,2.7022900763358777,-2.763358778625954,-0.449462890625,-0.0625,-0.207763671875,1.0760999999999998
2.7480916030534353,2.5343511450381677,-2.732824427480916,-0.45556640625,-0.0625,-0.207275390625,1.0777999999999999
3.1603053435114505,2.595419847328244,-2.8244274809160306,-0.455078125,-0.06005859375,-0.21533203125,1.0795
3.2061068702290076,2.6106870229007635,-2.7786259541984735,-0.454833984375,-0.0634765625,-0.211181640625,1.0812
3.2519083969465647,2.717557251908397,-2.732824427480916,-0.459716796875,-0.061279296875,-0.21240234375,1.0829
3.480916030534351,2.5343511450381677,-2.732824427480916,-0.45751953125,-0.060791015625,-0.2060546875,1.0846
3.633587786259542,2.6259541984732824,-2.7022900763358777,-0.452880859375,-0.059326171875,-0.2099609375,1.0863
3.9083969465648853,2.687022900763359,-2.595419847328244,-0.45361328125,-0.05615234375,-0.211669921875,1.0879999999999999
4.091603053435114,2.732824427480916,-2.2595419847328246,-0.451416015625,-0.06005859375,-0.21533203125,1.0897
3.984732824427481,2.6564885496183206,-2.351145038167939,-0.449462890625,-0.0615234375,-0.212646484375,1.0914
4.33587786259542,2.7938931297709924,-2.2290076335877864,-0.447509765625,-0.060791015625,-0.206787109375,1.0931
4.5038167938931295,2.763358778625954,-2.045801526717557,-0.452880859375,-0.05810546875,-0.209716796875,1.0948
4.625954198473282,2.7480916030534353,-2.045801526717557,-0.451416015625,-0.066162109375,-0.211181640625,1.0965
4.961832061068702,2.763358778625954,-1.9694656488549618,-0.44677734375,-0.0654296875,-0.208984375,1.0981999999999998
4.793893129770993,2.854961832061069,-1.9236641221374047,-0.4462890625,-0.064697265625,-0.212646484375,1.0998999999999999
4.916030534351145,3.0381679389312977,-1.7709923664122138,-0.447509765625,-0.065185546875,-0.209716796875,1.1016
5.114503816793893,3.0076335877862594,-1.816793893129771,-0.444580078125,-0.0654296875,-0.206787109375,1.1033
5.190839694656488,2.8702290076335877,-1.7557251908396947,-0.443115234375,-0.064208984375,-0.213623046875,1.105
5.1603053435114505,2.8702290076335877,-1.5725190839694656,-0.447021484375,-0.07373046875,-0.20849609375,1.1067
5.32824427480916,2.8396946564885495,-1.7251908396946565,-0.441162109375,-0.072021484375,-0.2109375,1.1083999999999998
5.4961832061068705,2.732824427480916,-1.6488549618320612,-0.445068359375,-0.069091796875,-0.215087890625,1.1100999999999999
5.633587786259542,2.763358778625954,-1.5572519083969465,-0.445556640625,-0.07080078125,-0.217041015625,1.1118
5.66412213740458,2.6717557251908395,-1.5877862595419847,-0.445556640625,-0.0751953125,-0.2119140625,1.1135
5.633587786259542,2.5801526717557253,-1.4045801526717556,-0.44287109375,-0.072998046875,-0.210205078125,1.1152
5.541984732824427,2.4427480916030535,-1.4961832061068703,-0.44287109375,-0.076416015625,-0.212890625,1.1169
5.816793893129771,2.366412213740458,-1.450381679389313,-0.44775390625,-0.0791015625,-0.2099609375,1.1186
5.8320610687022905,2.4732824427480917,-1.297709923664122,-0.4443359375,-0.07958984375,-0.215576171875,1.1202999999999999
5.801526717557252,2.4732824427480917,-1.4198473282442747,-0.44775390625,-0.0810546875,-0.21337890625,1.1219999999999999
5.908396946564886,2.366412213740458,-1.297709923664122,-0.44140625,-0.0751953125,-0.207275390625,1.1237
5.923664122137405,2.33587786259542,-1.1145038167938932,-0.448486328125,-0.074462890625,-0.206787109375,1.1254
5.969465648854962,2.519083969465649,-1.4809160305343512,-0.442626953125,-0.07763671875,-0.216064453125,1.1271
5.8320610687022905,2.519083969465649,-1.2213740458015268,-0.4423828125,-0.0771484375,-0.202880859375,1.1288
5.923664122137405,2.6717557251908395,-1.2671755725190839,-0.442138671875,-0.0712890625,-0.20556640625,1.1304999999999998
5.8320610687022905,2.427480916030534,-1.099236641221374,-0.439453125,-0.082275390625,-0.2109375,1.1321999999999999
5.679389312977099,2.564885496183206,-1.1145038167938932,-0.433837890625,-0.0751953125,-0.209716796875,1.1339
5.8320610687022905,2.549618320610687,-1.0534351145038168,-0.44482421875,-0.0791015625,-0.221435546875,1.1356
6.152671755725191,2.366412213740458,-1.083969465648855,-0.4453125,-0.080322265625,-0.2197265625,1.1373
6.076335877862595,2.2595419847328246,-0.7633587786259542,-0.437255859375,-0.080322265625,-0.20166015625,1.139
6.076335877862595,2.351145038167939,-0.916030534351145,-0.442626953125,-0.08349609375,-0.216552734375,1.1407
5.923664122137405,2.2900763358778624,-0.8854961832061069,-0.44140625,-0.082763671875,-0.217529296875,1.1423999999999999
6.030534351145038,2.2595419847328246,-0.8244274809160306,-0.43994140625,-0.0810546875,-0.2099609375,1.1441
6.106870229007634,2.2442748091603053,-0.5648854961832062,-0.442626953125,-0.086181640625,-0.2109375,1.1458
5.877862595419847,1.984732824427481,-0.4122137404580153,-0.44091796875,-0.085205078125,-0.212646484375,1.1475
5.938931297709924,2.1068702290076335,-0.24427480916030533,-0.439453125,-0.085205078125,-0.216552734375,1.1492
5.923664122137405,2.16793893129771,-0.3511450381679389,-0.4462890625,-0.08837890625,-0.20654296875,1.1509
5.847328244274809,1.9389312977099236,-0.183206106870229,-0.443603515625,-0.08349609375,-0.205810546875,1.1525999999999998
5.740458015267175,1.786259541984733,-0.1984732824427481,-0.445556640625,-0.087890625,-0.209716796875,1.1542999999999999
5.66412213740458,1.9541984732824427,0.24427480916030533,-0.438720703125,-0.094482421875,-0.207763671875,1.156
5.572519083969466,2.0,0.15267175572519084,-0.439453125,-0.091064453125,-0.2060546875,1.1577
5.603053435114504,1.8015267175572518,0.3053435114503817,-0.44287109375,-0.089599609375,-0.216796875,1.1594
5.419847328244275,1.3587786259541985,0.4732824427480916,-0.44189453125,-0.092529296875,-0.223388671875,1.1611
5.526717557251908,1.4045801526717556,0.7022900763358778,-0.4423828125,-0.095947265625,-0.2158203125,1.1627999999999998
5.374045801526718,1.4045801526717556,0.5648854961832062,-0.43994140625,-0.09521484375,-0.20751953125,1.1644999999999999
5.312977099236641,1.3740458015267176,1.0534351145038168,-0.443603515625,-0.094482421875,-0.21533203125,1.1662
5.374045801526718,1.1603053435114503,0.732824427480916,-0.443359375,-0.0927734375,-0.2060546875,1.1679
5.145038167938932,1.0534351145038168,0.8702290076335878,-0.4404296875,-0.094482421875,-0.211181640625,1.1696
4.763358778625954,1.0687022900763359,1.0687022900763359,-0.437744140625,-0.099609375,-0.207763671875,1.1713
4.656488549618321,0.8702290076335878,1.099236641221374,-0.4423828125,-0.0986328125,-0.20556640625,1.173
4.809160305343512,0.6412213740458015,0.8854961832061069,-0.44287109375,-0.1005859375,-0.207763671875,1.1746999999999999
4.854961832061068,0.32061068702290074,1.297709923664122,-0.444580078125,-0.100341796875,-0.21630859375,1.1764
4.396946564885496,0.33587786259541985,1.2061068702290076,-0.440185546875,-0.1015625,-0.22265625,1.1781
4.305343511450381,0.24427480916030533,1.4045801526717556,-0.447265625,-0.10205078125,-0.212158203125,1.1798
4.152671755725191,-0.030534351145038167,1.4351145038167938,-0.44482421875,-0.100830078125,-0.213623046875,1.1815
3.9236641221374047,0.015267175572519083,1.4045801526717556,-0.437744140625,-0.100341796875,-0.2119140625,1.1832
3.969465648854962,-0.1984732824427481,1.4045801526717556,-0.442626953125,-0.10693359375,-0.217529296875,1.1848999999999998
3.8931297709923665,-0.2900763358778626,1.450381679389313,-0.447021484375,-0.1025390625,-0.22021484375,1.1865999999999999
3.648854961832061,-0.3053435114503817,1.6641221374045803,-0.44287109375,-0.10205078125,-0.21826171875,1.1883
3.8473282442748094,-0.48854961832061067,1.7099236641221374,-0.44384765625,-0.097412109375,-0.21337890625,1.19
3.5114503816793894,-0.8396946564885496,1.5725190839694656,-0.44580078125,-0.10205078125,-0.21533203125,1.1917
3.312977099236641,-0.9007633587786259,1.7099236641221374,-0.446533203125,-0.10302734375,-0.21533203125,1.1934
3.3587786259541983,-0.8549618320610687,1.6488549618320612,-0.443603515625,-0.099853515625,-0.21533203125,1.1950999999999998
3.1755725190839694,-0.9770992366412213,1.8625954198473282,-0.448974609375,-0.10009765625,-0.21044921875,1.1967999999999999
3.0229007633587788,-1.0381679389312977,1.7404580152671756,-0.44677734375,-0.102783203125,-0.212158203125,1.1985
2.7022900763358777,-1.083969465648855,1.83206106870229,-0.447265625,-0.09912109375,-0.217041015625,1.2002
2.5801526717557253,-1.1603053435114503,1.786259541984733,-0.44580078125,-0.09814453125,-0.22021484375,1.2019
2.6717557251908395,-1.3435114503816794,1.816793893129771,-0.44775390625,-0.09228515625,-0.22265625,1.2036
2.6564885496183206,-1.282442748091603,1.83206106870229,-0.447265625,-0.10009765625,-0.209716796875,1.2053
2.2595419847328246,-1.2671755725190839,2.0610687022900764,-0.450927734375,-0.094970703125,-0.209228515625,1.2069999999999999
2.0763358778625953,-1.4961832061068703,2.0763358778625953,-0.447021484375,-0.09033203125,-0.2119140625,1.2086999999999999
2.1068702290076335,-1.450381679389313,2.122137404580153,-0.447265625,-0.095947265625,-0.220458984375,1.2104
2.0,-1.4961832061068703,2.16793893129771,-0.447021484375,-0.086181640625,-0.2080078125,1.2121
2.0,-1.5267175572519085,2.2595419847328246,-0.4482421875,-0.08935546875,-0.218017578125,1.2138
1.7557251908396947,-1.618320610687023,2.2595419847328246,-0.44921875,-0.09423828125,-0.212158203125,1.2155
1.618320610687023,-1.6488549618320612,2.4122137404580153,-0.451416015625,-0.0859375,-0.2099609375,1.2171999999999998
1.450381679389313,-1.4198473282442747,2.4732824427480917,-0.4501953125,-0.085693359375,-0.215087890625,1.2188999999999999
1.3129770992366412,-1.8015267175572518,2.4732824427480917,-0.445556640625,-0.08740234375,-0.216552734375,1.2206
1.3740458015267176,-1.786259541984733,2.595419847328244,-0.453857421875,-0.083740234375,-0.215576171875,1.2223
1.2061068702290076,-1.7557251908396947,2.5343511450381677,-0.449951171875,-0.091796875,-0.2177734375,1.224
1.083969465648855,-1.6946564885496183,2.6564885496183206,-0.4501953125,-0.087646484375,-0.21484375,1.2257
0.8244274809160306,-1.8473282442748091,2.8244274809160306,-0.44873046875,-0.09033203125,-0.221435546875,1.2273999999999998
0.5954198473282443,-1.8778625954198473,2.7786259541984735,-0.450439453125,-0.09033203125,-0.220703125,1.2290999999999999
0.549618320610687,-1.7709923664122138,2.7022900763358777,-0.4560546875,-0.092529296875,-0.220947265625,1.2308
0.0916030534351145,-1.7099236641221374,2.687022900763359,-0.455322265625,-0.0859375,-0.22265625,1.2325
-0.04580152671755725,-1.633587786259542,2.8244274809160306,-0.449462890625,-0.08544921875,-0.222412109375,1.2342
-0.15267175572519084,-1.5572519083969465,2.549618320610687,-0.45458984375,-0.0888671875,-0.230712890625,1.2359
-0.3816793893129771,-1.633587786259542,2.763358778625954,-0.453857421875,-0.088134765625,-0.2158203125,1.2376
-0.42748091603053434,-1.4961832061068703,2.6564885496183206,-0.45654296875,-0.0859375,-0.219970703125,1.2392999999999998
-0.6412213740458015,-1.465648854961832,2.5343511450381677,-0.454345703125,-0.086669921875,-0.2216796875,1.2409999999999999
-0.5648854961832062,-1.4198473282442747,2.6564885496183206,-0.454833984375,-0.08544921875,-0.211181640625,1.2427
-0.7633587786259542,-1.3435114503816794,2.2748091603053435,-0.4580078125,-0.086181640625,-0.224609375,1.2444
-0.8091603053435115,-1.3587786259541985,2.2442748091603053,-0.457275390625,-0.090087890625,-0.223876953125,1.2461
-0.916030534351145,-1.2061068702290076,2.351145038167939,-0.455810546875,-0.084716796875,-0.218505859375,1.2478
-0.9007633587786259,-1.0381679389312977,2.2290076335877864,-0.460693359375,-0.086181640625,-0.216552734375,1.2494999999999998
-0.8549618320610687,-1.2061068702290076,2.2595419847328246,-0.45947265625,-0.08544921875,-0.21923828125,1.2511999999999999
-1.083969465648855,-0.916030534351145,2.16793893129771,-0.457275390625,-0.083251953125,-0.225341796875,1.2529
-1.1755725190839694,-0.7480916030534351,1.9236641221374047,-0.455322265625,-0.081787109375,-0.219970703125,1.2546
-1.099236641221374,-0.7633587786259542,1.9694656488549618,-0.462890625,-0.083984375,-0.214599609375,1.2563
-0.9465648854961832,-0.5801526717557252,1.9389312977099236,-0.462158203125,-0.08154296875,-0.2138671875,1.258
-1.2213740458015268,-0.5343511450381679,1.8473282442748091,-0.4599609375,-0.08203125,-0.217041015625,1.2596999999999998
-1.0381679389312977,-0.42748091603053434,1.7404580152671756,-0.45556640625,-0.083984375,-0.222412109375,1.2613999999999999
-1.1297709923664123,-0.32061068702290074,1.6641221374045803,-0.456787109375,-0.083984375,-0.218505859375,1.2631
-1.1450381679389312,-0.5190839694656488,1.6030534351145038,-0.46044921875,-0.083984375,-0.2177734375,1.2648
-1.0534351145038168,-0.24427480916030533,1.6946564885496183,-0.458984375,-0.079345703125,-0.2099609375,1.2665
-1.297709923664122,-0.366412213740458,1.5572519083969465,-0.458984375,-0.078857421875,-0.20556640625,1.2682
-1.282442748091603,-0.33587786259541985,1.6030534351145038,-0.458251953125,-0.07958984375,-0.20751953125,1.2699
-1.3435114503816794,-0.42748091603053434,1.4045801526717556,-0.459716796875,-0.078369140625,-0.208984375,1.2715999999999998
-1.5725190839694656,-0.5343511450381679,1.5419847328244274,-0.458740234375,-0.073974609375,-0.206298828125,1.2732999999999999
-1.465648854961832,-0.6259541984732825,1.3740458015267176,-0.460205078125,-0.070556640625,-0.20654296875,1.275
-1.6641221374045803,-0.5648854961832062,1.3740458015267176,-0.4599609375,-0.076416015625,-0.20654296875,1.2767
-2.0610687022900764,-0.549618320610687,1.2061068702290076,-0.45703125,-0.074462890625,-0.211181640625,1.2784
-2.16793893129771,-0.7022900763358778,1.2061068702290076,-0.4599609375,-0.076904296875,-0.20166015625,1.2801
-2.0610687022900764,-0.8244274809160306,1.0687022900763359,-0.455810546875,-0.0703125,-0.20703125,1.2817999999999998
-2.1374045801526718,-0.9312977099236641,1.1603053435114503,-0.4599609375,-0.07470703125,-0.203125,1.2834999999999999
-2.4885496183206106,-0.8244274809160306,0.9465648854961832,-0.45751953125,-0.077392578125,-0.20751953125,1.2852
-2.564885496183206,-0.8396946564885496,0.9770992366412213,-0.45849609375,-0.078369140625,-0.20751953125,1.2869
-2.519083969465649,-0.9312977099236641,1.0687022900763359,-0.454345703125,-0.076904296875,-0.199951171875,1.2886
-2.732824427480916,-1.0381679389312977,0.916030534351145,-0.4560546875,-0.07568359375,-0.202392578125,1.2903
-2.732824427480916,-1.0534351145038168,0.7938931297709924,-0.455322265625,-0.07421875,-0.204345703125,1.292
-2.717557251908397,-1.0229007633587786,0.6564885496183206,-0.452392578125,-0.073974609375,-0.20263671875,1.2936999999999999
-2.8396946564885495,-1.0229007633587786,0.6259541984732825,-0.455078125,-0.0673828125,-0.208740234375,1.2953999999999999
-2.8702290076335877,-1.099236641221374,0.6259541984732825,-0.4609375,-0.07373046875,-0.212646484375,1.2971
-2.9770992366412212,-1.251908396946565,0.4580152671755725,-0.45654296875,-0.071533203125,-0.205322265625,1.2988
-2.7938931297709924,-1.1755725190839694,0.5038167938931297,-0.46142578125,-0.072509765625,-0.20458984375,1.3005
-2.885496183206107,-1.0381679389312977,0.4732824427480916,-0.455322265625,-0.072509765625,-0.20703125,1.3022
-2.8091603053435112,-0.9618320610687023,0.32061068702290074,-0.4580078125,-0.072265625,-0.202880859375,1.3038999999999998
-2.7786259541984735,-1.0381679389312977,0.24427480916030533,-0.457763671875,-0.06982421875,-0.201171875,1.3055999999999999
-2.885496183206107,-0.9770992366412213,0.2595419847328244,-0.456298828125,-0.072021484375,-0.20458984375,1.3073
-2.687022900763359,-0.9618320610687023,0.15267175572519084,-0.451171875,-0.0751953125,-0.20166015625,1.309
-2.7938931297709924,-1.0076335877862594,0.030534351145038167,-0.455078125,-0.06884765625,-0.2001953125,1.3107
-2.7938931297709924,-1.0229007633587786,-0.16793893129770993,-0.4521484375,-0.07275390625,-0.200439453125,1.3124
-2.717557251908397,-0.8396946564885496,-0.04580152671755725,-0.456787109375,-0.069580078125,-0.21142578125,1.3140999999999998
-2.7022900763358777,-0.8244274809160306,-0.4732824427480916,-0.455322265625,-0.07177734375,-0.21044921875,1.3157999999999999
-2.900763358778626,-0.8549618320610687,-0.44274809160305345,-0.460693359375,-0.07373046875,-0.20361328125,1.3175
-2.8702290076335877,-0.8854961832061069,-0.3816793893129771,-0.453857421875,-0.067626953125,-0.201416015625,1.3192
-2.6564885496183206,-0.8091603053435115,-0.2900763358778626,-0.454345703125,-0.07080078125,-0.206787109375,1.3209
-2.7480916030534353,-0.8702290076335878,-0.4580152671755725,-0.461181640625,-0.066650390625,-0.210205078125,1.3226
-2.763358778625954,-0.7633587786259542,-0.5038167938931297,-0.452392578125,-0.07275390625,-0.210205078125,1.3243
-2.7480916030534353,-0.732824427480916,-0.732824427480916,-0.451171875,-0.07177734375,-0.207763671875,1.3259999999999998
-2.717557251908397,-0.8396946564885496,-0.8244274809160306,-0.453369140625,-0.073974609375,-0.2041015625,1.3276999999999999
-2.6412213740458017,-0.6564885496183206,-1.0076335877862594,-0.453369140625,-0.075439453125,-0.202880859375,1.3294
-2.8244274809160306,-0.44274809160305345,-0.9465648854961832,-0.45458984375,-0.074951171875,-0.205810546875,1.3311
-2.7938931297709924,-0.5038167938931297,-1.083969465648855,-0.457763671875,-0.07568359375,-0.20361328125,1.3328
-2.732824427480916,-0.5343511450381679,-1.0229007633587786,-0.4541015625,-0.0751953125,-0.205810546875,1.3345
-2.8091603053435112,-0.5954198473282443,-1.465648854961832,-0.453125,-0.076904296875,-0.211181640625,1.3361999999999998
-2.6717557251908395,-0.42748091603053434,-1.3740458015267176,-0.4521484375,-0.072265625,-0.211181640625,1.3378999999999999
-2.8396946564885495,-0.48854961832061067,-1.3740458015267176,-0.45458984375,-0.07373046875,-0.199951171875,1.3396
-3.099236641221374,-0.3969465648854962,-1.3893129770992367,-0.451904296875,-0.0673828125,-0.208740234375,1.3413
-3.0076335877862594,-0.24427480916030533,-1.7557251908396947,-0.455810546875,-0.069580078125,-0.205322265625,1.343
-3.4198473282442747,-0.32061068702290074,-1.6641221374045803,-0.45458984375,-0.07421875,-0.21044921875,1.3447
-3.450381679389313,-0.3969465648854962,-1.6793893129770991,-0.454345703125,-0.072509765625,-0.20458984375,1.3463999999999998
-3.5419847328244276,-0.3511450381679389,-1.7557251908396947,-0.453369140625,-0.07568359375,-0.197021484375,1.3480999999999999
-3.786259541984733,-0.24427480916030533,-1.618320610687023,-0.456298828125,-0.077392578125,-0.205810546875,1.3497999999999999
-3.8625954198473282,-0.10687022900763359,-1.7557251908396947,-0.451416015625,-0.070068359375,-0.2041015625,1.3515
-4.015267175572519,-0.3053435114503817,-1.8931297709923665,-0.45458984375,-0.07421875,-0.2041015625,1.3532
-4.137404580152672,-0.3053435114503817,-1.6793893129770991,-0.451904296875,-0.072509765625,-0.203369140625,1.3549
-4.3816793893129775,-0.15267175572519084,-1.9236641221374047,-0.4541015625,-0.0712890625,-0.202880859375,1.3566
-4.519083969465649,-0.32061068702290074,-1.9694656488549618,-0.455078125,-0.073486328125,-0.20068359375,1.3582999999999998
-4.473282442748092,-0.2900763358778626,-2.030534351145038,-0.45458984375,-0.071533203125,-0.200439453125,1.3599999999999999
-4.625954198473282,-0.2748091603053435,-2.030534351145038,-0.45263671875,-0.073486328125,-0.202880859375,1.3617
-4.870229007633588,-0.2748091603053435,-2.1526717557251906,-0.45263671875,-0.076171875,-0.20849609375,1.3634
-4.809160305343512,-0.1984732824427481,-2.2290076335877864,-0.453125,-0.072509765625,-0.21142578125,1.3651
-4.809160305343512,0.0,-2.3206106870229006,-0.456787109375,-0.068603515625,-0.206298828125,1.3668
-5.022900763358779,-0.22900763358778625,-2.4122137404580153,-0.449951171875,-0.074462890625,-0.2041015625,1.3684999999999998
-4.9465648854961835,0.10687022900763359,-2.50381679389313,-0.451904296875,-0.0712890625,-0.201171875,1.3701999999999999
-5.1603053435114505,-0.04580152671755725,-2.4732824427480917,-0.45263671875,-0.07470703125,-0.20263671875,1.3719
-4.9465648854961835,0.030534351145038167,-2.6106870229007635,-0.44970703125,-0.074951171875,-0.199462890625,1.3736
-5.068702290076335,0.15267175572519084,-2.6106870229007635,-0.452880859375,-0.069580078125,-0.19775390625,1.3753
-5.114503816793893,0.015267175572519083,-2.6564885496183206,-0.452392578125,-0.07080078125,-0.208251953125,1.377
-5.068702290076335,-0.12213740458015267,-2.763358778625954,-0.453369140625,-0.072509765625,-0.19970703125,1.3786999999999998
-4.748091603053435,-0.07633587786259542,-2.9618320610687023,-0.449462890625,-0.07177734375,-0.209716796875,1.3803999999999998
-5.022900763358779,-0.3053435114503817,-2.854961832061069,-0.448486328125,-0.064697265625,-0.205322265625,1.3820999999999999
-4.824427480916031,-0.24427480916030533,-2.9770992366412212,-0.453857421875,-0.070556640625,-0.203857421875,1.3838
-4.9465648854961835,-0.10687022900763359,-3.1297709923664123,-0.448486328125,-0.0673828125,-0.213623046875,1.3855
-5.0534351145038165,-0.24427480916030533,-3.3282442748091605,-0.452392578125,-0.071044921875,-0.21044921875,1.3872
-4.717557251908397,-0.15267175572519084,-3.282442748091603,-0.448974609375,-0.06982421875,-0.2021484375,1.3889
-4.9465648854961835,-0.32061068702290074,-3.282442748091603,-0.446044921875,-0.07275390625,-0.20654296875,1.3905999999999998
-4.809160305343512,-0.2900763358778626,-3.49618320610687,-0.447509765625,-0.068603515625,-0.20166015625,1.3922999999999999
-5.00763358778626,-0.44274809160305345,-3.633587786259542,-0.451416015625,-0.070068359375,-0.20654296875,1.394
-4.732824427480916,-0.3816793893129771,-3.572519083969466,-0.453369140625,-0.0625,-0.20166015625,1.3957
-4.702290076335878,-0.3816793893129771,-3.6946564885496183,-0.447509765625,-0.068603515625,-0.20849609375,1.3974
-4.885496183206107,-0.5190839694656488,-3.83206106870229,-0.4501953125,-0.067138671875,-0.205322265625,1.3991
-4.732824427480916,-0.7633587786259542,-3.7404580152671754,-0.449462890625,-0.071044921875,-0.205810546875,1.4007999999999998
-4.809160305343512,-0.6717557251908397,-3.9083969465648853,-0.45263671875,-0.06884765625,-0.205322265625,1.4024999999999999
-4.641221374045801,-0.5343511450381679,-3.8473282442748094,-0.44873046875,-0.066162109375,-0.206787109375,1.4042
-4.67175572519084,-0.6259541984732825,-4.091603053435114,-0.45166015625,-0.0673828125,-0.209716796875,1.4059
-4.351145038167939,-0.7633587786259542,-4.015267175572519,-0.45068359375,-0.06689453125,-0.200927734375,1.4076
-4.259541984732825,-0.6106870229007634,-4.091603053435114,-0.45068359375,-0.069091796875,-0.211181640625,1.4093
-4.305343511450381,-0.5648854961832062,-4.122137404580153,-0.4482421875,-0.0712890625,-0.20703125,1.411
-4.198473282442748,-0.5038167938931297,-4.152671755725191,-0.450927734375,-0.070556640625,-0.204833984375,1.4126999999999998
-3.954198473282443,-0.48854961832061067,-4.106870229007634,-0.450927734375,-0.0693359375,-0.213134765625,1.4143999999999999
-4.0,-0.21374045801526717,-4.076335877862595,-0.45068359375,-0.0703125,-0.203125,1.4161
-3.9083969465648853,-0.16793893129770993,-4.2748091603053435,-0.45458984375,-0.0712890625,-0.212646484375,1.4178
-3.786259541984733,-0.07633587786259542,-4.3816793893129775,-0.453125,-0.063720703125,-0.213134765625,1.4195
-3.7404580152671754,-0.04580152671755725,-4.259541984732825,-0.44775390625,-0.06689453125,-0.21142578125,1.4212
-3.633587786259542,0.10687022900763359,-4.290076335877862,-0.450927734375,-0.06884765625,-0.207275390625,1.4228999999999998
-3.6030534351145036,0.015267175572519083,-4.473282442748092,-0.4619140625,-0.07177734375,-0.208740234375,1.4245999999999999
-3.7404580152671754,-0.015267175572519083,-4.473282442748092,-0.459228515625,-0.072509765625,-0.20703125,1.4263
-3.6030534351145036,-0.04580152671755725,-4.2748091603053435,-0.45263671875,-0.07373046875,-0.2041015625,1.428
-3.3282442748091605,0.21374045801526717,-4.488549618320611,-0.4541015625,-0.07568359375,-0.21240234375,1.4297
-3.2977099236641223,0.24427480916030533,-4.519083969465649,-0.45556640625,-0.07275390625,-0.2138671875,1.4314
-3.145038167938931,0.3816793893129771,-4.488549618320611,-0.456787109375,-0.067626953125,-0.2080078125,1.4330999999999998
-3.2061068702290076,0.4122137404580153,-4.748091603053435,-0.45263671875,-0.073486328125,-0.206298828125,1.4347999999999999
-3.2977099236641223,0.3511450381679389,-4.732824427480916,-0.45654296875,-0.069580078125,-0.2041015625,1.4364999999999999
-3.267175572519084,0.2748091603053435,-4.702290076335878,-0.45703125,-0.07177734375,-0.195068359375,1.4382
-3.236641221374046,0.16793893129770993,-4.870229007633588,-0.452392578125,-0.07568359375,-0.211181640625,1.4399
-3.3740458015267176,0.22900763358778625,-4.809160305343512,-0.45703125,-0.07666015625,-0.20556640625,1.4416
-3.236641221374046,0.2748091603053435,-5.038167938931298,-0.4560546875,-0.074462890625,-0.208740234375,1.4433
-3.1908396946564888,0.24427480916030533,-5.129770992366412,-0.455322265625,-0.06982421875,-0.207763671875,1.4449999999999998
-3.1297709923664123,0.2595419847328244,-5.251908396946565,-0.45703125,-0.071044921875,-0.20751953125,1.4466999999999999
-3.1297709923664123,0.2748091603053435,-5.129770992366412,-0.45703125,-0.075927734375,-0.2099609375,1.4484
-3.312977099236641,0.33587786259541985,-5.221374045801527,-0.455322265625,-0.07861328125,-0.207275390625,1.4501
-3.2061068702290076,0.366412213740458,-5.419847328244275,-0.45703125,-0.076904296875,-0.20849609375,1.4518
-3.0381679389312977,0.48854961832061067,-5.251908396946565,-0.46240234375,-0.07861328125,-0.21044921875,1.4535
-3.145038167938931,0.32061068702290074,-5.145038167938932,-0.458740234375,-0.0791015625,-0.21337890625,1.4551999999999998
-3.2061068702290076,0.4580152671755725,-5.267175572519084,-0.460693359375,-0.068115234375,-0.202392578125,1.4568999999999999
-3.1297709923664123,0.3969465648854962,-5.374045801526718,-0.461181640625,-0.076171875,-0.206298828125,1.4586
-3.3587786259541983,0.5038167938931297,-5.404580152671755,-0.45849609375,-0.072265625,-0.212158203125,1.4603
-3.0076335877862594,0.4732824427480916,-5.465648854961832,-0.464599609375,-0.07470703125,-0.20458984375,1.462
-3.267175572519084,0.5038167938931297,-5.465648854961832,-0.4599609375,-0.07373046875,-0.209228515625,1.4637
-3.3282442748091605,0.4580152671755725,-5.1603053435114505,-0.46337890625,-0.073974609375,-0.208251953125,1.4653999999999998
-3.2061068702290076,0.6259541984732825,-5.358778625954199,-0.457763671875,-0.077880859375,-0.20849609375,1.4670999999999998
-2.9618320610687023,0.4580152671755725,-5.221374045801527,-0.462158203125,-0.069580078125,-0.199951171875,1.4687999999999999
-3.053435114503817,0.5801526717557252,-5.282442748091603,-0.452880859375,-0.07080078125,-0.210205078125,1.4705
-3.068702290076336,0.7938931297709924,-5.297709923664122,-0.45947265625,-0.074462890625,-0.223388671875,1.4722
-2.946564885496183,0.8091603053435115,-5.251908396946565,-0.465576171875,-0.075927734375,-0.213134765625,1.4739
-2.9770992366412212,0.7175572519083969,-5.1603053435114505,-0.463134765625,-0.07666015625,-0.20751953125,1.4756
-2.885496183206107,0.7022900763358778,-5.190839694656488,-0.46533203125,-0.072021484375,-0.20849609375,1.4772999999999998
-2.900763358778626,1.0229007633587786,-5.129770992366412,-0.463623046875,-0.07421875,-0.199951171875,1.4789999999999999
-2.7480916030534353,0.8702290076335878,-5.129770992366412,-0.46728515625,-0.073486328125,-0.212646484375,1.4807
-2.4580152671755724,0.8549618320610687,-4.99236641221374,-0.458740234375,-0.072265625,-0.206298828125,1.4824
-2.4427480916030535,0.9923664122137404,-4.824427480916031,-0.461181640625,-0.071044921875,-0.208740234375,1.4841
-2.4122137404580153,1.1603053435114503,-4.641221374045801,-0.46044921875,-0.072021484375,-0.212646484375,1.4858
-2.4427480916030535,1.0687022900763359,-4.702290076335878,-0.460693359375,-0.0732421875,-0.2099609375,1.4874999999999998
-1.9389312977099236,1.1603053435114503,-4.366412213740458,-0.463623046875,-0.067138671875,-0.209228515625,1.4891999999999999
-1.8625954198473282,1.0534351145038168,-4.427480916030534,-0.459228515625,-0.0654296875,-0.211181640625,1.4909
-1.5725190839694656,1.1297709923664123,-4.534351145038168,-0.46044921875,-0.074462890625,-0.212158203125,1.4926
-1.7404580152671756,1.0534351145038168,-4.244274809160306,-0.46533203125,-0.072998046875,-0.203369140625,1.4943
-1.4961832061068703,1.099236641221374,-4.091603053435114,-0.455322265625,-0.071533203125,-0.211669921875,1.496
-1.3129770992366412,1.1145038167938932,-4.015267175572519,-0.460205078125,-0.072021484375,-0.21044921875,1.4976999999999998
-1.2213740458015268,1.0534351145038168,-3.6946564885496183,-0.4619140625,-0.0693359375,-0.21240234375,1.4993999999999998
-1.0534351145038168,1.1755725190839694,-3.5267175572519083,-0.4560546875,-0.072265625,-0.21630859375,1.5010999999999999
-0.8244274809160306,1.2671755725190839,-3.3282442748091605,-0.4619140625,-0.06787109375,-0.208984375,1.5028
-0.8396946564885496,1.2061068702290076,-3.404580152671756,-0.45751953125,-0.068115234375,-0.213623046875,1.5045
-0.6259541984732825,1.1450381679389312,-3.145038167938931,-0.457763671875,-0.077392578125,-0.210693359375,1.5062
-0.48854961832061067,1.2366412213740459,-2.885496183206107,-0.45654296875,-0.0693359375,-0.209228515625,1.5079
-0.7022900763358778,1.4961832061068703,-2.7938931297709924,-0.455322265625,-0.068603515625,-0.219970703125,1.5095999999999998
-0.9007633587786259,1.4351145038167938,-2.6564885496183206,-0.459716796875,-0.071044921875,-0.2099609375,1.5112999999999999
-0.5648854961832062,1.3893129770992367,-2.4427480916030535,-0.453369140625,-0.0703125,-0.20703125,1.513
-0.42748091603053434,1.3893129770992367,-2.3053435114503817,-0.455810546875,-0.07568359375,-0.218505859375,1.5147
-0.5801526717557252,1.4961832061068703,-2.2900763358778624,-0.46142578125,-0.079345703125,-0.207275390625,1.5164
-0.6259541984732825,1.3587786259541985,-2.045801526717557,-0.458984375,-0.078857421875,-0.20556640625,1.5181
-0.5954198473282443,1.4198473282442747,-1.83206106870229,-0.456787109375,-0.07568359375,-0.211181640625,1.5197999999999998
-0.6412213740458015,1.5419847328244274,-1.7404580152671756,-0.453369140625,-0.07568359375,-0.209228515625,1.5214999999999999
-0.4122137404580153,1.5572519083969465,-1.5725190839694656,-0.454345703125,-0.07763671875,-0.21044921875,1.5231999999999999
-0.916030534351145,1.5725190839694656,-1.5419847328244274,-0.453369140625,-0.081298828125,-0.209228515625,1.5249
-0.9007633587786259,1.3740458015267176,-1.3587786259541985,-0.4560546875,-0.079833984375,-0.197021484375,1.5266
-0.8854961832061069,1.2061068702290076,-1.3893129770992367,-0.4560546875,-0.08203125,-0.203857421875,1.5283
-0.9923664122137404,1.3282442748091603,-1.251908396946565,-0.4580078125,-0.0830078125,-0.205810546875,1.5299999999999998
-1.297709923664122,0.9770992366412213,-1.0229007633587786,-0.455078125,-0.07568359375,-0.209716796875,1.5316999999999998
-1.297709923664122,0.9007633587786259,-0.9312977099236641,-0.451904296875,-0.078857421875,-0.21044921875,1.5333999999999999
-1.2671755725190839,1.0534351145038168,-1.0534351145038168,-0.455810546875,-0.082763671875,-0.20751953125,1.5351
-1.4045801526717556,0.9465648854961832,-0.8396946564885496,-0.45849609375,-0.082275390625,-0.214599609375,1.5368
-1.7251908396946565,0.9312977099236641,-0.7786259541984732,-0.453857421875,-0.079345703125,-0.21435546875,1.5385
-1.6946564885496183,0.9312977099236641,-0.7480916030534351,-0.454345703125,-0.083740234375,-0.201416015625,1.5402
-1.8473282442748091,0.7938931297709924,-0.9465648854961832,-0.454345703125,-0.0830078125,-0.20751953125,1.5418999999999998
-2.015267175572519,0.6106870229007634,-0.8396946564885496,-0.451904296875,-0.0869140625,-0.2099609375,1.5435999999999999
-2.1526717557251906,0.5038167938931297,-1.0229007633587786,-0.45654296875,-0.0888671875,-0.208984375,1.5453
-2.0610687022900764,0.6412213740458015,-0.8702290076335878,-0.457275390625,-0.083251953125,-0.20849609375,1.547
-2.2442748091603053,0.48854961832061067,-0.7938931297709924,-0.4541015625,-0.090087890625,-0.2119140625,1.5487
-2.366412213740458,0.32061068702290074,-0.7480916030534351,-0.44921875,-0.08740234375,-0.205810546875,1.5504
-2.381679389312977,0.42748091603053434,-0.9770992366412213,-0.45556640625,-0.0849609375,-0.21435546875,1.5520999999999998
-2.366412213740458,0.183206106870229,-0.916030534351145,-0.447998046875,-0.08056640625,-0.20751953125,1.5537999999999998
-2.2442748091603053,0.13740458015267176,-1.0076335877862594,-0.455322265625,-0.085693359375,-0.213134765625,1.5554999999999999
-2.3969465648854964,0.16793893129770993,-0.916030534351145,-0.451171875,-0.081298828125,-0.210205078125,1.5572
-2.4122137404580153,0.16793893129770993,-1.0534351145038168,-0.454833984375,-0.08203125,-0.21337890625,1.5589
-2.213740458015267,0.32061068702290074,-0.9465648854961832,-0.453369140625,-0.0830078125,-0.21923828125,1.5606
-2.4427480916030535,0.3053435114503817,-1.0687022900763359,-0.453125,-0.08056640625,-0.20556640625,1.5623
-2.4122137404580153,0.0916030534351145,-0.8244274809160306,-0.45458984375,-0.079833984375,-0.198486328125,1.5639999999999998
-2.4732824427480917,0.2595419847328244,-0.8244274809160306,-0.45361328125,-0.082275390625,-0.20556640625,1.5656999999999999
-2.427480916030534,0.44274809160305345,-0.9007633587786259,-0.453125,-0.074462890625,-0.210205078125,1.5674
-2.2442748091603053,0.4580152671755725,-0.916030534351145,-0.452392578125,-0.07861328125,-0.21484375,1.5691
-2.2290076335877864,0.6717557251908397,-0.732824427480916,-0.45703125,-0.075927734375,-0.206787109375,1.5708
-2.198473282442748,0.8091603053435115,-0.7175572519083969,-0.450439453125,-0.076171875,-0.20751953125,1.5725
-2.381679389312977,1.0229007633587786,-0.5190839694656488,-0.454833984375,-0.076904296875,-0.214599609375,1.5741999999999998
-2.030534351145038,1.297709923664122,-0.549618320610687,-0.452880859375,-0.076171875,-0.208984375,1.5758999999999999
-1.8931297709923665,1.1908396946564885,-0.5038167938931297,-0.45263671875,-0.077880859375,-0.217529296875,1.5776
-1.9236641221374047,1.5267175572519085,-0.3816793893129771,-0.450927734375,-0.076416015625,-0.22021484375,1.5793
-1.6793893129770991,1.5267175572519085,-0.32061068702290074,-0.451904296875,-0.07373046875,-0.2158203125,1.581
-1.4351145038167938,1.6488549618320612,-0.33587786259541985,-0.450439453125,-0.07275390625,-0.212890625,1.5827
-1.6793893129770991,2.0,-0.13740458015267176,-0.453125,-0.0771484375,-0.21142578125,1.5843999999999998
-1.4809160305343512,1.9236641221374047,-0.5190839694656488,-0.446533203125,-0.070068359375,-0.211669921875,1.5860999999999998
-1.3282442748091603,2.015267175572519,-0.12213740458015267,-0.4541015625,-0.07275390625,-0.20703125,1.5877999999999999
-1.099236641221374,2.2595419847328246,-0.07633587786259542,-0.455322265625,-0.074462890625,-0.2119140625,1.5895
-1.1450381679389312,2.213740458015267,-0.07633587786259542,-0.4521484375,-0.067626953125,-0.208984375,1.5912
-0.9465648854961832,2.2748091603053435,-0.07633587786259542,-0.44873046875,-0.0703125,-0.20703125,1.5929
-0.8549618320610687,2.3206106870229006,-0.015267175572519083,-0.45068359375,-0.068359375,-0.210693359375,1.5946
-0.6870229007633588,2.4885496183206106,0.22900763358778625,-0.444580078125,-0.072265625,-0.216796875,1.5962999999999998
-0.6717557251908397,2.5343511450381677,0.2748091603053435,-0.448486328125,-0.070556640625,-0.211181640625,1.5979999999999999
-0.42748091603053434,2.351145038167939,0.16793893129770993,-0.44580078125,-0.074462890625,-0.207275390625,1.5997
-0.3816793893129771,2.427480916030534,0.366412213740458,-0.451904296875,-0.0771484375,-0.21337890625,1.6014
-0.12213740458015267,2.519083969465649,0.366412213740458,-0.447509765625,-0.072998046875,-0.21484375,1.6031
-0.15267175572519084,2.4580152671755724,0.3511450381679389,-0.45361328125,-0.074951171875,-0.207763671875,1.6048
0.0,2.50381679389313,0.4580152671755725,-0.4541015625,-0.079345703125,-0.20458984375,1.6064999999999998
0.2748091603053435,2.50381679389313,0.5801526717557252,-0.44970703125,-0.07177734375,-0.205078125,1.6081999999999999
0.16793893129770993,2.549618320610687,0.4580152671755725,-0.45166015625,-0.075439453125,-0.209716796875,1.6098999999999999
0.3053435114503817,2.4732824427480917,0.549618320610687,-0.451171875,-0.07275390625,-0.206787109375,1.6116
0.549618320610687,2.366412213740458,0.5190839694656488,-0.448974609375,-0.07275390625,-0.206787109375,1.6133
0.6259541984732825,2.366412213740458,0.5801526717557252,-0.4541015625,-0.067138671875,-0.205322265625,1.615
0.6412213740458015,2.3969465648854964,0.6564885496183206,-0.44921875,-0.074951171875,-0.206787109375,1.6166999999999998
0.8091603053435115,2.3053435114503817,0.6106870229007634,-0.4541015625,-0.07763671875,-0.207763671875,1.6183999999999998
0.9465648854961832,2.2900763358778624,0.8244274809160306,-0.451416015625,-0.0703125,-0.206298828125,1.6200999999999999
1.1908396946564885,2.0763358778625953,0.9007633587786259,-0.4501953125,-0.068115234375,-0.20849609375,1.6218
1.0534351145038168,2.2290076335877864,0.8091603053435115,-0.450439453125,-0.078125,-0.208740234375,1.6235
1.0687022900763359,2.0,0.9465648854961832,-0.449462890625,-0.071044921875,-0.212158203125,1.6252
1.3587786259541985,2.1068702290076335,1.1603053435114503,-0.45166015625,-0.073486328125,-0.202392578125,1.6269
1.1908396946564885,1.8931297709923665,1.0534351145038168,-0.44677734375,-0.070556640625,-0.201416015625,1.6285999999999998
1.282442748091603,1.8625954198473282,1.083969465648855,-0.451904296875,-0.07080078125,-0.2021484375,1.6302999999999999
1.3587786259541985,1.7251908396946565,1.3129770992366412,-0.4501953125,-0.07861328125,-0.204345703125,1.632
1.5114503816793894,1.7557251908396947,1.0534351145038168,-0.4541015625,-0.07470703125,-0.201904296875,1.6337
1.3893129770992367,1.8778625954198473,1.2366412213740459,-0.454833984375,-0.07763671875,-0.212646484375,1.6354
1.5267175572519085,1.786259541984733,1.3129770992366412,-0.451171875,-0.0712890625,-0.21044921875,1.6371
1.5572519083969465,1.786259541984733,1.2671755725190839,-0.44921875,-0.0751953125,-0.20556640625,1.6387999999999998
1.4045801526717556,1.618320610687023,1.3435114503816794,-0.454833984375,-0.07421875,-0.20556640625,1.6404999999999998
1.3435114503816794,1.5267175572519085,1.3435114503816794,-0.455322265625,-0.07275390625,-0.203369140625,1.6421999999999999
1.1145038167938932,1.5877862595419847,1.5419847328244274,-0.453125,-0.0712890625,-0.20947265625,1.6439
1.1603053435114503,1.7709923664122138,1.3740458015267176,-0.45263671875,-0.06884765625,-0.210205078125,1.6456
1.1908396946564885,1.4961832061068703,1.3282442748091603,-0.4619140625,-0.076904296875,-0.208251953125,1.6473
0.8549618320610687,1.3893129770992367,1.3740458015267176,-0.455078125,-0.072265625,-0.208740234375,1.6489999999999998
0.8091603053435115,1.5114503816793894,1.4045801526717556,-0.452880859375,-0.070556640625,-0.2109375,1.6506999999999998
0.7633587786259542,1.4961832061068703,1.450381679389313,-0.45751953125,-0.076171875,-0.21484375,1.6523999999999999
0.8091603053435115,1.3435114503816794,1.7099236641221374,-0.4521484375,-0.073974609375,-0.214599609375,1.6541
0.7175572519083969,1.282442748091603,1.3435114503816794,-0.44970703125,-0.07470703125,-0.216796875,1.6558
0.6870229007633588,1.2366412213740459,1.5572519083969465,-0.45361328125,-0.068603515625,-0.208251953125,1.6575
0.6870229007633588,1.1145038167938932,1.4198473282442747,-0.45556640625,-0.07177734375,-0.211669921875,1.6592
0.7022900763358778,1.0534351145038168,1.5725190839694656,-0.453125,-0.07763671875,-0.213134765625,1.6608999999999998
0.6717557251908397,1.1603053435114503,1.633587786259542,-0.453857421875,-0.07080078125,-0.21044921875,1.6625999999999999
0.7633587786259542,1.3282442748091603,1.7557251908396947,-0.451904296875,-0.069580078125,-0.224853515625,1.6643
0.9007633587786259,1.5114503816793894,1.7404580152671756,-0.45068359375,-0.06787109375,-0.20361328125,1.666
0.8702290076335878,1.5114503816793894,1.7251908396946565,-0.450927734375,-0.072265625,-0.2080078125,1.6677
1.1755725190839694,1.5114503816793894,1.4809160305343512,-0.452880859375,-0.074951171875,-0.20654296875,1.6694
1.1450381679389312,1.5267175572519085,1.8473282442748091,-0.4560546875,-0.07080078125,-0.21484375,1.6710999999999998
1.2671755725190839,1.8473282442748091,1.8015267175572518,-0.455322265625,-0.06591796875,-0.209228515625,1.6727999999999998
1.2061068702290076,1.6793893129770991,1.7557251908396947,-0.45166015625,-0.068359375,-0.206298828125,1.6744999999999999
1.2061068702290076,1.83206106870229,1.633587786259542,-0.455078125,-0.069091796875,-0.2119140625,1.6762
1.465648854961832,2.0,1.786259541984733,-0.453125,-0.068359375,-0.208984375,1.6779
1.3282442748091603,2.0763358778625953,1.7251908396946565,-0.45458984375,-0.072265625,-0.2099609375,1.6796
1.4198473282442747,1.9694656488549618,1.7709923664122138,-0.451416015625,-0.0693359375,-0.213134765625,1.6813
1.4198473282442747,2.045801526717557,1.618320610687023,-0.45166015625,-0.0693359375,-0.2119140625,1.6829999999999998
1.4198473282442747,2.16793893129771,1.7557251908396947,-0.455322265625,-0.071044921875,-0.212158203125,1.6846999999999999
1.3282442748091603,2.2900763358778624,1.3740458015267176,-0.45263671875,-0.067138671875,-0.20361328125,1.6864
1.4198473282442747,2.16793893129771,1.297709923664122,-0.45703125,-0.07568359375,-0.206298828125,1.6881
1.4809160305343512,2.16793893129771,1.450381679389313,-0.45556640625,-0.07080078125,-0.213134765625,1.6898
1.3740458015267176,2.0610687022900764,1.282442748091603,-0.455810546875,-0.065673828125,-0.2109375,1.6915
1.5725190839694656,2.2900763358778624,1.282442748091603,-0.45556640625,-0.066162109375,-0.208984375,1.6931999999999998
1.4198473282442747,2.2442748091603053,1.2671755725190839,-0.4541015625,-0.06591796875,-0.207763671875,1.6948999999999999
1.297709923664122,2.16793893129771,1.1603053435114503,-0.456298828125,-0.064208984375,-0.207275390625,1.6965999999999999
1.282442748091603,2.1526717557251906,1.251908396946565,-0.45556640625,-0.06591796875,-0.205322265625,1.6983
1.2366412213740459,2.1526717557251906,1.2213740458015268,-0.455322265625,-0.0693359375,-0.20458984375,1.7
1.4809160305343512,2.198473282442748,1.1297709923664123,-0.457275390625,-0.065673828125,-0.207763671875,1.7017
1.3587786259541985,2.16793893129771,1.1145038167938932,-0.455810546875,-0.06640625,-0.21044921875,1.7033999999999998
1.450381679389313,2.198473282442748,1.083969465648855,-0.451904296875,-0.068603515625,-0.20556640625,1.7050999999999998
1.450381679389313,2.2900763358778624,0.8244274809160306,-0.44873046875,-0.072021484375,-0.213134765625,1.7067999999999999
1.3435114503816794,2.1374045801526718,0.8702290076335878,-0.453125,-0.05859375,-0.21044921875,1.7085
1.5419847328244274,2.183206106870229,0.6870229007633588,-0.452880859375,-0.0703125,-0.20947265625,1.7102
1.6488549618320612,2.2748091603053435,0.8702290076335878,-0.448486328125,-0.070556640625,-0.21533203125,1.7119
1.6793893129770991,2.0916030534351147,0.7938931297709924,-0.455810546875,-0.067138671875,-0.209716796875,1.7136
1.7251908396946565,2.4427480916030535,0.9465648854961832,-0.451416015625,-0.066650390625,-0.211181640625,1.7152999999999998
1.83206106870229,2.366412213740458,0.7480916030534351,-0.453857421875,-0.063232421875,-0.2060546875,1.7169999999999999
1.9541984732824427,2.3206106870229006,1.0076335877862594,-0.454833984375,-0.067626953125,-0.208984375,1.7187
2.030534351145038,2.2290076335877864,0.7175572519083969,-0.449462890625,-0.05908203125,-0.210205078125,1.7204
2.2595419847328246,2.2900763358778624,0.7633587786259542,-0.449951171875,-0.069091796875,-0.21142578125,1.7221
2.427480916030534,2.4732824427480917,0.7022900763358778,-0.449462890625,-0.0625,-0.208984375,1.7238
2.6412213740458017,2.33587786259542,0.7786259541984732,-0.455810546875,-0.061767578125,-0.2080078125,1.7254999999999998
2.7938931297709924,2.33587786259542,0.7022900763358778,-0.452880859375,-0.067138671875,-0.206298828125,1.7271999999999998
2.6106870229007635,2.2900763358778624,0.6259541984732825,-0.450927734375,-0.0654296875,-0.205078125,1.7288999999999999
2.9160305343511452,2.2442748091603053,0.48854961832061067,-0.451416015625,-0.060546875,-0.213623046875,1.7306
2.931297709923664,2.381679389312977,0.6564885496183206,-0.453857421875,-0.05908203125,-0.209228515625,1.7323
2.8244274809160306,2.549618320610687,0.6717557251908397,-0.4541015625,-0.059814453125,-0.216796875,1.734
2.8396946564885495,2.3053435114503817,0.6564885496183206,-0.4501953125,-0.063720703125,-0.20458984375,1.7356999999999998
3.0229007633587788,2.2900763358778624,0.7175572519083969,-0.4560546875,-0.06689453125,-0.20263671875,1.7373999999999998
2.9160305343511452,2.198473282442748,0.7175572519083969,-0.4521484375,-0.0634765625,-0.197265625,1.7390999999999999
3.2061068702290076,2.0916030534351147,0.8244274809160306,-0.44580078125,-0.0625,-0.205810546875,1.7408
2.9618320610687023,2.16793893129771,0.6717557251908397,-0.453857421875,-0.061767578125,-0.207763671875,1.7425
2.885496183206107,2.1068702290076335,0.7480916030534351,-0.4501953125,-0.068359375,-0.200439453125,1.7442
3.0381679389312977,2.1068702290076335,0.8091603053435115,-0.453857421875,-0.0693359375,-0.207275390625,1.7459
2.9770992366412212,2.0610687022900764,0.8396946564885496,-0.44970703125,-0.065673828125,-0.202880859375,1.7475999999999998
3.1297709923664123,1.9389312977099236,0.6870229007633588,-0.451171875,-0.06640625,-0.2080078125,1.7492999999999999
3.0229007633587788,1.6641221374045803,0.8091603053435115,-0.4462890625,-0.067626953125,-0.205810546875,1.751
2.7786259541984735,1.7251908396946565,0.7786259541984732,-0.450927734375,-0.065185546875,-0.19580078125,1.7527
2.8091603053435112,1.6946564885496183,0.7480916030534351,-0.44970703125,-0.064697265625,-0.212646484375,1.7544
2.900763358778626,1.7099236641221374,0.8702290076335878,-0.448974609375,-0.06689453125,-0.2080078125,1.7561
2.6412213740458017,1.7709923664122138,0.7480916030534351,-0.450439453125,-0.0654296875,-0.205078125,1.7577999999999998
2.763358778625954,1.6488549618320612,0.7022900763358778,-0.447265625,-0.068603515625,-0.205078125,1.7594999999999998
2.763358778625954,1.6030534351145038,0.6412213740458015,-0.448486328125,-0.06396484375,-0.207275390625,1.7611999999999999
2.9160305343511452,1.4198473282442747,0.5954198473282443,-0.44921875,-0.068115234375,-0.211669921875,1.7629
2.9618320610687023,1.465648854961832,0.5954198473282443,-0.450439453125,-0.06640625,-0.206787109375,1.7646
2.9770992366412212,1.465648854961832,0.6717557251908397,-0.450439453125,-0.0615234375,-0.21044921875,1.7663
3.053435114503817,1.4351145038167938,0.5954198473282443,-0.451171875,-0.068115234375,-0.201171875,1.7679999999999998
2.9923664122137406,1.5725190839694656,0.7022900763358778,-0.4541015625,-0.061767578125,-0.2080078125,1.7696999999999998
2.900763358778626,1.5419847328244274,0.7938931297709924,-0.451171875,-0.06640625,-0.2041015625,1.7713999999999999
2.9770992366412212,1.3740458015267176,0.6564885496183206,-0.455322265625,-0.07373046875,-0.197021484375,1.7731
3.114503816793893,1.6641221374045803,0.7022900763358778,-0.453125,-0.06689453125,-0.205322265625,1.7748
3.099236641221374,1.633587786259542,0.5190839694656488,-0.453125,-0.06689453125,-0.209228515625,1.7765
3.068702290076336,1.5725190839694656,0.5954198473282443,-0.453857421875,-0.0673828125,-0.206298828125,1.7782
3.068702290076336,1.6641221374045803,0.6259541984732825,-0.450439453125,-0.066650390625,-0.21044921875,1.7798999999999998
3.2213740458015265,1.5114503816793894,0.5801526717557252,-0.45556640625,-0.064697265625,-0.200439453125,1.7815999999999999
2.7786259541984735,1.5419847328244274,0.3969465648854962,-0.44921875,-0.075927734375,-0.20947265625,1.7832999999999999
3.0839694656488548,1.4809160305343512,0.4580152671755725,-0.449462890625,-0.0712890625,-0.215087890625,1.785
