gyrox1,gyroy1,gyroz1,accelx1,accely1,accelz1,Time
2.9923664122137406,0.7633587786259542,-2.2595419847328246,-0.010009765625,0.11279296875,-0.597412109375,0.0
2.7786259541984735,0.7938931297709924,-2.2900763358778624,-0.01416015625,0.114990234375,-0.598876953125,0.0017
2.7480916030534353,0.916030534351145,-2.4732824427480917,-0.01416015625,0.11767578125,-0.599365234375,0.0034
2.7786259541984735,0.9312977099236641,-2.3206106870229006,-0.01171875,0.110595703125,-0.599609375,0.0050999999999999995
2.6412213740458017,0.9618320610687023,-2.381679389312977,-0.01220703125,0.1083984375,-0.595703125,0.0068
2.3206106870229006,1.0076335877862594,-2.3053435114503817,-0.00634765625,0.116943359375,-0.60546875,0.008499999999999999
2.213740458015267,0.9618320610687023,-2.5343511450381677,-0.0107421875,0.1142578125,-0.593017578125,0.010199999999999999
2.3969465648854964,0.9465648854961832,-2.4580152671755724,-0.01220703125,0.1142578125,-0.600341796875,0.011899999999999999
1.984732824427481,1.0076335877862594,-2.4732824427480917,-0.009521484375,0.114990234375,-0.601318359375,0.0136
2.122137404580153,1.0687022900763359,-2.4885496183206106,-0.012939453125,0.113037109375,-0.60205078125,0.0153
2.015267175572519,1.1908396946564885,-2.519083969465649,-0.009033203125,0.114501953125,-0.605224609375,0.016999999999999998
2.0763358778625953,1.1603053435114503,-2.5343511450381677,-0.0078125,0.116455078125,-0.6044921875,0.018699999999999998
2.1068702290076335,1.0076335877862594,-2.50381679389313,-0.009033203125,0.114990234375,-0.603271484375,0.020399999999999998
1.9694656488549618,1.2366412213740459,-2.4580152671755724,-0.005859375,0.110107421875,-0.606689453125,0.022099999999999998
2.0763358778625953,1.083969465648855,-2.50381679389313,-0.010498046875,0.118896484375,-0.598388671875,0.023799999999999998
2.030534351145038,1.2671755725190839,-2.6717557251908395,-0.00830078125,0.114501953125,-0.60009765625,0.0255
1.9389312977099236,1.3435114503816794,-2.6717557251908395,-0.009521484375,0.111083984375,-0.607177734375,0.0272
1.984732824427481,1.5114503816793894,-2.717557251908397,-0.009521484375,0.119140625,-0.604736328125,0.0289
1.9236641221374047,1.3282442748091603,-2.6412213740458017,-0.012939453125,0.11767578125,-0.60498046875,0.0306
2.0610687022900764,1.3435114503816794,-2.6106870229007635,-0.01220703125,0.116455078125,-0.59912109375,0.032299999999999995
1.8625954198473282,1.3893129770992367,-2.9160305343511452,-0.003662109375,0.10888671875,-0.603271484375,0.033999999999999996
2.045801526717557,1.3893129770992367,-2.6717557251908395,-0.010498046875,0.115234375,-0.601318359375,0.035699999999999996
1.8778625954198473,1.251908396946565,-2.946564885496183,-0.01220703125,0.116943359375,-0.60693359375,0.037399999999999996
1.6488549618320612,1.4198473282442747,-2.717557251908397,-0.012939453125,0.12109375,-0.602783203125,0.039099999999999996
1.8625954198473282,1.4809160305343512,-2.7786259541984735,-0.005126953125,0.1162109375,-0.59716796875,0.040799999999999996
1.786259541984733,1.3740458015267176,-2.6564885496183206,-0.0107421875,0.11669921875,-0.60400390625,0.042499999999999996
1.618320610687023,1.3740458015267176,-2.5343511450381677,-0.012451171875,0.119140625,-0.603759765625,0.044199999999999996
1.6793893129770991,1.4198473282442747,-2.4427480916030535,-0.014892578125,0.1162109375,-0.608642578125,0.045899999999999996
1.3282442748091603,1.4045801526717556,-2.5801526717557253,-0.014892578125,0.122314453125,-0.600830078125,0.047599999999999996
1.7709923664122138,1.3740458015267176,-2.3969465648854964,-0.007568359375,0.11279296875,-0.59912109375,0.0493
1.786259541984733,1.4351145038167938,-2.5343511450381677,-0.014892578125,0.1220703125,-0.595703125,0.051
1.8015267175572518,1.3435114503816794,-2.595419847328244,-0.01123046875,0.11962890625,-0.604736328125,0.0527
1.7404580152671756,1.4809160305343512,-2.50381679389313,-0.010986328125,0.1181640625,-0.604248046875,0.0544
1.8625954198473282,1.5419847328244274,-2.351145038167939,-0.01416015625,0.12060546875,-0.6015625,0.0561
2.1526717557251906,1.5572519083969465,-2.4427480916030535,-0.013671875,0.115478515625,-0.5986328125,0.0578
2.1374045801526718,1.4809160305343512,-2.366412213740458,-0.011474609375,0.121826171875,-0.6064453125,0.0595
2.2900763358778624,1.7557251908396947,-2.4427480916030535,-0.012939453125,0.119384765625,-0.59521484375,0.0612
2.50381679389313,1.6030534351145038,-2.2442748091603053,-0.013427734375,0.118408203125,-0.60205078125,0.0629
2.3206106870229006,1.5877862595419847,-2.4580152671755724,-0.015869140625,0.11669921875,-0.605224609375,0.06459999999999999
2.4885496183206106,1.5877862595419847,-2.381679389312977,-0.0126953125,0.119140625,-0.600341796875,0.0663
2.351145038167939,1.8015267175572518,-2.50381679389313,-0.014404296875,0.120849609375,-0.603515625,0.06799999999999999
2.3053435114503817,1.786259541984733,-2.33587786259542,-0.013916015625,0.12353515625,-0.603271484375,0.0697
2.4122137404580153,1.8778625954198473,-2.6412213740458017,-0.007080078125,0.1240234375,-0.603515625,0.07139999999999999
2.2900763358778624,1.7557251908396947,-2.366412213740458,-0.00830078125,0.124267578125,-0.59521484375,0.0731
2.3053435114503817,1.7404580152671756,-2.7022900763358777,-0.009765625,0.1201171875,-0.59814453125,0.07479999999999999
2.2595419847328246,1.6946564885496183,-2.519083969465649,-0.011962890625,0.116455078125,-0.60107421875,0.0765
2.0763358778625953,1.633587786259542,-2.564885496183206,-0.01171875,0.117919921875,-0.598388671875,0.07819999999999999
1.9083969465648856,1.5725190839694656,-2.687022900763359,-0.010498046875,0.123291015625,-0.595458984375,0.0799
1.8015267175572518,1.5572519083969465,-2.595419847328244,-0.00732421875,0.11279296875,-0.60791015625,0.08159999999999999
1.618320610687023,1.5877862595419847,-2.5801526717557253,-0.007568359375,0.120849609375,-0.6044921875,0.0833
1.4809160305343512,1.465648854961832,-2.8396946564885495,-0.011962890625,0.1220703125,-0.601318359375,0.08499999999999999
1.4351145038167938,1.4351145038167938,-2.4732824427480917,-0.015380859375,0.118896484375,-0.606201171875,0.0867
1.3587786259541985,1.4961832061068703,-2.595419847328244,-0.01220703125,0.113037109375,-0.604736328125,0.08839999999999999
1.1603053435114503,1.4351145038167938,-2.50381679389313,-0.012451171875,0.123046875,-0.593505859375,0.0901
0.9770992366412213,1.450381679389313,-2.4427480916030535,-0.005859375,0.121337890625,-0.600341796875,0.09179999999999999
1.0076335877862594,1.5114503816793894,-2.3969465648854964,-0.005859375,0.119384765625,-0.597900390625,0.0935
1.1450381679389312,1.4045801526717556,-2.4732824427480917,-0.01171875,0.122314453125,-0.604248046875,0.09519999999999999
0.9007633587786259,1.297709923664122,-2.183206106870229,-0.007080078125,0.11865234375,-0.603759765625,0.0969
0.9007633587786259,1.1908396946564885,-2.16793893129771,-0.012939453125,0.119384765625,-0.607421875,0.0986
1.1755725190839694,0.9923664122137404,-2.213740458015267,-0.01708984375,0.119873046875,-0.611083984375,0.1003
1.1145038167938932,1.1297709923664123,-2.2900763358778624,-0.01708984375,0.116943359375,-0.608642578125,0.102
1.0229007633587786,0.9923664122137404,-2.183206106870229,-0.0126953125,0.1171875,-0.595947265625,0.1037
0.916030534351145,0.9923664122137404,-2.6717557251908395,-0.0107421875,0.1201171875,-0.603759765625,0.1054
1.3129770992366412,0.9465648854961832,-2.2595419847328246,-0.01171875,0.122802734375,-0.604248046875,0.1071
0.8702290076335878,0.8854961832061069,-2.198473282442748,-0.00634765625,0.125244140625,-0.60205078125,0.1088
0.8244274809160306,0.6564885496183206,-2.427480916030534,-0.015625,0.1201171875,-0.599365234375,0.11049999999999999
0.8396946564885496,0.8702290076335878,-2.351145038167939,-0.008056640625,0.12109375,-0.605224609375,0.1122
0.732824427480916,0.9770992366412213,-2.4427480916030535,-0.010498046875,0.119384765625,-0.59765625,0.11389999999999999
0.9465648854961832,0.8396946564885496,-2.5801526717557253,-0.011474609375,0.118408203125,-0.5986328125,0.1156
0.7480916030534351,0.9007633587786259,-2.4427480916030535,-0.008544921875,0.122802734375,-0.59619140625,0.11729999999999999
0.7480916030534351,0.8091603053435115,-2.4427480916030535,-0.010498046875,0.125244140625,-0.595947265625,0.119
0.8854961832061069,0.8854961832061069,-2.6259541984732824,-0.010498046875,0.12158203125,-0.59228515625,0.12069999999999999
0.8854961832061069,0.9770992366412213,-2.6106870229007635,-0.00927734375,0.115966796875,-0.59814453125,0.1224
1.099236641221374,0.8549618320610687,-2.427480916030534,-0.0146484375,0.11279296875,-0.599853515625,0.12409999999999999
1.251908396946565,0.8091603053435115,-2.5343511450381677,-0.01513671875,0.113525390625,-0.595703125,0.1258
1.0534351145038168,0.7786259541984732,-2.351145038167939,-0.009521484375,0.119140625,-0.59619140625,0.1275
0.916030534351145,0.7633587786259542,-2.519083969465649,-0.01171875,0.1162109375,-0.596923828125,0.12919999999999998
1.099236641221374,0.6870229007633588,-2.549618320610687,-0.01123046875,0.116455078125,-0.595947265625,0.1309
1.2061068702290076,0.8549618320610687,-2.2900763358778624,-0.010986328125,0.12451171875,-0.595703125,0.1326
1.1908396946564885,0.9312977099236641,-2.16793893129771,-0.013671875,0.119140625,-0.60009765625,0.1343
1.4351145038167938,0.8854961832061069,-2.3053435114503817,-0.017333984375,0.12158203125,-0.600830078125,0.13599999999999998
1.3740458015267176,0.916030534351145,-2.1374045801526718,-0.015625,0.119873046875,-0.598388671875,0.1377
1.3282442748091603,1.0687022900763359,-2.0763358778625953,-0.012451171875,0.118896484375,-0.596923828125,0.1394
1.4961832061068703,0.8091603053435115,-2.0763358778625953,-0.008544921875,0.114501953125,-0.597900390625,0.1411
1.5267175572519085,0.9465648854961832,-1.9389312977099236,-0.009521484375,0.11767578125,-0.6015625,0.14279999999999998
1.6793893129770991,0.8702290076335878,-1.9083969465648856,-0.01318359375,0.118408203125,-0.594482421875,0.1445
1.9236641221374047,0.9770992366412213,-1.9694656488549618,-0.015380859375,0.118408203125,-0.59375,0.1462
1.618320610687023,0.6717557251908397,-1.7709923664122138,-0.017822265625,0.115234375,-0.600341796875,0.1479
1.7709923664122138,0.8702290076335878,-1.7709923664122138,-0.01171875,0.115234375,-0.60009765625,0.14959999999999998
1.9236641221374047,0.6717557251908397,-1.7709923664122138,-0.01220703125,0.115478515625,-0.598876953125,0.1513
1.618320610687023,0.6870229007633588,-1.6793893129770991,-0.01171875,0.119140625,-0.600830078125,0.153
1.7099236641221374,0.9007633587786259,-1.6793893129770991,-0.01318359375,0.116455078125,-0.597412109375,0.1547
1.7404580152671756,0.9007633587786259,-1.816793893129771,-0.00732421875,0.116455078125,-0.59619140625,0.15639999999999998
1.6946564885496183,1.0381679389312977,-1.8473282442748091,-0.00732421875,0.119140625,-0.6025390625,0.1581
1.618320610687023,0.8091603053435115,-1.9389312977099236,-0.0126953125,0.114990234375,-0.6005859375,0.1598
1.6641221374045803,0.7938931297709924,-1.7099236641221374,-0.010986328125,0.117431640625,-0.596435546875,0.1615
1.7099236641221374,0.7175572519083969,-1.7709923664122138,-0.011474609375,0.119384765625,-0.600341796875,0.16319999999999998
1.465648854961832,0.7938931297709924,-1.7099236641221374,-0.010498046875,0.115966796875,-0.600830078125,0.1649
1.5725190839694656,0.7633587786259542,-1.7251908396946565,-0.009521484375,0.111572265625,-0.595458984375,0.1666
1.7404580152671756,0.7022900763358778,-1.786259541984733,-0.014404296875,0.122314453125,-0.591552734375,0.16829999999999998
1.7557251908396947,0.6564885496183206,-1.7709923664122138,-0.019775390625,0.119873046875,-0.59814453125,0.16999999999999998
1.8015267175572518,0.7175572519083969,-1.6641221374045803,-0.0185546875,0.118408203125,-0.602294921875,0.1717
1.8625954198473282,0.5648854961832062,-1.6488549618320612,-0.014892578125,0.1162109375,-0.6044921875,0.1734
1.5725190839694656,0.5801526717557252,-1.5877862595419847,-0.018310546875,0.117919921875,-0.598876953125,0.17509999999999998
1.6641221374045803,0.6564885496183206,-1.5114503816793894,-0.01513671875,0.114501953125,-0.5966796875,0.17679999999999998
1.5877862595419847,0.5038167938931297,-1.6946564885496183,-0.01416015625,0.12060546875,-0.605712890625,0.1785
1.618320610687023,0.6564885496183206,-1.786259541984733,-0.014892578125,0.1142578125,-0.598388671875,0.1802
1.5877862595419847,0.5954198473282443,-1.5877862595419847,-0.016357421875,0.119873046875,-0.593505859375,0.18189999999999998
1.3129770992366412,0.3969465648854962,-1.4961832061068703,-0.015380859375,0.1181640625,-0.602294921875,0.18359999999999999
1.5877862595419847,0.5801526717557252,-1.465648854961832,-0.012939453125,0.12109375,-0.59716796875,0.1853
1.6946564885496183,0.732824427480916,-1.4809160305343512,-0.01123046875,0.116455078125,-0.6064453125,0.187
1.3893129770992367,0.7022900763358778,-1.4809160305343512,-0.01318359375,0.1181640625,-0.590576171875,0.18869999999999998
1.297709923664122,0.5954198473282443,-1.297709923664122,-0.012939453125,0.117431640625,-0.592529296875,0.19039999999999999
1.3435114503816794,0.6717557251908397,-1.3435114503816794,-0.01416015625,0.11865234375,-0.593017578125,0.1921
1.4045801526717556,0.5954198473282443,-1.450381679389313,-0.01318359375,0.118896484375,-0.597900390625,0.1938
1.2061068702290076,0.5954198473282443,-1.5267175572519085,-0.0146484375,0.11962890625,-0.59033203125,0.19549999999999998
1.3282442748091603,0.8244274809160306,-1.3740458015267176,-0.015380859375,0.119384765625,-0.59423828125,0.1972
1.083969465648855,0.9465648854961832,-1.3893129770992367,-0.013916015625,0.11572265625,-0.59814453125,0.1989
1.0076335877862594,0.7175572519083969,-1.297709923664122,-0.013671875,0.121826171875,-0.60546875,0.2006
1.2366412213740459,0.6870229007633588,-1.4198473282442747,-0.009765625,0.11767578125,-0.598876953125,0.20229999999999998
1.083969465648855,0.8396946564885496,-1.3587786259541985,-0.013916015625,0.1171875,-0.598876953125,0.204
1.0381679389312977,0.9770992366412213,-1.2213740458015268,-0.0126953125,0.117919921875,-0.60009765625,0.2057
1.2366412213740459,1.0229007633587786,-1.4198473282442747,-0.009765625,0.116455078125,-0.603271484375,0.2074
1.0534351145038168,0.8244274809160306,-1.2671755725190839,-0.013916015625,0.114013671875,-0.59423828125,0.20909999999999998
0.916030534351145,1.0229007633587786,-1.282442748091603,-0.011474609375,0.1142578125,-0.60302734375,0.2108
1.0229007633587786,1.0381679389312977,-1.2671755725190839,-0.01171875,0.116943359375,-0.597900390625,0.2125
1.0076335877862594,0.9770992366412213,-1.1145038167938932,-0.010498046875,0.114990234375,-0.5927734375,0.2142
1.083969465648855,0.916030534351145,-1.2366412213740459,-0.01025390625,0.111328125,-0.602783203125,0.21589999999999998
1.1145038167938932,0.8854961832061069,-1.3129770992366412,-0.0146484375,0.1123046875,-0.604736328125,0.2176
1.3740458015267176,1.1145038167938932,-1.4045801526717556,-0.018798828125,0.1123046875,-0.59814453125,0.2193
1.3893129770992367,1.1145038167938932,-1.2671755725190839,-0.016357421875,0.11328125,-0.60302734375,0.22099999999999997
1.3587786259541985,0.916030534351145,-1.3282442748091603,-0.015625,0.111572265625,-0.600341796875,0.22269999999999998
1.2671755725190839,1.0381679389312977,-1.099236641221374,-0.01171875,0.1162109375,-0.599853515625,0.2244
1.1908396946564885,1.0534351145038168,-1.3587786259541985,-0.012939453125,0.11376953125,-0.597900390625,0.2261
1.3587786259541985,1.2366412213740459,-1.3129770992366412,-0.01220703125,0.11376953125,-0.595458984375,0.22779999999999997
1.2671755725190839,1.0534351145038168,-1.2366412213740459,-0.011474609375,0.11279296875,-0.60009765625,0.22949999999999998
1.4198473282442747,0.9923664122137404,-1.282442748091603,-0.007080078125,0.116455078125,-0.59765625,0.2312
1.297709923664122,1.0687022900763359,-1.465648854961832,-0.0068359375,0.1181640625,-0.6005859375,0.2329
1.1908396946564885,1.1450381679389312,-1.5114503816793894,-0.017578125,0.119384765625,-0.5947265625,0.23459999999999998
1.3129770992366412,1.251908396946565,-1.465648854961832,-0.010986328125,0.12109375,-0.603515625,0.23629999999999998
1.1297709923664123,1.0534351145038168,-1.3435114503816794,-0.01171875,0.1142578125,-0.598388671875,0.238
1.0534351145038168,1.0381679389312977,-1.4961832061068703,-0.0146484375,0.116943359375,-0.5986328125,0.2397
1.1755725190839694,1.0687022900763359,-1.4351145038167938,-0.010498046875,0.1220703125,-0.600830078125,0.24139999999999998
1.1297709923664123,0.9770992366412213,-1.4198473282442747,-0.00537109375,0.116455078125,-0.593505859375,0.24309999999999998
0.8396946564885496,1.083969465648855,-1.3587786259541985,-0.01171875,0.124267578125,-0.595458984375,0.2448
1.3435114503816794,0.8396946564885496,-1.4198473282442747,-0.01318359375,0.118896484375,-0.601318359375,0.2465
1.3435114503816794,0.7938931297709924,-1.4198473282442747,-0.01171875,0.118408203125,-0.597900390625,0.24819999999999998
1.2213740458015268,0.6259541984732825,-1.3282442748091603,-0.007568359375,0.119384765625,-0.5947265625,0.24989999999999998
1.297709923664122,0.7022900763358778,-1.1755725190839694,-0.007080078125,0.120849609375,-0.60107421875,0.2516
1.3282442748091603,0.6717557251908397,-1.3129770992366412,-0.0048828125,0.117431640625,-0.59521484375,0.25329999999999997
1.450381679389313,0.8549618320610687,-1.1297709923664123,-0.0087890625,0.11474609375,-0.59912109375,0.255
1.6946564885496183,0.6106870229007634,-1.4045801526717556,-0.010498046875,0.119140625,-0.6005859375,0.2567
1.4198473282442747,0.42748091603053434,-1.2213740458015268,-0.012451171875,0.120849609375,-0.604736328125,0.25839999999999996
1.3282442748091603,0.4580152671755725,-1.4045801526717556,-0.01318359375,0.118896484375,-0.589599609375,0.2601
1.8778625954198473,0.3511450381679389,-1.3893129770992367,-0.00830078125,0.1142578125,-0.60400390625,0.2618
1.786259541984733,0.44274809160305345,-1.465648854961832,-0.00439453125,0.1123046875,-0.59521484375,0.2635
1.8931297709923665,0.366412213740458,-1.3282442748091603,-0.01025390625,0.1171875,-0.60791015625,0.2652
1.7709923664122138,0.366412213740458,-1.5114503816793894,-0.008056640625,0.109130859375,-0.592529296875,0.26689999999999997
1.8625954198473282,0.3816793893129771,-1.450381679389313,-0.006103515625,0.11962890625,-0.59765625,0.2686
1.633587786259542,0.4122137404580153,-1.5114503816793894,-0.0048828125,0.115234375,-0.601318359375,0.2703
1.8473282442748091,0.32061068702290074,-1.4961832061068703,-0.01318359375,0.11181640625,-0.58935546875,0.27199999999999996
1.633587786259542,0.32061068702290074,-1.4809160305343512,-0.005859375,0.12060546875,-0.60009765625,0.2737
1.7099236641221374,0.42748091603053434,-1.4961832061068703,-0.0029296875,0.11767578125,-0.59423828125,0.2754
1.8778625954198473,0.7022900763358778,-1.5572519083969465,-0.0107421875,0.114990234375,-0.603271484375,0.27709999999999996
1.816793893129771,0.3969465648854962,-1.5725190839694656,-0.010009765625,0.111083984375,-0.59375,0.2788
1.8625954198473282,0.4732824427480916,-1.5725190839694656,-0.014404296875,0.11669921875,-0.594482421875,0.28049999999999997
1.8625954198473282,0.366412213740458,-1.6030534351145038,-0.01025390625,0.1123046875,-0.596435546875,0.2822
1.8778625954198473,0.549618320610687,-1.816793893129771,-0.01123046875,0.113037109375,-0.60009765625,0.2839
2.015267175572519,0.4732824427480916,-1.5725190839694656,-0.007568359375,0.110595703125,-0.59619140625,0.28559999999999997
2.030534351145038,0.6259541984732825,-1.8015267175572518,-0.0126953125,0.111083984375,-0.597412109375,0.2873
1.633587786259542,0.6259541984732825,-1.9083969465648856,-0.0107421875,0.11181640625,-0.59814453125,0.289
1.6488549618320612,0.4122137404580153,-2.015267175572519,-0.00927734375,0.10693359375,-0.60302734375,0.29069999999999996
1.5725190839694656,0.549618320610687,-1.8625954198473282,-0.00830078125,0.113525390625,-0.604736328125,0.2924
1.5114503816793894,0.48854961832061067,-2.0916030534351147,-0.009521484375,0.105224609375,-0.591064453125,0.2941
1.6641221374045803,0.4122137404580153,-1.9541984732824427,-0.013916015625,0.110595703125,-0.59619140625,0.2958
1.251908396946565,0.3053435114503817,-1.8015267175572518,-0.013916015625,0.1220703125,-0.603271484375,0.2975
1.2366412213740459,0.48854961832061067,-2.183206106870229,-0.00830078125,0.11328125,-0.597900390625,0.29919999999999997
1.2366412213740459,0.3053435114503817,-2.122137404580153,-0.0107421875,0.112548828125,-0.591064453125,0.3009
1.2213740458015268,0.33587786259541985,-2.1374045801526718,-0.006591796875,0.10888671875,-0.5908203125,0.3026
0.9923664122137404,0.183206106870229,-2.381679389312977,-0.01123046875,0.11376953125,-0.5888671875,0.30429999999999996
0.916030534351145,0.1984732824427481,-2.198473282442748,-0.0107421875,0.1171875,-0.592041015625,0.306
1.1450381679389312,-0.015267175572519083,-2.183206106870229,-0.006103515625,0.117431640625,-0.593505859375,0.3077
1.1145038167938932,0.13740458015267176,-2.2595419847328246,-0.008056640625,0.116943359375,-0.586669921875,0.3094
1.0076335877862594,0.10687022900763359,-2.4122137404580153,-0.012939453125,0.118896484375,-0.59130859375,0.3111
1.099236641221374,0.061068702290076333,-2.198473282442748,-0.008544921875,0.118408203125,-0.5927734375,0.31279999999999997
1.099236641221374,-0.04580152671755725,-2.519083969465649,-0.009765625,0.11376953125,-0.594970703125,0.3145
1.0076335877862594,0.183206106870229,-2.3969465648854964,-0.0107421875,0.119140625,-0.600341796875,0.3162
1.083969465648855,0.366412213740458,-2.427480916030534,-0.00830078125,0.11767578125,-0.60009765625,0.31789999999999996
1.1908396946564885,0.15267175572519084,-2.366412213740458,-0.007568359375,0.11767578125,-0.597900390625,0.3196
1.2213740458015268,0.15267175572519084,-2.519083969465649,-0.01171875,0.12158203125,-0.586181640625,0.3213
1.297709923664122,0.22900763358778625,-2.3206106870229006,-0.011474609375,0.1162109375,-0.59033203125,0.323
1.297709923664122,0.13740458015267176,-2.3053435114503817,-0.0107421875,0.115478515625,-0.599609375,0.3247
1.3435114503816794,0.3511450381679389,-2.33587786259542,-0.01123046875,0.116943359375,-0.586669921875,0.32639999999999997
1.5877862595419847,0.42748091603053434,-2.4427480916030535,-0.010498046875,0.11767578125,-0.593505859375,0.3281
1.5877862595419847,0.2595419847328244,-2.2595419847328246,-0.006591796875,0.116455078125,-0.59423828125,0.3298
1.4961832061068703,0.1984732824427481,-2.2900763358778624,-0.0107421875,0.11279296875,-0.59423828125,0.33149999999999996
2.0610687022900764,0.183206106870229,-2.1374045801526718,-0.01123046875,0.11181640625,-0.59326171875,0.3332
1.83206106870229,0.32061068702290074,-2.1374045801526718,-0.01025390625,0.115234375,-0.597900390625,0.3349
1.8931297709923665,0.2595419847328244,-2.0916030534351147,-0.005859375,0.115966796875,-0.6015625,0.33659999999999995
2.183206106870229,0.16793893129770993,-2.3206106870229006,-0.01220703125,0.11376953125,-0.585205078125,0.3383
2.381679389312977,0.21374045801526717,-2.2290076335877864,-0.011474609375,0.115478515625,-0.59814453125,0.33999999999999997
2.045801526717557,0.366412213740458,-2.122137404580153,-0.010986328125,0.1171875,-0.5947265625,0.3417
2.2748091603053435,0.2900763358778626,-2.1526717557251906,-0.0107421875,0.11376953125,-0.598876953125,0.3434
2.4427480916030535,0.21374045801526717,-2.366412213740458,-0.0107421875,0.111572265625,-0.596923828125,0.34509999999999996
2.381679389312977,0.2595419847328244,-2.16793893129771,-0.010498046875,0.11376953125,-0.59423828125,0.3468
2.33587786259542,0.3511450381679389,-2.3053435114503817,-0.010498046875,0.112548828125,-0.59521484375,0.3485
2.366412213740458,0.12213740458015267,-2.366412213740458,-0.0107421875,0.109130859375,-0.593017578125,0.35019999999999996
2.2748091603053435,0.13740458015267176,-2.351145038167939,-0.01220703125,0.11376953125,-0.59716796875,0.3519
2.198473282442748,0.0916030534351145,-2.33587786259542,-0.010498046875,0.116455078125,-0.598388671875,0.35359999999999997
2.0763358778625953,0.030534351145038167,-2.4732824427480917,-0.0107421875,0.118408203125,-0.594482421875,0.3553
2.1526717557251906,0.0916030534351145,-2.2595419847328246,-0.0068359375,0.114501953125,-0.590087890625,0.357
2.3969465648854964,0.0,-2.4885496183206106,-0.0107421875,0.117919921875,-0.591552734375,0.35869999999999996
1.9541984732824427,-0.15267175572519084,-2.6717557251908395,-0.007080078125,0.113037109375,-0.593994140625,0.3604
2.0610687022900764,-0.061068702290076333,-2.595419847328244,-0.0107421875,0.114501953125,-0.59423828125,0.3621
2.1068702290076335,-0.030534351145038167,-2.6717557251908395,-0.012451171875,0.115478515625,-0.594970703125,0.36379999999999996
2.0,-0.13740458015267176,-2.6106870229007635,-0.011474609375,0.1162109375,-0.6005859375,0.3655
1.9694656488549618,0.04580152671755725,-2.7022900763358777,-0.01171875,0.114501953125,-0.598876953125,0.36719999999999997
2.0610687022900764,-0.015267175572519083,-2.7480916030534353,-0.01123046875,0.11669921875,-0.598388671875,0.3689
2.2595419847328246,-0.12213740458015267,-2.564885496183206,-0.01416015625,0.11376953125,-0.591552734375,0.3706
2.0916030534351147,-0.061068702290076333,-2.8244274809160306,-0.0146484375,0.115966796875,-0.599365234375,0.37229999999999996
2.0,0.04580152671755725,-2.854961832061069,-0.01513671875,0.11865234375,-0.595703125,0.374
2.1374045801526718,-0.030534351145038167,-2.900763358778626,-0.010986328125,0.11181640625,-0.594970703125,0.3757
2.4732824427480917,0.2748091603053435,-3.0229007633587788,-0.011474609375,0.113037109375,-0.59326171875,0.37739999999999996
2.50381679389313,0.061068702290076333,-2.946564885496183,-0.006103515625,0.11328125,-0.596435546875,0.3791
2.4885496183206106,0.015267175572519083,-2.763358778625954,-0.009521484375,0.1171875,-0.597412109375,0.38079999999999997
2.5801526717557253,0.16793893129770993,-2.7480916030534353,-0.010009765625,0.1162109375,-0.594482421875,0.38249999999999995
2.7786259541984735,0.061068702290076333,-2.8244274809160306,-0.013427734375,0.115478515625,-0.5908203125,0.3842
2.6259541984732824,0.0916030534351145,-2.9618320610687023,-0.011474609375,0.114990234375,-0.5859375,0.38589999999999997
2.7022900763358777,0.1984732824427481,-2.8702290076335877,-0.013916015625,0.11865234375,-0.585205078125,0.3876
3.053435114503817,0.07633587786259542,-2.8702290076335877,-0.005859375,0.112548828125,-0.5859375,0.3893
2.763358778625954,0.12213740458015267,-2.8244274809160306,-0.0048828125,0.111572265625,-0.58837890625,0.39099999999999996
3.0076335877862594,0.07633587786259542,-2.9160305343511452,-0.0107421875,0.113037109375,-0.596923828125,0.3927
3.0381679389312977,-0.0916030534351145,-2.9160305343511452,-0.0078125,0.11279296875,-0.591796875,0.3944
3.2519083969465647,0.015267175572519083,-3.0229007633587788,-0.00390625,0.116943359375,-0.5947265625,0.39609999999999995
3.3740458015267176,0.10687022900763359,-3.1297709923664123,-0.0107421875,0.11328125,-0.591064453125,0.3978
3.3587786259541983,0.030534351145038167,-3.099236641221374,-0.006591796875,0.10693359375,-0.593017578125,0.39949999999999997
3.450381679389313,-0.0916030534351145,-3.068702290076336,-0.0078125,0.111328125,-0.596923828125,0.4012
3.312977099236641,-0.13740458015267176,-3.1908396946564888,-0.0087890625,0.110107421875,-0.594970703125,0.4029
3.053435114503817,-0.061068702290076333,-3.1755725190839694,-0.006591796875,0.112060546875,-0.5966796875,0.40459999999999996
3.3282442748091605,-0.04580152671755725,-3.1755725190839694,-0.009765625,0.114990234375,-0.597412109375,0.4063
3.5267175572519083,-0.061068702290076333,-3.480916030534351,-0.00732421875,0.115478515625,-0.5888671875,0.408
3.2061068702290076,-0.1984732824427481,-3.480916030534351,-0.004150390625,0.1142578125,-0.597412109375,0.40969999999999995
3.4656488549618323,-0.0916030534351145,-3.2977099236641223,-0.010498046875,0.111328125,-0.605712890625,0.4114
3.2519083969465647,-0.15267175572519084,-3.648854961832061,-0.002197265625,0.11279296875,-0.592041015625,0.41309999999999997
3.236641221374046,-0.15267175572519084,-3.5877862595419847,-0.009521484375,0.1142578125,-0.59130859375,0.4148
2.9923664122137406,-0.2595419847328244,-3.633587786259542,-0.00390625,0.11328125,-0.592529296875,0.4165
2.687022900763359,-0.22900763358778625,-3.7404580152671754,-0.005859375,0.115966796875,-0.5927734375,0.41819999999999996
2.7938931297709924,-0.42748091603053434,-3.8473282442748094,-0.00341796875,0.119140625,-0.59130859375,0.4199
2.6412213740458017,-0.3053435114503817,-3.816793893129771,-0.0029296875,0.11328125,-0.6005859375,0.4216
2.4427480916030535,-0.2595419847328244,-3.8473282442748094,-0.0029296875,0.11376953125,-0.59521484375,0.42329999999999995
2.0763358778625953,-0.42748091603053434,-3.984732824427481,0.000244140625,0.11767578125,-0.5947265625,0.425
1.9389312977099236,-0.4580152671755725,-4.0,-0.001708984375,0.114990234375,-0.59423828125,0.42669999999999997
1.9541984732824427,-0.4732824427480916,-4.183206106870229,-0.002685546875,0.1171875,-0.600830078125,0.4284
1.83206106870229,-0.4580152671755725,-4.198473282442748,0.0009765625,0.115478515625,-0.600341796875,0.4301
1.816793893129771,-0.6106870229007634,-4.351145038167939,-0.002197265625,0.11865234375,-0.598388671875,0.43179999999999996
1.6793893129770991,-0.8396946564885496,-4.351145038167939,-0.004638671875,0.1123046875,-0.6025390625,0.4335
1.8473282442748091,-0.9618320610687023,-4.534351145038168,-0.00244140625,0.113037109375,-0.590087890625,0.4352
1.4809160305343512,-0.8702290076335878,-4.534351145038168,0.001953125,0.112548828125,-0.594970703125,0.43689999999999996
1.6488549618320612,-1.083969465648855,-4.564885496183206,-0.002197265625,0.11669921875,-0.599365234375,0.4386
1.6488549618320612,-1.297709923664122,-4.534351145038168,-0.000732421875,0.113037109375,-0.595703125,0.44029999999999997
1.6793893129770991,-1.2671755725190839,-4.519083969465649,-0.00146484375,0.116455078125,-0.599853515625,0.44199999999999995
1.7557251908396947,-1.4809160305343512,-4.427480916030534,-0.00390625,0.11865234375,-0.59716796875,0.4437
1.7709923664122138,-1.5725190839694656,-4.580152671755725,-0.0029296875,0.1181640625,-0.602294921875,0.44539999999999996
1.7557251908396947,-1.4045801526717556,-4.641221374045801,-0.002197265625,0.115966796875,-0.6044921875,0.4471
1.9389312977099236,-1.618320610687023,-4.748091603053435,-0.003173828125,0.115966796875,-0.60546875,0.4488
1.83206106870229,-1.5267175572519085,-4.6106870229007635,-0.0029296875,0.11669921875,-0.598876953125,0.45049999999999996
1.6030534351145038,-1.5267175572519085,-4.8396946564885495,-0.000244140625,0.113525390625,-0.609619140625,0.4522
1.8931297709923665,-1.8778625954198473,-4.748091603053435,-0.003173828125,0.115234375,-0.6005859375,0.45389999999999997
1.7099236641221374,-2.0916030534351147,-4.778625954198473,-0.000732421875,0.111572265625,-0.599853515625,0.45559999999999995
1.7099236641221374,-2.030534351145038,-4.717557251908397,-0.00390625,0.114990234375,-0.59521484375,0.4573
2.0,-1.9083969465648856,-4.67175572519084,-0.008056640625,0.1142578125,-0.60107421875,0.45899999999999996
1.8473282442748091,-1.9083969465648856,-4.8396946564885495,-0.008056640625,0.11669921875,-0.613037109375,0.4607
1.9694656488549618,-2.1526717557251906,-4.9465648854961835,-0.00390625,0.11328125,-0.60400390625,0.4624
1.9541984732824427,-2.1526717557251906,-4.854961832061068,-0.006591796875,0.117919921875,-0.598388671875,0.46409999999999996
2.183206106870229,-1.8778625954198473,-5.022900763358779,-0.004150390625,0.117431640625,-0.606201171875,0.4658
2.0610687022900764,-2.0610687022900764,-4.824427480916031,-0.004638671875,0.114501953125,-0.599365234375,0.46749999999999997
1.984732824427481,-2.2290076335877864,-5.129770992366412,-0.0048828125,0.113525390625,-0.599853515625,0.46919999999999995
2.183206106870229,-2.16793893129771,-5.114503816793893,-0.006591796875,0.1064453125,-0.59375,0.4709
2.381679389312977,-2.1374045801526718,-5.343511450381679,-0.0078125,0.115478515625,-0.603515625,0.47259999999999996
2.030534351145038,-1.984732824427481,-5.465648854961832,-0.005126953125,0.112060546875,-0.593994140625,0.4743
2.122137404580153,-1.8931297709923665,-5.297709923664122,-0.005615234375,0.1044921875,-0.593505859375,0.476
2.0916030534351147,-2.030534351145038,-5.7251908396946565,-0.005126953125,0.11669921875,-0.601806640625,0.47769999999999996
2.015267175572519,-2.030534351145038,-5.603053435114504,-0.00634765625,0.111328125,-0.59765625,0.4794
1.83206106870229,-1.83206106870229,-5.572519083969466,-0.01123046875,0.11669921875,-0.59912109375,0.48109999999999997
1.6641221374045803,-1.7099236641221374,-5.862595419847328,-0.011962890625,0.114990234375,-0.60400390625,0.48279999999999995
1.83206106870229,-1.7557251908396947,-5.969465648854962,-0.01220703125,0.112548828125,-0.5927734375,0.4845
1.816793893129771,-1.8015267175572518,-5.984732824427481,-0.00732421875,0.114013671875,-0.599853515625,0.48619999999999997
1.6488549618320612,-1.5419847328244274,-5.9541984732824424,-0.005615234375,0.111328125,-0.60302734375,0.4879
1.3435114503816794,-1.7404580152671756,-5.984732824427481,-0.00830078125,0.113037109375,-0.5966796875,0.4896
1.4198473282442747,-1.7251908396946565,-6.076335877862595,-0.01220703125,0.1123046875,-0.60302734375,0.49129999999999996
1.4351145038167938,-1.5877862595419847,-6.061068702290076,-0.011474609375,0.1162109375,-0.6005859375,0.493
1.3282442748091603,-1.633587786259542,-5.923664122137405,-0.013916015625,0.111328125,-0.597900390625,0.4947
1.450381679389313,-1.618320610687023,-6.091603053435114,-0.01025390625,0.112548828125,-0.6005859375,0.49639999999999995
1.3893129770992367,-1.5114503816793894,-6.183206106870229,-0.0068359375,0.11962890625,-0.6005859375,0.4981
1.5419847328244274,-1.6488549618320612,-6.290076335877862,-0.011962890625,0.10888671875,-0.602294921875,0.49979999999999997
1.4961832061068703,-1.633587786259542,-6.076335877862595,-0.0126953125,0.1083984375,-0.597900390625,0.5015
1.4961832061068703,-1.3740458015267176,-6.106870229007634,-0.009521484375,0.110595703125,-0.603271484375,0.5032
1.7251908396946565,-1.450381679389313,-6.061068702290076,-0.00732421875,0.118896484375,-0.60205078125,0.5049
1.7251908396946565,-1.5419847328244274,-6.198473282442748,-0.013916015625,0.114013671875,-0.6015625,0.5065999999999999
1.5419847328244274,-1.465648854961832,-6.259541984732825,-0.009033203125,0.11083984375,-0.60400390625,0.5083
1.816793893129771,-1.633587786259542,-6.366412213740458,-0.0126953125,0.112548828125,-0.603515625,0.51
1.8625954198473282,-1.4809160305343512,-6.2748091603053435,-0.008056640625,0.1142578125,-0.6015625,0.5116999999999999
1.83206106870229,-1.450381679389313,-6.396946564885496,-0.009765625,0.114501953125,-0.594970703125,0.5134
1.5877862595419847,-1.4809160305343512,-6.122137404580153,-0.01953125,0.114990234375,-0.599853515625,0.5151
1.786259541984733,-1.3893129770992367,-6.396946564885496,-0.018310546875,0.11328125,-0.60107421875,0.5167999999999999
1.816793893129771,-1.4045801526717556,-6.1679389312977095,-0.014404296875,0.1123046875,-0.5966796875,0.5185
1.8778625954198473,-1.3740458015267176,-6.351145038167939,-0.01318359375,0.111572265625,-0.60009765625,0.5202
1.5725190839694656,-1.2366412213740459,-6.229007633587786,-0.011962890625,0.112548828125,-0.600830078125,0.5218999999999999
1.618320610687023,-1.1908396946564885,-6.396946564885496,-0.01611328125,0.109619140625,-0.60302734375,0.5236
1.6488549618320612,-1.1145038167938932,-6.198473282442748,-0.02099609375,0.112060546875,-0.605224609375,0.5253
1.450381679389313,-0.9923664122137404,-6.259541984732825,-0.021484375,0.10986328125,-0.60791015625,0.527
1.5267175572519085,-0.8549618320610687,-6.305343511450381,-0.020263671875,0.106689453125,-0.603759765625,0.5287
1.3129770992366412,-0.916030534351145,-6.412213740458015,-0.0166015625,0.107666015625,-0.60693359375,0.5304
1.1603053435114503,-0.8091603053435115,-6.152671755725191,-0.015380859375,0.1142578125,-0.603515625,0.5321
1.1603053435114503,-0.6870229007633588,-6.33587786259542,-0.015869140625,0.115966796875,-0.6044921875,0.5337999999999999
0.9312977099236641,-0.6412213740458015,-6.244274809160306,-0.022216796875,0.111572265625,-0.5927734375,0.5355
1.0076335877862594,-0.4122137404580153,-6.366412213740458,-0.01806640625,0.107177734375,-0.598876953125,0.5372
1.0534351145038168,-0.4732824427480916,-6.320610687022901,-0.018798828125,0.11181640625,-0.601318359375,0.5388999999999999
0.8854961832061069,-0.4580152671755725,-6.412213740458015,-0.021484375,0.111572265625,-0.603271484375,0.5406
0.7786259541984732,-0.3511450381679389,-6.351145038167939,-0.02001953125,0.109619140625,-0.597412109375,0.5423
0.7938931297709924,-0.21374045801526717,-6.351145038167939,-0.019775390625,0.107177734375,-0.58935546875,0.5439999999999999
0.6259541984732825,-0.183206106870229,-6.366412213740458,-0.015625,0.1123046875,-0.600830078125,0.5457
0.6564885496183206,-0.015267175572519083,-6.595419847328245,-0.0205078125,0.104736328125,-0.60986328125,0.5474
0.3511450381679389,0.21374045801526717,-6.519083969465649,-0.022216796875,0.107666015625,-0.60400390625,0.5490999999999999
0.24427480916030533,0.2595419847328244,-6.442748091603053,-0.020751953125,0.11376953125,-0.603271484375,0.5508
0.3053435114503817,0.2595419847328244,-6.122137404580153,-0.02197265625,0.112548828125,-0.59716796875,0.5525
0.2748091603053435,0.5038167938931297,-6.366412213740458,-0.0234375,0.117431640625,-0.5908203125,0.5541999999999999
-0.030534351145038167,0.6717557251908397,-6.351145038167939,-0.01953125,0.112060546875,-0.6025390625,0.5559
-0.15267175572519084,0.6412213740458015,-6.183206106870229,-0.023193359375,0.12158203125,-0.610107421875,0.5576
-0.22900763358778625,0.7938931297709924,-6.198473282442748,-0.020751953125,0.11669921875,-0.602294921875,0.5593
-0.42748091603053434,0.9007633587786259,-6.198473282442748,-0.01611328125,0.121826171875,-0.596923828125,0.5609999999999999
-0.6717557251908397,1.0381679389312977,-6.030534351145038,-0.023681640625,0.11767578125,-0.596923828125,0.5627
-0.7022900763358778,1.083969465648855,-5.908396946564886,-0.020263671875,0.119384765625,-0.59521484375,0.5644
-0.9312977099236641,1.1908396946564885,-5.923664122137405,-0.02099609375,0.11572265625,-0.6005859375,0.5660999999999999
-0.8854961832061069,1.251908396946565,-5.862595419847328,-0.022216796875,0.121337890625,-0.598388671875,0.5678
-0.7786259541984732,1.3129770992366412,-5.557251908396947,-0.0224609375,0.118896484375,-0.59228515625,0.5695
-0.9465648854961832,1.3129770992366412,-5.847328244274809,-0.01904296875,0.12109375,-0.597900390625,0.5711999999999999
-0.9007633587786259,1.3587786259541985,-5.587786259541985,-0.018310546875,0.1162109375,-0.597412109375,0.5729
-1.0076335877862594,1.450381679389313,-5.4961832061068705,-0.02294921875,0.11474609375,-0.595703125,0.5746
-1.0687022900763359,1.4351145038167938,-5.282442748091603,-0.017578125,0.12158203125,-0.599365234375,0.5762999999999999
-1.0687022900763359,1.7099236641221374,-5.190839694656488,-0.023681640625,0.119140625,-0.594970703125,0.578
-0.9770992366412213,1.5419847328244274,-4.809160305343512,-0.013427734375,0.12109375,-0.607421875,0.5797
-0.9465648854961832,1.5419847328244274,-5.00763358778626,-0.017578125,0.12109375,-0.600830078125,0.5813999999999999
-0.8091603053435115,1.4351145038167938,-4.702290076335878,-0.017578125,0.121337890625,-0.59912109375,0.5831
-0.7022900763358778,1.6946564885496183,-4.702290076335878,-0.0166015625,0.12158203125,-0.59326171875,0.5848
-0.4580152671755725,1.7557251908396947,-4.564885496183206,-0.02197265625,0.123046875,-0.59765625,0.5865
-0.8244274809160306,1.5419847328244274,-4.641221374045801,-0.0205078125,0.120849609375,-0.603271484375,0.5882
-0.48854961832061067,1.7557251908396947,-4.3816793893129775,-0.02099609375,0.125,-0.59912109375,0.5899
-0.015267175572519083,1.6946564885496183,-4.198473282442748,-0.019287109375,0.12109375,-0.599365234375,0.5916
-0.04580152671755725,1.3435114503816794,-4.137404580152672,-0.021240234375,0.11865234375,-0.596923828125,0.5932999999999999
-0.07633587786259542,1.3435114503816794,-4.305343511450381,-0.019287109375,0.127197265625,-0.595703125,0.595
0.10687022900763359,1.465648854961832,-4.0458015267175576,-0.016845703125,0.123779296875,-0.599365234375,0.5967
0.2595419847328244,1.5877862595419847,-4.183206106870229,-0.0146484375,0.122802734375,-0.60107421875,0.5983999999999999
0.5038167938931297,1.3893129770992367,-3.9389312977099236,-0.017578125,0.122802734375,-0.603515625,0.6001
0.5648854961832062,1.1908396946564885,-3.7709923664122136,-0.016357421875,0.12353515625,-0.5986328125,0.6018
0.7022900763358778,1.251908396946565,-3.6793893129770994,-0.0205078125,0.12255859375,-0.599853515625,0.6034999999999999
0.7633587786259542,1.1908396946564885,-3.801526717557252,-0.021240234375,0.120849609375,-0.5947265625,0.6052
1.2366412213740459,1.1603053435114503,-3.648854961832061,-0.0166015625,0.1162109375,-0.595703125,0.6069
1.3129770992366412,1.1908396946564885,-3.450381679389313,-0.0234375,0.124267578125,-0.595703125,0.6085999999999999
1.4809160305343512,1.099236641221374,-3.2977099236641223,-0.018310546875,0.12451171875,-0.592529296875,0.6103
1.6641221374045803,0.9618320610687023,-3.49618320610687,-0.016357421875,0.121826171875,-0.59423828125,0.612
1.8015267175572518,0.9618320610687023,-3.282442748091603,-0.01953125,0.121337890625,-0.596923828125,0.6136999999999999
1.8473282442748091,0.8549618320610687,-3.4656488549618323,-0.021240234375,0.1259765625,-0.59521484375,0.6154
1.9541984732824427,0.7938931297709924,-3.2977099236641223,-0.017333984375,0.118896484375,-0.59619140625,0.6171
1.984732824427481,0.916030534351145,-3.1908396946564888,-0.01611328125,0.11962890625,-0.59521484375,0.6188
2.2595419847328246,0.9465648854961832,-3.114503816793893,-0.01416015625,0.1240234375,-0.597900390625,0.6204999999999999
2.2442748091603053,0.8549618320610687,-3.1755725190839694,-0.014892578125,0.128662109375,-0.598388671875,0.6222
2.351145038167939,0.8702290076335878,-2.8396946564885495,-0.0166015625,0.120849609375,-0.597900390625,0.6239
2.595419847328244,1.1297709923664123,-2.900763358778626,-0.020263671875,0.122802734375,-0.59814453125,0.6255999999999999
2.7022900763358777,0.8702290076335878,-2.6717557251908395,-0.017822265625,0.124267578125,-0.605712890625,0.6273
2.732824427480916,0.9007633587786259,-2.50381679389313,-0.023193359375,0.12451171875,-0.58837890625,0.629
2.9160305343511452,1.0229007633587786,-2.5801526717557253,-0.02392578125,0.12060546875,-0.593017578125,0.6306999999999999
2.9923664122137406,1.0229007633587786,-2.549618320610687,-0.01904296875,0.114013671875,-0.601318359375,0.6324
3.114503816793893,1.0229007633587786,-2.351145038167939,-0.016845703125,0.11865234375,-0.604248046875,0.6341
3.1908396946564888,1.1908396946564885,-2.3053435114503817,-0.02099609375,0.1240234375,-0.594482421875,0.6357999999999999
3.2213740458015265,1.2061068702290076,-2.3206106870229006,-0.020751953125,0.124267578125,-0.59716796875,0.6375
3.5114503816793894,1.2366412213740459,-2.2748091603053435,-0.0224609375,0.121337890625,-0.606201171875,0.6392
3.3282442748091605,1.3282442748091603,-2.2442748091603053,-0.020263671875,0.12158203125,-0.608154296875,0.6408999999999999
3.312977099236641,1.3587786259541985,-2.213740458015267,-0.01611328125,0.117919921875,-0.60595703125,0.6426
3.3282442748091605,1.4198473282442747,-2.0,-0.0185546875,0.11767578125,-0.608642578125,0.6443
3.2213740458015265,1.4961832061068703,-2.0610687022900764,-0.021728515625,0.1181640625,-0.590576171875,0.646
3.0839694656488548,1.2061068702290076,-1.9236641221374047,-0.02099609375,0.114990234375,-0.598876953125,0.6476999999999999
3.282442748091603,1.2213740458015268,-2.0,-0.021484375,0.115234375,-0.597900390625,0.6494
3.068702290076336,1.3129770992366412,-1.984732824427481,-0.01904296875,0.115966796875,-0.60205078125,0.6511
3.068702290076336,1.2366412213740459,-1.786259541984733,-0.018310546875,0.11474609375,-0.598876953125,0.6527999999999999
3.3587786259541983,1.251908396946565,-1.6946564885496183,-0.0224609375,0.111083984375,-0.603271484375,0.6545
3.053435114503817,1.282442748091603,-1.7557251908396947,-0.022216796875,0.1171875,-0.607421875,0.6562
3.0229007633587788,1.2213740458015268,-1.7557251908396947,-0.02294921875,0.117919921875,-0.599609375,0.6578999999999999
2.7938931297709924,1.0229007633587786,-1.6030534351145038,-0.01953125,0.115478515625,-0.60205078125,0.6596
2.5343511450381677,0.8702290076335878,-1.7099236641221374,-0.016845703125,0.115478515625,-0.599609375,0.6613
2.595419847328244,0.9465648854961832,-1.5572519083969465,-0.017822265625,0.11328125,-0.60498046875,0.6629999999999999
2.4732824427480917,0.9923664122137404,-1.633587786259542,-0.01904296875,0.114501953125,-0.601318359375,0.6647
2.33587786259542,0.9007633587786259,-1.450381679389313,-0.018798828125,0.11572265625,-0.59912109375,0.6664
2.427480916030534,0.7175572519083969,-1.3435114503816794,-0.023681640625,0.11865234375,-0.598876953125,0.6680999999999999
2.4122137404580153,0.7022900763358778,-1.4045801526717556,-0.019775390625,0.1181640625,-0.591064453125,0.6698
2.3053435114503817,0.5190839694656488,-1.297709923664122,-0.02001953125,0.11279296875,-0.59326171875,0.6715
2.2748091603053435,0.6717557251908397,-1.3282442748091603,-0.0185546875,0.114990234375,-0.606201171875,0.6731999999999999
2.0916030534351147,0.6106870229007634,-1.4045801526717556,-0.0185546875,0.118896484375,-0.5986328125,0.6748999999999999
1.9389312977099236,0.6106870229007634,-1.3282442748091603,-0.01904296875,0.115966796875,-0.596435546875,0.6766
2.0,0.5190839694656488,-1.1908396946564885,-0.021484375,0.118408203125,-0.59814453125,0.6783
2.030534351145038,0.48854961832061067,-1.1450381679389312,-0.02197265625,0.119873046875,-0.59619140625,0.6799999999999999
1.9389312977099236,0.549618320610687,-1.0534351145038168,-0.019775390625,0.115234375,-0.5966796875,0.6817
2.015267175572519,0.42748091603053434,-1.2061068702290076,-0.017578125,0.1162109375,-0.59619140625,0.6834
1.9694656488549618,0.549618320610687,-1.1603053435114503,-0.024169921875,0.116455078125,-0.599609375,0.6850999999999999
1.8778625954198473,0.5343511450381679,-0.9312977099236641,-0.021240234375,0.119384765625,-0.599365234375,0.6868
2.122137404580153,0.6564885496183206,-1.083969465648855,-0.01904296875,0.111328125,-0.598388671875,0.6885
2.0763358778625953,0.5343511450381679,-0.9465648854961832,-0.02294921875,0.117919921875,-0.5966796875,0.6901999999999999
2.1374045801526718,0.6106870229007634,-0.8702290076335878,-0.021240234375,0.1162109375,-0.607177734375,0.6919
2.3053435114503817,0.7022900763358778,-1.0687022900763359,-0.02490234375,0.11474609375,-0.594970703125,0.6936
2.2900763358778624,0.6259541984732825,-0.8854961832061069,-0.02490234375,0.115966796875,-0.592529296875,0.6952999999999999
2.3206106870229006,0.5954198473282443,-0.8854961832061069,-0.02197265625,0.1181640625,-0.60205078125,0.697
2.213740458015267,0.7480916030534351,-0.9618320610687023,-0.01806640625,0.11572265625,-0.59375,0.6987
2.33587786259542,1.0229007633587786,-0.8549618320610687,-0.02197265625,0.11376953125,-0.595947265625,0.7003999999999999
2.2595419847328246,0.8549618320610687,-0.9770992366412213,-0.02587890625,0.1220703125,-0.594970703125,0.7021
2.427480916030534,0.7938931297709924,-0.8702290076335878,-0.018798828125,0.11669921875,-0.598876953125,0.7038
2.2748091603053435,0.8244274809160306,-1.0687022900763359,-0.020263671875,0.11328125,-0.60107421875,0.7055
2.519083969465649,1.0076335877862594,-1.0381679389312977,-0.0234375,0.111572265625,-0.597900390625,0.7071999999999999
2.2748091603053435,1.1908396946564885,-1.0534351145038168,-0.024169921875,0.11962890625,-0.597900390625,0.7089
2.381679389312977,1.2213740458015268,-1.0076335877862594,-0.018310546875,0.115478515625,-0.6015625,0.7106
2.3206106870229006,1.1603053435114503,-1.282442748091603,-0.022216796875,0.115234375,-0.602783203125,0.7122999999999999
2.381679389312977,1.282442748091603,-1.2213740458015268,-0.025146484375,0.112060546875,-0.596435546875,0.714
2.3969465648854964,1.3282442748091603,-1.3282442748091603,-0.020263671875,0.11376953125,-0.600341796875,0.7157
2.5343511450381677,1.251908396946565,-1.297709923664122,-0.019775390625,0.105224609375,-0.58984375,0.7173999999999999
2.6564885496183206,1.4961832061068703,-1.2671755725190839,-0.020751953125,0.10791015625,-0.60009765625,0.7191
2.5801526717557253,1.1450381679389312,-1.1450381679389312,-0.0166015625,0.1103515625,-0.60205078125,0.7208
2.5343511450381677,1.3893129770992367,-1.3587786259541985,-0.017578125,0.111083984375,-0.6181640625,0.7224999999999999
2.2290076335877864,1.4351145038167938,-1.4809160305343512,-0.024169921875,0.11181640625,-0.59326171875,0.7242
2.50381679389313,1.4961832061068703,-1.450381679389313,-0.02099609375,0.11328125,-0.6015625,0.7259
2.3969465648854964,1.5572519083969465,-1.6488549618320612,-0.026123046875,0.11328125,-0.59326171875,0.7275999999999999
2.4122137404580153,1.450381679389313,-1.786259541984733,-0.016357421875,0.116455078125,-0.600341796875,0.7293
2.198473282442748,1.4961832061068703,-1.7099236641221374,-0.024658203125,0.10791015625,-0.5927734375,0.731
2.030534351145038,1.3282442748091603,-1.7099236641221374,-0.02099609375,0.11181640625,-0.5986328125,0.7326999999999999
2.045801526717557,1.3893129770992367,-1.6488549618320612,-0.01953125,0.11669921875,-0.59130859375,0.7343999999999999
2.015267175572519,1.2061068702290076,-1.984732824427481,-0.01953125,0.11474609375,-0.594482421875,0.7361
1.8015267175572518,1.5877862595419847,-1.786259541984733,-0.02001953125,0.108642578125,-0.609130859375,0.7378
1.83206106870229,1.4045801526717556,-1.9694656488549618,-0.022216796875,0.111572265625,-0.6044921875,0.7394999999999999
1.6793893129770991,1.1145038167938932,-1.8473282442748091,-0.019775390625,0.112548828125,-0.59912109375,0.7412
1.618320610687023,1.1145038167938932,-1.9694656488549618,-0.01708984375,0.1123046875,-0.594482421875,0.7429
1.3740458015267176,1.3740458015267176,-2.1068702290076335,-0.016357421875,0.109130859375,-0.594482421875,0.7445999999999999
1.3129770992366412,1.2671755725190839,-2.0916030534351147,-0.01611328125,0.115478515625,-0.595703125,0.7463
1.1603053435114503,1.3129770992366412,-1.7709923664122138,-0.020263671875,0.114013671875,-0.6005859375,0.748
1.1297709923664123,1.083969465648855,-2.0610687022900764,-0.017578125,0.116455078125,-0.6005859375,0.7496999999999999
0.8091603053435115,0.9312977099236641,-2.1068702290076335,-0.0166015625,0.11376953125,-0.6005859375,0.7514
0.7175572519083969,0.9007633587786259,-2.0763358778625953,-0.013671875,0.118408203125,-0.6025390625,0.7531
0.6564885496183206,0.8549618320610687,-2.0610687022900764,-0.015869140625,0.115478515625,-0.59619140625,0.7547999999999999
0.33587786259541985,0.7786259541984732,-2.2442748091603053,-0.012939453125,0.1181640625,-0.605712890625,0.7565
0.3969465648854962,0.7480916030534351,-2.198473282442748,-0.01513671875,0.1162109375,-0.597412109375,0.7582
0.3053435114503817,0.5801526717557252,-2.0763358778625953,-0.018798828125,0.117919921875,-0.598876953125,0.7598999999999999
0.0916030534351145,0.549618320610687,-2.030534351145038,-0.015380859375,0.1162109375,-0.59716796875,0.7615999999999999
0.0916030534351145,0.5648854961832062,-2.1526717557251906,-0.01025390625,0.116455078125,-0.603759765625,0.7633
0.12213740458015267,0.6870229007633588,-2.0916030534351147,-0.01806640625,0.1162109375,-0.5947265625,0.7649999999999999
0.10687022900763359,0.48854961832061067,-1.8625954198473282,-0.02294921875,0.1162109375,-0.6015625,0.7666999999999999
0.061068702290076333,0.5954198473282443,-1.9541984732824427,-0.0166015625,0.11279296875,-0.60009765625,0.7684
0.13740458015267176,0.6412213740458015,-2.0,-0.01806640625,0.11474609375,-0.60595703125,0.7701
0.2595419847328244,0.549618320610687,-1.83206106870229,-0.0146484375,0.118896484375,-0.60009765625,0.7717999999999999
0.183206106870229,0.42748091603053434,-2.045801526717557,-0.014404296875,0.1181640625,-0.594482421875,0.7735
0.21374045801526717,0.6106870229007634,-2.0,-0.0166015625,0.111083984375,-0.6015625,0.7752
0.2595419847328244,0.7022900763358778,-2.045801526717557,-0.017333984375,0.111083984375,-0.606689453125,0.7768999999999999
0.3053435114503817,0.5954198473282443,-1.9694656488549618,-0.01513671875,0.115478515625,-0.59765625,0.7786
0.15267175572519084,0.44274809160305345,-2.030534351145038,-0.013427734375,0.1162109375,-0.593017578125,0.7803
-0.061068702290076333,0.5190839694656488,-1.83206106870229,-0.017822265625,0.123046875,-0.599853515625,0.7819999999999999
0.183206106870229,0.7480916030534351,-2.0763358778625953,-0.015869140625,0.123779296875,-0.59375,0.7837
0.030534351145038167,0.8396946564885496,-1.786259541984733,-0.019775390625,0.11083984375,-0.595703125,0.7854
-0.04580152671755725,0.7786259541984732,-1.9236641221374047,-0.017333984375,0.113037109375,-0.6005859375,0.7870999999999999
0.030534351145038167,0.7480916030534351,-2.015267175572519,-0.015380859375,0.115234375,-0.59814453125,0.7888
0.015267175572519083,0.6259541984732825,-2.0763358778625953,-0.017578125,0.113525390625,-0.60009765625,0.7905
0.061068702290076333,0.6870229007633588,-2.0,-0.016845703125,0.11669921875,-0.59423828125,0.7921999999999999
0.030534351145038167,0.6564885496183206,-2.0,-0.013427734375,0.11376953125,-0.59521484375,0.7938999999999999
0.183206106870229,0.6717557251908397,-2.1526717557251906,-0.01171875,0.11572265625,-0.5947265625,0.7956
0.183206106870229,0.7633587786259542,-2.16793893129771,-0.012939453125,0.11669921875,-0.595703125,0.7973
0.1984732824427481,0.6870229007633588,-1.7709923664122138,-0.015869140625,0.119873046875,-0.5927734375,0.7989999999999999
0.2748091603053435,0.7175572519083969,-1.9694656488549618,-0.008544921875,0.11279296875,-0.6005859375,0.8007
0.5648854961832062,0.7022900763358778,-1.8778625954198473,-0.01123046875,0.117431640625,-0.594482421875,0.8024
0.5801526717557252,0.7175572519083969,-1.9083969465648856,-0.01123046875,0.113037109375,-0.5947265625,0.8040999999999999
0.7022900763358778,0.5190839694656488,-1.7557251908396947,-0.01416015625,0.115966796875,-0.596435546875,0.8058
1.0076335877862594,0.44274809160305345,-1.6946564885496183,-0.014892578125,0.11279296875,-0.59326171875,0.8075
1.1297709923664123,0.5343511450381679,-1.3435114503816794,-0.010986328125,0.114501953125,-0.60205078125,0.8091999999999999
1.1755725190839694,0.44274809160305345,-1.5114503816793894,-0.013916015625,0.114990234375,-0.5888671875,0.8109
1.282442748091603,0.33587786259541985,-1.3129770992366412,-0.017578125,0.123046875,-0.596923828125,0.8126
1.5267175572519085,0.21374045801526717,-1.3282442748091603,-0.0146484375,0.116455078125,-0.59130859375,0.8142999999999999
1.4198473282442747,0.24427480916030533,-1.282442748091603,-0.013427734375,0.118408203125,-0.6044921875,0.816
1.4961832061068703,0.32061068702290074,-1.3587786259541985,-0.0146484375,0.116455078125,-0.598388671875,0.8177
1.465648854961832,0.3816793893129771,-1.1297709923664123,-0.01220703125,0.121337890625,-0.603271484375,0.8193999999999999
1.6488549618320612,0.183206106870229,-1.2213740458015268,-0.015625,0.121337890625,-0.60302734375,0.8210999999999999
1.465648854961832,0.183206106870229,-0.9770992366412213,-0.01318359375,0.117919921875,-0.6064453125,0.8228
1.633587786259542,0.2595419847328244,-0.9923664122137404,-0.0146484375,0.114013671875,-0.593994140625,0.8244999999999999
1.5877862595419847,0.1984732824427481,-0.9312977099236641,-0.017333984375,0.11474609375,-0.59521484375,0.8261999999999999
1.5419847328244274,0.24427480916030533,-0.9618320610687023,-0.01611328125,0.11376953125,-0.596923828125,0.8279
1.6641221374045803,0.1984732824427481,-0.9618320610687023,-0.014404296875,0.115234375,-0.5927734375,0.8296
1.6946564885496183,0.2748091603053435,-0.8091603053435115,-0.0126953125,0.117919921875,-0.599365234375,0.8312999999999999
1.633587786259542,0.183206106870229,-0.7938931297709924,-0.011962890625,0.1162109375,-0.590576171875,0.833
1.9236641221374047,0.3969465648854962,-0.9312977099236641,-0.01123046875,0.114990234375,-0.600341796875,0.8347
1.7404580152671756,0.33587786259541985,-0.6259541984732825,-0.015869140625,0.108642578125,-0.597412109375,0.8363999999999999
1.6488549618320612,0.2595419847328244,-0.6564885496183206,-0.012939453125,0.1171875,-0.6015625,0.8381
1.786259541984733,0.24427480916030533,-0.7022900763358778,-0.013427734375,0.118408203125,-0.592041015625,0.8398
1.8015267175572518,0.3816793893129771,-0.6564885496183206,-0.017333984375,0.118896484375,-0.60107421875,0.8414999999999999
1.8473282442748091,0.5343511450381679,-0.6106870229007634,-0.016357421875,0.114013671875,-0.597900390625,0.8432
1.7404580152671756,0.5190839694656488,-0.8396946564885496,-0.014404296875,0.119140625,-0.59912109375,0.8449
1.83206106870229,0.5190839694656488,-0.4122137404580153,-0.017578125,0.1123046875,-0.59765625,0.8465999999999999
1.4961832061068703,0.6412213740458015,-0.549618320610687,-0.018310546875,0.118896484375,-0.611083984375,0.8482999999999999
1.5725190839694656,0.7175572519083969,-0.3969465648854962,-0.010009765625,0.11572265625,-0.60302734375,0.85
1.83206106870229,0.6870229007633588,-0.5954198473282443,-0.01611328125,0.11669921875,-0.604248046875,0.8516999999999999
1.5877862595419847,0.7786259541984732,-0.5038167938931297,-0.014892578125,0.121337890625,-0.5986328125,0.8533999999999999
1.5572519083969465,0.8091603053435115,-0.44274809160305345,-0.020263671875,0.113037109375,-0.5986328125,0.8551
1.5114503816793894,0.8854961832061069,-0.44274809160305345,-0.01953125,0.118896484375,-0.604248046875,0.8568
1.4809160305343512,0.7480916030534351,-0.5038167938931297,-0.01513671875,0.12158203125,-0.599609375,0.8584999999999999
1.3129770992366412,0.9770992366412213,-0.5038167938931297,-0.01904296875,0.113037109375,-0.591552734375,0.8602
1.1908396946564885,1.0534351145038168,-0.366412213740458,-0.022705078125,0.117431640625,-0.6025390625,0.8619
1.0534351145038168,1.0381679389312977,-0.366412213740458,-0.020751953125,0.11083984375,-0.60205078125,0.8635999999999999
1.099236641221374,1.1145038167938932,-0.33587786259541985,-0.02099609375,0.115234375,-0.61181640625,0.8653
0.916030534351145,0.9465648854961832,-0.2748091603053435,-0.018310546875,0.114990234375,-0.60791015625,0.867
0.916030534351145,1.1145038167938932,-0.44274809160305345,-0.01953125,0.114501953125,-0.597900390625,0.8686999999999999
1.0534351145038168,1.0687022900763359,-0.3969465648854962,-0.02001953125,0.114990234375,-0.59814453125,0.8704
1.0381679389312977,1.099236641221374,-0.33587786259541985,-0.02001953125,0.1142578125,-0.60205078125,0.8721
0.9312977099236641,1.1450381679389312,-0.2900763358778626,-0.018310546875,0.11279296875,-0.599365234375,0.8737999999999999
1.0687022900763359,1.1908396946564885,-0.42748091603053434,-0.017578125,0.109375,-0.619873046875,0.8755
1.099236641221374,1.251908396946565,-0.12213740458015267,-0.016357421875,0.1181640625,-0.597900390625,0.8772
1.1755725190839694,1.1145038167938932,-0.21374045801526717,-0.0185546875,0.11669921875,-0.600830078125,0.8788999999999999
1.1755725190839694,1.3435114503816794,-0.13740458015267176,-0.0224609375,0.111572265625,-0.5947265625,0.8805999999999999
1.0076335877862594,1.5572519083969465,-0.061068702290076333,-0.019775390625,0.114501953125,-0.600341796875,0.8823
1.1450381679389312,1.5267175572519085,-0.15267175572519084,-0.018798828125,0.11279296875,-0.599609375,0.8839999999999999
1.4045801526717556,1.465648854961832,-0.015267175572519083,-0.02099609375,0.114501953125,-0.601318359375,0.8856999999999999
1.3587786259541985,1.5267175572519085,0.030534351145038167,-0.018798828125,0.11962890625,-0.599609375,0.8874
1.0534351145038168,1.6793893129770991,0.061068702290076333,-0.02001953125,0.12255859375,-0.599609375,0.8891
1.3740458015267176,1.6946564885496183,0.015267175572519083,-0.02001953125,0.116943359375,-0.599853515625,0.8907999999999999
1.2366412213740459,1.8015267175572518,-0.030534351145038167,-0.01904296875,0.111083984375,-0.600830078125,0.8925
1.1297709923664123,1.786259541984733,0.13740458015267176,-0.018798828125,0.1181640625,-0.613037109375,0.8942
1.2061068702290076,1.9083969465648856,-0.0916030534351145,-0.01904296875,0.1171875,-0.60400390625,0.8958999999999999
1.3282442748091603,1.9694656488549618,0.015267175572519083,-0.020751953125,0.116455078125,-0.603515625,0.8976
1.2213740458015268,1.984732824427481,0.10687022900763359,-0.025390625,0.11328125,-0.59814453125,0.8993
1.0381679389312977,2.2290076335877864,0.1984732824427481,-0.021240234375,0.114990234375,-0.599365234375,0.9009999999999999
1.2671755725190839,2.122137404580153,0.12213740458015267,-0.017822265625,0.11669921875,-0.598388671875,0.9027
1.3282442748091603,2.1068702290076335,-0.030534351145038167,-0.0234375,0.114990234375,-0.596923828125,0.9044
0.916030534351145,2.5801526717557253,-0.183206106870229,-0.022216796875,0.123046875,-0.60400390625,0.9060999999999999
1.1755725190839694,2.519083969465649,-0.13740458015267176,-0.019287109375,0.115234375,-0.59765625,0.9077999999999999
1.1297709923664123,2.427480916030534,-0.10687022900763359,-0.023193359375,0.115966796875,-0.593017578125,0.9095
0.916030534351145,2.5801526717557253,-0.3511450381679389,-0.019775390625,0.117919921875,-0.598876953125,0.9111999999999999
1.251908396946565,2.549618320610687,-0.2748091603053435,-0.019775390625,0.122802734375,-0.607666015625,0.9128999999999999
1.0687022900763359,2.6412213740458017,-0.3816793893129771,-0.016357421875,0.115478515625,-0.5986328125,0.9146
0.9923664122137404,2.6259541984732824,-0.6564885496183206,-0.01513671875,0.11279296875,-0.597412109375,0.9163
1.083969465648855,2.7022900763358777,-0.5038167938931297,-0.014404296875,0.117431640625,-0.602783203125,0.9179999999999999
1.251908396946565,2.8091603053435112,-0.732824427480916,-0.0205078125,0.117431640625,-0.596923828125,0.9197
1.3129770992366412,2.732824427480916,-0.6106870229007634,-0.0146484375,0.11865234375,-0.610595703125,0.9214
1.251908396946565,2.7480916030534353,-0.6412213740458015,-0.01953125,0.119140625,-0.604248046875,0.9230999999999999
1.1755725190839694,2.7938931297709924,-0.7022900763358778,-0.020751953125,0.117919921875,-0.598388671875,0.9248
1.1450381679389312,2.8702290076335877,-0.6412213740458015,-0.017578125,0.114990234375,-0.59912109375,0.9265
1.2213740458015268,2.8396946564885495,-0.7175572519083969,-0.02001953125,0.112548828125,-0.6123046875,0.9281999999999999
1.3435114503816794,2.8396946564885495,-0.8244274809160306,-0.014892578125,0.1142578125,-0.59375,0.9299
1.083969465648855,2.7938931297709924,-0.6412213740458015,-0.018798828125,0.117431640625,-0.6005859375,0.9316
0.9465648854961832,2.8091603053435112,-0.6564885496183206,-0.01904296875,0.120849609375,-0.612548828125,0.9332999999999999
1.2061068702290076,2.9160305343511452,-0.7480916030534351,-0.0224609375,0.1171875,-0.604736328125,0.9349999999999999
1.3740458015267176,2.717557251908397,-0.8396946564885496,-0.016845703125,0.115234375,-0.603759765625,0.9367
1.2366412213740459,2.8396946564885495,-0.8549618320610687,-0.014404296875,0.116943359375,-0.6044921875,0.9383999999999999
1.251908396946565,2.6259541984732824,-0.9465648854961832,-0.01513671875,0.11376953125,-0.604736328125,0.9400999999999999
1.3740458015267176,2.6259541984732824,-0.7938931297709924,-0.021240234375,0.11669921875,-0.600830078125,0.9418
1.2671755725190839,2.763358778625954,-0.8244274809160306,-0.014404296875,0.1171875,-0.593994140625,0.9434999999999999
1.4045801526717556,2.595419847328244,-0.9465648854961832,-0.017578125,0.11474609375,-0.595947265625,0.9451999999999999
1.1908396946564885,2.4122137404580153,-0.8091603053435115,-0.015625,0.114501953125,-0.599853515625,0.9469
1.2671755725190839,2.6259541984732824,-0.7786259541984732,-0.014892578125,0.11376953125,-0.5986328125,0.9486
1.3129770992366412,2.6717557251908395,-0.9312977099236641,-0.0185546875,0.115966796875,-0.59814453125,0.9502999999999999
1.083969465648855,2.50381679389313,-1.0076335877862594,-0.01806640625,0.1123046875,-0.60546875,0.952
1.1145038167938932,2.6564885496183206,-0.7480916030534351,-0.01708984375,0.118896484375,-0.598876953125,0.9537
1.1450381679389312,2.6106870229007635,-0.9007633587786259,-0.01953125,0.117431640625,-0.59521484375,0.9553999999999999
1.0076335877862594,2.549618320610687,-0.7480916030534351,-0.022705078125,0.1181640625,-0.594970703125,0.9571
1.099236641221374,2.519083969465649,-0.7938931297709924,-0.016357421875,0.1142578125,-0.60302734375,0.9588
0.916030534351145,2.50381679389313,-0.7633587786259542,-0.020751953125,0.115234375,-0.5966796875,0.9604999999999999
0.6870229007633588,2.564885496183206,-0.9007633587786259,-0.019775390625,0.1123046875,-0.59423828125,0.9621999999999999
0.5038167938931297,2.6259541984732824,-0.732824427480916,-0.01806640625,0.1162109375,-0.59814453125,0.9639
0.7175572519083969,2.6412213740458017,-0.8702290076335878,-0.016357421875,0.11572265625,-0.604736328125,0.9655999999999999
0.3816793893129771,2.4580152671755724,-0.8854961832061069,-0.015869140625,0.11767578125,-0.597900390625,0.9672999999999999
0.4122137404580153,2.5343511450381677,-1.0076335877862594,-0.022216796875,0.1142578125,-0.59423828125,0.969
0.3053435114503817,2.4427480916030535,-0.8091603053435115,-0.019775390625,0.113525390625,-0.59375,0.9706999999999999
0.12213740458015267,2.4580152671755724,-0.8549618320610687,-0.02001953125,0.115478515625,-0.59326171875,0.9723999999999999
0.10687022900763359,2.4580152671755724,-0.6412213740458015,-0.021240234375,0.1181640625,-0.592529296875,0.9741
0.0916030534351145,2.4427480916030535,-1.0076335877862594,-0.0185546875,0.116455078125,-0.610107421875,0.9758
0.183206106870229,2.351145038167939,-1.0534351145038168,-0.0146484375,0.114501953125,-0.591064453125,0.9774999999999999
0.3969465648854962,2.3206106870229006,-1.0534351145038168,-0.013671875,0.11865234375,-0.5966796875,0.9792
0.0,2.519083969465649,-0.8854961832061069,-0.0166015625,0.123291015625,-0.59912109375,0.9809
0.21374045801526717,2.4580152671755724,-1.1908396946564885,-0.016357421875,0.12158203125,-0.6015625,0.9825999999999999
0.32061068702290074,2.122137404580153,-1.1450381679389312,-0.016845703125,0.12060546875,-0.5986328125,0.9843
0.24427480916030533,1.984732824427481,-1.0076335877862594,-0.019287109375,0.11767578125,-0.592529296875,0.986
0.33587786259541985,2.1374045801526718,-1.1755725190839694,-0.0146484375,0.114990234375,-0.598388671875,0.9876999999999999
0.183206106870229,2.122137404580153,-0.9923664122137404,-0.01904296875,0.120849609375,-0.603759765625,0.9894
0.3816793893129771,2.0916030534351147,-1.0381679389312977,-0.018798828125,0.114990234375,-0.597900390625,0.9911
0.4122137404580153,1.9083969465648856,-1.0687022900763359,-0.01416015625,0.118896484375,-0.6015625,0.9927999999999999
0.2900763358778626,1.7404580152671756,-0.9923664122137404,-0.0126953125,0.120361328125,-0.592529296875,0.9944999999999999
0.2748091603053435,1.7404580152671756,-1.3129770992366412,-0.011474609375,0.11865234375,-0.590576171875,0.9962
0.32061068702290074,1.7251908396946565,-0.8702290076335878,-0.01220703125,0.119873046875,-0.605224609375,0.9978999999999999
0.21374045801526717,1.6488549618320612,-1.2061068702290076,-0.01708984375,0.120849609375,-0.601806640625,0.9995999999999999
0.5190839694656488,1.5114503816793894,-1.0229007633587786,-0.019775390625,0.1162109375,-0.60205078125,1.0012999999999999
0.6564885496183206,1.5114503816793894,-1.0687022900763359,-0.013671875,0.115234375,-0.6005859375,1.003
0.6259541984732825,1.4961832061068703,-1.2671755725190839,-0.016357421875,0.111572265625,-0.597412109375,1.0047
0.5343511450381679,1.3893129770992367,-1.083969465648855,-0.014404296875,0.125,-0.598388671875,1.0064
0.6106870229007634,1.282442748091603,-1.1145038167938932,-0.01171875,0.119384765625,-0.6005859375,1.0081
0.9312977099236641,1.2366412213740459,-1.1908396946564885,-0.016845703125,0.111572265625,-0.5927734375,1.0098
0.9618320610687023,1.1755725190839694,-1.0687022900763359,-0.017822265625,0.118408203125,-0.590576171875,1.0114999999999998
0.8702290076335878,1.099236641221374,-1.1603053435114503,-0.016845703125,0.1201171875,-0.59130859375,1.0131999999999999
0.9465648854961832,1.0229007633587786,-1.083969465648855,-0.015380859375,0.1162109375,-0.6005859375,1.0149
1.1145038167938932,0.9923664122137404,-1.0534351145038168,-0.012939453125,0.116455078125,-0.585693359375,1.0166
0.9312977099236641,0.8396946564885496,-1.1755725190839694,-0.02001953125,0.1171875,-0.595458984375,1.0183
1.099236641221374,0.6717557251908397,-1.1603053435114503,-0.015869140625,0.11669921875,-0.605712890625,1.02
1.1145038167938932,0.6717557251908397,-1.1755725190839694,-0.016357421875,0.114013671875,-0.5966796875,1.0217
1.083969465648855,0.7633587786259542,-1.1908396946564885,-0.017333984375,0.11279296875,-0.59765625,1.0233999999999999
1.083969465648855,0.6259541984732825,-1.2213740458015268,-0.0126953125,0.10791015625,-0.59423828125,1.0251
1.1145038167938932,0.48854961832061067,-1.3129770992366412,-0.0107421875,0.116455078125,-0.6005859375,1.0268
0.7786259541984732,0.5343511450381679,-1.3587786259541985,-0.015869140625,0.1201171875,-0.60400390625,1.0285
0.9465648854961832,0.4732824427480916,-1.282442748091603,-0.015869140625,0.116943359375,-0.602783203125,1.0302
0.6717557251908397,0.32061068702290074,-1.4045801526717556,-0.013427734375,0.11865234375,-0.604248046875,1.0319
0.6564885496183206,0.13740458015267176,-1.6641221374045803,-0.0146484375,0.119384765625,-0.597412109375,1.0335999999999999
0.3816793893129771,0.366412213740458,-1.5267175572519085,-0.0146484375,0.11865234375,-0.589599609375,1.0352999999999999
0.16793893129770993,0.183206106870229,-1.7099236641221374,-0.015869140625,0.120361328125,-0.59228515625,1.037
0.3511450381679389,0.12213740458015267,-1.618320610687023,-0.019287109375,0.116943359375,-0.594482421875,1.0387
0.2900763358778626,-0.07633587786259542,-1.6946564885496183,-0.021484375,0.115478515625,-0.5986328125,1.0404
0.04580152671755725,0.10687022900763359,-1.6641221374045803,-0.009521484375,0.1181640625,-0.603271484375,1.0421
0.22900763358778625,0.030534351145038167,-1.786259541984733,-0.01806640625,0.12158203125,-0.5966796875,1.0437999999999998
0.32061068702290074,-0.061068702290076333,-1.4198473282442747,-0.020751953125,0.113525390625,-0.600830078125,1.0454999999999999
0.2748091603053435,-0.15267175572519084,-1.5419847328244274,-0.021484375,0.11083984375,-0.60107421875,1.0472
0.2900763358778626,-0.16793893129770993,-1.5572519083969465,-0.015869140625,0.115478515625,-0.585205078125,1.0489
0.5190839694656488,-0.22900763358778625,-1.8015267175572518,-0.01904296875,0.116455078125,-0.5927734375,1.0506
0.6106870229007634,-0.12213740458015267,-1.633587786259542,-0.01513671875,0.114501953125,-0.6005859375,1.0523
0.3969465648854962,-0.10687022900763359,-1.5725190839694656,-0.01513671875,0.1171875,-0.594970703125,1.054
0.5648854961832062,-0.15267175572519084,-1.3893129770992367,-0.017822265625,0.115234375,-0.59765625,1.0556999999999999
0.6717557251908397,-0.10687022900763359,-1.5419847328244274,-0.01904296875,0.112060546875,-0.602783203125,1.0574
0.5190839694656488,-0.2900763358778626,-1.3893129770992367,-0.014404296875,0.1171875,-0.592041015625,1.0591
0.6564885496183206,-0.16793893129770993,-1.450381679389313,-0.013427734375,0.112060546875,-0.5986328125,1.0608
0.7175572519083969,0.061068702290076333,-1.3587786259541985,-0.01171875,0.116455078125,-0.598388671875,1.0625
0.5954198473282443,-0.030534351145038167,-1.465648854961832,-0.01513671875,0.11328125,-0.59130859375,1.0642
0.8396946564885496,0.10687022900763359,-1.465648854961832,-0.014404296875,0.113037109375,-0.59912109375,1.0658999999999998
0.5343511450381679,-0.04580152671755725,-1.3893129770992367,-0.0205078125,0.11083984375,-0.594482421875,1.0675999999999999
0.5343511450381679,-0.07633587786259542,-1.4809160305343512,-0.019775390625,0.112060546875,-0.5966796875,1.0693
0.5801526717557252,0.04580152671755725,-1.4198473282442747,-0.011474609375,0.11376953125,-0.592041015625,1.071
0.4580152671755725,-0.015267175572519083,-1.282442748091603,-0.01513671875,0.112060546875,-0.590087890625,1.0727
0.48854961832061067,0.04580152671755725,-1.3740458015267176,-0.017333984375,0.1181640625,-0.597412109375,1.0744
0.3816793893129771,0.1984732824427481,-1.3129770992366412,-0.017578125,0.1171875,-0.597412109375,1.0760999999999998
0.2900763358778626,0.030534351145038167,-1.5572519083969465,-0.012451171875,0.109375,-0.599365234375,1.0777999999999999
0.2900763358778626,0.1984732824427481,-1.5267175572519085,-0.020263671875,0.1162109375,-0.5947265625,1.0795
-0.015267175572519083,0.16793893129770993,-1.5725190839694656,-0.016357421875,0.112060546875,-0.591796875,1.0812
0.12213740458015267,0.0916030534351145,-1.5419847328244274,-0.012451171875,0.1142578125,-0.591552734375,1.0829
0.0,-0.061068702290076333,-1.618320610687023,-0.011474609375,0.113037109375,-0.59423828125,1.0846
-0.15267175572519084,0.061068702290076333,-1.3587786259541985,-0.011962890625,0.114501953125,-0.592529296875,1.0863
-0.183206106870229,0.13740458015267176,-1.465648854961832,-0.012451171875,0.1142578125,-0.59423828125,1.0879999999999999
-0.13740458015267176,0.22900763358778625,-1.5114503816793894,-0.017578125,0.1142578125,-0.5966796875,1.0897
-0.1984732824427481,0.04580152671755725,-1.618320610687023,-0.012939453125,0.116455078125,-0.59765625,1.0914
0.07633587786259542,0.15267175572519084,-1.4045801526717556,-0.01513671875,0.11376953125,-0.5927734375,1.0931
-0.16793893129770993,0.13740458015267176,-1.297709923664122,-0.015869140625,0.10986328125,-0.591796875,1.0948
0.10687022900763359,0.15267175572519084,-1.4045801526717556,-0.01171875,0.109375,-0.59228515625,1.0965
0.07633587786259542,0.4580152671755725,-1.3587786259541985,-0.01318359375,0.119873046875,-0.593505859375,1.0981999999999998
0.21374045801526717,0.366412213740458,-1.2061068702290076,-0.0146484375,0.114501953125,-0.5947265625,1.0998999999999999
0.21374045801526717,0.4122137404580153,-1.1755725190839694,-0.018310546875,0.11328125,-0.591064453125,1.1016
0.2748091603053435,0.366412213740458,-1.2213740458015268,-0.014892578125,0.120849609375,-0.593994140625,1.1033
0.21374045801526717,0.6564885496183206,-1.1755725190839694,-0.0166015625,0.11962890625,-0.601318359375,1.105
0.15267175572519084,0.6870229007633588,-0.9618320610687023,-0.0146484375,0.11669921875,-0.59130859375,1.1067
0.5801526717557252,0.549618320610687,-1.0229007633587786,-0.01611328125,0.116455078125,-0.599609375,1.1083999999999998
0.44274809160305345,0.6717557251908397,-0.8549618320610687,-0.01416015625,0.119873046875,-0.589111328125,1.1100999999999999
0.33587786259541985,0.7786259541984732,-0.9312977099236641,-0.016845703125,0.123779296875,-0.6005859375,1.1118
0.6412213740458015,0.6564885496183206,-0.8244274809160306,-0.013427734375,0.117919921875,-0.599365234375,1.1135
0.6870229007633588,0.6412213740458015,-0.9312977099236641,-0.010498046875,0.1171875,-0.59228515625,1.1152
0.5648854961832062,0.7938931297709924,-0.9312977099236641,-0.0107421875,0.12109375,-0.59375,1.1169
0.7175572519083969,0.8244274809160306,-0.9465648854961832,-0.011962890625,0.119384765625,-0.5947265625,1.1186
0.7938931297709924,0.7938931297709924,-0.8549618320610687,-0.021728515625,0.112060546875,-0.596435546875,1.1202999999999999
0.6106870229007634,0.7175572519083969,-0.9465648854961832,-0.01416015625,0.12060546875,-0.60107421875,1.1219999999999999
0.7938931297709924,0.8091603053435115,-1.0229007633587786,-0.020751953125,0.119384765625,-0.592529296875,1.1237
0.8091603053435115,0.9465648854961832,-0.9465648854961832,-0.017333984375,0.113525390625,-0.5869140625,1.1254
0.9770992366412213,0.7633587786259542,-0.8702290076335878,-0.01416015625,0.121337890625,-0.59716796875,1.1271
0.9618320610687023,0.8091603053435115,-0.9770992366412213,-0.012451171875,0.117919921875,-0.5927734375,1.1288
1.0687022900763359,0.8396946564885496,-0.7175572519083969,-0.0146484375,0.1142578125,-0.5986328125,1.1304999999999998
0.9007633587786259,0.9618320610687023,-0.8396946564885496,-0.01611328125,0.11474609375,-0.604248046875,1.1321999999999999
0.8244274809160306,0.8396946564885496,-0.7633587786259542,-0.01806640625,0.11572265625,-0.602294921875,1.1339
1.0076335877862594,0.8091603053435115,-0.8091603053435115,-0.013916015625,0.11279296875,-0.592041015625,1.1356
0.8549618320610687,0.732824427480916,-0.8396946564885496,-0.015869140625,0.119140625,-0.5927734375,1.1373
0.732824427480916,0.8854961832061069,-0.6717557251908397,-0.018310546875,0.115478515625,-0.60595703125,1.139
0.916030534351145,0.7633587786259542,-0.7480916030534351,-0.01953125,0.118896484375,-0.604248046875,1.1407
0.9618320610687023,0.8854961832061069,-0.8091603053435115,-0.017333984375,0.113037109375,-0.600830078125,1.1423999999999999
0.9465648854961832,0.9923664122137404,-0.5343511450381679,-0.015625,0.115966796875,-0.59326171875,1.1441
0.7786259541984732,0.916030534351145,-0.44274809160305345,-0.019775390625,0.120361328125,-0.60107421875,1.1458
0.9770992366412213,0.916030534351145,-0.3969465648854962,-0.018798828125,0.116455078125,-0.60400390625,1.1475
0.916030534351145,0.8854961832061069,-0.5648854961832062,-0.017822265625,0.11328125,-0.599365234375,1.1492
0.6412213740458015,0.916030534351145,-0.6259541984732825,-0.025146484375,0.1142578125,-0.5986328125,1.1509
0.6564885496183206,1.1145038167938932,-0.5648854961832062,-0.019775390625,0.113525390625,-0.596923828125,1.1525999999999998
0.8854961832061069,1.3282442748091603,-0.42748091603053434,-0.01806640625,0.11572265625,-0.6005859375,1.1542999999999999
0.7938931297709924,1.3587786259541985,-0.42748091603053434,-0.019287109375,0.1171875,-0.59375,1.156
0.8091603053435115,1.3587786259541985,-0.3816793893129771,-0.0224609375,0.11181640625,-0.597900390625,1.1577
0.6412213740458015,1.5419847328244274,-0.7175572519083969,-0.02099609375,0.11474609375,-0.597900390625,1.1594
0.5343511450381679,1.5419847328244274,-0.6717557251908397,-0.022705078125,0.119384765625,-0.599365234375,1.1611
0.3053435114503817,1.8015267175572518,-0.6412213740458015,-0.021240234375,0.1162109375,-0.597900390625,1.1627999999999998
0.22900763358778625,1.6793893129770991,-0.7938931297709924,-0.021728515625,0.113525390625,-0.59521484375,1.1644999999999999
0.16793893129770993,1.8778625954198473,-0.732824427480916,-0.021728515625,0.117431640625,-0.5966796875,1.1662
0.061068702290076333,2.030534351145038,-0.6717557251908397,-0.018798828125,0.11767578125,-0.599365234375,1.1679
0.0916030534351145,2.16793893129771,-0.7633587786259542,-0.020263671875,0.1162109375,-0.598876953125,1.1696
0.030534351145038167,2.2290076335877864,-0.732824427480916,-0.0166015625,0.1162109375,-0.605712890625,1.1713
-0.21374045801526717,2.2595419847328246,-0.48854961832061067,-0.0166015625,0.1181640625,-0.597900390625,1.173
-0.12213740458015267,2.2748091603053435,-0.6717557251908397,-0.01708984375,0.11865234375,-0.594970703125,1.1746999999999999
-0.24427480916030533,2.2595419847328246,-0.8396946564885496,-0.01953125,0.111572265625,-0.592529296875,1.1764
-0.48854961832061067,2.33587786259542,-0.6717557251908397,-0.01904296875,0.114990234375,-0.60595703125,1.1781
-0.22900763358778625,2.3969465648854964,-0.48854961832061067,-0.018310546875,0.11767578125,-0.6025390625,1.1798
-0.5648854961832062,2.3206106870229006,-0.48854961832061067,-0.01171875,0.1181640625,-0.583740234375,1.1815
-0.7938931297709924,2.2290076335877864,-0.4580152671755725,-0.01220703125,0.116455078125,-0.597900390625,1.1832
-0.7175572519083969,2.0,-0.5038167938931297,-0.017822265625,0.119873046875,-0.603515625,1.1848999999999998
-0.7175572519083969,2.0,-0.33587786259541985,-0.01171875,0.1162109375,-0.6044921875,1.1865999999999999
-0.6106870229007634,1.984732824427481,-0.6564885496183206,-0.010498046875,0.119140625,-0.600830078125,1.1883
-0.6259541984732825,2.045801526717557,-0.366412213740458,-0.013671875,0.119384765625,-0.603759765625,1.19
-0.7022900763358778,1.8931297709923665,-0.2748091603053435,-0.013671875,0.119873046875,-0.5908203125,1.1917
-0.6717557251908397,1.7557251908396947,-0.16793893129770993,-0.006591796875,0.116455078125,-0.596923828125,1.1934
-0.0916030534351145,1.618320610687023,-0.1984732824427481,-0.0126953125,0.124267578125,-0.59814453125,1.1950999999999998
-0.16793893129770993,1.4045801526717556,-0.15267175572519084,-0.013671875,0.128662109375,-0.594482421875,1.1967999999999999
-0.12213740458015267,1.4198473282442747,-0.183206106870229,-0.007568359375,0.121826171875,-0.593994140625,1.1985
-0.04580152671755725,1.1908396946564885,-0.10687022900763359,-0.010986328125,0.116455078125,-0.60205078125,1.2002
0.04580152671755725,1.1755725190839694,0.0,-0.00537109375,0.1123046875,-0.593994140625,1.2019
0.1984732824427481,1.2061068702290076,0.0916030534351145,-0.00830078125,0.115966796875,-0.597412109375,1.2036
0.15267175572519084,0.9770992366412213,0.015267175572519083,-0.01171875,0.1220703125,-0.59814453125,1.2053
0.6106870229007634,0.7480916030534351,0.183206106870229,-0.01025390625,0.123779296875,-0.59912109375,1.2069999999999999
0.6870229007633588,0.8702290076335878,-0.015267175572519083,-0.0068359375,0.1201171875,-0.602294921875,1.2086999999999999
0.7786259541984732,0.8702290076335878,0.10687022900763359,-0.0107421875,0.12109375,-0.6015625,1.2104
0.7938931297709924,0.6564885496183206,0.12213740458015267,-0.013916015625,0.1162109375,-0.60302734375,1.2121
0.6870229007633588,0.8854961832061069,0.2748091603053435,-0.0126953125,0.1201171875,-0.59716796875,1.2138
0.916030534351145,0.48854961832061067,0.24427480916030533,-0.01220703125,0.118896484375,-0.59716796875,1.2155
0.9618320610687023,0.48854961832061067,0.4122137404580153,-0.015625,0.12158203125,-0.595458984375,1.2171999999999998
1.1908396946564885,0.6717557251908397,0.4732824427480916,-0.013427734375,0.1171875,-0.60107421875,1.2188999999999999
1.4198473282442747,0.5954198473282443,0.32061068702290074,-0.015625,0.118896484375,-0.59375,1.2206
1.5572519083969465,0.6717557251908397,0.33587786259541985,-0.016357421875,0.1181640625,-0.600341796875,1.2223
1.8473282442748091,0.5648854961832062,0.42748091603053434,-0.015869140625,0.11279296875,-0.60009765625,1.224
1.8015267175572518,0.6564885496183206,0.32061068702290074,-0.015625,0.1142578125,-0.590087890625,1.2257
1.9236641221374047,0.732824427480916,0.2595419847328244,-0.015380859375,0.115478515625,-0.608154296875,1.2273999999999998
2.1374045801526718,0.7633587786259542,0.015267175572519083,-0.016357421875,0.11572265625,-0.60400390625,1.2290999999999999
2.2290076335877864,0.7938931297709924,0.24427480916030533,-0.015869140625,0.1181640625,-0.603271484375,1.2308
2.3206106870229006,0.8244274809160306,0.061068702290076333,-0.02392578125,0.117919921875,-0.605224609375,1.2325
2.2748091603053435,0.9465648854961832,0.030534351145038167,-0.015380859375,0.115478515625,-0.60205078125,1.2342
2.3969465648854964,1.0381679389312977,0.015267175572519083,-0.0166015625,0.116455078125,-0.599853515625,1.2359
2.4122137404580153,0.9312977099236641,0.061068702290076333,-0.0126953125,0.1123046875,-0.598388671875,1.2376
2.3053435114503817,1.1297709923664123,-0.2595419847328244,-0.0185546875,0.12109375,-0.60546875,1.2392999999999998
2.16793893129771,1.1755725190839694,-0.10687022900763359,-0.019287109375,0.118896484375,-0.605712890625,1.2409999999999999
2.3053435114503817,1.2671755725190839,-0.2748091603053435,-0.02099609375,0.11474609375,-0.607177734375,1.2427
2.2442748091603053,1.2671755725190839,-0.3511450381679389,-0.015869140625,0.116455078125,-0.59716796875,1.2444
2.16793893129771,1.3893129770992367,-0.4580152671755725,-0.015380859375,0.112548828125,-0.599609375,1.2461
2.3053435114503817,1.5114503816793894,-0.2748091603053435,-0.015380859375,0.12109375,-0.5908203125,1.2478
2.0,1.5419847328244274,-0.4122137404580153,-0.019287109375,0.113037109375,-0.599609375,1.2494999999999998
1.7404580152671756,1.5114503816793894,-0.5190839694656488,-0.01513671875,0.110595703125,-0.59228515625,1.2511999999999999
1.7251908396946565,1.5419847328244274,-0.44274809160305345,-0.018310546875,0.114013671875,-0.597900390625,1.2529
1.5877862595419847,1.5267175572519085,-0.4580152671755725,-0.013916015625,0.114013671875,-0.600341796875,1.2546
1.4351145038167938,1.6946564885496183,-0.6259541984732825,-0.011962890625,0.11083984375,-0.59765625,1.2563
1.4961832061068703,1.6946564885496183,-0.4732824427480916,-0.0146484375,0.11376953125,-0.59130859375,1.258
1.3129770992366412,1.83206106870229,-0.6106870229007634,-0.014892578125,0.117431640625,-0.5947265625,1.2596999999999998
1.2213740458015268,1.5877862595419847,-0.5801526717557252,-0.0166015625,0.11328125,-0.5966796875,1.2613999999999999
1.251908396946565,1.7404580152671756,-0.7022900763358778,-0.015380859375,0.1142578125,-0.598876953125,1.2631
1.0229007633587786,1.7099236641221374,-0.44274809160305345,-0.0146484375,0.113037109375,-0.607421875,1.2648
1.0534351145038168,1.4809160305343512,-0.3969465648854962,-0.020751953125,0.114501953125,-0.60205078125,1.2665
0.9770992366412213,1.6641221374045803,-0.3511450381679389,-0.010498046875,0.112548828125,-0.60498046875,1.2682
0.8396946564885496,1.4045801526717556,-0.5801526717557252,-0.009521484375,0.113037109375,-0.60205078125,1.2699
0.8549618320610687,1.4198473282442747,-0.4122137404580153,-0.011474609375,0.113037109375,-0.602294921875,1.2715999999999998
0.6412213740458015,1.3587786259541985,-0.4732824427480916,-0.015625,0.112548828125,-0.60107421875,1.2732999999999999
0.7938931297709924,1.5725190839694656,-0.366412213740458,-0.01123046875,0.114990234375,-0.59814453125,1.275
0.8549618320610687,1.4351145038167938,-0.42748091603053434,-0.015380859375,0.114013671875,-0.594482421875,1.2767
0.6870229007633588,1.4961832061068703,-0.4122137404580153,-0.017333984375,0.114013671875,-0.598876953125,1.2784
0.48854961832061067,1.5114503816793894,-0.3816793893129771,-0.019775390625,0.114013671875,-0.60498046875,1.2801
0.6259541984732825,1.3587786259541985,-0.48854961832061067,-0.018310546875,0.1142578125,-0.598876953125,1.2817999999999998
0.42748091603053434,1.3893129770992367,-0.32061068702290074,-0.012939453125,0.11376953125,-0.605224609375,1.2834999999999999
0.33587786259541985,1.4351145038167938,-0.32061068702290074,-0.0146484375,0.10791015625,-0.591796875,1.2852
0.24427480916030533,1.4351145038167938,-0.42748091603053434,-0.013427734375,0.114013671875,-0.604248046875,1.2869
0.13740458015267176,1.2366412213740459,-0.33587786259541985,-0.015869140625,0.1142578125,-0.602783203125,1.2886
0.0,1.5114503816793894,-0.42748091603053434,-0.017333984375,0.1142578125,-0.597900390625,1.2903
0.0,1.450381679389313,-0.2595419847328244,-0.017578125,0.112548828125,-0.59619140625,1.292
0.22900763358778625,1.4351145038167938,-0.5343511450381679,-0.0185546875,0.1162109375,-0.59814453125,1.2936999999999999
-0.04580152671755725,1.450381679389313,-0.4122137404580153,-0.016845703125,0.111572265625,-0.59765625,1.2953999999999999
-0.24427480916030533,1.4045801526717556,-0.732824427480916,-0.015380859375,0.113525390625,-0.599609375,1.2971
0.0,1.5877862595419847,-0.6717557251908397,-0.018310546875,0.11376953125,-0.6005859375,1.2988
-0.15267175572519084,1.465648854961832,-0.8244274809160306,-0.01318359375,0.115966796875,-0.596923828125,1.3005
-0.22900763358778625,1.7557251908396947,-0.9770992366412213,-0.010009765625,0.114990234375,-0.60009765625,1.3022
-0.33587786259541985,1.6030534351145038,-0.9770992366412213,-0.015380859375,0.117431640625,-0.599609375,1.3038999999999998
-0.366412213740458,1.6793893129770991,-1.0229007633587786,-0.01416015625,0.114013671875,-0.59814453125,1.3055999999999999
-0.183206106870229,1.9236641221374047,-1.0534351145038168,-0.017822265625,0.11279296875,-0.595703125,1.3073
-0.183206106870229,1.984732824427481,-1.2213740458015268,-0.01806640625,0.114990234375,-0.595458984375,1.309
0.0,1.9236641221374047,-1.251908396946565,-0.01806640625,0.111328125,-0.60205078125,1.3107
-0.13740458015267176,1.8473282442748091,-1.3129770992366412,-0.019287109375,0.117919921875,-0.60009765625,1.3124
-0.32061068702290074,1.9541984732824427,-1.5267175572519085,-0.02197265625,0.117919921875,-0.59619140625,1.3140999999999998
-0.1984732824427481,1.9389312977099236,-1.4351145038167938,-0.015625,0.1171875,-0.593994140625,1.3157999999999999
0.030534351145038167,1.9236641221374047,-1.5267175572519085,-0.015625,0.12109375,-0.59619140625,1.3175
0.0,1.8931297709923665,-1.3740458015267176,-0.0146484375,0.119384765625,-0.60595703125,1.3192
0.061068702290076333,1.8778625954198473,-1.4045801526717556,-0.016357421875,0.12060546875,-0.6015625,1.3209
0.3511450381679389,2.0916030534351147,-1.5267175572519085,-0.0146484375,0.117919921875,-0.59326171875,1.3226
0.015267175572519083,1.9541984732824427,-1.633587786259542,-0.012939453125,0.1201171875,-0.59423828125,1.3243
0.42748091603053434,1.9236641221374047,-1.6030534351145038,-0.013916015625,0.121337890625,-0.599609375,1.3259999999999998
0.6412213740458015,2.0,-1.6641221374045803,-0.013671875,0.119140625,-0.599853515625,1.3276999999999999
0.44274809160305345,1.9236641221374047,-1.4809160305343512,-0.009765625,0.12158203125,-0.597900390625,1.3294
0.366412213740458,1.816793893129771,-1.7251908396946565,-0.013916015625,0.11767578125,-0.595947265625,1.3311
0.5038167938931297,1.83206106870229,-1.633587786259542,-0.012451171875,0.122314453125,-0.587890625,1.3328
0.8549618320610687,1.8473282442748091,-1.4961832061068703,-0.012451171875,0.12158203125,-0.592041015625,1.3345
0.7786259541984732,1.6793893129770991,-1.4351145038167938,-0.010009765625,0.117919921875,-0.59716796875,1.3361999999999998
1.0687022900763359,1.633587786259542,-1.3740458015267176,-0.017578125,0.120361328125,-0.588134765625,1.3378999999999999
0.9923664122137404,1.8778625954198473,-1.4045801526717556,-0.00927734375,0.119873046875,-0.5869140625,1.3396
0.9770992366412213,1.618320610687023,-1.3587786259541985,-0.017333984375,0.1162109375,-0.59423828125,1.3413
1.099236641221374,1.465648854961832,-1.2061068702290076,-0.011474609375,0.118408203125,-0.5947265625,1.343
0.9312977099236641,1.465648854961832,-1.3129770992366412,-0.01416015625,0.119873046875,-0.6015625,1.3447
0.9465648854961832,1.5419847328244274,-1.4351145038167938,-0.014404296875,0.123291015625,-0.595458984375,1.3463999999999998
0.6412213740458015,1.4961832061068703,-1.3282442748091603,-0.0107421875,0.12060546875,-0.595458984375,1.3480999999999999
0.8702290076335878,1.3282442748091603,-1.297709923664122,-0.013671875,0.116943359375,-0.59375,1.3497999999999999
0.6259541984732825,1.4045801526717556,-1.4198473282442747,-0.021240234375,0.121337890625,-0.59521484375,1.3515
0.8091603053435115,1.3129770992366412,-1.3740458015267176,-0.0146484375,0.121337890625,-0.60302734375,1.3532
0.44274809160305345,1.2061068702290076,-1.2366412213740459,-0.013916015625,0.1201171875,-0.596435546875,1.3549
0.1984732824427481,1.1603053435114503,-1.1908396946564885,-0.01318359375,0.1181640625,-0.591064453125,1.3566
0.0,1.1755725190839694,-1.3893129770992367,-0.015869140625,0.118896484375,-0.603759765625,1.3582999999999998
-0.07633587786259542,1.2366412213740459,-1.083969465648855,-0.014404296875,0.1171875,-0.6015625,1.3599999999999999
-0.2595419847328244,1.083969465648855,-1.083969465648855,-0.014892578125,0.1220703125,-0.598876953125,1.3617
-0.33587786259541985,1.3282442748091603,-1.297709923664122,-0.01123046875,0.11865234375,-0.607666015625,1.3634
-0.21374045801526717,1.3282442748091603,-1.0687022900763359,-0.012939453125,0.119140625,-0.603271484375,1.3651
-0.2595419847328244,1.1603053435114503,-1.1145038167938932,-0.01953125,0.1201171875,-0.596435546875,1.3668
-0.5648854961832062,1.2366412213740459,-1.3282442748091603,-0.014892578125,0.118896484375,-0.595458984375,1.3684999999999998
-0.4122137404580153,1.3740458015267176,-1.282442748091603,-0.01220703125,0.12548828125,-0.59033203125,1.3701999999999999
-0.24427480916030533,1.2671755725190839,-1.251908396946565,-0.01611328125,0.116455078125,-0.602294921875,1.3719
-0.183206106870229,1.2061068702290076,-1.3282442748091603,-0.015625,0.12158203125,-0.588623046875,1.3736
-0.366412213740458,1.3893129770992367,-1.3282442748091603,-0.0166015625,0.1171875,-0.59423828125,1.3753
-0.22900763358778625,1.5725190839694656,-1.251908396946565,-0.01953125,0.1171875,-0.595947265625,1.377
-0.21374045801526717,1.465648854961832,-1.0687022900763359,-0.01904296875,0.124267578125,-0.603515625,1.3786999999999998
-0.24427480916030533,1.4809160305343512,-1.2671755725190839,-0.01318359375,0.121826171875,-0.602294921875,1.3803999999999998
-0.061068702290076333,1.465648854961832,-1.1603053435114503,-0.01123046875,0.118408203125,-0.591552734375,1.3820999999999999
0.15267175572519084,1.6030534351145038,-1.1450381679389312,-0.015380859375,0.120849609375,-0.595947265625,1.3838
0.07633587786259542,1.5572519083969465,-1.3893129770992367,-0.013671875,0.12109375,-0.599365234375,1.3855
0.16793893129770993,1.5877862595419847,-1.4045801526717556,-0.014892578125,0.11962890625,-0.6025390625,1.3872
0.32061068702290074,1.4351145038167938,-1.282442748091603,-0.019775390625,0.119873046875,-0.592041015625,1.3889
0.2900763358778626,1.5877862595419847,-1.3435114503816794,-0.01416015625,0.1220703125,-0.601318359375,1.3905999999999998
0.44274809160305345,1.5877862595419847,-1.2366412213740459,-0.017578125,0.123046875,-0.587890625,1.3922999999999999
0.6564885496183206,1.297709923664122,-1.1908396946564885,-0.016357421875,0.11865234375,-0.59521484375,1.394
0.7786259541984732,1.3282442748091603,-1.2213740458015268,-0.01171875,0.11962890625,-0.590087890625,1.3957
0.7938931297709924,1.3893129770992367,-0.916030534351145,-0.009765625,0.11865234375,-0.591064453125,1.3974
0.7022900763358778,1.4809160305343512,-0.9923664122137404,-0.009521484375,0.121337890625,-0.58349609375,1.3991
0.8091603053435115,1.3740458015267176,-0.8549618320610687,-0.010498046875,0.12353515625,-0.594482421875,1.4007999999999998
1.0229007633587786,1.3282442748091603,-0.732824427480916,-0.01171875,0.1201171875,-0.59619140625,1.4024999999999999
0.9007633587786259,1.2671755725190839,-0.8854961832061069,-0.008056640625,0.122314453125,-0.59619140625,1.4042
1.3282442748091603,1.465648854961832,-0.6564885496183206,-0.012939453125,0.1220703125,-0.58935546875,1.4059
1.1297709923664123,1.3893129770992367,-0.6717557251908397,-0.011962890625,0.118896484375,-0.595947265625,1.4076
1.1603053435114503,1.3740458015267176,-0.6106870229007634,-0.00927734375,0.1220703125,-0.590576171875,1.4093
1.4961832061068703,1.2061068702290076,-0.549618320610687,-0.012939453125,0.119384765625,-0.59423828125,1.411
1.465648854961832,1.099236641221374,-0.48854961832061067,-0.013427734375,0.122802734375,-0.5947265625,1.4126999999999998
1.4198473282442747,1.297709923664122,-0.5343511450381679,-0.008056640625,0.118896484375,-0.59423828125,1.4143999999999999
1.6793893129770991,1.1603053435114503,-0.4732824427480916,-0.015380859375,0.1171875,-0.5966796875,1.4161
1.6641221374045803,1.099236641221374,-0.48854961832061067,-0.010986328125,0.12255859375,-0.598388671875,1.4178
1.5114503816793894,1.0076335877862594,-0.3816793893129771,-0.01318359375,0.1201171875,-0.598876953125,1.4195
1.7557251908396947,1.0687022900763359,-0.549618320610687,-0.016357421875,0.123291015625,-0.598876953125,1.4212
1.6030534351145038,1.083969465648855,-0.5190839694656488,-0.013427734375,0.12255859375,-0.59521484375,1.4228999999999998
1.5877862595419847,0.9923664122137404,-0.5190839694656488,-0.017578125,0.124267578125,-0.605712890625,1.4245999999999999
1.6641221374045803,0.9618320610687023,-0.44274809160305345,-0.011474609375,0.12451171875,-0.607421875,1.4263
1.5877862595419847,0.9312977099236641,-0.549618320610687,-0.013671875,0.11767578125,-0.594482421875,1.428
1.618320610687023,0.7786259541984732,-0.3511450381679389,-0.013671875,0.12109375,-0.599609375,1.4297
1.7709923664122138,0.7633587786259542,-0.44274809160305345,-0.015869140625,0.125,-0.603515625,1.4314
1.7404580152671756,0.8549618320610687,-0.6106870229007634,-0.01513671875,0.120361328125,-0.595458984375,1.4330999999999998
1.9236641221374047,0.7938931297709924,-0.6412213740458015,-0.013916015625,0.121337890625,-0.594970703125,1.4347999999999999
1.6946564885496183,0.7786259541984732,-0.5038167938931297,-0.012939453125,0.1201171875,-0.59423828125,1.4364999999999999
1.786259541984733,0.7938931297709924,-0.5954198473282443,-0.014404296875,0.12353515625,-0.59521484375,1.4382
2.015267175572519,0.8702290076335878,-0.5648854961832062,-0.013427734375,0.1181640625,-0.596923828125,1.4399
1.816793893129771,0.9007633587786259,-0.6106870229007634,-0.02001953125,0.1201171875,-0.58984375,1.4416
1.6793893129770991,0.7633587786259542,-0.5801526717557252,-0.015380859375,0.1181640625,-0.600341796875,1.4433
1.6030534351145038,0.8854961832061069,-0.6412213740458015,-0.020263671875,0.118408203125,-0.5966796875,1.4449999999999998
1.5267175572519085,0.9465648854961832,-0.6564885496183206,-0.015869140625,0.1220703125,-0.591064453125,1.4466999999999999
1.5114503816793894,1.1145038167938932,-0.8549618320610687,-0.020751953125,0.123779296875,-0.592529296875,1.4484
1.251908396946565,1.1755725190839694,-0.5954198473282443,-0.012939453125,0.11962890625,-0.5966796875,1.4501
1.2061068702290076,1.1297709923664123,-0.6717557251908397,-0.017333984375,0.117919921875,-0.599853515625,1.4518
1.0229007633587786,1.282442748091603,-0.6564885496183206,-0.018798828125,0.114990234375,-0.5947265625,1.4535
1.1297709923664123,1.251908396946565,-0.9618320610687023,-0.014892578125,0.114013671875,-0.59619140625,1.4551999999999998
0.9618320610687023,1.4045801526717556,-0.9312977099236641,-0.015869140625,0.1171875,-0.592041015625,1.4568999999999999
0.7938931297709924,1.5419847328244274,-1.0076335877862594,-0.016357421875,0.114501953125,-0.59716796875,1.4586
0.9312977099236641,1.4351145038167938,-0.8702290076335878,-0.013671875,0.1123046875,-0.598876953125,1.4603
0.9312977099236641,1.5114503816793894,-1.0229007633587786,-0.015869140625,0.1142578125,-0.59375,1.462
0.7938931297709924,1.5114503816793894,-1.0534351145038168,-0.01318359375,0.115966796875,-0.5908203125,1.4637
1.083969465648855,1.5267175572519085,-1.0687022900763359,-0.012939453125,0.11474609375,-0.590576171875,1.4653999999999998
1.1297709923664123,1.3129770992366412,-1.0229007633587786,-0.01416015625,0.107177734375,-0.593017578125,1.4670999999999998
1.1755725190839694,1.4809160305343512,-1.1908396946564885,-0.01318359375,0.116455078125,-0.59326171875,1.4687999999999999
1.083969465648855,1.5114503816793894,-0.9770992366412213,-0.01171875,0.110595703125,-0.595947265625,1.4705
1.3893129770992367,1.3282442748091603,-1.1450381679389312,-0.009033203125,0.1103515625,-0.596435546875,1.4722
1.4198473282442747,1.4198473282442747,-0.9007633587786259,-0.01123046875,0.11376953125,-0.588623046875,1.4739
1.5267175572519085,1.3587786259541985,-0.9618320610687023,-0.013671875,0.114501953125,-0.597900390625,1.4756
1.7099236641221374,1.2366412213740459,-0.9312977099236641,-0.012939453125,0.114501953125,-0.594970703125,1.4772999999999998
1.7709923664122138,1.3435114503816794,-0.9923664122137404,-0.01171875,0.107177734375,-0.5947265625,1.4789999999999999
1.7557251908396947,1.1145038167938932,-0.8396946564885496,-0.01513671875,0.109619140625,-0.584716796875,1.4807
1.786259541984733,1.1145038167938932,-0.9923664122137404,-0.010498046875,0.111328125,-0.5927734375,1.4824
1.9694656488549618,1.0534351145038168,-0.8702290076335878,-0.01416015625,0.109375,-0.591796875,1.4841
1.816793893129771,0.916030534351145,-0.8549618320610687,-0.01171875,0.119384765625,-0.6044921875,1.4858
1.6641221374045803,0.9007633587786259,-0.7938931297709924,-0.0107421875,0.115478515625,-0.594482421875,1.4874999999999998
1.7557251908396947,0.8702290076335878,-1.0076335877862594,-0.012451171875,0.108154296875,-0.588134765625,1.4891999999999999
1.7557251908396947,0.7480916030534351,-1.1297709923664123,-0.0107421875,0.112060546875,-0.587890625,1.4909
1.5877862595419847,0.6412213740458015,-1.0381679389312977,-0.012451171875,0.1220703125,-0.587646484375,1.4926
1.618320610687023,0.6564885496183206,-0.9923664122137404,-0.0146484375,0.11181640625,-0.593505859375,1.4943
1.6946564885496183,0.549618320610687,-1.251908396946565,-0.015625,0.11865234375,-0.5908203125,1.496
1.618320610687023,0.5801526717557252,-1.2061068702290076,-0.010009765625,0.113037109375,-0.59521484375,1.4976999999999998
1.83206106870229,0.4732824427480916,-1.1450381679389312,-0.015380859375,0.10986328125,-0.596923828125,1.4993999999999998
1.6946564885496183,0.33587786259541985,-1.282442748091603,-0.010009765625,0.116455078125,-0.595703125,1.5010999999999999
1.7557251908396947,0.24427480916030533,-1.3893129770992367,-0.01513671875,0.118896484375,-0.593994140625,1.5028
1.6641221374045803,0.3816793893129771,-1.2213740458015268,-0.01513671875,0.116943359375,-0.595947265625,1.5045
1.5877862595419847,0.32061068702290074,-1.5114503816793894,-0.012451171875,0.115966796875,-0.591796875,1.5062
1.8015267175572518,0.12213740458015267,-1.465648854961832,-0.01416015625,0.113525390625,-0.591552734375,1.5079
1.816793893129771,0.183206106870229,-1.5877862595419847,-0.014892578125,0.11669921875,-0.59326171875,1.5095999999999998
1.786259541984733,0.0916030534351145,-1.6946564885496183,-0.02001953125,0.119140625,-0.605224609375,1.5112999999999999
1.9541984732824427,0.2748091603053435,-1.7251908396946565,-0.01416015625,0.118408203125,-0.59326171875,1.513
1.7557251908396947,0.2900763358778626,-1.7404580152671756,-0.010986328125,0.1181640625,-0.605224609375,1.5147
1.816793893129771,0.183206106870229,-1.9236641221374047,-0.0087890625,0.12109375,-0.6064453125,1.5164
1.8625954198473282,0.24427480916030533,-1.8931297709923665,-0.015625,0.1162109375,-0.59912109375,1.5181
1.7709923664122138,0.21374045801526717,-2.030534351145038,-0.013671875,0.11669921875,-0.591064453125,1.5197999999999998
2.045801526717557,0.33587786259541985,-2.045801526717557,-0.01123046875,0.1181640625,-0.59228515625,1.5214999999999999
2.0610687022900764,0.0916030534351145,-2.4122137404580153,-0.012451171875,0.114501953125,-0.603759765625,1.5231999999999999
2.0,0.061068702290076333,-2.2748091603053435,-0.01611328125,0.116455078125,-0.595947265625,1.5249
1.9389312977099236,0.04580152671755725,-2.381679389312977,-0.018798828125,0.118896484375,-0.598876953125,1.5266
2.16793893129771,0.10687022900763359,-2.427480916030534,-0.01611328125,0.117919921875,-0.59375,1.5283
1.8473282442748091,0.07633587786259542,-2.6564885496183206,-0.013671875,0.11083984375,-0.60546875,1.5299999999999998
1.8625954198473282,0.2900763358778626,-2.7022900763358777,-0.0107421875,0.111328125,-0.59814453125,1.5316999999999998
1.7404580152671756,0.3511450381679389,-2.900763358778626,-0.0087890625,0.111572265625,-0.591552734375,1.5333999999999999
1.7099236641221374,0.42748091603053434,-2.8396946564885495,-0.011474609375,0.114990234375,-0.59423828125,1.5351
1.7557251908396947,0.42748091603053434,-2.885496183206107,-0.014404296875,0.12109375,-0.59716796875,1.5368
1.816793893129771,0.5190839694656488,-2.946564885496183,-0.015625,0.118896484375,-0.593017578125,1.5385
1.9083969465648856,0.4122137404580153,-2.9923664122137406,-0.01416015625,0.118896484375,-0.5966796875,1.5402
1.2671755725190839,0.1984732824427481,-3.2061068702290076,-0.015625,0.11767578125,-0.59423828125,1.5418999999999998
1.4351145038167938,0.4580152671755725,-3.3740458015267176,-0.012939453125,0.114990234375,-0.59716796875,1.5435999999999999
1.1755725190839694,0.4732824427480916,-3.2213740458015265,-0.016845703125,0.114013671875,-0.591796875,1.5453
1.1450381679389312,0.2595419847328244,-3.3435114503816794,-0.01318359375,0.114990234375,-0.608642578125,1.547
1.0229007633587786,0.2900763358778626,-3.4198473282442747,-0.012451171875,0.111083984375,-0.604248046875,1.5487
0.8702290076335878,0.4732824427480916,-3.3740458015267176,-0.01123046875,0.11669921875,-0.595947265625,1.5504
0.5343511450381679,0.3511450381679389,-3.2977099236641223,-0.01416015625,0.114501953125,-0.59521484375,1.5520999999999998
0.549618320610687,0.15267175572519084,-3.5419847328244276,-0.0107421875,0.11572265625,-0.5947265625,1.5537999999999998
0.13740458015267176,0.32061068702290074,-3.435114503816794,-0.016845703125,0.12451171875,-0.600830078125,1.5554999999999999
0.0,0.21374045801526717,-3.4198473282442747,-0.017578125,0.11279296875,-0.599853515625,1.5572
-0.2748091603053435,0.32061068702290074,-3.404580152671756,-0.01025390625,0.115234375,-0.607666015625,1.5589
-0.1984732824427481,0.3053435114503817,-3.404580152671756,-0.01513671875,0.110595703125,-0.60009765625,1.5606
0.030534351145038167,0.13740458015267176,-3.435114503816794,-0.011962890625,0.111083984375,-0.598388671875,1.5623
-0.15267175572519084,0.33587786259541985,-3.5572519083969465,-0.01416015625,0.113037109375,-0.6044921875,1.5639999999999998
-0.2748091603053435,0.24427480916030533,-3.450381679389313,-0.016357421875,0.11572265625,-0.60595703125,1.5656999999999999
-0.061068702290076333,-0.15267175572519084,-3.66412213740458,-0.015380859375,0.11328125,-0.59423828125,1.5674
-0.2748091603053435,0.0916030534351145,-3.7251908396946565,-0.014892578125,0.111328125,-0.594482421875,1.5691
-0.04580152671755725,0.015267175572519083,-3.633587786259542,-0.01123046875,0.11279296875,-0.59619140625,1.5708
-0.2748091603053435,-0.07633587786259542,-3.4656488549618323,-0.010986328125,0.113525390625,-0.59130859375,1.5725
-0.22900763358778625,-0.16793893129770993,-3.8625954198473282,-0.0166015625,0.11328125,-0.59912109375,1.5741999999999998
-0.16793893129770993,-0.13740458015267176,-3.816793893129771,-0.014892578125,0.1123046875,-0.59912109375,1.5758999999999999
0.10687022900763359,-0.2900763358778626,-3.8473282442748094,-0.0146484375,0.116943359375,-0.604736328125,1.5776
0.015267175572519083,-0.3969465648854962,-3.7404580152671754,-0.012939453125,0.119384765625,-0.597412109375,1.5793
-0.13740458015267176,-0.5038167938931297,-3.969465648854962,-0.009765625,0.11767578125,-0.592529296875,1.581
-0.366412213740458,-0.6412213740458015,-3.8473282442748094,-0.00732421875,0.11767578125,-0.5966796875,1.5827
0.04580152671755725,-0.6717557251908397,-3.8625954198473282,-0.013916015625,0.11474609375,-0.59619140625,1.5843999999999998
-0.10687022900763359,-0.8091603053435115,-4.0,-0.00732421875,0.120361328125,-0.596923828125,1.5860999999999998
0.04580152671755725,-0.6564885496183206,-4.122137404580153,-0.0048828125,0.119140625,-0.596923828125,1.5877999999999999
0.0,-0.7175572519083969,-3.9389312977099236,-0.016845703125,0.1162109375,-0.59814453125,1.5895
0.21374045801526717,-1.0229007633587786,-4.030534351145038,-0.01171875,0.12109375,-0.593505859375,1.5912
0.13740458015267176,-0.7480916030534351,-3.969465648854962,-0.01513671875,0.1201171875,-0.60107421875,1.5929
0.3511450381679389,-0.9007633587786259,-3.969465648854962,-0.00732421875,0.12109375,-0.597412109375,1.5946
0.22900763358778625,-0.9007633587786259,-3.9236641221374047,-0.012451171875,0.119384765625,-0.5966796875,1.5962999999999998
0.3053435114503817,-0.916030534351145,-4.152671755725191,-0.015625,0.1220703125,-0.5908203125,1.5979999999999999
0.33587786259541985,-1.0076335877862594,-3.9083969465648853,-0.009765625,0.117919921875,-0.589599609375,1.5997
0.5954198473282443,-0.8244274809160306,-3.8473282442748094,-0.01611328125,0.120849609375,-0.600830078125,1.6014
0.5038167938931297,-0.8091603053435115,-3.9236641221374047,-0.016845703125,0.115966796875,-0.593994140625,1.6031
0.48854961832061067,-0.6564885496183206,-4.122137404580153,-0.014892578125,0.11669921875,-0.600341796875,1.6048
0.5954198473282443,-0.6564885496183206,-4.030534351145038,-0.01416015625,0.115234375,-0.603515625,1.6064999999999998
0.8091603053435115,-0.7786259541984732,-3.8931297709923665,-0.012939453125,0.114501953125,-0.605712890625,1.6081999999999999
0.9007633587786259,-0.732824427480916,-3.8931297709923665,-0.015869140625,0.119384765625,-0.599365234375,1.6098999999999999
1.0687022900763359,-0.6412213740458015,-3.9236641221374047,-0.022216796875,0.121337890625,-0.59716796875,1.6116
0.9465648854961832,-0.5648854961832062,-3.9236641221374047,-0.019287109375,0.11572265625,-0.6083984375,1.6133
1.297709923664122,-0.6259541984732825,-4.244274809160306,-0.013916015625,0.11572265625,-0.598876953125,1.615
1.2213740458015268,-0.6259541984732825,-4.030534351145038,-0.0146484375,0.118896484375,-0.60302734375,1.6166999999999998
1.3893129770992367,-0.5038167938931297,-4.244274809160306,-0.014892578125,0.1171875,-0.604736328125,1.6183999999999998
1.2366412213740459,-0.5648854961832062,-4.061068702290076,-0.013916015625,0.11767578125,-0.60107421875,1.6200999999999999
1.2671755725190839,-0.5343511450381679,-4.0,-0.017822265625,0.124267578125,-0.601806640625,1.6218
1.3129770992366412,-0.4732824427480916,-3.877862595419847,-0.022216796875,0.116943359375,-0.597900390625,1.6235
1.2061068702290076,-0.33587786259541985,-3.8625954198473282,-0.019775390625,0.1181640625,-0.6025390625,1.6252
1.0076335877862594,-0.44274809160305345,-4.1679389312977095,-0.02001953125,0.12060546875,-0.59912109375,1.6269
0.7786259541984732,-0.2748091603053435,-3.954198473282443,-0.017822265625,0.1142578125,-0.60009765625,1.6285999999999998
0.8854961832061069,-0.0916030534351145,-3.954198473282443,-0.018798828125,0.118408203125,-0.608642578125,1.6302999999999999
0.6412213740458015,-0.13740458015267176,-3.954198473282443,-0.015380859375,0.118408203125,-0.59814453125,1.632
0.33587786259541985,-0.2748091603053435,-3.9389312977099236,-0.011474609375,0.123291015625,-0.5986328125,1.6337
0.2748091603053435,-0.2595419847328244,-3.801526717557252,-0.0166015625,0.11865234375,-0.601806640625,1.6354
0.3816793893129771,-0.13740458015267176,-3.83206106870229,-0.02001953125,0.123046875,-0.60009765625,1.6371
0.32061068702290074,-0.4122137404580153,-3.633587786259542,-0.020751953125,0.121337890625,-0.60546875,1.6387999999999998
0.13740458015267176,-0.1984732824427481,-3.66412213740458,-0.020751953125,0.117431640625,-0.58837890625,1.6404999999999998
0.015267175572519083,-0.07633587786259542,-3.5877862595419847,-0.02001953125,0.118408203125,-0.600341796875,1.6421999999999999
0.21374045801526717,-0.2748091603053435,-3.633587786259542,-0.02099609375,0.119384765625,-0.605224609375,1.6439
0.015267175572519083,-0.1984732824427481,-3.618320610687023,-0.01904296875,0.124267578125,-0.598876953125,1.6456
-0.13740458015267176,0.04580152671755725,-3.6030534351145036,-0.0185546875,0.123046875,-0.605224609375,1.6473
-0.061068702290076333,0.07633587786259542,-3.3893129770992365,-0.0166015625,0.11865234375,-0.607177734375,1.6489999999999998
-0.2595419847328244,-0.030534351145038167,-3.648854961832061,-0.02587890625,0.12451171875,-0.59521484375,1.6506999999999998
-0.12213740458015267,0.2900763358778626,-3.3282442748091605,-0.024169921875,0.12109375,-0.606201171875,1.6523999999999999
-0.32061068702290074,0.3969465648854962,-3.1908396946564888,-0.024658203125,0.127197265625,-0.60546875,1.6541
-0.33587786259541985,0.48854961832061067,-3.1755725190839694,-0.02197265625,0.124267578125,-0.60595703125,1.6558
-0.2900763358778626,0.42748091603053434,-2.9160305343511452,-0.019775390625,0.118896484375,-0.613525390625,1.6575
-0.42748091603053434,0.7786259541984732,-2.885496183206107,-0.02197265625,0.124267578125,-0.598876953125,1.6592
-0.5190839694656488,0.916030534351145,-2.9160305343511452,-0.021240234375,0.127685546875,-0.609375,1.6608999999999998
-0.5954198473282443,1.1908396946564885,-2.6564885496183206,-0.02392578125,0.124267578125,-0.598388671875,1.6625999999999999
-0.6412213740458015,1.2213740458015268,-2.6106870229007635,-0.02587890625,0.12744140625,-0.605224609375,1.6643
-0.9465648854961832,1.4961832061068703,-2.3206106870229006,-0.023193359375,0.12890625,-0.604248046875,1.666
-0.5801526717557252,1.6793893129770991,-2.351145038167939,-0.021484375,0.1318359375,-0.60009765625,1.6677
-0.8244274809160306,1.9236641221374047,-2.183206106870229,-0.0234375,0.127685546875,-0.613525390625,1.6694
-1.0687022900763359,1.8931297709923665,-1.9694656488549618,-0.027587890625,0.129150390625,-0.6083984375,1.6710999999999998
-1.099236641221374,2.2748091603053435,-1.8625954198473282,-0.023681640625,0.12646484375,-0.605224609375,1.6727999999999998
-1.1603053435114503,2.595419847328244,-1.7251908396946565,-0.026123046875,0.130859375,-0.614990234375,1.6744999999999999
-1.3282442748091603,2.732824427480916,-1.297709923664122,-0.020751953125,0.129150390625,-0.617919921875,1.6762
-1.3282442748091603,2.8396946564885495,-1.1603053435114503,-0.016845703125,0.12548828125,-0.614990234375,1.6779
-1.7404580152671756,3.3282442748091605,-1.0229007633587786,-0.025390625,0.129150390625,-0.60546875,1.6796
-1.6641221374045803,3.435114503816794,-0.9312977099236641,-0.02734375,0.127685546875,-0.607177734375,1.6813
-1.7709923664122138,3.6793893129770994,-0.5801526717557252,-0.024169921875,0.133544921875,-0.610595703125,1.6829999999999998
-2.122137404580153,3.83206106870229,-0.6564885496183206,-0.02392578125,0.12548828125,-0.610107421875,1.6846999999999999
-2.351145038167939,4.351145038167939,-0.24427480916030533,-0.01904296875,0.131103515625,-0.61474609375,1.6864
-2.549618320610687,4.473282442748092,-0.12213740458015267,-0.02099609375,0.1328125,-0.61767578125,1.6881
-2.687022900763359,4.8396946564885495,0.3969465648854962,-0.027587890625,0.1337890625,-0.616943359375,1.6898
-2.763358778625954,5.526717557251908,0.3969465648854962,-0.0302734375,0.136474609375,-0.616943359375,1.6915
-2.9770992366412212,5.8320610687022905,0.8091603053435115,-0.025146484375,0.135498046875,-0.618896484375,1.6931999999999998
-3.068702290076336,6.122137404580153,1.282442748091603,-0.026611328125,0.134765625,-0.616455078125,1.6948999999999999
-3.3893129770992365,6.549618320610687,1.450381679389313,-0.030029296875,0.13427734375,-0.618408203125,1.6965999999999999
-3.2977099236641223,6.99236641221374,1.9694656488549618,-0.02734375,0.13330078125,-0.609619140625,1.6983
-3.572519083969466,7.66412213740458,2.3206106870229006,-0.0283203125,0.135009765625,-0.61962890625,1.7
-3.6946564885496183,8.381679389312977,2.595419847328244,-0.031494140625,0.135009765625,-0.62060546875,1.7017
-3.4198473282442747,8.977099236641221,3.3435114503816794,-0.0302734375,0.13525390625,-0.61279296875,1.7033999999999998
-3.3587786259541983,9.557251908396946,3.5572519083969465,-0.032470703125,0.135986328125,-0.60595703125,1.7050999999999998
-3.1755725190839694,10.091603053435115,3.984732824427481,-0.02783203125,0.138427734375,-0.626708984375,1.7067999999999999
-3.282442748091603,10.778625954198473,4.442748091603053,-0.02734375,0.138427734375,-0.618896484375,1.7085
-3.068702290076336,11.450381679389313,5.221374045801527,-0.0302734375,0.138427734375,-0.612548828125,1.7102
-3.145038167938931,11.893129770992367,5.8320610687022905,-0.035400390625,0.139892578125,-0.6181640625,1.7119
-2.931297709923664,12.610687022900763,6.458015267175573,-0.031005859375,0.141357421875,-0.6240234375,1.7136
-2.8396946564885495,13.48091603053435,6.809160305343512,-0.031494140625,0.14404296875,-0.6220703125,1.7152999999999998
-2.946564885496183,14.122137404580153,7.32824427480916,-0.0341796875,0.138427734375,-0.62841796875,1.7169999999999999
-2.8091603053435112,14.65648854961832,7.862595419847328,-0.033935546875,0.1435546875,-0.6201171875,1.7187
-3.0076335877862594,15.312977099236642,8.473282442748092,-0.031982421875,0.138916015625,-0.61181640625,1.7204
-2.6106870229007635,15.923664122137405,8.992366412213741,-0.03369140625,0.143798828125,-0.6181640625,1.7221
-2.6259541984732824,16.702290076335878,9.450381679389313,-0.03369140625,0.139404296875,-0.620361328125,1.7238
-2.7786259541984735,17.358778625954198,10.213740458015268,-0.02978515625,0.142822265625,-0.615478515625,1.7254999999999998
-2.6717557251908395,18.045801526717558,10.748091603053435,-0.034423828125,0.140869140625,-0.615478515625,1.7271999999999998
-2.427480916030534,18.778625954198475,11.083969465648854,-0.034912109375,0.14404296875,-0.616943359375,1.7288999999999999
-2.33587786259542,19.34351145038168,11.770992366412214,-0.032470703125,0.146728515625,-0.61279296875,1.7306
-2.122137404580153,20.03053435114504,12.15267175572519,-0.031005859375,0.144775390625,-0.61181640625,1.7323
-2.3053435114503817,20.595419847328245,12.67175572519084,-0.033203125,0.142822265625,-0.611572265625,1.734
-2.1068702290076335,21.19083969465649,12.931297709923664,-0.037841796875,0.150146484375,-0.61962890625,1.7356999999999998
-1.7709923664122138,21.587786259541986,13.603053435114504,-0.031982421875,0.14794921875,-0.612060546875,1.7373999999999998
-1.6793893129770991,22.213740458015266,14.030534351145038,-0.02978515625,0.152587890625,-0.618408203125,1.7390999999999999
-1.2366412213740459,22.671755725190838,14.763358778625955,-0.030029296875,0.149169921875,-0.614990234375,1.7408
-0.9770992366412213,23.206106870229007,14.946564885496183,-0.026611328125,0.15283203125,-0.6181640625,1.7425
-0.7175572519083969,23.87786259541985,15.465648854961833,-0.027099609375,0.15234375,-0.619873046875,1.7442
-0.1984732824427481,24.519083969465647,15.938931297709924,-0.03271484375,0.14990234375,-0.61328125,1.7459
0.3816793893129771,25.297709923664122,16.47328244274809,-0.027587890625,0.150634765625,-0.614501953125,1.7475999999999998
0.9770992366412213,25.84732824427481,16.916030534351144,-0.023681640625,0.151611328125,-0.623291015625,1.7492999999999999
1.3282442748091603,26.549618320610687,17.633587786259543,-0.02392578125,0.15283203125,-0.623779296875,1.751
2.16793893129771,27.236641221374047,18.045801526717558,-0.0234375,0.15234375,-0.6201171875,1.7527
2.763358778625954,28.106870229007633,18.748091603053435,-0.028564453125,0.1552734375,-0.616455078125,1.7544
3.633587786259542,29.022900763358777,19.083969465648856,-0.02294921875,0.152099609375,-0.623291015625,1.7561
4.076335877862595,29.83206106870229,19.435114503816795,-0.022705078125,0.1494140625,-0.6240234375,1.7577999999999998
4.8396946564885495,30.702290076335878,20.137404580152673,-0.026611328125,0.155029296875,-0.623046875,1.7594999999999998
5.587786259541985,31.480916030534353,20.717557251908396,-0.028564453125,0.15087890625,-0.62890625,1.7611999999999999
6.106870229007634,32.58015267175573,21.00763358778626,-0.025390625,0.14892578125,-0.633544921875,1.7629
6.9465648854961835,33.61832061068702,21.603053435114504,-0.029052734375,0.1494140625,-0.63232421875,1.7646
7.587786259541985,34.534351145038165,22.106870229007633,-0.024169921875,0.157958984375,-0.63134765625,1.7663
7.938931297709924,35.587786259541986,22.748091603053435,-0.030029296875,0.149169921875,-0.62548828125,1.7679999999999998
8.290076335877863,36.6412213740458,23.068702290076335,-0.0263671875,0.146240234375,-0.63232421875,1.7696999999999998
8.900763358778626,37.603053435114504,23.66412213740458,-0.023193359375,0.150634765625,-0.625244140625,1.7713999999999999
9.267175572519085,38.62595419847328,24.30534351145038,-0.018798828125,0.148681640625,-0.6279296875,1.7731
9.450381679389313,39.603053435114504,25.068702290076335,-0.026123046875,0.1435546875,-0.624267578125,1.7748
9.938931297709924,40.6412213740458,25.267175572519083,-0.0224609375,0.1416015625,-0.631103515625,1.7765
10.290076335877863,41.770992366412216,26.0,-0.029052734375,0.143310546875,-0.624755859375,1.7782
10.305343511450381,42.87022900763359,26.366412213740457,-0.02392578125,0.1455078125,-0.6298828125,1.7798999999999998
10.625954198473282,43.74045801526717,27.16030534351145,-0.015869140625,0.140380859375,-0.62890625,1.7815999999999999
10.67175572519084,44.67175572519084,27.587786259541986,-0.026123046875,0.139892578125,-0.630126953125,1.7832999999999999
10.625954198473282,45.847328244274806,28.259541984732824,-0.020751953125,0.140869140625,-0.630126953125,1.785
10.80916030534351,46.61068702290076,28.671755725190838,-0.021484375,0.134765625,-0.623779296875,1.7867
10.80916030534351,47.725190839694655,29.206106870229007,-0.01611328125,0.13720703125,-0.634033203125,1.7884
10.763358778625955,48.61068702290076,29.740458015267176,-0.015869140625,0.13720703125,-0.6357421875,1.7900999999999998
10.717557251908397,49.343511450381676,30.366412213740457,-0.0205078125,0.131591796875,-0.626953125,1.7917999999999998
10.564885496183207,50.25954198473283,30.85496183206107,-0.015380859375,0.130859375,-0.626708984375,1.7934999999999999
10.610687022900763,51.14503816793893,31.49618320610687,-0.013427734375,0.134033203125,-0.625244140625,1.7952
10.564885496183207,52.0,31.801526717557252,-0.009765625,0.13427734375,-0.625732421875,1.7969
10.427480916030534,52.79389312977099,32.36641221374046,-0.013427734375,0.13818359375,-0.625,1.7986
10.427480916030534,53.969465648854964,33.00763358778626,-0.012451171875,0.13134765625,-0.626220703125,1.8002999999999998
10.305343511450381,54.93129770992366,33.57251908396947,-0.01123046875,0.1337890625,-0.62744140625,1.8019999999999998
10.290076335877863,55.786259541984734,33.86259541984733,-0.00732421875,0.133544921875,-0.625732421875,1.8036999999999999
