gyrox1,gyroy1,gyroz1,accelx1,accely1,accelz1,Time
2.7022900763358777,1.5877862595419847,-0.7938931297709924,-0.46435546875,0.0185546875,-0.1689453125,0.0
2.7938931297709924,1.5267175572519085,-0.8244274809160306,-0.4619140625,0.018798828125,-0.1611328125,0.0017
2.946564885496183,1.6488549618320612,-0.8396946564885496,-0.46337890625,0.013671875,-0.156005859375,0.0034
2.6106870229007635,1.6030534351145038,-0.9618320610687023,-0.46533203125,0.012939453125,-0.16259765625,0.0050999999999999995
2.6259541984732824,1.6030534351145038,-0.7786259541984732,-0.45849609375,0.01171875,-0.155517578125,0.0068
2.6106870229007635,1.6641221374045803,-0.9923664122137404,-0.45703125,0.016357421875,-0.1650390625,0.008499999999999999
2.381679389312977,1.6946564885496183,-1.0534351145038168,-0.461669921875,0.014404296875,-0.163818359375,0.010199999999999999
2.4885496183206106,1.5114503816793894,-1.0534351145038168,-0.465087890625,0.01708984375,-0.15869140625,0.011899999999999999
2.3053435114503817,1.5725190839694656,-0.8549618320610687,-0.464599609375,0.013427734375,-0.160888671875,0.0136
2.16793893129771,1.5877862595419847,-1.3587786259541985,-0.459716796875,0.016357421875,-0.159912109375,0.0153
2.4122137404580153,1.5877862595419847,-1.0381679389312977,-0.462646484375,0.01220703125,-0.16357421875,0.016999999999999998
2.0916030534351147,1.450381679389313,-1.2366412213740459,-0.462158203125,0.0126953125,-0.166259765625,0.018699999999999998
2.0,1.633587786259542,-1.251908396946565,-0.46435546875,0.014404296875,-0.160400390625,0.020399999999999998
2.1068702290076335,1.465648854961832,-1.3435114503816794,-0.461669921875,0.01708984375,-0.158935546875,0.022099999999999998
2.0,1.4045801526717556,-1.3129770992366412,-0.45703125,0.015380859375,-0.165771484375,0.023799999999999998
1.9389312977099236,1.5114503816793894,-1.2061068702290076,-0.46044921875,0.016357421875,-0.159423828125,0.0255
1.8015267175572518,1.1603053435114503,-1.3282442748091603,-0.462890625,0.00830078125,-0.163818359375,0.0272
1.83206106870229,1.3435114503816794,-1.4351145038167938,-0.462158203125,0.015625,-0.16162109375,0.0289
1.5572519083969465,1.2061068702290076,-1.282442748091603,-0.465087890625,0.01513671875,-0.164306640625,0.0306
1.5877862595419847,1.3893129770992367,-1.297709923664122,-0.462158203125,0.016845703125,-0.16455078125,0.032299999999999995
1.4351145038167938,1.4045801526717556,-1.083969465648855,-0.464599609375,0.016845703125,-0.16015625,0.033999999999999996
1.5267175572519085,1.3129770992366412,-1.3587786259541985,-0.462890625,0.012451171875,-0.1689453125,0.035699999999999996
1.2671755725190839,1.2213740458015268,-1.1603053435114503,-0.464111328125,0.014404296875,-0.1669921875,0.037399999999999996
1.3587786259541985,1.2366412213740459,-1.1755725190839694,-0.465087890625,0.017333984375,-0.159423828125,0.039099999999999996
1.2213740458015268,1.4809160305343512,-1.1145038167938932,-0.463623046875,0.015625,-0.159423828125,0.040799999999999996
1.2671755725190839,1.4198473282442747,-1.2671755725190839,-0.46826171875,0.013427734375,-0.158203125,0.042499999999999996
1.0687022900763359,1.5267175572519085,-1.1450381679389312,-0.46533203125,0.014404296875,-0.172119140625,0.044199999999999996
0.9770992366412213,1.5877862595419847,-1.3435114503816794,-0.45947265625,0.01806640625,-0.161376953125,0.045899999999999996
0.9770992366412213,1.465648854961832,-1.1450381679389312,-0.46142578125,0.013916015625,-0.163818359375,0.047599999999999996
0.9770992366412213,1.3893129770992367,-1.3740458015267176,-0.466552734375,0.01953125,-0.156494140625,0.0493
1.099236641221374,1.5114503816793894,-1.2671755725190839,-0.465087890625,0.0107421875,-0.16162109375,0.051
0.9465648854961832,1.5572519083969465,-1.251908396946565,-0.4619140625,0.019287109375,-0.16259765625,0.0527
0.48854961832061067,1.6641221374045803,-1.3435114503816794,-0.462158203125,0.0185546875,-0.164794921875,0.0544
0.7022900763358778,1.7251908396946565,-1.3893129770992367,-0.466796875,0.018798828125,-0.167236328125,0.0561
0.6870229007633588,1.8473282442748091,-1.3587786259541985,-0.46533203125,0.015625,-0.165283203125,0.0578
0.5648854961832062,1.7099236641221374,-1.2366412213740459,-0.459716796875,0.01123046875,-0.162109375,0.0595
0.6717557251908397,1.5114503816793894,-1.282442748091603,-0.4580078125,0.01513671875,-0.165283203125,0.0612
0.5343511450381679,1.7557251908396947,-1.1603053435114503,-0.46533203125,0.009521484375,-0.1650390625,0.0629
0.42748091603053434,1.83206106870229,-1.1908396946564885,-0.464111328125,0.0185546875,-0.158447265625,0.06459999999999999
0.5190839694656488,1.7251908396946565,-1.297709923664122,-0.45703125,0.015869140625,-0.166748046875,0.0663
0.5190839694656488,1.7709923664122138,-1.297709923664122,-0.462646484375,0.01708984375,-0.1708984375,0.06799999999999999
0.366412213740458,1.7251908396946565,-1.2366412213740459,-0.457763671875,0.0166015625,-0.1708984375,0.0697
0.42748091603053434,1.7251908396946565,-1.297709923664122,-0.458251953125,0.01904296875,-0.16943359375,0.07139999999999999
0.33587786259541985,1.6488549618320612,-1.3893129770992367,-0.460205078125,0.018310546875,-0.16015625,0.0731
0.2748091603053435,1.6641221374045803,-1.0381679389312977,-0.459228515625,0.020263671875,-0.16845703125,0.07479999999999999
0.3969465648854962,1.5572519083969465,-1.282442748091603,-0.4599609375,0.016845703125,-0.173828125,0.0765
0.3816793893129771,1.4961832061068703,-1.3587786259541985,-0.4599609375,0.01708984375,-0.170654296875,0.07819999999999999
0.24427480916030533,1.5877862595419847,-1.4351145038167938,-0.45654296875,0.015869140625,-0.1630859375,0.0799
0.3053435114503817,1.618320610687023,-0.9770992366412213,-0.456787109375,0.018310546875,-0.163330078125,0.08159999999999999
0.12213740458015267,1.4198473282442747,-1.3435114503816794,-0.45947265625,0.013671875,-0.161865234375,0.0833
0.24427480916030533,1.3129770992366412,-1.3282442748091603,-0.461181640625,0.014892578125,-0.161865234375,0.08499999999999999
0.21374045801526717,1.4351145038167938,-1.6030534351145038,-0.45849609375,0.01953125,-0.164306640625,0.0867
0.15267175572519084,1.4809160305343512,-1.3587786259541985,-0.464111328125,0.021484375,-0.177490234375,0.08839999999999999
0.22900763358778625,1.4045801526717556,-1.4198473282442747,-0.459716796875,0.023193359375,-0.165283203125,0.0901
0.0,1.1908396946564885,-1.251908396946565,-0.461669921875,0.02099609375,-0.1669921875,0.09179999999999999
0.2900763358778626,1.282442748091603,-1.3435114503816794,-0.462646484375,0.019287109375,-0.15966796875,0.0935
0.015267175572519083,1.2671755725190839,-1.4809160305343512,-0.46044921875,0.0166015625,-0.157958984375,0.09519999999999999
0.10687022900763359,1.3282442748091603,-1.465648854961832,-0.459716796875,0.020263671875,-0.1650390625,0.0969
0.3053435114503817,1.2671755725190839,-1.1908396946564885,-0.45849609375,0.015625,-0.160888671875,0.0986
0.32061068702290074,1.3893129770992367,-1.3893129770992367,-0.4580078125,0.017822265625,-0.157470703125,0.1003
0.1984732824427481,1.4351145038167938,-1.4351145038167938,-0.459228515625,0.015625,-0.153564453125,0.102
0.5648854961832062,1.297709923664122,-1.3435114503816794,-0.45751953125,0.017578125,-0.1572265625,0.1037
0.33587786259541985,1.1755725190839694,-1.4045801526717556,-0.460693359375,0.01611328125,-0.161865234375,0.1054
0.2900763358778626,1.2213740458015268,-1.3893129770992367,-0.45556640625,0.02490234375,-0.15673828125,0.1071
0.42748091603053434,1.1145038167938932,-1.4351145038167938,-0.4609375,0.019775390625,-0.163818359375,0.1088
0.366412213740458,0.9770992366412213,-1.3435114503816794,-0.458740234375,0.021484375,-0.164306640625,0.11049999999999999
0.33587786259541985,1.0534351145038168,-1.450381679389313,-0.458740234375,0.0146484375,-0.166748046875,0.1122
0.5190839694656488,1.0687022900763359,-1.251908396946565,-0.458251953125,0.025634765625,-0.163818359375,0.11389999999999999
0.4122137404580153,0.9007633587786259,-1.282442748091603,-0.458251953125,0.02001953125,-0.159912109375,0.1156
0.5648854961832062,0.9923664122137404,-1.3435114503816794,-0.4580078125,0.0205078125,-0.16357421875,0.11729999999999999
0.7633587786259542,0.9312977099236641,-1.3282442748091603,-0.457763671875,0.01708984375,-0.165283203125,0.119
0.7938931297709924,0.9007633587786259,-1.4351145038167938,-0.462158203125,0.015625,-0.166015625,0.12069999999999999
0.5954198473282443,0.8091603053435115,-1.3435114503816794,-0.459716796875,0.02001953125,-0.162841796875,0.1224
0.6717557251908397,0.6870229007633588,-1.282442748091603,-0.466064453125,0.020263671875,-0.14990234375,0.12409999999999999
0.8396946564885496,0.8396946564885496,-1.2671755725190839,-0.460693359375,0.017333984375,-0.15087890625,0.1258
0.9007633587786259,0.6717557251908397,-1.2366412213740459,-0.46630859375,0.020751953125,-0.150146484375,0.1275
0.6870229007633588,0.8549618320610687,-1.2366412213740459,-0.463623046875,0.0166015625,-0.16943359375,0.12919999999999998
0.916030534351145,0.7633587786259542,-1.083969465648855,-0.461669921875,0.019775390625,-0.165283203125,0.1309
1.0687022900763359,0.7786259541984732,-1.083969465648855,-0.4599609375,0.02294921875,-0.16064453125,0.1326
0.8091603053435115,0.6106870229007634,-1.0534351145038168,-0.460693359375,0.022216796875,-0.16064453125,0.1343
1.0381679389312977,0.7938931297709924,-1.1297709923664123,-0.45947265625,0.02294921875,-0.1640625,0.13599999999999998
1.251908396946565,0.732824427480916,-1.1603053435114503,-0.4609375,0.022216796875,-0.15966796875,0.1377
0.9923664122137404,0.4732824427480916,-1.0687022900763359,-0.459716796875,0.024169921875,-0.16259765625,0.1394
1.2061068702290076,0.6259541984732825,-1.282442748091603,-0.45947265625,0.021484375,-0.161376953125,0.1411
1.3893129770992367,0.5343511450381679,-1.0534351145038168,-0.4580078125,0.019775390625,-0.1640625,0.14279999999999998
1.2213740458015268,0.48854961832061067,-0.9465648854961832,-0.463134765625,0.017333984375,-0.169921875,0.1445
1.0381679389312977,0.549618320610687,-1.0381679389312977,-0.4638671875,0.019775390625,-0.157470703125,0.1462
1.3740458015267176,0.5343511450381679,-0.9465648854961832,-0.461181640625,0.02392578125,-0.168212890625,0.1479
1.4351145038167938,0.48854961832061067,-0.9770992366412213,-0.46044921875,0.01953125,-0.16357421875,0.14959999999999998
1.5572519083969465,0.6412213740458015,-0.916030534351145,-0.46533203125,0.023193359375,-0.16748046875,0.1513
1.4809160305343512,0.4580152671755725,-0.8702290076335878,-0.460205078125,0.01904296875,-0.170166015625,0.153
1.5267175572519085,0.5190839694656488,-0.9770992366412213,-0.458251953125,0.01904296875,-0.171630859375,0.1547
1.8473282442748091,0.24427480916030533,-0.9770992366412213,-0.458251953125,0.016845703125,-0.16259765625,0.15639999999999998
1.8625954198473282,0.32061068702290074,-1.0381679389312977,-0.4580078125,0.021240234375,-0.16552734375,0.1581
1.9236641221374047,0.42748091603053434,-0.9770992366412213,-0.46142578125,0.022216796875,-0.164794921875,0.1598
1.6946564885496183,0.1984732824427481,-0.9465648854961832,-0.4619140625,0.0205078125,-0.1689453125,0.1615
1.8625954198473282,0.07633587786259542,-0.9770992366412213,-0.46484375,0.015869140625,-0.15283203125,0.16319999999999998
1.9389312977099236,-0.015267175572519083,-0.8396946564885496,-0.45849609375,0.020263671875,-0.159423828125,0.1649
1.8015267175572518,0.22900763358778625,-0.8549618320610687,-0.4638671875,0.0234375,-0.158447265625,0.1666
2.122137404580153,0.061068702290076333,-1.083969465648855,-0.46484375,0.017822265625,-0.156982421875,0.16829999999999998
1.9694656488549618,-0.07633587786259542,-0.7022900763358778,-0.46337890625,0.02099609375,-0.154296875,0.16999999999999998
2.0610687022900764,-0.07633587786259542,-0.6564885496183206,-0.4677734375,0.018798828125,-0.169921875,0.1717
2.015267175572519,0.015267175572519083,-0.9923664122137404,-0.458984375,0.02001953125,-0.16064453125,0.1734
1.8931297709923665,0.07633587786259542,-0.9007633587786259,-0.462158203125,0.025390625,-0.166748046875,0.17509999999999998
2.183206106870229,0.183206106870229,-0.8702290076335878,-0.4658203125,0.018310546875,-0.159912109375,0.17679999999999998
2.2595419847328246,0.0916030534351145,-0.7938931297709924,-0.469482421875,0.02001953125,-0.16162109375,0.1785
2.2595419847328246,0.0916030534351145,-0.7786259541984732,-0.46044921875,0.02001953125,-0.163818359375,0.1802
2.1526717557251906,-0.04580152671755725,-0.732824427480916,-0.459716796875,0.017578125,-0.16357421875,0.18189999999999998
2.351145038167939,0.13740458015267176,-0.8854961832061069,-0.46044921875,0.0224609375,-0.163330078125,0.18359999999999999
2.427480916030534,0.2595419847328244,-0.7022900763358778,-0.47119140625,0.02099609375,-0.156494140625,0.1853
2.33587786259542,0.15267175572519084,-0.6870229007633588,-0.465087890625,0.016845703125,-0.158203125,0.187
2.3053435114503817,0.3816793893129771,-0.916030534351145,-0.464599609375,0.017333984375,-0.1640625,0.18869999999999998
2.2442748091603053,0.1984732824427481,-0.9770992366412213,-0.467529296875,0.021240234375,-0.159912109375,0.19039999999999999
2.2900763358778624,0.24427480916030533,-0.8854961832061069,-0.46337890625,0.01708984375,-0.1630859375,0.1921
2.427480916030534,0.015267175572519083,-0.8854961832061069,-0.466796875,0.02099609375,-0.159423828125,0.1938
2.4122137404580153,0.0916030534351145,-0.732824427480916,-0.45947265625,0.019287109375,-0.16357421875,0.19549999999999998
2.2442748091603053,0.3053435114503817,-0.8854961832061069,-0.462158203125,0.021728515625,-0.171875,0.1972
2.33587786259542,0.2748091603053435,-0.8702290076335878,-0.462890625,0.022216796875,-0.164794921875,0.1989
2.351145038167939,0.21374045801526717,-0.9312977099236641,-0.461669921875,0.022216796875,-0.16259765625,0.2006
2.351145038167939,0.42748091603053434,-0.916030534351145,-0.467041015625,0.020751953125,-0.165771484375,0.20229999999999998
2.366412213740458,0.32061068702290074,-1.083969465648855,-0.464599609375,0.021240234375,-0.164306640625,0.204
2.5343511450381677,0.2900763358778626,-0.916030534351145,-0.462890625,0.0205078125,-0.1611328125,0.2057
2.427480916030534,0.5038167938931297,-1.0381679389312977,-0.457763671875,0.020263671875,-0.159912109375,0.2074
2.549618320610687,0.5190839694656488,-0.9770992366412213,-0.4658203125,0.017822265625,-0.166259765625,0.20909999999999998
2.5801526717557253,0.4122137404580153,-1.0381679389312977,-0.462646484375,0.016845703125,-0.164794921875,0.2108
2.1526717557251906,0.48854961832061067,-1.0076335877862594,-0.4638671875,0.017578125,-0.1611328125,0.2125
2.366412213740458,0.5954198473282443,-1.083969465648855,-0.46533203125,0.02392578125,-0.151611328125,0.2142
2.4580152671755724,0.4580152671755725,-0.9465648854961832,-0.46337890625,0.019287109375,-0.154541015625,0.21589999999999998
2.33587786259542,0.6106870229007634,-1.1603053435114503,-0.46875,0.02001953125,-0.161376953125,0.2176
2.4885496183206106,0.7022900763358778,-1.1603053435114503,-0.460693359375,0.0185546875,-0.162109375,0.2193
2.427480916030534,0.7175572519083969,-1.0687022900763359,-0.4599609375,0.01953125,-0.168212890625,0.22099999999999997
2.3053435114503817,0.8702290076335878,-1.1908396946564885,-0.462158203125,0.025390625,-0.157958984375,0.22269999999999998
2.4122137404580153,0.7480916030534351,-1.4045801526717556,-0.466064453125,0.015869140625,-0.161865234375,0.2244
2.33587786259542,0.8854961832061069,-1.083969465648855,-0.46630859375,0.01708984375,-0.15771484375,0.2261
2.3053435114503817,0.8396946564885496,-1.282442748091603,-0.463134765625,0.01611328125,-0.164794921875,0.22779999999999997
2.351145038167939,0.7022900763358778,-1.251908396946565,-0.464111328125,0.019287109375,-0.16796875,0.22949999999999998
2.3053435114503817,0.7786259541984732,-1.465648854961832,-0.463623046875,0.0166015625,-0.157958984375,0.2312
2.2900763358778624,0.8091603053435115,-1.1755725190839694,-0.468505859375,0.02392578125,-0.150634765625,0.2329
2.16793893129771,0.9007633587786259,-1.3435114503816794,-0.464111328125,0.0185546875,-0.154296875,0.23459999999999998
2.1526717557251906,0.7633587786259542,-1.4045801526717556,-0.45703125,0.016845703125,-0.1552734375,0.23629999999999998
2.16793893129771,0.8396946564885496,-1.3129770992366412,-0.459716796875,0.01513671875,-0.160888671875,0.238
1.984732824427481,0.8396946564885496,-1.1603053435114503,-0.458984375,0.0166015625,-0.16064453125,0.2397
2.16793893129771,0.9007633587786259,-1.5267175572519085,-0.45849609375,0.019775390625,-0.156494140625,0.24139999999999998
2.1068702290076335,0.8244274809160306,-1.3893129770992367,-0.46435546875,0.017578125,-0.15869140625,0.24309999999999998
2.1526717557251906,0.7633587786259542,-1.4809160305343512,-0.467041015625,0.013916015625,-0.164306640625,0.2448
2.2290076335877864,0.8702290076335878,-1.4351145038167938,-0.462890625,0.018310546875,-0.160888671875,0.2465
2.0916030534351147,0.7938931297709924,-1.3435114503816794,-0.4609375,0.015869140625,-0.161865234375,0.24819999999999998
2.015267175572519,0.8702290076335878,-1.5267175572519085,-0.46240234375,0.017822265625,-0.16748046875,0.24989999999999998
2.015267175572519,0.9618320610687023,-1.5725190839694656,-0.46435546875,0.0146484375,-0.162353515625,0.2516
1.8473282442748091,1.083969465648855,-1.5419847328244274,-0.469482421875,0.018310546875,-0.158935546875,0.25329999999999997
1.83206106870229,0.9770992366412213,-1.6488549618320612,-0.46435546875,0.0205078125,-0.15673828125,0.255
1.9694656488549618,1.1908396946564885,-1.6641221374045803,-0.458740234375,0.01611328125,-0.160400390625,0.2567
1.8473282442748091,1.0076335877862594,-1.6030534351145038,-0.46826171875,0.02099609375,-0.16064453125,0.25839999999999996
1.8931297709923665,1.099236641221374,-1.5877862595419847,-0.46484375,0.014892578125,-0.154541015625,0.2601
1.9083969465648856,0.9618320610687023,-1.7099236641221374,-0.46435546875,0.018310546875,-0.164306640625,0.2618
2.16793893129771,1.1908396946564885,-1.5114503816793894,-0.4658203125,0.02001953125,-0.158935546875,0.2635
1.9694656488549618,1.083969465648855,-1.7099236641221374,-0.465576171875,0.013427734375,-0.160888671875,0.2652
1.786259541984733,0.9923664122137404,-1.5725190839694656,-0.4609375,0.019287109375,-0.158203125,0.26689999999999997
1.7709923664122138,1.2213740458015268,-1.6946564885496183,-0.460205078125,0.015869140625,-0.161376953125,0.2686
1.786259541984733,1.1145038167938932,-1.6793893129770991,-0.46826171875,0.020263671875,-0.159423828125,0.2703
1.7404580152671756,1.1908396946564885,-1.8778625954198473,-0.459716796875,0.02197265625,-0.15625,0.27199999999999996
1.7251908396946565,1.2671755725190839,-1.5725190839694656,-0.465576171875,0.01953125,-0.159423828125,0.2737
1.9389312977099236,1.1908396946564885,-1.7709923664122138,-0.461669921875,0.017578125,-0.16064453125,0.2754
1.6946564885496183,1.1297709923664123,-1.6488549618320612,-0.462158203125,0.01953125,-0.15966796875,0.27709999999999996
1.5725190839694656,1.1297709923664123,-1.7709923664122138,-0.46484375,0.018798828125,-0.16845703125,0.2788
1.7557251908396947,1.083969465648855,-1.7404580152671756,-0.46240234375,0.01806640625,-0.1552734375,0.28049999999999997
1.7557251908396947,1.083969465648855,-1.7251908396946565,-0.459228515625,0.01416015625,-0.1591796875,0.2822
1.6946564885496183,0.8854961832061069,-1.6030534351145038,-0.463623046875,0.0185546875,-0.157958984375,0.2839
1.7251908396946565,1.0381679389312977,-1.7557251908396947,-0.463623046875,0.01708984375,-0.162353515625,0.28559999999999997
1.7557251908396947,0.9923664122137404,-1.5877862595419847,-0.464599609375,0.01318359375,-0.157470703125,0.2873
1.6641221374045803,0.8396946564885496,-1.6946564885496183,-0.461669921875,0.01708984375,-0.154296875,0.289
1.816793893129771,1.0687022900763359,-1.5572519083969465,-0.462890625,0.01953125,-0.162841796875,0.29069999999999996
1.8778625954198473,0.8549618320610687,-1.6946564885496183,-0.460693359375,0.02734375,-0.1552734375,0.2924
1.7099236641221374,0.8854961832061069,-1.6030534351145038,-0.46240234375,0.01904296875,-0.158447265625,0.2941
1.5419847328244274,0.8854961832061069,-1.5877862595419847,-0.465576171875,0.0205078125,-0.156982421875,0.2958
1.4961832061068703,0.916030534351145,-1.5725190839694656,-0.457763671875,0.015869140625,-0.154296875,0.2975
1.7251908396946565,0.9007633587786259,-1.7404580152671756,-0.460205078125,0.0166015625,-0.155517578125,0.29919999999999997
1.8473282442748091,0.8702290076335878,-1.618320610687023,-0.4609375,0.01953125,-0.1611328125,0.3009
1.6641221374045803,0.7633587786259542,-1.6641221374045803,-0.46044921875,0.020263671875,-0.153564453125,0.3026
1.5877862595419847,0.9618320610687023,-1.618320610687023,-0.464599609375,0.022705078125,-0.1533203125,0.30429999999999996
1.9541984732824427,0.916030534351145,-1.5267175572519085,-0.467529296875,0.017333984375,-0.1630859375,0.306
1.6488549618320612,0.7786259541984732,-1.5267175572519085,-0.455810546875,0.016845703125,-0.153564453125,0.3077
1.4809160305343512,0.7938931297709924,-1.5572519083969465,-0.462158203125,0.018798828125,-0.15576171875,0.3094
1.83206106870229,0.7480916030534351,-1.4961832061068703,-0.4638671875,0.02099609375,-0.16357421875,0.3111
1.8473282442748091,0.9007633587786259,-1.6793893129770991,-0.462646484375,0.021728515625,-0.154541015625,0.31279999999999997
2.015267175572519,0.8396946564885496,-1.6030534351145038,-0.46435546875,0.0166015625,-0.154296875,0.3145
1.8473282442748091,0.8854961832061069,-1.450381679389313,-0.46142578125,0.02099609375,-0.154541015625,0.3162
1.7709923664122138,1.0687022900763359,-1.5267175572519085,-0.46533203125,0.0185546875,-0.1650390625,0.31789999999999996
1.83206106870229,0.9007633587786259,-1.618320610687023,-0.460693359375,0.02099609375,-0.166015625,0.3196
2.0610687022900764,0.9465648854961832,-1.4809160305343512,-0.462890625,0.020263671875,-0.162353515625,0.3213
1.8931297709923665,1.0229007633587786,-1.5419847328244274,-0.460693359375,0.019287109375,-0.158447265625,0.323
1.7404580152671756,0.9007633587786259,-1.5114503816793894,-0.466064453125,0.016845703125,-0.164306640625,0.3247
1.984732824427481,0.8702290076335878,-1.6030534351145038,-0.462890625,0.01806640625,-0.158447265625,0.32639999999999997
1.9083969465648856,0.9770992366412213,-1.4809160305343512,-0.467529296875,0.019775390625,-0.164794921875,0.3281
1.9541984732824427,1.0229007633587786,-1.5877862595419847,-0.46142578125,0.021484375,-0.16552734375,0.3298
2.0763358778625953,1.0687022900763359,-1.450381679389313,-0.461669921875,0.014892578125,-0.158203125,0.33149999999999996
2.16793893129771,0.9007633587786259,-1.4809160305343512,-0.466064453125,0.017333984375,-0.16357421875,0.3332
1.9389312977099236,0.9007633587786259,-1.3587786259541985,-0.461669921875,0.0166015625,-0.16455078125,0.3349
1.816793893129771,0.916030534351145,-1.4045801526717556,-0.4599609375,0.018310546875,-0.164306640625,0.33659999999999995
2.1068702290076335,0.9770992366412213,-1.2671755725190839,-0.463623046875,0.02001953125,-0.1689453125,0.3383
2.183206106870229,0.9465648854961832,-1.4045801526717556,-0.45751953125,0.01904296875,-0.153076171875,0.33999999999999997
2.198473282442748,1.0687022900763359,-1.099236641221374,-0.46533203125,0.01171875,-0.156982421875,0.3417
1.9541984732824427,0.8091603053435115,-1.3282442748091603,-0.45947265625,0.013671875,-0.15966796875,0.3434
2.0610687022900764,0.8091603053435115,-1.1603053435114503,-0.46875,0.015625,-0.168701171875,0.34509999999999996
2.1526717557251906,1.0076335877862594,-0.9770992366412213,-0.4599609375,0.02197265625,-0.164794921875,0.3468
2.0610687022900764,0.9923664122137404,-1.0687022900763359,-0.468017578125,0.014892578125,-0.173095703125,0.3485
2.2290076335877864,0.8396946564885496,-0.9007633587786259,-0.463134765625,0.01708984375,-0.16650390625,0.35019999999999996
1.9389312977099236,1.0687022900763359,-0.8244274809160306,-0.465576171875,0.016845703125,-0.16357421875,0.3519
2.1526717557251906,0.9923664122137404,-0.8854961832061069,-0.466064453125,0.0205078125,-0.15478515625,0.35359999999999997
2.045801526717557,0.9312977099236641,-0.7480916030534351,-0.46435546875,0.016357421875,-0.1669921875,0.3553
2.1374045801526718,1.1145038167938932,-0.8244274809160306,-0.4638671875,0.02099609375,-0.16552734375,0.357
2.2595419847328246,1.2061068702290076,-0.7175572519083969,-0.4658203125,0.01953125,-0.153564453125,0.35869999999999996
2.2748091603053435,1.2061068702290076,-0.7633587786259542,-0.465576171875,0.016845703125,-0.161865234375,0.3604
1.9389312977099236,1.1908396946564885,-0.7938931297709924,-0.468017578125,0.016357421875,-0.165771484375,0.3621
2.1374045801526718,1.3587786259541985,-0.8702290076335878,-0.4599609375,0.017578125,-0.163330078125,0.36379999999999996
2.2290076335877864,1.4351145038167938,-0.6870229007633588,-0.4638671875,0.016845703125,-0.16064453125,0.3655
2.16793893129771,1.3435114503816794,-0.7175572519083969,-0.4609375,0.017822265625,-0.16796875,0.36719999999999997
2.0916030534351147,1.450381679389313,-0.5954198473282443,-0.461181640625,0.01953125,-0.16748046875,0.3689
1.984732824427481,1.3893129770992367,-0.7022900763358778,-0.466796875,0.017822265625,-0.15869140625,0.3706
1.9083969465648856,1.3129770992366412,-0.549618320610687,-0.46142578125,0.019287109375,-0.153564453125,0.37229999999999996
2.0916030534351147,1.2366412213740459,-0.5954198473282443,-0.464599609375,0.021240234375,-0.171630859375,0.374
2.0916030534351147,1.3435114503816794,-0.5648854961832062,-0.4599609375,0.017333984375,-0.158935546875,0.3757
2.0916030534351147,1.282442748091603,-0.732824427480916,-0.45849609375,0.018310546875,-0.1650390625,0.37739999999999996
2.122137404580153,1.251908396946565,-0.6412213740458015,-0.46728515625,0.017822265625,-0.1650390625,0.3791
2.030534351145038,1.4351145038167938,-0.6106870229007634,-0.4599609375,0.01904296875,-0.153564453125,0.38079999999999997
2.0763358778625953,1.3893129770992367,-0.549618320610687,-0.461669921875,0.02001953125,-0.1591796875,0.38249999999999995
1.8473282442748091,1.5267175572519085,-0.732824427480916,-0.466552734375,0.02001953125,-0.16064453125,0.3842
2.0610687022900764,1.450381679389313,-0.7175572519083969,-0.467041015625,0.015625,-0.16357421875,0.38589999999999997
2.015267175572519,1.618320610687023,-0.42748091603053434,-0.464599609375,0.019775390625,-0.15771484375,0.3876
2.030534351145038,1.7099236641221374,-0.366412213740458,-0.46240234375,0.017333984375,-0.1640625,0.3893
1.786259541984733,1.618320610687023,-0.5801526717557252,-0.4609375,0.017333984375,-0.158447265625,0.39099999999999996
1.7709923664122138,1.6793893129770991,-0.3816793893129771,-0.457763671875,0.019287109375,-0.158447265625,0.3927
1.6641221374045803,1.8625954198473282,-0.4732824427480916,-0.465576171875,0.02001953125,-0.156982421875,0.3944
1.7099236641221374,1.816793893129771,-0.3816793893129771,-0.466064453125,0.01611328125,-0.15625,0.39609999999999995
1.816793893129771,1.816793893129771,-0.33587786259541985,-0.467041015625,0.021728515625,-0.16162109375,0.3978
1.633587786259542,1.816793893129771,-0.21374045801526717,-0.46435546875,0.014404296875,-0.161865234375,0.39949999999999997
1.7251908396946565,2.0,-0.21374045801526717,-0.469482421875,0.01953125,-0.163330078125,0.4012
1.618320610687023,2.030534351145038,-0.1984732824427481,-0.470458984375,0.017333984375,-0.164306640625,0.4029
1.7557251908396947,2.213740458015267,-0.3511450381679389,-0.468017578125,0.01953125,-0.16748046875,0.40459999999999996
1.633587786259542,2.33587786259542,-0.21374045801526717,-0.469482421875,0.015869140625,-0.158203125,0.4063
1.618320610687023,2.595419847328244,-0.4732824427480916,-0.46484375,0.016845703125,-0.158935546875,0.408
1.5114503816793894,2.8091603053435112,-0.4122137404580153,-0.47119140625,0.0166015625,-0.161376953125,0.40969999999999995
1.3893129770992367,2.854961832061069,-0.366412213740458,-0.468505859375,0.01953125,-0.1689453125,0.4114
1.3129770992366412,2.9923664122137406,-0.6106870229007634,-0.464599609375,0.022705078125,-0.164794921875,0.41309999999999997
1.5114503816793894,3.0076335877862594,-0.8549618320610687,-0.463134765625,0.0166015625,-0.163818359375,0.4148
1.3893129770992367,3.3435114503816794,-0.9618320610687023,-0.462890625,0.01953125,-0.158447265625,0.4165
1.282442748091603,3.282442748091603,-1.083969465648855,-0.46435546875,0.01806640625,-0.168701171875,0.41819999999999996
1.450381679389313,3.3587786259541983,-1.2366412213740459,-0.460205078125,0.021728515625,-0.16796875,0.4199
1.465648854961832,3.1755725190839694,-1.3129770992366412,-0.45703125,0.020263671875,-0.15673828125,0.4216
1.5572519083969465,3.1297709923664123,-1.5877862595419847,-0.455810546875,0.025390625,-0.158935546875,0.42329999999999995
1.3129770992366412,3.099236641221374,-1.6946564885496183,-0.460205078125,0.022705078125,-0.158447265625,0.425
1.3129770992366412,3.0381679389312977,-1.83206106870229,-0.45751953125,0.020263671875,-0.157958984375,0.42669999999999997
1.4809160305343512,2.7938931297709924,-2.1068702290076335,-0.45556640625,0.017578125,-0.164306640625,0.4284
1.633587786259542,2.6412213740458017,-2.1374045801526718,-0.458251953125,0.019775390625,-0.15673828125,0.4301
1.4961832061068703,2.4580152671755724,-2.1526717557251906,-0.454833984375,0.026611328125,-0.163818359375,0.43179999999999996
1.6641221374045803,2.4885496183206106,-2.3053435114503817,-0.45263671875,0.024658203125,-0.16845703125,0.4335
1.7404580152671756,2.198473282442748,-2.427480916030534,-0.449462890625,0.019287109375,-0.166259765625,0.4352
1.7251908396946565,1.8778625954198473,-2.3969465648854964,-0.451171875,0.015625,-0.1669921875,0.43689999999999996
1.816793893129771,1.8473282442748091,-2.6259541984732824,-0.446044921875,0.019775390625,-0.157958984375,0.4386
1.7099236641221374,1.633587786259542,-2.6106870229007635,-0.454345703125,0.01953125,-0.161865234375,0.44029999999999997
1.450381679389313,1.3893129770992367,-2.595419847328244,-0.453857421875,0.0185546875,-0.1689453125,0.44199999999999995
1.816793893129771,1.0534351145038168,-2.6259541984732824,-0.457275390625,0.018310546875,-0.16259765625,0.4437
1.786259541984733,1.0076335877862594,-2.6412213740458017,-0.455078125,0.021728515625,-0.15185546875,0.44539999999999996
1.6793893129770991,0.9923664122137404,-2.6564885496183206,-0.4560546875,0.021240234375,-0.170654296875,0.4471
1.7251908396946565,0.916030534351145,-2.687022900763359,-0.456787109375,0.019287109375,-0.164794921875,0.4488
1.7251908396946565,0.6870229007633588,-2.6106870229007635,-0.456298828125,0.0205078125,-0.163818359375,0.45049999999999996
1.786259541984733,0.4580152671755725,-2.3053435114503817,-0.458984375,0.01953125,-0.15966796875,0.4522
1.6641221374045803,0.5190839694656488,-2.33587786259542,-0.45458984375,0.018310546875,-0.1552734375,0.45389999999999997
1.6946564885496183,0.3511450381679389,-2.4580152671755724,-0.4560546875,0.019287109375,-0.16259765625,0.45559999999999995
1.6946564885496183,0.2748091603053435,-2.2442748091603053,-0.46484375,0.01708984375,-0.157470703125,0.4573
1.5877862595419847,0.1984732824427481,-2.213740458015267,-0.4619140625,0.017822265625,-0.15771484375,0.45899999999999996
1.4351145038167938,0.061068702290076333,-2.1526717557251906,-0.462646484375,0.015380859375,-0.16064453125,0.4607
1.4045801526717556,0.0916030534351145,-2.0610687022900764,-0.45703125,0.018310546875,-0.16845703125,0.4624
1.5114503816793894,0.16793893129770993,-2.0916030534351147,-0.460693359375,0.0166015625,-0.163330078125,0.46409999999999996
1.3587786259541985,0.04580152671755725,-2.1068702290076335,-0.460693359375,0.020751953125,-0.16259765625,0.4658
1.4961832061068703,0.24427480916030533,-2.045801526717557,-0.46337890625,0.01708984375,-0.16259765625,0.46749999999999997
1.5725190839694656,-0.015267175572519083,-2.045801526717557,-0.4609375,0.023193359375,-0.15380859375,0.46919999999999995
1.4045801526717556,0.061068702290076333,-2.045801526717557,-0.46533203125,0.0224609375,-0.163818359375,0.4709
1.6946564885496183,0.13740458015267176,-1.9083969465648856,-0.46240234375,0.01953125,-0.1669921875,0.47259999999999996
1.5572519083969465,0.061068702290076333,-2.015267175572519,-0.457763671875,0.022705078125,-0.16357421875,0.4743
1.618320610687023,0.10687022900763359,-2.045801526717557,-0.46435546875,0.0234375,-0.160400390625,0.476
1.8015267175572518,0.04580152671755725,-2.1526717557251906,-0.461669921875,0.021728515625,-0.159423828125,0.47769999999999996
1.6641221374045803,0.061068702290076333,-1.9389312977099236,-0.460205078125,0.02587890625,-0.154296875,0.4794
1.7557251908396947,0.07633587786259542,-2.0,-0.46044921875,0.023193359375,-0.16015625,0.48109999999999997
1.8015267175572518,0.015267175572519083,-2.0610687022900764,-0.45849609375,0.021728515625,-0.1640625,0.48279999999999995
1.4809160305343512,0.04580152671755725,-1.83206106870229,-0.46142578125,0.016845703125,-0.161865234375,0.4845
1.618320610687023,-0.04580152671755725,-1.83206106870229,-0.46484375,0.021240234375,-0.1533203125,0.48619999999999997
1.7099236641221374,0.15267175572519084,-1.9389312977099236,-0.458740234375,0.0166015625,-0.155517578125,0.4879
1.8625954198473282,0.030534351145038167,-1.8015267175572518,-0.46142578125,0.02001953125,-0.165283203125,0.4896
2.16793893129771,0.07633587786259542,-1.7404580152671756,-0.4609375,0.02392578125,-0.159423828125,0.49129999999999996
1.984732824427481,0.061068702290076333,-1.7251908396946565,-0.459716796875,0.01904296875,-0.15771484375,0.493
1.8778625954198473,-0.07633587786259542,-1.984732824427481,-0.46044921875,0.020751953125,-0.16162109375,0.4947
2.015267175572519,0.061068702290076333,-1.816793893129771,-0.46240234375,0.0234375,-0.16455078125,0.49639999999999995
2.213740458015267,0.183206106870229,-1.9694656488549618,-0.465576171875,0.016357421875,-0.16064453125,0.4981
1.83206106870229,0.015267175572519083,-1.8931297709923665,-0.46337890625,0.021484375,-0.164306640625,0.49979999999999997
2.2900763358778624,0.16793893129770993,-2.045801526717557,-0.457763671875,0.01611328125,-0.155029296875,0.5015
2.2290076335877864,0.015267175572519083,-1.7251908396946565,-0.467041015625,0.019775390625,-0.15966796875,0.5032
2.213740458015267,0.0916030534351145,-1.9694656488549618,-0.463134765625,0.019287109375,-0.15869140625,0.5049
2.2748091603053435,0.10687022900763359,-1.83206106870229,-0.463134765625,0.015869140625,-0.1611328125,0.5065999999999999
2.3206106870229006,0.3511450381679389,-1.6641221374045803,-0.466064453125,0.022216796875,-0.1533203125,0.5083
2.1526717557251906,0.15267175572519084,-1.6641221374045803,-0.461669921875,0.019775390625,-0.159423828125,0.51
2.366412213740458,0.21374045801526717,-1.5877862595419847,-0.4638671875,0.02490234375,-0.15234375,0.5116999999999999
2.50381679389313,0.32061068702290074,-1.786259541984733,-0.46875,0.018798828125,-0.156494140625,0.5134
2.595419847328244,0.32061068702290074,-1.816793893129771,-0.45947265625,0.021240234375,-0.158203125,0.5151
2.5343511450381677,0.12213740458015267,-1.6946564885496183,-0.460205078125,0.01904296875,-0.151123046875,0.5167999999999999
2.7022900763358777,0.366412213740458,-1.7099236641221374,-0.464111328125,0.021240234375,-0.155029296875,0.5185
2.564885496183206,0.42748091603053434,-1.4961832061068703,-0.4677734375,0.014892578125,-0.159423828125,0.5202
2.564885496183206,0.2748091603053435,-1.6946564885496183,-0.462890625,0.01513671875,-0.15576171875,0.5218999999999999
2.6717557251908395,0.549618320610687,-1.7099236641221374,-0.466552734375,0.017333984375,-0.161376953125,0.5236
2.50381679389313,0.6564885496183206,-1.7404580152671756,-0.4658203125,0.019775390625,-0.162841796875,0.5253
2.7480916030534353,0.5954198473282443,-1.7099236641221374,-0.462890625,0.021484375,-0.155517578125,0.527
2.5801526717557253,0.6259541984732825,-1.5114503816793894,-0.46484375,0.02099609375,-0.152099609375,0.5287
2.8702290076335877,0.6870229007633588,-1.5572519083969465,-0.463623046875,0.01611328125,-0.15673828125,0.5304
2.7786259541984735,0.6717557251908397,-1.5877862595419847,-0.46630859375,0.017822265625,-0.156494140625,0.5321
2.6717557251908395,0.8244274809160306,-1.2671755725190839,-0.468017578125,0.018310546875,-0.16357421875,0.5337999999999999
2.7938931297709924,0.9770992366412213,-1.4809160305343512,-0.4658203125,0.017822265625,-0.156494140625,0.5355
2.6106870229007635,0.8702290076335878,-1.282442748091603,-0.463623046875,0.016357421875,-0.1630859375,0.5372
2.6717557251908395,0.9770992366412213,-1.4198473282442747,-0.4658203125,0.020263671875,-0.159423828125,0.5388999999999999
2.885496183206107,1.099236641221374,-1.282442748091603,-0.463623046875,0.02001953125,-0.16064453125,0.5406
2.7022900763358777,1.0076335877862594,-1.282442748091603,-0.45849609375,0.015869140625,-0.1591796875,0.5423
2.6717557251908395,1.0229007633587786,-1.1755725190839694,-0.466064453125,0.01953125,-0.163330078125,0.5439999999999999
3.145038167938931,1.3282442748091603,-1.0687022900763359,-0.4658203125,0.019287109375,-0.156982421875,0.5457
2.8396946564885495,1.2366412213740459,-0.9618320610687023,-0.468994140625,0.013671875,-0.155517578125,0.5474
2.931297709923664,1.0534351145038168,-1.099236641221374,-0.462890625,0.0166015625,-0.16162109375,0.5490999999999999
2.9160305343511452,1.2366412213740459,-0.9007633587786259,-0.465087890625,0.025146484375,-0.154296875,0.5508
2.8244274809160306,1.297709923664122,-0.9312977099236641,-0.46484375,0.0166015625,-0.15869140625,0.5525
2.717557251908397,1.3129770992366412,-0.9007633587786259,-0.462890625,0.016357421875,-0.1611328125,0.5541999999999999
2.6717557251908395,1.3740458015267176,-0.916030534351145,-0.46337890625,0.018798828125,-0.162841796875,0.5559
2.732824427480916,1.465648854961832,-0.8091603053435115,-0.462646484375,0.015625,-0.16015625,0.5576
2.900763358778626,1.4045801526717556,-0.7938931297709924,-0.46484375,0.021240234375,-0.159423828125,0.5593
2.8702290076335877,1.4045801526717556,-0.5954198473282443,-0.464599609375,0.0166015625,-0.16259765625,0.5609999999999999
2.854961832061069,1.6030534351145038,-0.7480916030534351,-0.46435546875,0.02099609375,-0.15869140625,0.5627
2.717557251908397,1.7404580152671756,-0.6412213740458015,-0.46533203125,0.019775390625,-0.1552734375,0.5644
2.687022900763359,1.5114503816793894,-0.7175572519083969,-0.46240234375,0.01953125,-0.15673828125,0.5660999999999999
2.6717557251908395,1.5725190839694656,-0.6412213740458015,-0.462158203125,0.021728515625,-0.157958984375,0.5678
2.900763358778626,1.7251908396946565,-0.549618320610687,-0.467041015625,0.0234375,-0.159912109375,0.5695
3.068702290076336,1.7251908396946565,-0.7022900763358778,-0.463134765625,0.019775390625,-0.15771484375,0.5711999999999999
2.564885496183206,1.7404580152671756,-0.7175572519083969,-0.467041015625,0.01953125,-0.162841796875,0.5729
2.6717557251908395,1.7709923664122138,-0.7786259541984732,-0.466796875,0.01611328125,-0.165771484375,0.5746
2.8244274809160306,1.7404580152671756,-0.8091603053435115,-0.462646484375,0.0244140625,-0.158203125,0.5762999999999999
2.717557251908397,1.6641221374045803,-0.8854961832061069,-0.46240234375,0.019775390625,-0.165771484375,0.578
2.7786259541984735,1.7709923664122138,-1.0534351145038168,-0.462646484375,0.01806640625,-0.157470703125,0.5797
2.6412213740458017,1.8778625954198473,-1.0229007633587786,-0.46826171875,0.014404296875,-0.16650390625,0.5813999999999999
2.6717557251908395,1.8473282442748091,-0.9007633587786259,-0.4619140625,0.016845703125,-0.161865234375,0.5831
2.717557251908397,1.9694656488549618,-0.9007633587786259,-0.462646484375,0.017822265625,-0.16455078125,0.5848
2.6564885496183206,1.9236641221374047,-0.9312977099236641,-0.46435546875,0.017822265625,-0.16748046875,0.5865
2.5343511450381677,1.8778625954198473,-0.7938931297709924,-0.463134765625,0.015869140625,-0.159423828125,0.5882
2.2900763358778624,1.7099236641221374,-1.1145038167938932,-0.4619140625,0.013427734375,-0.154052734375,0.5899
2.3969465648854964,1.9541984732824427,-1.099236641221374,-0.461181640625,0.015869140625,-0.164306640625,0.5916
2.351145038167939,1.9541984732824427,-1.0229007633587786,-0.4638671875,0.01708984375,-0.172119140625,0.5932999999999999
2.4580152671755724,1.8625954198473282,-1.0229007633587786,-0.460205078125,0.015380859375,-0.168212890625,0.595
2.213740458015267,1.7404580152671756,-1.1908396946564885,-0.466552734375,0.021484375,-0.1728515625,0.5967
2.16793893129771,1.786259541984733,-1.251908396946565,-0.46728515625,0.01611328125,-0.151123046875,0.5983999999999999
2.4122137404580153,1.8473282442748091,-1.2366412213740459,-0.460693359375,0.017822265625,-0.1572265625,0.6001
2.2290076335877864,1.786259541984733,-1.0534351145038168,-0.45947265625,0.013671875,-0.16162109375,0.6018
2.122137404580153,1.7099236641221374,-1.3893129770992367,-0.46240234375,0.012451171875,-0.166259765625,0.6034999999999999
2.2595419847328246,1.786259541984733,-1.3129770992366412,-0.462158203125,0.011474609375,-0.17041015625,0.6052
2.366412213740458,1.9236641221374047,-1.5877862595419847,-0.45947265625,0.013916015625,-0.1650390625,0.6069
1.8015267175572518,1.9236641221374047,-1.3282442748091603,-0.46435546875,0.019775390625,-0.165283203125,0.6085999999999999
2.015267175572519,1.9236641221374047,-1.4198473282442747,-0.468017578125,0.017822265625,-0.1572265625,0.6103
1.8931297709923665,1.8625954198473282,-1.5114503816793894,-0.4619140625,0.014892578125,-0.158447265625,0.612
1.83206106870229,1.7709923664122138,-1.465648854961832,-0.46337890625,0.020263671875,-0.160888671875,0.6136999999999999
1.7404580152671756,1.9541984732824427,-1.6641221374045803,-0.46533203125,0.017578125,-0.168212890625,0.6154
1.7251908396946565,1.7709923664122138,-1.9083969465648856,-0.462890625,0.019775390625,-0.168701171875,0.6171
1.7404580152671756,1.8778625954198473,-1.7099236641221374,-0.46435546875,0.017822265625,-0.164306640625,0.6188
1.6946564885496183,1.7251908396946565,-1.816793893129771,-0.46142578125,0.014892578125,-0.16845703125,0.6204999999999999
1.6946564885496183,1.6946564885496183,-1.6030534351145038,-0.4580078125,0.021484375,-0.161865234375,0.6222
1.7557251908396947,1.7557251908396947,-1.6641221374045803,-0.4638671875,0.01708984375,-0.162109375,0.6239
1.3893129770992367,1.6488549618320612,-1.7404580152671756,-0.462158203125,0.021240234375,-0.169189453125,0.6255999999999999
1.4198473282442747,1.6488549618320612,-1.5572519083969465,-0.462158203125,0.017822265625,-0.16650390625,0.6273
1.450381679389313,1.5725190839694656,-1.6488549618320612,-0.460693359375,0.018310546875,-0.173583984375,0.629
1.633587786259542,1.816793893129771,-1.5725190839694656,-0.4638671875,0.016357421875,-0.1650390625,0.6306999999999999
1.450381679389313,1.6946564885496183,-1.465648854961832,-0.4619140625,0.0146484375,-0.158447265625,0.6324
1.465648854961832,2.015267175572519,-1.5114503816793894,-0.46044921875,0.01953125,-0.1650390625,0.6341
1.4198473282442747,1.8931297709923665,-1.4351145038167938,-0.46875,0.016845703125,-0.1611328125,0.6357999999999999
1.6946564885496183,1.7251908396946565,-1.4351145038167938,-0.458740234375,0.0126953125,-0.16650390625,0.6375
1.251908396946565,1.8473282442748091,-1.5114503816793894,-0.458740234375,0.01611328125,-0.164306640625,0.6392
1.3435114503816794,1.9236641221374047,-1.6488549618320612,-0.465087890625,0.01220703125,-0.164794921875,0.6408999999999999
1.1755725190839694,1.8931297709923665,-1.5114503816793894,-0.464111328125,0.0224609375,-0.158203125,0.6426
1.1145038167938932,1.816793893129771,-1.465648854961832,-0.4599609375,0.018310546875,-0.16455078125,0.6443
1.2671755725190839,2.045801526717557,-1.7251908396946565,-0.4599609375,0.018310546875,-0.1689453125,0.646
1.1145038167938932,1.8473282442748091,-1.4351145038167938,-0.467041015625,0.0185546875,-0.171875,0.6476999999999999
1.1755725190839694,1.8778625954198473,-1.3282442748091603,-0.460205078125,0.01708984375,-0.162109375,0.6494
1.1755725190839694,1.7709923664122138,-1.465648854961832,-0.46240234375,0.017578125,-0.16748046875,0.6511
1.1755725190839694,1.9083969465648856,-1.3587786259541985,-0.4638671875,0.01318359375,-0.165771484375,0.6527999999999999
1.0076335877862594,1.83206106870229,-1.3893129770992367,-0.462158203125,0.01611328125,-0.163330078125,0.6545
0.9007633587786259,1.8625954198473282,-1.2213740458015268,-0.46240234375,0.01611328125,-0.156982421875,0.6562
1.099236641221374,1.8931297709923665,-1.3435114503816794,-0.4638671875,0.020263671875,-0.15869140625,0.6578999999999999
1.1603053435114503,1.9694656488549618,-1.2061068702290076,-0.46142578125,0.0205078125,-0.174560546875,0.6596
1.1297709923664123,1.8778625954198473,-1.4961832061068703,-0.46630859375,0.0126953125,-0.171630859375,0.6613
0.9007633587786259,1.8015267175572518,-1.5267175572519085,-0.465576171875,0.0126953125,-0.165771484375,0.6629999999999999
1.1908396946564885,2.045801526717557,-1.6641221374045803,-0.461181640625,0.021484375,-0.165771484375,0.6647
1.099236641221374,2.1068702290076335,-1.5877862595419847,-0.4609375,0.01953125,-0.166748046875,0.6664
1.1908396946564885,2.030534351145038,-1.6488549618320612,-0.4638671875,0.022216796875,-0.164794921875,0.6680999999999999
1.251908396946565,1.9694656488549618,-1.7709923664122138,-0.460693359375,0.02294921875,-0.15869140625,0.6698
1.1145038167938932,2.16793893129771,-1.7404580152671756,-0.45703125,0.02294921875,-0.16845703125,0.6715
1.0687022900763359,2.1068702290076335,-1.6641221374045803,-0.45703125,0.018310546875,-0.164306640625,0.6731999999999999
0.9770992366412213,2.015267175572519,-1.5419847328244274,-0.460693359375,0.02001953125,-0.161865234375,0.6748999999999999
1.1145038167938932,2.030534351145038,-1.6946564885496183,-0.458740234375,0.02001953125,-0.16552734375,0.6766
1.099236641221374,1.8015267175572518,-1.6946564885496183,-0.45947265625,0.01953125,-0.160888671875,0.6783
1.3893129770992367,1.8625954198473282,-1.7557251908396947,-0.458740234375,0.023193359375,-0.166259765625,0.6799999999999999
1.3893129770992367,1.816793893129771,-1.5725190839694656,-0.457275390625,0.02099609375,-0.166015625,0.6817
1.1145038167938932,1.8015267175572518,-1.5572519083969465,-0.461669921875,0.019775390625,-0.16796875,0.6834
1.3129770992366412,1.6488549618320612,-1.6030534351145038,-0.460693359375,0.0185546875,-0.16845703125,0.6850999999999999
1.3740458015267176,1.8015267175572518,-1.6641221374045803,-0.46044921875,0.0185546875,-0.16259765625,0.6868
1.3129770992366412,1.6793893129770991,-1.816793893129771,-0.46435546875,0.0185546875,-0.16259765625,0.6885
1.0381679389312977,1.465648854961832,-1.6793893129770991,-0.463134765625,0.021484375,-0.16162109375,0.6901999999999999
1.1908396946564885,1.633587786259542,-1.6030534351145038,-0.4638671875,0.02001953125,-0.169677734375,0.6919
1.2366412213740459,1.450381679389313,-1.6641221374045803,-0.457275390625,0.014892578125,-0.175048828125,0.6936
1.3282442748091603,1.5877862595419847,-1.5725190839694656,-0.45361328125,0.0185546875,-0.168701171875,0.6952999999999999
1.3129770992366412,1.4961832061068703,-1.5572519083969465,-0.461669921875,0.017578125,-0.16552734375,0.697
1.083969465648855,1.6488549618320612,-1.7099236641221374,-0.45751953125,0.021484375,-0.16357421875,0.6987
1.5114503816793894,1.4961832061068703,-1.5419847328244274,-0.458984375,0.019287109375,-0.1630859375,0.7003999999999999
1.297709923664122,1.4809160305343512,-1.3282442748091603,-0.45654296875,0.0166015625,-0.164794921875,0.7021
1.4045801526717556,1.3435114503816794,-1.4198473282442747,-0.458740234375,0.02392578125,-0.16455078125,0.7038
1.3282442748091603,1.297709923664122,-1.2366412213740459,-0.452880859375,0.02099609375,-0.159423828125,0.7055
1.2671755725190839,1.2061068702290076,-1.2671755725190839,-0.457275390625,0.019287109375,-0.159912109375,0.7071999999999999
1.3129770992366412,1.1145038167938932,-1.3435114503816794,-0.4609375,0.01953125,-0.163818359375,0.7089
1.4809160305343512,1.1450381679389312,-1.297709923664122,-0.4599609375,0.017333984375,-0.170166015625,0.7106
1.4351145038167938,1.1603053435114503,-1.3282442748091603,-0.46142578125,0.011474609375,-0.162109375,0.7122999999999999
1.3587786259541985,1.1297709923664123,-1.3282442748091603,-0.455322265625,0.015625,-0.169677734375,0.714
1.3435114503816794,0.9312977099236641,-1.282442748091603,-0.45947265625,0.017578125,-0.160400390625,0.7157
1.3435114503816794,0.8702290076335878,-1.3129770992366412,-0.4560546875,0.01611328125,-0.15478515625,0.7173999999999999
1.251908396946565,0.7480916030534351,-1.2061068702290076,-0.4599609375,0.016357421875,-0.1669921875,0.7191
1.3893129770992367,0.8854961832061069,-1.297709923664122,-0.4541015625,0.0185546875,-0.163818359375,0.7208
1.4045801526717556,0.7480916030534351,-1.282442748091603,-0.460693359375,0.01904296875,-0.157470703125,0.7224999999999999
1.3435114503816794,0.9618320610687023,-1.3587786259541985,-0.45703125,0.01513671875,-0.154541015625,0.7242
1.4809160305343512,0.6870229007633588,-1.2213740458015268,-0.4560546875,0.01611328125,-0.1669921875,0.7259
1.3740458015267176,0.3511450381679389,-1.1450381679389312,-0.4599609375,0.021240234375,-0.16748046875,0.7275999999999999
1.3587786259541985,0.5801526717557252,-1.251908396946565,-0.453369140625,0.021484375,-0.161376953125,0.7293
1.5114503816793894,0.6717557251908397,-1.465648854961832,-0.459228515625,0.012451171875,-0.16552734375,0.731
1.5419847328244274,0.6564885496183206,-1.1603053435114503,-0.456298828125,0.024169921875,-0.164306640625,0.7326999999999999
1.5572519083969465,0.6870229007633588,-1.282442748091603,-0.46142578125,0.021240234375,-0.16552734375,0.7343999999999999
1.3893129770992367,0.6259541984732825,-1.1450381679389312,-0.460205078125,0.018798828125,-0.158447265625,0.7361
1.450381679389313,0.2748091603053435,-1.297709923664122,-0.461181640625,0.020751953125,-0.16064453125,0.7378
1.786259541984733,0.2748091603053435,-1.1603053435114503,-0.468017578125,0.023681640625,-0.1591796875,0.7394999999999999
1.6030534351145038,0.44274809160305345,-1.2061068702290076,-0.4619140625,0.0244140625,-0.15576171875,0.7412
1.618320610687023,0.183206106870229,-1.3282442748091603,-0.459716796875,0.0185546875,-0.155029296875,0.7429
1.5877862595419847,0.3511450381679389,-1.2671755725190839,-0.461181640625,0.01806640625,-0.16162109375,0.7445999999999999
1.5419847328244274,0.3053435114503817,-1.2061068702290076,-0.462158203125,0.02099609375,-0.159423828125,0.7463
1.6641221374045803,0.2900763358778626,-1.3587786259541985,-0.46435546875,0.017578125,-0.162353515625,0.748
1.7404580152671756,0.07633587786259542,-1.4351145038167938,-0.460693359375,0.0166015625,-0.154052734375,0.7496999999999999
1.7251908396946565,0.183206106870229,-1.2671755725190839,-0.464599609375,0.018798828125,-0.153564453125,0.7514
1.786259541984733,0.0916030534351145,-1.1908396946564885,-0.457275390625,0.01806640625,-0.167236328125,0.7531
1.7404580152671756,0.12213740458015267,-1.3587786259541985,-0.45703125,0.01513671875,-0.160888671875,0.7547999999999999
1.6641221374045803,0.12213740458015267,-1.3893129770992367,-0.45947265625,0.01611328125,-0.162841796875,0.7565
1.816793893129771,0.2748091603053435,-1.4198473282442747,-0.455078125,0.018798828125,-0.166259765625,0.7582
1.7709923664122138,0.22900763358778625,-1.4045801526717556,-0.460205078125,0.01318359375,-0.163818359375,0.7598999999999999
1.786259541984733,0.24427480916030533,-1.3893129770992367,-0.45849609375,0.0185546875,-0.164794921875,0.7615999999999999
1.83206106870229,0.32061068702290074,-1.4198473282442747,-0.462158203125,0.018310546875,-0.159423828125,0.7633
1.6488549618320612,0.2595419847328244,-1.4809160305343512,-0.4638671875,0.017822265625,-0.16748046875,0.7649999999999999
1.7404580152671756,0.12213740458015267,-1.4809160305343512,-0.458984375,0.014404296875,-0.16455078125,0.7666999999999999
1.83206106870229,0.13740458015267176,-1.6030534351145038,-0.463134765625,0.015380859375,-0.163330078125,0.7684
1.8625954198473282,0.2595419847328244,-1.3129770992366412,-0.465576171875,0.019775390625,-0.155517578125,0.7701
1.6030534351145038,0.2900763358778626,-1.3129770992366412,-0.4619140625,0.015625,-0.166748046875,0.7717999999999999
1.7404580152671756,0.061068702290076333,-1.5114503816793894,-0.459228515625,0.014892578125,-0.16455078125,0.7735
1.83206106870229,0.22900763358778625,-1.465648854961832,-0.4619140625,0.01904296875,-0.164306640625,0.7752
1.8778625954198473,0.07633587786259542,-1.4351145038167938,-0.461669921875,0.01708984375,-0.158203125,0.7768999999999999
1.8015267175572518,0.16793893129770993,-1.3435114503816794,-0.463134765625,0.02001953125,-0.162109375,0.7786
1.8015267175572518,0.32061068702290074,-1.3129770992366412,-0.464111328125,0.017578125,-0.166259765625,0.7803
1.6946564885496183,0.13740458015267176,-1.4045801526717556,-0.4658203125,0.019287109375,-0.16650390625,0.7819999999999999
1.8778625954198473,0.33587786259541985,-1.2061068702290076,-0.4677734375,0.018798828125,-0.166015625,0.7837
1.8015267175572518,0.32061068702290074,-1.297709923664122,-0.462646484375,0.023681640625,-0.168701171875,0.7854
1.786259541984733,0.3511450381679389,-1.5572519083969465,-0.463134765625,0.014892578125,-0.167236328125,0.7870999999999999
1.8625954198473282,0.2748091603053435,-1.4351145038167938,-0.468017578125,0.024169921875,-0.160888671875,0.7888
1.6793893129770991,0.21374045801526717,-1.3435114503816794,-0.46337890625,0.023681640625,-0.16259765625,0.7905
1.83206106870229,0.3053435114503817,-1.5572519083969465,-0.457275390625,0.024169921875,-0.157470703125,0.7921999999999999
1.7709923664122138,0.3969465648854962,-1.4351145038167938,-0.462158203125,0.0205078125,-0.160888671875,0.7938999999999999
1.786259541984733,0.33587786259541985,-1.4045801526717556,-0.460205078125,0.0185546875,-0.15869140625,0.7956
1.7251908396946565,0.3511450381679389,-1.3587786259541985,-0.462646484375,0.014892578125,-0.16650390625,0.7973
1.7404580152671756,0.549618320610687,-1.4961832061068703,-0.461669921875,0.021728515625,-0.16015625,0.7989999999999999
1.8473282442748091,0.6106870229007634,-1.4809160305343512,-0.462646484375,0.018310546875,-0.166259765625,0.8007
1.7404580152671756,0.33587786259541985,-1.5572519083969465,-0.4638671875,0.01806640625,-0.16455078125,0.8024
1.6946564885496183,0.5190839694656488,-1.4351145038167938,-0.4658203125,0.01416015625,-0.15283203125,0.8040999999999999
1.6946564885496183,0.3511450381679389,-1.5725190839694656,-0.462890625,0.02197265625,-0.1669921875,0.8058
1.6641221374045803,0.48854961832061067,-1.6030534351145038,-0.462158203125,0.02001953125,-0.1669921875,0.8075
1.7251908396946565,0.44274809160305345,-1.5877862595419847,-0.459716796875,0.019287109375,-0.16162109375,0.8091999999999999
1.6946564885496183,0.3816793893129771,-1.3893129770992367,-0.4599609375,0.017578125,-0.171630859375,0.8109
1.7099236641221374,0.42748091603053434,-1.6030534351145038,-0.460693359375,0.0166015625,-0.16650390625,0.8126
1.6793893129770991,0.4732824427480916,-1.4045801526717556,-0.466064453125,0.01708984375,-0.16259765625,0.8142999999999999
1.6488549618320612,0.4732824427480916,-1.6793893129770991,-0.461669921875,0.020751953125,-0.15478515625,0.816
1.4351145038167938,0.3969465648854962,-1.4809160305343512,-0.462646484375,0.01708984375,-0.1572265625,0.8177
1.5877862595419847,0.3511450381679389,-1.5419847328244274,-0.46728515625,0.019775390625,-0.15625,0.8193999999999999
1.6030534351145038,0.44274809160305345,-1.3435114503816794,-0.460693359375,0.016845703125,-0.164794921875,0.8210999999999999
1.5419847328244274,0.3053435114503817,-1.6488549618320612,-0.458740234375,0.022216796875,-0.156494140625,0.8228
1.7251908396946565,0.2748091603053435,-1.7251908396946565,-0.467041015625,0.0185546875,-0.161376953125,0.8244999999999999
1.5267175572519085,0.44274809160305345,-1.7709923664122138,-0.463134765625,0.0205078125,-0.1611328125,0.8261999999999999
1.618320610687023,0.3816793893129771,-1.7099236641221374,-0.457275390625,0.0146484375,-0.156005859375,0.8279
1.6641221374045803,0.15267175572519084,-1.7709923664122138,-0.45703125,0.017578125,-0.159423828125,0.8296
1.6793893129770991,0.5190839694656488,-1.7099236641221374,-0.46533203125,0.019775390625,-0.165771484375,0.8312999999999999
1.618320610687023,0.549618320610687,-1.816793893129771,-0.46044921875,0.0146484375,-0.15869140625,0.833
1.5572519083969465,0.32061068702290074,-1.8015267175572518,-0.462646484375,0.01904296875,-0.163818359375,0.8347
1.5114503816793894,0.4732824427480916,-1.9389312977099236,-0.46435546875,0.02001953125,-0.16259765625,0.8363999999999999
1.6030534351145038,0.6259541984732825,-1.7099236641221374,-0.458984375,0.015625,-0.161376953125,0.8381
1.4198473282442747,0.5343511450381679,-1.7709923664122138,-0.463623046875,0.01708984375,-0.161376953125,0.8398
1.4045801526717556,0.5038167938931297,-1.786259541984733,-0.464599609375,0.0185546875,-0.1591796875,0.8414999999999999
1.4961832061068703,0.549618320610687,-1.9694656488549618,-0.45654296875,0.020751953125,-0.1650390625,0.8432
1.5725190839694656,0.5038167938931297,-1.9541984732824427,-0.462646484375,0.017333984375,-0.16650390625,0.8449
1.5725190839694656,0.5190839694656488,-1.816793893129771,-0.461181640625,0.016357421875,-0.157958984375,0.8465999999999999
1.465648854961832,0.6412213740458015,-2.030534351145038,-0.45947265625,0.01806640625,-0.153076171875,0.8482999999999999
1.618320610687023,0.732824427480916,-1.984732824427481,-0.463623046875,0.018310546875,-0.163330078125,0.85
1.4809160305343512,0.5954198473282443,-1.984732824427481,-0.462158203125,0.014892578125,-0.16357421875,0.8516999999999999
1.3740458015267176,0.7786259541984732,-2.1068702290076335,-0.4658203125,0.02001953125,-0.1630859375,0.8533999999999999
1.450381679389313,0.7022900763358778,-1.8015267175572518,-0.46142578125,0.022216796875,-0.159912109375,0.8551
1.5419847328244274,0.6106870229007634,-2.0610687022900764,-0.46240234375,0.01611328125,-0.169189453125,0.8568
1.465648854961832,0.5190839694656488,-1.8931297709923665,-0.46484375,0.021728515625,-0.160888671875,0.8584999999999999
1.4961832061068703,0.5954198473282443,-1.8473282442748091,-0.462890625,0.017333984375,-0.16064453125,0.8602
1.4045801526717556,0.7480916030534351,-1.8778625954198473,-0.459716796875,0.02099609375,-0.154296875,0.8619
1.2061068702290076,0.7480916030534351,-2.030534351145038,-0.4609375,0.017822265625,-0.160888671875,0.8635999999999999
1.6030534351145038,0.5648854961832062,-1.8015267175572518,-0.462646484375,0.0185546875,-0.151123046875,0.8653
1.465648854961832,0.6412213740458015,-1.9083969465648856,-0.458740234375,0.013916015625,-0.16259765625,0.867
1.251908396946565,0.6412213740458015,-1.8015267175572518,-0.46142578125,0.01708984375,-0.164306640625,0.8686999999999999
1.4198473282442747,0.4122137404580153,-1.9389312977099236,-0.464599609375,0.018798828125,-0.16259765625,0.8704
1.3435114503816794,0.48854961832061067,-1.7404580152671756,-0.462158203125,0.017822265625,-0.161865234375,0.8721
1.3282442748091603,0.5648854961832062,-1.786259541984733,-0.46142578125,0.02001953125,-0.153564453125,0.8737999999999999
1.2366412213740459,0.5954198473282443,-1.83206106870229,-0.462890625,0.016845703125,-0.162109375,0.8755
1.3893129770992367,0.5190839694656488,-1.9236641221374047,-0.46240234375,0.018310546875,-0.163818359375,0.8772
1.2061068702290076,0.5038167938931297,-1.6793893129770991,-0.46240234375,0.01513671875,-0.16162109375,0.8788999999999999
1.297709923664122,0.549618320610687,-1.7709923664122138,-0.45947265625,0.02099609375,-0.155029296875,0.8805999999999999
1.3129770992366412,0.3969465648854962,-1.9389312977099236,-0.459716796875,0.023681640625,-0.15869140625,0.8823
1.2366412213740459,0.6106870229007634,-1.8931297709923665,-0.465087890625,0.0166015625,-0.16015625,0.8839999999999999
1.0534351145038168,0.6106870229007634,-1.8778625954198473,-0.463623046875,0.0185546875,-0.161865234375,0.8856999999999999
1.3740458015267176,0.48854961832061067,-1.9389312977099236,-0.466552734375,0.0205078125,-0.15673828125,0.8874
1.4961832061068703,0.4732824427480916,-1.7099236641221374,-0.46435546875,0.0185546875,-0.1591796875,0.8891
1.465648854961832,0.2748091603053435,-2.1068702290076335,-0.4609375,0.017578125,-0.154296875,0.8907999999999999
1.3435114503816794,0.5038167938931297,-1.7404580152671756,-0.460693359375,0.015625,-0.154296875,0.8925
1.251908396946565,0.3816793893129771,-1.9083969465648856,-0.465576171875,0.01904296875,-0.15673828125,0.8942
1.5725190839694656,0.2595419847328244,-1.7557251908396947,-0.45849609375,0.018310546875,-0.155029296875,0.8958999999999999
1.3129770992366412,0.5801526717557252,-1.8473282442748091,-0.4599609375,0.017822265625,-0.1552734375,0.8976
1.3587786259541985,0.4580152671755725,-1.8931297709923665,-0.462890625,0.019287109375,-0.152587890625,0.8993
1.3740458015267176,0.3969465648854962,-2.045801526717557,-0.45947265625,0.01953125,-0.157958984375,0.9009999999999999
1.297709923664122,0.3816793893129771,-1.8931297709923665,-0.463623046875,0.019287109375,-0.157470703125,0.9027
1.282442748091603,0.2748091603053435,-1.9541984732824427,-0.46044921875,0.019287109375,-0.157470703125,0.9044
1.3740458015267176,0.32061068702290074,-1.6793893129770991,-0.460693359375,0.015625,-0.151611328125,0.9060999999999999
1.5725190839694656,0.2900763358778626,-1.8778625954198473,-0.466796875,0.019287109375,-0.16064453125,0.9077999999999999
1.3435114503816794,0.24427480916030533,-1.8625954198473282,-0.46435546875,0.012939453125,-0.15869140625,0.9095
1.2671755725190839,0.3511450381679389,-1.6793893129770991,-0.467041015625,0.016357421875,-0.164794921875,0.9111999999999999
1.251908396946565,0.183206106870229,-1.8473282442748091,-0.46142578125,0.014892578125,-0.158203125,0.9128999999999999
1.3435114503816794,0.2900763358778626,-1.9236641221374047,-0.461181640625,0.017578125,-0.16943359375,0.9146
1.4961832061068703,0.2900763358778626,-1.6641221374045803,-0.4658203125,0.013427734375,-0.155517578125,0.9163
1.282442748091603,0.32061068702290074,-1.6793893129770991,-0.464599609375,0.016845703125,-0.15673828125,0.9179999999999999
1.297709923664122,0.13740458015267176,-1.8931297709923665,-0.46435546875,0.021240234375,-0.158935546875,0.9197
1.5572519083969465,0.16793893129770993,-1.8778625954198473,-0.4658203125,0.015380859375,-0.166259765625,0.9214
1.5114503816793894,0.16793893129770993,-1.7251908396946565,-0.46728515625,0.0146484375,-0.162353515625,0.9230999999999999
1.4809160305343512,0.12213740458015267,-1.6793893129770991,-0.464599609375,0.0087890625,-0.161865234375,0.9248
1.2671755725190839,0.21374045801526717,-1.7251908396946565,-0.4638671875,0.021484375,-0.158935546875,0.9265
1.5877862595419847,0.16793893129770993,-1.8473282442748091,-0.46533203125,0.0166015625,-0.166748046875,0.9281999999999999
1.5114503816793894,0.3053435114503817,-1.7709923664122138,-0.4736328125,0.01708984375,-0.161376953125,0.9299
1.3587786259541985,0.3816793893129771,-1.6946564885496183,-0.458984375,0.014892578125,-0.158203125,0.9316
1.3893129770992367,0.2595419847328244,-1.633587786259542,-0.46337890625,0.02001953125,-0.157958984375,0.9332999999999999
1.5267175572519085,0.3511450381679389,-1.5725190839694656,-0.467041015625,0.018798828125,-0.1611328125,0.9349999999999999
1.4809160305343512,0.5343511450381679,-1.7099236641221374,-0.4638671875,0.02001953125,-0.160888671875,0.9367
1.3893129770992367,0.3969465648854962,-1.6793893129770991,-0.471923828125,0.017333984375,-0.15966796875,0.9383999999999999
1.5114503816793894,0.3816793893129771,-1.618320610687023,-0.46240234375,0.023193359375,-0.15380859375,0.9400999999999999
1.450381679389313,0.2900763358778626,-1.6641221374045803,-0.46240234375,0.02001953125,-0.158447265625,0.9418
1.5114503816793894,0.366412213740458,-1.618320610687023,-0.46484375,0.013427734375,-0.156982421875,0.9434999999999999
1.465648854961832,0.549618320610687,-1.6030534351145038,-0.4677734375,0.021484375,-0.158447265625,0.9451999999999999
1.7404580152671756,0.48854961832061067,-1.633587786259542,-0.461181640625,0.021240234375,-0.165283203125,0.9469
1.5572519083969465,0.5343511450381679,-1.5419847328244274,-0.46533203125,0.02392578125,-0.162353515625,0.9486
1.633587786259542,0.732824427480916,-1.5114503816793894,-0.46533203125,0.022216796875,-0.154296875,0.9502999999999999
1.5877862595419847,0.549618320610687,-1.5267175572519085,-0.466552734375,0.01611328125,-0.15478515625,0.952
1.5572519083969465,0.42748091603053434,-1.5267175572519085,-0.461181640625,0.02099609375,-0.152099609375,0.9537
1.8015267175572518,0.6717557251908397,-1.5572519083969465,-0.462158203125,0.013671875,-0.160400390625,0.9553999999999999
1.7557251908396947,0.6412213740458015,-1.465648854961832,-0.466796875,0.0166015625,-0.154296875,0.9571
1.7557251908396947,0.4732824427480916,-1.5267175572519085,-0.46630859375,0.01904296875,-0.1572265625,0.9588
1.5572519083969465,0.549618320610687,-1.465648854961832,-0.464599609375,0.01611328125,-0.155029296875,0.9604999999999999
1.5267175572519085,0.3511450381679389,-1.4045801526717556,-0.46484375,0.0224609375,-0.158447265625,0.9621999999999999
1.5267175572519085,0.44274809160305345,-1.4198473282442747,-0.46728515625,0.015625,-0.162109375,0.9639
1.6030534351145038,0.44274809160305345,-1.450381679389313,-0.4638671875,0.016357421875,-0.15869140625,0.9655999999999999
1.4351145038167938,0.5801526717557252,-1.5114503816793894,-0.46240234375,0.01611328125,-0.158203125,0.9672999999999999
1.4198473282442747,0.3969465648854962,-1.633587786259542,-0.462646484375,0.0234375,-0.16162109375,0.969
1.6793893129770991,0.549618320610687,-1.5572519083969465,-0.4619140625,0.0205078125,-0.15380859375,0.9706999999999999
1.5877862595419847,0.5038167938931297,-1.4351145038167938,-0.463623046875,0.015869140625,-0.16015625,0.9723999999999999
1.5419847328244274,0.48854961832061067,-1.450381679389313,-0.46435546875,0.01220703125,-0.158935546875,0.9741
1.5572519083969465,0.549618320610687,-1.297709923664122,-0.466552734375,0.017333984375,-0.160400390625,0.9758
1.5267175572519085,0.6870229007633588,-1.3587786259541985,-0.466796875,0.015625,-0.157470703125,0.9774999999999999
1.4351145038167938,0.7175572519083969,-1.3587786259541985,-0.460693359375,0.013916015625,-0.159423828125,0.9792
1.5725190839694656,0.7633587786259542,-1.4351145038167938,-0.46044921875,0.01904296875,-0.161376953125,0.9809
1.4351145038167938,0.8549618320610687,-1.450381679389313,-0.464599609375,0.01904296875,-0.15576171875,0.9825999999999999
1.4961832061068703,0.8702290076335878,-1.1908396946564885,-0.46728515625,0.02099609375,-0.16650390625,0.9843
1.5267175572519085,1.0534351145038168,-1.1755725190839694,-0.46826171875,0.01806640625,-0.162109375,0.986
1.297709923664122,1.0076335877862594,-1.0381679389312977,-0.46875,0.01318359375,-0.16552734375,0.9876999999999999
1.3587786259541985,1.2671755725190839,-1.099236641221374,-0.46484375,0.0166015625,-0.16943359375,0.9894
1.4045801526717556,1.297709923664122,-1.0229007633587786,-0.469482421875,0.018310546875,-0.16650390625,0.9911
1.5725190839694656,1.5267175572519085,-1.083969465648855,-0.47119140625,0.018310546875,-0.170166015625,0.9927999999999999
1.465648854961832,1.450381679389313,-0.7786259541984732,-0.46630859375,0.01318359375,-0.1650390625,0.9944999999999999
1.450381679389313,1.7099236641221374,-1.1297709923664123,-0.46875,0.018798828125,-0.161376953125,0.9962
1.2213740458015268,1.9236641221374047,-1.1145038167938932,-0.472900390625,0.022705078125,-0.16015625,0.9978999999999999
1.2366412213740459,1.8931297709923665,-1.0687022900763359,-0.466064453125,0.016845703125,-0.16259765625,0.9995999999999999
1.3740458015267176,2.1526717557251906,-1.2061068702290076,-0.46875,0.019287109375,-0.15234375,1.0012999999999999
1.297709923664122,2.2595419847328246,-1.1908396946564885,-0.468994140625,0.01611328125,-0.154296875,1.003
1.3740458015267176,2.4580152671755724,-1.3435114503816794,-0.464111328125,0.01953125,-0.165771484375,1.0047
1.4198473282442747,2.595419847328244,-1.4961832061068703,-0.463134765625,0.02197265625,-0.158203125,1.0064
1.5419847328244274,2.763358778625954,-1.6946564885496183,-0.46875,0.01953125,-0.166015625,1.0081
1.5877862595419847,2.763358778625954,-1.7099236641221374,-0.469970703125,0.0205078125,-0.15966796875,1.0098
1.450381679389313,2.900763358778626,-1.7404580152671756,-0.459716796875,0.019287109375,-0.1552734375,1.0114999999999998
1.5419847328244274,2.8396946564885495,-2.0,-0.46142578125,0.020263671875,-0.15478515625,1.0131999999999999
1.5114503816793894,2.9618320610687023,-2.3053435114503817,-0.461181640625,0.016845703125,-0.156982421875,1.0149
1.618320610687023,2.9770992366412212,-2.16793893129771,-0.4638671875,0.0185546875,-0.15625,1.0166
1.9083969465648856,2.8244274809160306,-2.4732824427480917,-0.456298828125,0.01708984375,-0.15869140625,1.0183
1.4045801526717556,2.7938931297709924,-2.549618320610687,-0.45263671875,0.01953125,-0.162353515625,1.02
1.5267175572519085,2.595419847328244,-2.5801526717557253,-0.46435546875,0.022216796875,-0.167236328125,1.0217
1.7251908396946565,2.5343511450381677,-2.763358778625954,-0.463134765625,0.0205078125,-0.160888671875,1.0233999999999999
1.816793893129771,2.3053435114503817,-2.717557251908397,-0.4580078125,0.02490234375,-0.157958984375,1.0251
2.0,2.2900763358778624,-2.595419847328244,-0.45947265625,0.020751953125,-0.16162109375,1.0268
1.83206106870229,2.1374045801526718,-2.8396946564885495,-0.455322265625,0.01611328125,-0.15673828125,1.0285
1.816793893129771,1.984732824427481,-2.732824427480916,-0.457275390625,0.01513671875,-0.16162109375,1.0302
1.7557251908396947,1.8015267175572518,-2.7938931297709924,-0.457275390625,0.0244140625,-0.1474609375,1.0319
1.9083969465648856,1.6793893129770991,-2.732824427480916,-0.453857421875,0.022216796875,-0.160400390625,1.0335999999999999
1.9236641221374047,1.6030534351145038,-2.5801526717557253,-0.450439453125,0.017333984375,-0.16064453125,1.0352999999999999
1.83206106870229,1.4198473282442747,-2.5801526717557253,-0.4580078125,0.01513671875,-0.16015625,1.037
1.9083969465648856,1.3587786259541985,-2.6412213740458017,-0.454345703125,0.013671875,-0.1630859375,1.0387
1.6793893129770991,1.1297709923664123,-2.6412213740458017,-0.460205078125,0.014404296875,-0.155517578125,1.0404
1.5572519083969465,1.099236641221374,-2.5343511450381677,-0.460205078125,0.0205078125,-0.1630859375,1.0421
1.6488549618320612,1.099236641221374,-2.2595419847328246,-0.461669921875,0.02197265625,-0.1533203125,1.0437999999999998
1.83206106870229,1.0687022900763359,-2.3053435114503817,-0.459716796875,0.016357421875,-0.15625,1.0454999999999999
1.7099236641221374,1.0076335877862594,-2.16793893129771,-0.4599609375,0.01806640625,-0.163330078125,1.0472
1.8015267175572518,0.8091603053435115,-2.1526717557251906,-0.460205078125,0.01904296875,-0.15869140625,1.0489
1.6488549618320612,0.8244274809160306,-2.0916030534351147,-0.462646484375,0.017578125,-0.153564453125,1.0506
1.6030534351145038,0.9007633587786259,-2.0,-0.465576171875,0.015869140625,-0.15478515625,1.0523
1.7404580152671756,0.8702290076335878,-1.9389312977099236,-0.457763671875,0.0185546875,-0.161376953125,1.054
1.4961832061068703,0.8702290076335878,-2.030534351145038,-0.462890625,0.01416015625,-0.16357421875,1.0556999999999999
1.83206106870229,0.9770992366412213,-1.83206106870229,-0.456787109375,0.0166015625,-0.163330078125,1.0574
1.9389312977099236,0.8396946564885496,-1.8625954198473282,-0.45654296875,0.019287109375,-0.157470703125,1.0591
1.633587786259542,0.6717557251908397,-1.9389312977099236,-0.45556640625,0.017578125,-0.153564453125,1.0608
1.4961832061068703,0.8702290076335878,-1.816793893129771,-0.458740234375,0.0146484375,-0.161376953125,1.0625
1.5572519083969465,0.7938931297709924,-1.9541984732824427,-0.462646484375,0.015380859375,-0.163818359375,1.0642
1.6946564885496183,0.7480916030534351,-1.786259541984733,-0.466064453125,0.017333984375,-0.156005859375,1.0658999999999998
1.7709923664122138,0.7022900763358778,-1.7557251908396947,-0.460205078125,0.015380859375,-0.168212890625,1.0675999999999999
1.8931297709923665,0.6717557251908397,-2.030534351145038,-0.458984375,0.01611328125,-0.157470703125,1.0693
1.8473282442748091,0.6717557251908397,-1.9541984732824427,-0.456787109375,0.011962890625,-0.16064453125,1.071
1.7099236641221374,0.7480916030534351,-1.9236641221374047,-0.463623046875,0.01806640625,-0.16259765625,1.0727
1.7709923664122138,0.6717557251908397,-1.984732824427481,-0.46240234375,0.01708984375,-0.158203125,1.0744
1.786259541984733,0.5801526717557252,-2.0610687022900764,-0.459716796875,0.020263671875,-0.1552734375,1.0760999999999998
1.4961832061068703,0.5343511450381679,-1.984732824427481,-0.4638671875,0.019775390625,-0.157470703125,1.0777999999999999
1.8015267175572518,0.5801526717557252,-2.0,-0.4560546875,0.014892578125,-0.15576171875,1.0795
1.9236641221374047,0.5038167938931297,-1.9389312977099236,-0.461181640625,0.01318359375,-0.154296875,1.0812
1.816793893129771,0.3969465648854962,-2.213740458015267,-0.464111328125,0.015380859375,-0.162109375,1.0829
1.9389312977099236,0.2748091603053435,-2.015267175572519,-0.46484375,0.019287109375,-0.1650390625,1.0846
1.8778625954198473,0.32061068702290074,-1.8473282442748091,-0.4599609375,0.014892578125,-0.16162109375,1.0863
1.8625954198473282,0.4580152671755725,-1.9389312977099236,-0.46484375,0.0146484375,-0.172119140625,1.0879999999999999
1.816793893129771,0.42748091603053434,-2.045801526717557,-0.464599609375,0.017578125,-0.153076171875,1.0897
1.8625954198473282,0.3511450381679389,-2.16793893129771,-0.464111328125,0.018310546875,-0.155517578125,1.0914
2.030534351145038,0.44274809160305345,-2.0610687022900764,-0.46826171875,0.01318359375,-0.153564453125,1.0931
1.8473282442748091,0.366412213740458,-2.0610687022900764,-0.46044921875,0.017822265625,-0.156982421875,1.0948
1.9541984732824427,0.5038167938931297,-2.0763358778625953,-0.461669921875,0.01904296875,-0.1552734375,1.0965
2.030534351145038,0.4122137404580153,-2.0,-0.45947265625,0.01953125,-0.158203125,1.0981999999999998
2.015267175572519,0.48854961832061067,-2.0,-0.462890625,0.018310546875,-0.160400390625,1.0998999999999999
1.9236641221374047,0.549618320610687,-1.9389312977099236,-0.46533203125,0.014892578125,-0.159912109375,1.1016
1.984732824427481,0.5190839694656488,-2.198473282442748,-0.4638671875,0.018310546875,-0.156494140625,1.1033
1.9083969465648856,0.549618320610687,-1.9694656488549618,-0.46142578125,0.019287109375,-0.16259765625,1.105
2.015267175572519,0.5954198473282443,-1.984732824427481,-0.46630859375,0.01904296875,-0.160400390625,1.1067
2.1526717557251906,0.5648854961832062,-2.0610687022900764,-0.4658203125,0.01611328125,-0.162353515625,1.1083999999999998
2.0610687022900764,0.5801526717557252,-2.0610687022900764,-0.470458984375,0.019775390625,-0.156494140625,1.1100999999999999
1.9083969465648856,0.6106870229007634,-1.8473282442748091,-0.463134765625,0.017578125,-0.1630859375,1.1118
2.183206106870229,0.8396946564885496,-2.030534351145038,-0.4677734375,0.017333984375,-0.159912109375,1.1135
2.122137404580153,0.7480916030534351,-1.7709923664122138,-0.468994140625,0.017578125,-0.154296875,1.1152
1.8931297709923665,0.7175572519083969,-2.0,-0.46875,0.017822265625,-0.1591796875,1.1169
2.0,0.916030534351145,-1.9389312977099236,-0.46826171875,0.01611328125,-0.15625,1.1186
2.122137404580153,0.8549618320610687,-2.0,-0.46435546875,0.014892578125,-0.1572265625,1.1202999999999999
2.0916030534351147,0.9465648854961832,-1.83206106870229,-0.466796875,0.015380859375,-0.16064453125,1.1219999999999999
2.16793893129771,0.9465648854961832,-1.9541984732824427,-0.463623046875,0.021240234375,-0.158935546875,1.1237
2.2442748091603053,1.083969465648855,-1.9083969465648856,-0.464111328125,0.01611328125,-0.16357421875,1.1254
2.045801526717557,1.0534351145038168,-1.8931297709923665,-0.46484375,0.015625,-0.156982421875,1.1271
2.2595419847328246,1.1145038167938932,-1.5877862595419847,-0.46240234375,0.0224609375,-0.163818359375,1.1288
2.030534351145038,1.1450381679389312,-1.7709923664122138,-0.4580078125,0.016357421875,-0.152099609375,1.1304999999999998
2.2900763358778624,1.2061068702290076,-1.7404580152671756,-0.46435546875,0.011962890625,-0.15283203125,1.1321999999999999
2.33587786259542,1.3435114503816794,-1.7251908396946565,-0.465087890625,0.015380859375,-0.16455078125,1.1339
2.1526717557251906,1.4198473282442747,-1.5725190839694656,-0.466064453125,0.0146484375,-0.162353515625,1.1356
2.2442748091603053,1.2213740458015268,-1.6793893129770991,-0.46728515625,0.016845703125,-0.15966796875,1.1373
2.4732824427480917,1.282442748091603,-1.633587786259542,-0.46533203125,0.00927734375,-0.16064453125,1.139
2.33587786259542,1.3740458015267176,-1.450381679389313,-0.461669921875,0.019287109375,-0.15625,1.1407
2.33587786259542,1.3740458015267176,-1.4045801526717556,-0.466064453125,0.018310546875,-0.159912109375,1.1423999999999999
2.122137404580153,1.297709923664122,-1.4961832061068703,-0.46484375,0.015380859375,-0.15234375,1.1441
2.2748091603053435,1.251908396946565,-1.4045801526717556,-0.462646484375,0.013427734375,-0.1640625,1.1458
2.198473282442748,1.282442748091603,-1.4045801526717556,-0.4609375,0.015380859375,-0.1650390625,1.1475
2.3053435114503817,1.1908396946564885,-1.3435114503816794,-0.460693359375,0.018798828125,-0.158447265625,1.1492
2.4122137404580153,1.251908396946565,-1.4045801526717556,-0.4658203125,0.01220703125,-0.162841796875,1.1509
2.2442748091603053,1.2061068702290076,-1.282442748091603,-0.46240234375,0.01708984375,-0.15625,1.1525999999999998
2.4580152671755724,1.2671755725190839,-1.3129770992366412,-0.464599609375,0.01611328125,-0.15478515625,1.1542999999999999
2.3969465648854964,1.2213740458015268,-1.1755725190839694,-0.45947265625,0.02099609375,-0.16357421875,1.156
2.2900763358778624,1.099236641221374,-1.0534351145038168,-0.4580078125,0.013916015625,-0.160400390625,1.1577
2.16793893129771,1.251908396946565,-1.1908396946564885,-0.458251953125,0.017333984375,-0.15478515625,1.1594
2.4580152671755724,1.2213740458015268,-1.1297709923664123,-0.458984375,0.02001953125,-0.16015625,1.1611
2.213740458015267,1.083969465648855,-1.1755725190839694,-0.458984375,0.014404296875,-0.16552734375,1.1627999999999998
2.366412213740458,1.1755725190839694,-1.3129770992366412,-0.459228515625,0.01806640625,-0.169189453125,1.1644999999999999
2.3053435114503817,0.9770992366412213,-1.297709923664122,-0.461669921875,0.013671875,-0.16259765625,1.1662
2.3053435114503817,1.1450381679389312,-1.2671755725190839,-0.462646484375,0.02001953125,-0.163818359375,1.1679
2.3206106870229006,1.1450381679389312,-1.2213740458015268,-0.460693359375,0.01123046875,-0.152587890625,1.1696
2.2900763358778624,1.083969465648855,-1.3129770992366412,-0.45947265625,0.01220703125,-0.15380859375,1.1713
2.33587786259542,1.1603053435114503,-1.0687022900763359,-0.465576171875,0.017578125,-0.157470703125,1.173
2.2900763358778624,1.1297709923664123,-1.2213740458015268,-0.461181640625,0.021240234375,-0.158935546875,1.1746999999999999
2.4122137404580153,1.0076335877862594,-1.251908396946565,-0.463623046875,0.01953125,-0.16015625,1.1764
2.33587786259542,0.8396946564885496,-1.3587786259541985,-0.464111328125,0.015380859375,-0.15966796875,1.1781
2.2748091603053435,1.0687022900763359,-1.1908396946564885,-0.462646484375,0.017578125,-0.16064453125,1.1798
2.351145038167939,1.0687022900763359,-1.251908396946565,-0.463134765625,0.009521484375,-0.162353515625,1.1815
2.3053435114503817,1.1603053435114503,-1.1450381679389312,-0.46484375,0.014404296875,-0.16162109375,1.1832
2.351145038167939,1.2213740458015268,-1.3435114503816794,-0.464599609375,0.01318359375,-0.16259765625,1.1848999999999998
2.3053435114503817,1.0687022900763359,-1.2366412213740459,-0.461181640625,0.009765625,-0.168701171875,1.1865999999999999
2.4427480916030535,1.2061068702290076,-1.3893129770992367,-0.462158203125,0.010009765625,-0.1669921875,1.1883
2.2290076335877864,0.8702290076335878,-1.3587786259541985,-0.461669921875,0.013427734375,-0.1572265625,1.19
2.16793893129771,1.0534351145038168,-1.282442748091603,-0.46240234375,0.01123046875,-0.16064453125,1.1917
2.33587786259542,0.7938931297709924,-1.297709923664122,-0.45751953125,0.009521484375,-0.159912109375,1.1934
2.1068702290076335,0.7175572519083969,-1.3282442748091603,-0.4638671875,0.013427734375,-0.1611328125,1.1950999999999998
2.0763358778625953,0.7175572519083969,-1.1450381679389312,-0.460693359375,0.01708984375,-0.1640625,1.1967999999999999
2.045801526717557,0.7786259541984732,-1.2366412213740459,-0.462646484375,0.018798828125,-0.155517578125,1.1985
1.8778625954198473,0.7633587786259542,-1.297709923664122,-0.47021484375,0.0146484375,-0.154541015625,1.2002
2.045801526717557,0.8549618320610687,-1.297709923664122,-0.46240234375,0.01611328125,-0.15576171875,1.2019
2.198473282442748,0.7786259541984732,-1.1755725190839694,-0.463134765625,0.010009765625,-0.156982421875,1.2036
1.618320610687023,0.9465648854961832,-1.2213740458015268,-0.462646484375,0.016845703125,-0.166748046875,1.2053
1.8778625954198473,0.9770992366412213,-1.1603053435114503,-0.467529296875,0.0146484375,-0.163330078125,1.2069999999999999
2.0,0.9770992366412213,-1.4351145038167938,-0.463134765625,0.017578125,-0.157470703125,1.2086999999999999
1.7557251908396947,0.916030534351145,-1.1908396946564885,-0.459716796875,0.015869140625,-0.16552734375,1.2104
1.6488549618320612,0.9618320610687023,-1.1755725190839694,-0.46142578125,0.014892578125,-0.160888671875,1.2121
1.633587786259542,0.8396946564885496,-1.1450381679389312,-0.4638671875,0.015869140625,-0.1640625,1.2138
1.9083969465648856,0.7633587786259542,-1.2061068702290076,-0.461669921875,0.012939453125,-0.165771484375,1.2155
1.7251908396946565,0.7938931297709924,-1.0534351145038168,-0.46142578125,0.017822265625,-0.1640625,1.2171999999999998
1.5572519083969465,0.7022900763358778,-1.0076335877862594,-0.461181640625,0.01416015625,-0.15234375,1.2188999999999999
1.6793893129770991,0.6412213740458015,-1.2061068702290076,-0.462890625,0.01611328125,-0.161865234375,1.2206
1.7099236641221374,0.6106870229007634,-1.0381679389312977,-0.459716796875,0.009765625,-0.16064453125,1.2223
1.6641221374045803,0.7633587786259542,-0.8396946564885496,-0.46630859375,0.017333984375,-0.16015625,1.224
1.6488549618320612,0.7633587786259542,-0.9312977099236641,-0.46484375,0.01611328125,-0.16552734375,1.2257
1.4351145038167938,0.6870229007633588,-0.7633587786259542,-0.460205078125,0.01123046875,-0.165283203125,1.2273999999999998
1.465648854961832,0.6870229007633588,-0.5954198473282443,-0.46435546875,0.018310546875,-0.158935546875,1.2290999999999999
1.4961832061068703,0.6412213740458015,-0.7022900763358778,-0.458984375,0.01416015625,-0.165283203125,1.2308
1.0534351145038168,0.7022900763358778,-0.6259541984732825,-0.458984375,0.011474609375,-0.166015625,1.2325
1.282442748091603,0.7175572519083969,-0.5954198473282443,-0.4609375,0.0146484375,-0.162109375,1.2342
1.1450381679389312,0.6717557251908397,-0.6259541984732825,-0.461181640625,0.01318359375,-0.155517578125,1.2359
1.2366412213740459,0.6717557251908397,-0.4732824427480916,-0.457763671875,0.01318359375,-0.1611328125,1.2376
1.2366412213740459,0.7175572519083969,-0.366412213740458,-0.46484375,0.01318359375,-0.16259765625,1.2392999999999998
1.1755725190839694,0.7786259541984732,-0.6106870229007634,-0.462646484375,0.0107421875,-0.15966796875,1.2409999999999999
0.6870229007633588,0.8702290076335878,-0.7022900763358778,-0.462890625,0.013427734375,-0.156494140625,1.2427
0.9923664122137404,0.732824427480916,-0.5801526717557252,-0.46337890625,0.009765625,-0.163330078125,1.2444
1.0687022900763359,0.8702290076335878,-0.4580152671755725,-0.4599609375,0.0185546875,-0.158935546875,1.2461
0.8702290076335878,0.9465648854961832,-0.4732824427480916,-0.45947265625,0.01611328125,-0.162353515625,1.2478
0.916030534351145,0.8396946564885496,-0.6412213740458015,-0.460693359375,0.0146484375,-0.15771484375,1.2494999999999998
1.0229007633587786,0.9007633587786259,-0.6259541984732825,-0.459228515625,0.0185546875,-0.166259765625,1.2511999999999999
0.7022900763358778,0.8702290076335878,-0.6870229007633588,-0.464599609375,0.014892578125,-0.162841796875,1.2529
0.7938931297709924,0.9312977099236641,-0.6412213740458015,-0.46728515625,0.018310546875,-0.156982421875,1.2546
0.8549618320610687,0.8244274809160306,-0.8549618320610687,-0.462890625,0.014892578125,-0.16162109375,1.2563
0.6106870229007634,0.8244274809160306,-0.732824427480916,-0.45947265625,0.0185546875,-0.1630859375,1.258
0.6870229007633588,0.7938931297709924,-0.9618320610687023,-0.459716796875,0.01806640625,-0.16162109375,1.2596999999999998
0.5190839694656488,0.8396946564885496,-0.8244274809160306,-0.4599609375,0.0185546875,-0.154296875,1.2613999999999999
0.5038167938931297,0.5801526717557252,-0.8702290076335878,-0.463623046875,0.017333984375,-0.162841796875,1.2631
0.6106870229007634,0.7786259541984732,-1.0229007633587786,-0.463623046875,0.02001953125,-0.16162109375,1.2648
0.7633587786259542,0.5954198473282443,-1.0381679389312977,-0.464599609375,0.0185546875,-0.1640625,1.2665
0.6717557251908397,0.6717557251908397,-1.2366412213740459,-0.462158203125,0.02197265625,-0.15966796875,1.2682
0.4122137404580153,0.8091603053435115,-1.3435114503816794,-0.4580078125,0.017578125,-0.159423828125,1.2699
0.4732824427480916,0.7175572519083969,-1.3740458015267176,-0.4619140625,0.0185546875,-0.1611328125,1.2715999999999998
0.6870229007633588,0.5190839694656488,-1.4045801526717556,-0.4619140625,0.01953125,-0.1611328125,1.2732999999999999
0.5190839694656488,0.6259541984732825,-1.5572519083969465,-0.464599609375,0.01416015625,-0.156005859375,1.275
0.44274809160305345,0.5801526717557252,-1.4809160305343512,-0.4658203125,0.01806640625,-0.166015625,1.2767
0.3511450381679389,0.5801526717557252,-1.4198473282442747,-0.464111328125,0.017822265625,-0.1640625,1.2784
0.4732824427480916,0.5648854961832062,-1.5267175572519085,-0.459716796875,0.019775390625,-0.166259765625,1.2801
0.5038167938931297,0.5648854961832062,-1.6641221374045803,-0.461181640625,0.020263671875,-0.1640625,1.2817999999999998
0.7022900763358778,0.5038167938931297,-1.6793893129770991,-0.46435546875,0.02099609375,-0.16162109375,1.2834999999999999
0.4122137404580153,0.5801526717557252,-1.7251908396946565,-0.4580078125,0.01708984375,-0.16162109375,1.2852
0.6106870229007634,0.5954198473282443,-1.618320610687023,-0.45751953125,0.017822265625,-0.159423828125,1.2869
0.549618320610687,0.7022900763358778,-1.6641221374045803,-0.459228515625,0.020263671875,-0.16259765625,1.2886
0.4580152671755725,0.4580152671755725,-1.7404580152671756,-0.46142578125,0.01611328125,-0.162109375,1.2903
0.6412213740458015,0.5648854961832062,-1.786259541984733,-0.466796875,0.01953125,-0.157470703125,1.292
0.4732824427480916,0.4580152671755725,-1.6030534351145038,-0.4658203125,0.01318359375,-0.1611328125,1.2936999999999999
0.7175572519083969,0.4580152671755725,-1.786259541984733,-0.462646484375,0.017333984375,-0.168212890625,1.2953999999999999
0.4732824427480916,0.5954198473282443,-1.6641221374045803,-0.464599609375,0.014404296875,-0.16357421875,1.2971
0.4580152671755725,0.6259541984732825,-1.618320610687023,-0.46337890625,0.017333984375,-0.1630859375,1.2988
0.6412213740458015,0.549618320610687,-1.6793893129770991,-0.466064453125,0.015625,-0.163330078125,1.3005
0.5801526717557252,0.6259541984732825,-1.5267175572519085,-0.461669921875,0.016845703125,-0.162353515625,1.3022
0.5190839694656488,0.6412213740458015,-1.7099236641221374,-0.466552734375,0.0166015625,-0.16162109375,1.3038999999999998
0.5954198473282443,0.44274809160305345,-1.5877862595419847,-0.463134765625,0.022216796875,-0.163330078125,1.3055999999999999
0.8702290076335878,0.5190839694656488,-1.7099236641221374,-0.462890625,0.02197265625,-0.163818359375,1.3073
0.6412213740458015,0.6564885496183206,-1.7251908396946565,-0.46044921875,0.019775390625,-0.157958984375,1.309
0.5648854961832062,0.44274809160305345,-1.5114503816793894,-0.461181640625,0.017578125,-0.158935546875,1.3107
0.6564885496183206,0.6564885496183206,-1.6793893129770991,-0.465576171875,0.018310546875,-0.158203125,1.3124
0.6412213740458015,0.7938931297709924,-1.5725190839694656,-0.46728515625,0.013671875,-0.158935546875,1.3140999999999998
0.8244274809160306,0.6717557251908397,-1.7099236641221374,-0.466064453125,0.01123046875,-0.15478515625,1.3157999999999999
0.8549618320610687,0.7480916030534351,-1.5725190839694656,-0.46533203125,0.018798828125,-0.160888671875,1.3175
1.0381679389312977,0.7175572519083969,-1.6030534351145038,-0.46337890625,0.02099609375,-0.15966796875,1.3192
0.9007633587786259,0.9312977099236641,-1.6641221374045803,-0.464599609375,0.022705078125,-0.1591796875,1.3209
0.7022900763358778,1.0076335877862594,-1.6641221374045803,-0.462158203125,0.0126953125,-0.1572265625,1.3226
0.7938931297709924,0.8702290076335878,-1.450381679389313,-0.46337890625,0.018310546875,-0.1650390625,1.3243
0.8854961832061069,0.7175572519083969,-1.5877862595419847,-0.4638671875,0.015380859375,-0.15869140625,1.3259999999999998
1.1603053435114503,0.7633587786259542,-1.450381679389313,-0.462890625,0.017822265625,-0.157470703125,1.3276999999999999
1.1145038167938932,0.9465648854961832,-1.465648854961832,-0.465576171875,0.01953125,-0.158935546875,1.3294
0.916030534351145,0.9923664122137404,-1.3282442748091603,-0.4599609375,0.022705078125,-0.1572265625,1.3311
0.916030534351145,0.732824427480916,-1.5419847328244274,-0.462158203125,0.019287109375,-0.161865234375,1.3328
1.2061068702290076,0.916030534351145,-1.5419847328244274,-0.458984375,0.019775390625,-0.157958984375,1.3345
1.1603053435114503,0.8244274809160306,-1.4045801526717556,-0.4619140625,0.019287109375,-0.162109375,1.3361999999999998
1.3129770992366412,1.0076335877862594,-1.5572519083969465,-0.464111328125,0.02001953125,-0.162353515625,1.3378999999999999
1.3893129770992367,0.9923664122137404,-1.3740458015267176,-0.463623046875,0.02587890625,-0.160400390625,1.3396
1.1603053435114503,0.9465648854961832,-1.1908396946564885,-0.4599609375,0.018310546875,-0.158447265625,1.3413
1.3435114503816794,0.9618320610687023,-1.3129770992366412,-0.46435546875,0.018798828125,-0.158935546875,1.343
1.633587786259542,0.9923664122137404,-1.618320610687023,-0.462646484375,0.022216796875,-0.15625,1.3447
1.450381679389313,0.8549618320610687,-1.4045801526717556,-0.460693359375,0.020263671875,-0.157470703125,1.3463999999999998
1.3435114503816794,0.9923664122137404,-1.3282442748091603,-0.45751953125,0.020263671875,-0.156982421875,1.3480999999999999
1.5572519083969465,1.1603053435114503,-1.5419847328244274,-0.459228515625,0.015625,-0.160888671875,1.3497999999999999
1.7709923664122138,0.9923664122137404,-1.4198473282442747,-0.462890625,0.017822265625,-0.15673828125,1.3515
1.5877862595419847,0.9312977099236641,-1.5114503816793894,-0.460205078125,0.0166015625,-0.160888671875,1.3532
1.5419847328244274,1.083969465648855,-1.4198473282442747,-0.457763671875,0.017333984375,-0.163818359375,1.3549
1.5419847328244274,0.9770992366412213,-1.633587786259542,-0.4609375,0.015869140625,-0.159423828125,1.3566
1.8473282442748091,0.9923664122137404,-1.4351145038167938,-0.46044921875,0.021240234375,-0.162109375,1.3582999999999998
1.8473282442748091,1.083969465648855,-1.5114503816793894,-0.454345703125,0.022705078125,-0.1650390625,1.3599999999999999
1.5267175572519085,1.083969465648855,-1.450381679389313,-0.461669921875,0.029296875,-0.159423828125,1.3617
1.5877862595419847,1.0534351145038168,-1.450381679389313,-0.462890625,0.017822265625,-0.15771484375,1.3634
1.9083969465648856,0.8702290076335878,-1.3587786259541985,-0.45947265625,0.018310546875,-0.1533203125,1.3651
2.1068702290076335,0.9312977099236641,-1.4809160305343512,-0.45849609375,0.0224609375,-0.153076171875,1.3668
1.9389312977099236,1.0534351145038168,-1.3740458015267176,-0.462890625,0.01806640625,-0.162841796875,1.3684999999999998
1.8625954198473282,0.9618320610687023,-1.4961832061068703,-0.463623046875,0.016357421875,-0.1669921875,1.3701999999999999
1.9389312977099236,1.083969465648855,-1.3587786259541985,-0.462158203125,0.019775390625,-0.160888671875,1.3719
1.9694656488549618,0.916030534351145,-1.3587786259541985,-0.465087890625,0.01806640625,-0.167236328125,1.3736
2.030534351145038,0.8702290076335878,-1.2061068702290076,-0.462646484375,0.018310546875,-0.156005859375,1.3753
1.9694656488549618,1.0076335877862594,-1.297709923664122,-0.464111328125,0.018798828125,-0.148193359375,1.377
2.045801526717557,0.9618320610687023,-1.3893129770992367,-0.46533203125,0.018798828125,-0.157958984375,1.3786999999999998
1.9083969465648856,1.0076335877862594,-1.5877862595419847,-0.462890625,0.018798828125,-0.158447265625,1.3803999999999998
2.1068702290076335,1.083969465648855,-1.3435114503816794,-0.462890625,0.017822265625,-0.150390625,1.3820999999999999
1.984732824427481,0.9618320610687023,-1.4961832061068703,-0.46826171875,0.025634765625,-0.162841796875,1.3838
2.0,1.2061068702290076,-1.3129770992366412,-0.461181640625,0.017333984375,-0.15380859375,1.3855
2.1526717557251906,1.083969465648855,-1.297709923664122,-0.459716796875,0.014892578125,-0.152099609375,1.3872
2.183206106870229,1.0687022900763359,-1.282442748091603,-0.465087890625,0.013427734375,-0.15673828125,1.3889
2.351145038167939,1.0229007633587786,-1.3893129770992367,-0.46484375,0.0224609375,-0.16259765625,1.3905999999999998
2.16793893129771,0.9312977099236641,-1.2671755725190839,-0.463134765625,0.01953125,-0.164794921875,1.3922999999999999
2.1068702290076335,1.0076335877862594,-1.3893129770992367,-0.46435546875,0.017578125,-0.16064453125,1.394
2.33587786259542,0.9312977099236641,-1.1297709923664123,-0.462646484375,0.020263671875,-0.1552734375,1.3957
2.2748091603053435,1.0534351145038168,-1.5267175572519085,-0.46435546875,0.01171875,-0.166015625,1.3974
2.33587786259542,0.9770992366412213,-1.4351145038167938,-0.46630859375,0.024658203125,-0.157958984375,1.3991
2.1526717557251906,0.9618320610687023,-1.3282442748091603,-0.459228515625,0.017578125,-0.1640625,1.4007999999999998
2.198473282442748,1.0687022900763359,-1.1145038167938932,-0.46435546875,0.01318359375,-0.1533203125,1.4024999999999999
1.9236641221374047,1.0381679389312977,-1.4045801526717556,-0.463623046875,0.01611328125,-0.156494140625,1.4042
1.9541984732824427,1.0381679389312977,-1.1450381679389312,-0.46240234375,0.017333984375,-0.161376953125,1.4059
2.0763358778625953,0.9923664122137404,-1.3435114503816794,-0.4619140625,0.01318359375,-0.159912109375,1.4076
2.1526717557251906,0.8549618320610687,-1.282442748091603,-0.46435546875,0.016357421875,-0.1533203125,1.4093
2.1374045801526718,0.9923664122137404,-1.297709923664122,-0.46484375,0.014892578125,-0.154541015625,1.411
2.2748091603053435,1.2366412213740459,-1.450381679389313,-0.461181640625,0.014404296875,-0.164794921875,1.4126999999999998
2.213740458015267,1.1603053435114503,-1.4198473282442747,-0.463134765625,0.017822265625,-0.1552734375,1.4143999999999999
2.015267175572519,1.0076335877862594,-1.251908396946565,-0.46435546875,0.01513671875,-0.158447265625,1.4161
2.183206106870229,1.251908396946565,-1.5267175572519085,-0.4609375,0.017822265625,-0.160888671875,1.4178
2.0610687022900764,1.2213740458015268,-1.465648854961832,-0.45947265625,0.0244140625,-0.161865234375,1.4195
2.183206106870229,0.9618320610687023,-1.251908396946565,-0.465576171875,0.020751953125,-0.16162109375,1.4212
1.8625954198473282,0.9465648854961832,-1.4351145038167938,-0.4619140625,0.015380859375,-0.16357421875,1.4228999999999998
1.8778625954198473,1.083969465648855,-1.7557251908396947,-0.46533203125,0.02001953125,-0.157958984375,1.4245999999999999
2.045801526717557,0.9007633587786259,-1.4809160305343512,-0.46630859375,0.016845703125,-0.15966796875,1.4263
1.9694656488549618,0.9465648854961832,-1.5725190839694656,-0.46484375,0.01513671875,-0.15673828125,1.428
1.8015267175572518,1.0229007633587786,-1.7557251908396947,-0.459228515625,0.02197265625,-0.168212890625,1.4297
2.0916030534351147,1.0687022900763359,-1.6641221374045803,-0.4638671875,0.018310546875,-0.159423828125,1.4314
1.8015267175572518,0.9618320610687023,-1.8015267175572518,-0.463134765625,0.020263671875,-0.158203125,1.4330999999999998
1.816793893129771,0.9465648854961832,-1.786259541984733,-0.462890625,0.017822265625,-0.157470703125,1.4347999999999999
1.8015267175572518,0.9312977099236641,-1.6488549618320612,-0.463134765625,0.0146484375,-0.165283203125,1.4364999999999999
1.7251908396946565,1.1297709923664123,-1.8778625954198473,-0.462158203125,0.02294921875,-0.163330078125,1.4382
1.7099236641221374,1.0534351145038168,-1.8473282442748091,-0.460693359375,0.014404296875,-0.15771484375,1.4399
1.9083969465648856,1.1908396946564885,-1.9389312977099236,-0.4580078125,0.014404296875,-0.16064453125,1.4416
1.618320610687023,1.0229007633587786,-1.816793893129771,-0.462646484375,0.0166015625,-0.16357421875,1.4433
1.618320610687023,0.9770992366412213,-1.8473282442748091,-0.465576171875,0.01025390625,-0.162109375,1.4449999999999998
1.7404580152671756,0.9465648854961832,-1.6946564885496183,-0.46875,0.011962890625,-0.162353515625,1.4466999999999999
1.6488549618320612,1.0687022900763359,-1.9236641221374047,-0.469970703125,0.015380859375,-0.156982421875,1.4484
1.6488549618320612,1.1755725190839694,-1.8625954198473282,-0.4677734375,0.01513671875,-0.16064453125,1.4501
1.4961832061068703,1.0381679389312977,-2.030534351145038,-0.464111328125,0.012939453125,-0.1611328125,1.4518
1.5267175572519085,1.099236641221374,-1.8778625954198473,-0.462890625,0.022216796875,-0.15869140625,1.4535
1.3587786259541985,1.083969465648855,-1.9694656488549618,-0.461181640625,0.018798828125,-0.160888671875,1.4551999999999998
1.618320610687023,0.9465648854961832,-2.030534351145038,-0.45947265625,0.019287109375,-0.158203125,1.4568999999999999
1.450381679389313,1.1145038167938932,-1.8015267175572518,-0.46435546875,0.021240234375,-0.15478515625,1.4586
1.4809160305343512,1.1450381679389312,-1.8015267175572518,-0.466796875,0.02490234375,-0.16015625,1.4603
1.3740458015267176,1.1908396946564885,-1.9389312977099236,-0.462646484375,0.021728515625,-0.1513671875,1.462
1.3893129770992367,1.1755725190839694,-1.9541984732824427,-0.458251953125,0.015380859375,-0.147216796875,1.4637
1.2366412213740459,1.083969465648855,-2.045801526717557,-0.467041015625,0.015625,-0.15869140625,1.4653999999999998
1.3587786259541985,1.0534351145038168,-1.8015267175572518,-0.4638671875,0.011474609375,-0.1494140625,1.4670999999999998
1.450381679389313,1.2366412213740459,-2.030534351145038,-0.4609375,0.014404296875,-0.150146484375,1.4687999999999999
1.3893129770992367,1.1755725190839694,-1.984732824427481,-0.45751953125,0.015380859375,-0.15673828125,1.4705
1.3129770992366412,1.0076335877862594,-1.9541984732824427,-0.456298828125,0.02197265625,-0.162841796875,1.4722
1.3740458015267176,0.9007633587786259,-2.0,-0.45947265625,0.015869140625,-0.160888671875,1.4739
1.1450381679389312,0.8854961832061069,-1.984732824427481,-0.45751953125,0.016357421875,-0.163330078125,1.4756
1.1450381679389312,0.9770992366412213,-1.984732824427481,-0.462158203125,0.012939453125,-0.16748046875,1.4772999999999998
1.4809160305343512,0.8702290076335878,-1.984732824427481,-0.4619140625,0.02197265625,-0.166015625,1.4789999999999999
1.5267175572519085,0.8854961832061069,-1.9236641221374047,-0.4599609375,0.01708984375,-0.164306640625,1.4807
1.5572519083969465,0.6717557251908397,-1.786259541984733,-0.46044921875,0.0126953125,-0.161376953125,1.4824
1.4045801526717556,0.7786259541984732,-1.7404580152671756,-0.4638671875,0.01708984375,-0.159423828125,1.4841
1.282442748091603,0.8396946564885496,-1.9236641221374047,-0.460693359375,0.0205078125,-0.156494140625,1.4858
1.2213740458015268,0.732824427480916,-2.0610687022900764,-0.46240234375,0.018798828125,-0.159423828125,1.4874999999999998
1.3893129770992367,0.6106870229007634,-2.045801526717557,-0.459228515625,0.015869140625,-0.1591796875,1.4891999999999999
1.1755725190839694,0.549618320610687,-2.0,-0.4580078125,0.014892578125,-0.15625,1.4909
1.297709923664122,0.366412213740458,-2.198473282442748,-0.45751953125,0.017822265625,-0.1552734375,1.4926
1.450381679389313,0.44274809160305345,-2.1374045801526718,-0.45751953125,0.0185546875,-0.16259765625,1.4943
1.3587786259541985,0.3969465648854962,-2.2748091603053435,-0.45703125,0.021484375,-0.1728515625,1.496
1.4351145038167938,0.3053435114503817,-2.183206106870229,-0.457275390625,0.021728515625,-0.163330078125,1.4976999999999998
1.282442748091603,0.2748091603053435,-2.1526717557251906,-0.457763671875,0.020263671875,-0.1669921875,1.4993999999999998
1.5419847328244274,0.22900763358778625,-2.1068702290076335,-0.458251953125,0.017578125,-0.157470703125,1.5010999999999999
1.2671755725190839,0.3816793893129771,-2.183206106870229,-0.46044921875,0.01611328125,-0.157958984375,1.5028
1.5725190839694656,0.2748091603053435,-1.984732824427481,-0.458251953125,0.021484375,-0.15625,1.5045
1.7404580152671756,0.24427480916030533,-2.0763358778625953,-0.462646484375,0.016845703125,-0.16015625,1.5062
1.5725190839694656,0.21374045801526717,-1.984732824427481,-0.465576171875,0.012451171875,-0.1611328125,1.5079
1.5572519083969465,0.2748091603053435,-2.030534351145038,-0.463623046875,0.01318359375,-0.15185546875,1.5095999999999998
1.618320610687023,0.3053435114503817,-1.9541984732824427,-0.46435546875,0.014892578125,-0.1533203125,1.5112999999999999
1.7099236641221374,0.3511450381679389,-2.0,-0.46240234375,0.017822265625,-0.15625,1.513
1.6793893129770991,0.2595419847328244,-1.9236641221374047,-0.46484375,0.020751953125,-0.147216796875,1.5147
1.7709923664122138,0.24427480916030533,-1.9694656488549618,-0.461181640625,0.019287109375,-0.1552734375,1.5164
1.633587786259542,0.2595419847328244,-2.0916030534351147,-0.459716796875,0.022216796875,-0.167724609375,1.5181
1.6641221374045803,0.2595419847328244,-2.0763358778625953,-0.4658203125,0.017822265625,-0.152099609375,1.5197999999999998
1.9694656488549618,0.12213740458015267,-2.015267175572519,-0.4580078125,0.01904296875,-0.16845703125,1.5214999999999999
1.9694656488549618,0.061068702290076333,-1.8931297709923665,-0.458740234375,0.014892578125,-0.162353515625,1.5231999999999999
1.7709923664122138,0.24427480916030533,-1.8778625954198473,-0.461181640625,0.016845703125,-0.15869140625,1.5249
2.1068702290076335,0.1984732824427481,-1.6946564885496183,-0.46142578125,0.019775390625,-0.155029296875,1.5266
1.633587786259542,0.07633587786259542,-1.4961832061068703,-0.46044921875,0.02099609375,-0.16162109375,1.5283
1.7251908396946565,0.07633587786259542,-1.5419847328244274,-0.46435546875,0.016845703125,-0.160888671875,1.5299999999999998
2.0,-0.030534351145038167,-1.3893129770992367,-0.4677734375,0.013427734375,-0.15625,1.5316999999999998
1.8931297709923665,-0.061068702290076333,-1.297709923664122,-0.459716796875,0.016845703125,-0.1552734375,1.5333999999999999
1.9083969465648856,-0.04580152671755725,-0.9770992366412213,-0.47021484375,0.017822265625,-0.157470703125,1.5351
2.0916030534351147,-0.15267175572519084,-1.099236641221374,-0.463134765625,0.016357421875,-0.158447265625,1.5368
2.045801526717557,-0.030534351145038167,-1.0229007633587786,-0.46875,0.0185546875,-0.154052734375,1.5385
2.1068702290076335,0.13740458015267176,-0.9007633587786259,-0.466552734375,0.0205078125,-0.1591796875,1.5402
1.8625954198473282,0.183206106870229,-0.9770992366412213,-0.46435546875,0.02197265625,-0.1630859375,1.5418999999999998
2.0763358778625953,0.3969465648854962,-0.9618320610687023,-0.468505859375,0.022705078125,-0.15966796875,1.5435999999999999
2.045801526717557,0.5801526717557252,-0.9770992366412213,-0.469482421875,0.02099609375,-0.157470703125,1.5453
2.030534351145038,0.5343511450381679,-0.8702290076335878,-0.46533203125,0.0126953125,-0.162353515625,1.547
2.183206106870229,0.7175572519083969,-0.8854961832061069,-0.468505859375,0.014892578125,-0.165771484375,1.5487
2.2442748091603053,0.732824427480916,-0.732824427480916,-0.46337890625,0.01123046875,-0.1650390625,1.5504
2.1526717557251906,0.8244274809160306,-0.7175572519083969,-0.46337890625,0.01318359375,-0.149169921875,1.5520999999999998
2.045801526717557,0.8244274809160306,-0.7480916030534351,-0.458984375,0.014892578125,-0.157470703125,1.5537999999999998
2.16793893129771,0.9312977099236641,-0.8702290076335878,-0.461181640625,0.0185546875,-0.157470703125,1.5554999999999999
2.1068702290076335,0.6717557251908397,-0.6717557251908397,-0.456298828125,0.01708984375,-0.1552734375,1.5572
2.1526717557251906,0.6106870229007634,-0.6717557251908397,-0.461181640625,0.018310546875,-0.16162109375,1.5589
2.0916030534351147,0.6717557251908397,-0.44274809160305345,-0.462646484375,0.015869140625,-0.152587890625,1.5606
2.045801526717557,0.4580152671755725,-0.5190839694656488,-0.465087890625,0.012939453125,-0.151611328125,1.5623
2.122137404580153,0.3511450381679389,-0.4732824427480916,-0.46484375,0.011474609375,-0.152587890625,1.5639999999999998
2.16793893129771,0.4122137404580153,-0.5801526717557252,-0.460693359375,0.01416015625,-0.15771484375,1.5656999999999999
1.9236641221374047,0.4732824427480916,-0.6259541984732825,-0.4619140625,0.013916015625,-0.15478515625,1.5674
1.9083969465648856,0.42748091603053434,-0.5648854961832062,-0.4638671875,0.016357421875,-0.156494140625,1.5691
2.0763358778625953,0.5190839694656488,-0.44274809160305345,-0.468505859375,0.01416015625,-0.158447265625,1.5708
1.8625954198473282,0.4732824427480916,-0.7022900763358778,-0.46826171875,0.01904296875,-0.152587890625,1.5725
1.816793893129771,0.5954198473282443,-0.5190839694656488,-0.466552734375,0.01513671875,-0.1533203125,1.5741999999999998
1.9236641221374047,0.5038167938931297,-0.48854961832061067,-0.467529296875,0.01708984375,-0.1650390625,1.5758999999999999
1.786259541984733,0.7938931297709924,-0.48854961832061067,-0.4658203125,0.016845703125,-0.156494140625,1.5776
1.7557251908396947,0.9007633587786259,-0.4580152671755725,-0.461181640625,0.012451171875,-0.1630859375,1.5793
1.5267175572519085,0.7938931297709924,-0.5801526717557252,-0.47021484375,0.01318359375,-0.161376953125,1.581
1.4809160305343512,0.7938931297709924,-0.5954198473282443,-0.466064453125,0.0185546875,-0.16015625,1.5827
1.5267175572519085,1.099236641221374,-0.22900763358778625,-0.47119140625,0.01611328125,-0.15576171875,1.5843999999999998
1.4809160305343512,1.1603053435114503,-0.4122137404580153,-0.469970703125,0.017578125,-0.1591796875,1.5860999999999998
1.450381679389313,1.282442748091603,-0.5190839694656488,-0.474853515625,0.01416015625,-0.159912109375,1.5877999999999999
1.5725190839694656,1.3893129770992367,-0.4732824427480916,-0.47412109375,0.0146484375,-0.156982421875,1.5895
1.3282442748091603,1.5572519083969465,-0.5954198473282443,-0.469482421875,0.012451171875,-0.15576171875,1.5912
1.282442748091603,1.7404580152671756,-0.5343511450381679,-0.473876953125,0.016357421875,-0.16064453125,1.5929
1.0381679389312977,1.9083969465648856,-0.6412213740458015,-0.46875,0.015380859375,-0.16162109375,1.5946
1.3893129770992367,1.9541984732824427,-0.7786259541984732,-0.469970703125,0.01953125,-0.166259765625,1.5962999999999998
1.297709923664122,2.2442748091603053,-0.7633587786259542,-0.4697265625,0.019287109375,-0.16064453125,1.5979999999999999
1.0534351145038168,2.519083969465649,-0.9770992366412213,-0.469482421875,0.01220703125,-0.15673828125,1.5997
1.1755725190839694,2.6717557251908395,-0.9923664122137404,-0.470703125,0.014404296875,-0.154052734375,1.6014
1.1755725190839694,3.0839694656488548,-1.465648854961832,-0.465576171875,0.0185546875,-0.1591796875,1.6031
1.083969465648855,2.7786259541984735,-1.3282442748091603,-0.472412109375,0.018798828125,-0.153564453125,1.6048
1.083969465648855,2.8091603053435112,-1.4961832061068703,-0.465576171875,0.01806640625,-0.15478515625,1.6064999999999998
1.3740458015267176,2.9923664122137406,-1.7251908396946565,-0.459716796875,0.015625,-0.161376953125,1.6081999999999999
1.0076335877862594,3.099236641221374,-2.0,-0.461181640625,0.01953125,-0.156982421875,1.6098999999999999
1.1603053435114503,3.1297709923664123,-2.1526717557251906,-0.4599609375,0.02099609375,-0.16015625,1.6116
1.1908396946564885,3.0076335877862594,-2.213740458015267,-0.457763671875,0.015625,-0.156494140625,1.6133
1.2671755725190839,2.946564885496183,-2.183206106870229,-0.461669921875,0.0166015625,-0.15673828125,1.615
1.1603053435114503,3.099236641221374,-2.519083969465649,-0.461181640625,0.017822265625,-0.1669921875,1.6166999999999998
1.0381679389312977,3.114503816793893,-2.6106870229007635,-0.4580078125,0.02001953125,-0.161865234375,1.6183999999999998
1.0687022900763359,2.931297709923664,-2.732824427480916,-0.459716796875,0.018798828125,-0.158447265625,1.6200999999999999
1.0229007633587786,2.8091603053435112,-2.7786259541984735,-0.458984375,0.0185546875,-0.15625,1.6218
1.1908396946564885,2.7480916030534353,-2.8702290076335877,-0.455810546875,0.018798828125,-0.156982421875,1.6235
1.0381679389312977,2.564885496183206,-2.900763358778626,-0.4609375,0.017333984375,-0.1669921875,1.6252
1.099236641221374,2.50381679389313,-3.0381679389312977,-0.45947265625,0.02099609375,-0.15771484375,1.6269
1.1603053435114503,2.2748091603053435,-2.8244274809160306,-0.458740234375,0.01611328125,-0.155517578125,1.6285999999999998
1.0229007633587786,2.1526717557251906,-2.946564885496183,-0.4580078125,0.0205078125,-0.169677734375,1.6302999999999999
1.099236641221374,2.1526717557251906,-2.8244274809160306,-0.458984375,0.016845703125,-0.161376953125,1.632
0.9618320610687023,1.984732824427481,-2.7480916030534353,-0.46435546875,0.018798828125,-0.166748046875,1.6337
1.1755725190839694,1.8473282442748091,-2.717557251908397,-0.455322265625,0.0205078125,-0.163330078125,1.6354
1.1603053435114503,1.8473282442748091,-2.7022900763358777,-0.46435546875,0.016357421875,-0.15869140625,1.6371
0.9770992366412213,1.7404580152671756,-2.519083969465649,-0.46484375,0.013427734375,-0.16357421875,1.6387999999999998
0.7480916030534351,1.7251908396946565,-2.595419847328244,-0.462890625,0.010986328125,-0.164306640625,1.6404999999999998
0.7786259541984732,1.7709923664122138,-2.4427480916030535,-0.458740234375,0.015869140625,-0.154541015625,1.6421999999999999
0.8702290076335878,1.7099236641221374,-2.4427480916030535,-0.462158203125,0.015869140625,-0.16064453125,1.6439
0.7633587786259542,1.618320610687023,-2.3969465648854964,-0.4658203125,0.01220703125,-0.15966796875,1.6456
0.8091603053435115,1.7251908396946565,-2.351145038167939,-0.4580078125,0.017578125,-0.1708984375,1.6473
0.9618320610687023,1.6946564885496183,-2.3969465648854964,-0.458740234375,0.01904296875,-0.15869140625,1.6489999999999998
0.8702290076335878,1.6641221374045803,-2.3053435114503817,-0.459716796875,0.0185546875,-0.164794921875,1.6506999999999998
0.6717557251908397,1.7557251908396947,-2.2290076335877864,-0.4560546875,0.014892578125,-0.163330078125,1.6523999999999999
0.9312977099236641,1.6030534351145038,-2.2290076335877864,-0.46044921875,0.01416015625,-0.16650390625,1.6541
1.0687022900763359,1.7557251908396947,-2.015267175572519,-0.46533203125,0.0166015625,-0.165771484375,1.6558
0.9923664122137404,1.618320610687023,-2.122137404580153,-0.458984375,0.021728515625,-0.155029296875,1.6575
0.916030534351145,1.7557251908396947,-2.1526717557251906,-0.464599609375,0.01611328125,-0.159912109375,1.6592
0.9770992366412213,1.9083969465648856,-2.183206106870229,-0.464111328125,0.013427734375,-0.154296875,1.6608999999999998
1.0076335877862594,1.5419847328244274,-2.015267175572519,-0.467041015625,0.017578125,-0.14794921875,1.6625999999999999
1.083969465648855,1.5114503816793894,-2.0610687022900764,-0.4619140625,0.014404296875,-0.157958984375,1.6643
0.916030534351145,1.6488549618320612,-2.045801526717557,-0.456787109375,0.015380859375,-0.155517578125,1.666
1.0229007633587786,1.5267175572519085,-2.1374045801526718,-0.460693359375,0.01513671875,-0.15380859375,1.6677
1.0687022900763359,1.4961832061068703,-1.83206106870229,-0.463134765625,0.018310546875,-0.15185546875,1.6694
1.297709923664122,1.5572519083969465,-1.9541984732824427,-0.458984375,0.01904296875,-0.158203125,1.6710999999999998
1.297709923664122,1.5572519083969465,-2.1068702290076335,-0.458251953125,0.017333984375,-0.1552734375,1.6727999999999998
1.4351145038167938,1.450381679389313,-2.2595419847328246,-0.4619140625,0.019287109375,-0.16162109375,1.6744999999999999
1.4351145038167938,1.4198473282442747,-1.9389312977099236,-0.461181640625,0.02294921875,-0.16015625,1.6762
1.4198473282442747,1.4198473282442747,-2.2290076335877864,-0.461181640625,0.020751953125,-0.16796875,1.6779
1.4045801526717556,1.3740458015267176,-2.015267175572519,-0.459228515625,0.0185546875,-0.162353515625,1.6796
1.5725190839694656,1.4351145038167938,-1.9389312977099236,-0.46044921875,0.014404296875,-0.155029296875,1.6813
1.7251908396946565,1.251908396946565,-1.984732824427481,-0.460693359375,0.017578125,-0.15966796875,1.6829999999999998
1.618320610687023,1.282442748091603,-2.0610687022900764,-0.4580078125,0.021484375,-0.158447265625,1.6846999999999999
1.618320610687023,1.297709923664122,-1.9694656488549618,-0.461181640625,0.019287109375,-0.162841796875,1.6864
1.6641221374045803,1.2366412213740459,-2.015267175572519,-0.466552734375,0.02099609375,-0.154541015625,1.6881
1.8625954198473282,1.2061068702290076,-1.7709923664122138,-0.460205078125,0.015380859375,-0.1552734375,1.6898
1.786259541984733,1.083969465648855,-2.015267175572519,-0.457763671875,0.016357421875,-0.15869140625,1.6915
1.8625954198473282,1.2213740458015268,-1.8015267175572518,-0.46240234375,0.0185546875,-0.16259765625,1.6931999999999998
2.045801526717557,1.3129770992366412,-1.9541984732824427,-0.46484375,0.023681640625,-0.161376953125,1.6948999999999999
2.1068702290076335,1.1297709923664123,-1.8931297709923665,-0.46337890625,0.016357421875,-0.15234375,1.6965999999999999
2.030534351145038,1.1450381679389312,-2.045801526717557,-0.459228515625,0.0166015625,-0.15478515625,1.6983
2.122137404580153,1.251908396946565,-1.8473282442748091,-0.4599609375,0.018798828125,-0.158935546875,1.7
2.2748091603053435,1.251908396946565,-1.9541984732824427,-0.457275390625,0.0205078125,-0.159423828125,1.7017
2.4732824427480917,1.2061068702290076,-1.8931297709923665,-0.463623046875,0.01708984375,-0.15478515625,1.7033999999999998
2.3206106870229006,1.251908396946565,-2.0610687022900764,-0.462646484375,0.018310546875,-0.162109375,1.7050999999999998
2.381679389312977,1.0076335877862594,-1.8931297709923665,-0.45849609375,0.015380859375,-0.16015625,1.7067999999999999
2.4885496183206106,1.282442748091603,-1.9694656488549618,-0.4599609375,0.017822265625,-0.153076171875,1.7085
2.4580152671755724,1.297709923664122,-1.9083969465648856,-0.46435546875,0.015625,-0.163330078125,1.7102
2.687022900763359,1.2671755725190839,-1.8931297709923665,-0.4658203125,0.0185546875,-0.164306640625,1.7119
2.6717557251908395,1.450381679389313,-1.7251908396946565,-0.4638671875,0.017578125,-0.162353515625,1.7136
2.7938931297709924,1.297709923664122,-1.9083969465648856,-0.46435546875,0.017822265625,-0.159423828125,1.7152999999999998
2.7022900763358777,1.4045801526717556,-1.8015267175572518,-0.465576171875,0.0185546875,-0.163818359375,1.7169999999999999
2.6412213740458017,1.4809160305343512,-1.83206106870229,-0.4638671875,0.01953125,-0.155029296875,1.7187
2.8091603053435112,1.5572519083969465,-1.5877862595419847,-0.46044921875,0.0185546875,-0.15966796875,1.7204
3.099236641221374,1.4809160305343512,-1.618320610687023,-0.462890625,0.01708984375,-0.161376953125,1.7221
2.9923664122137406,1.633587786259542,-1.618320610687023,-0.46630859375,0.017578125,-0.153564453125,1.7238
2.8091603053435112,1.7099236641221374,-1.5572519083969465,-0.466064453125,0.0166015625,-0.1650390625,1.7254999999999998
2.885496183206107,1.6946564885496183,-1.5114503816793894,-0.46044921875,0.020263671875,-0.15673828125,1.7271999999999998
3.099236641221374,1.7099236641221374,-1.5725190839694656,-0.463134765625,0.022216796875,-0.1611328125,1.7288999999999999
3.145038167938931,1.5877862595419847,-1.3435114503816794,-0.464599609375,0.017333984375,-0.165771484375,1.7306
3.1603053435114505,1.7099236641221374,-1.5267175572519085,-0.46533203125,0.01123046875,-0.15966796875,1.7323
3.099236641221374,1.5419847328244274,-1.3282442748091603,-0.465087890625,0.017333984375,-0.159423828125,1.734
3.282442748091603,1.6030534351145038,-1.3587786259541985,-0.465576171875,0.0146484375,-0.15966796875,1.7356999999999998
3.1908396946564888,1.6488549618320612,-1.251908396946565,-0.462646484375,0.013427734375,-0.16552734375,1.7373999999999998
3.1908396946564888,1.6641221374045803,-1.3893129770992367,-0.457275390625,0.01318359375,-0.151123046875,1.7390999999999999
3.282442748091603,1.83206106870229,-1.1297709923664123,-0.4580078125,0.0087890625,-0.1513671875,1.7408
3.1755725190839694,1.7404580152671756,-1.2366412213740459,-0.463623046875,0.020263671875,-0.157958984375,1.7425
3.236641221374046,1.7557251908396947,-0.9618320610687023,-0.458251953125,0.018310546875,-0.159423828125,1.7442
3.1908396946564888,1.816793893129771,-1.1450381679389312,-0.45654296875,0.016357421875,-0.161865234375,1.7459
3.145038167938931,1.7404580152671756,-0.9312977099236641,-0.466796875,0.01708984375,-0.1591796875,1.7475999999999998
3.1908396946564888,1.7251908396946565,-0.8702290076335878,-0.45947265625,0.014892578125,-0.162109375,1.7492999999999999
3.053435114503817,1.7709923664122138,-0.8549618320610687,-0.460205078125,0.010498046875,-0.1591796875,1.751
3.3893129770992365,1.7709923664122138,-0.6870229007633588,-0.4609375,0.0126953125,-0.157958984375,1.7527
3.2519083969465647,1.7404580152671756,-0.5954198473282443,-0.46630859375,0.014404296875,-0.16162109375,1.7544
2.931297709923664,1.5114503816793894,-0.6564885496183206,-0.464599609375,0.01513671875,-0.159423828125,1.7561
3.1908396946564888,1.4198473282442747,-0.6412213740458015,-0.4638671875,0.01953125,-0.162109375,1.7577999999999998
3.1755725190839694,1.7251908396946565,-0.732824427480916,-0.462158203125,0.015380859375,-0.1591796875,1.7594999999999998
2.900763358778626,1.7404580152671756,-0.6870229007633588,-0.46533203125,0.014404296875,-0.159423828125,1.7611999999999999
3.053435114503817,1.816793893129771,-0.8549618320610687,-0.459716796875,0.01416015625,-0.15234375,1.7629
2.9618320610687023,1.786259541984733,-0.9312977099236641,-0.463134765625,0.01416015625,-0.159423828125,1.7646
3.114503816793893,1.786259541984733,-0.9923664122137404,-0.46142578125,0.01220703125,-0.15478515625,1.7663
2.9923664122137406,1.816793893129771,-0.9465648854961832,-0.461669921875,0.015380859375,-0.165283203125,1.7679999999999998
2.931297709923664,1.984732824427481,-1.0076335877862594,-0.46142578125,0.0166015625,-0.165771484375,1.7696999999999998
2.8091603053435112,1.816793893129771,-0.8702290076335878,-0.461181640625,0.01171875,-0.1630859375,1.7713999999999999
2.687022900763359,2.0,-1.0381679389312977,-0.46875,0.010498046875,-0.15478515625,1.7731
2.717557251908397,2.122137404580153,-0.9618320610687023,-0.466064453125,0.01123046875,-0.16064453125,1.7748
2.6564885496183206,2.1068702290076335,-0.9312977099236641,-0.462158203125,0.01513671875,-0.161865234375,1.7765
2.6412213740458017,2.0610687022900764,-0.8702290076335878,-0.459228515625,0.0166015625,-0.16845703125,1.7782
2.4580152671755724,1.816793893129771,-0.9465648854961832,-0.457275390625,0.015625,-0.16455078125,1.7798999999999998
2.50381679389313,1.984732824427481,-0.7175572519083969,-0.458984375,0.014404296875,-0.154296875,1.7815999999999999
2.366412213740458,1.8931297709923665,-0.9465648854961832,-0.465576171875,0.013671875,-0.16357421875,1.7832999999999999
2.198473282442748,1.816793893129771,-1.083969465648855,-0.46435546875,0.01123046875,-0.16357421875,1.785
2.366412213740458,2.045801526717557,-1.0229007633587786,-0.462890625,0.01025390625,-0.164794921875,1.7867
2.2595419847328246,1.8778625954198473,-0.9770992366412213,-0.46875,0.013427734375,-0.162109375,1.7884
2.2595419847328246,2.0610687022900764,-1.1450381679389312,-0.46533203125,0.01708984375,-0.158935546875,1.7900999999999998
2.0,1.9389312977099236,-1.251908396946565,-0.461669921875,0.010498046875,-0.154296875,1.7917999999999998
2.122137404580153,2.0610687022900764,-1.3282442748091603,-0.462158203125,0.014892578125,-0.167236328125,1.7934999999999999
1.83206106870229,1.9694656488549618,-1.1908396946564885,-0.461669921875,0.01123046875,-0.161865234375,1.7952
1.816793893129771,2.045801526717557,-1.2366412213740459,-0.461181640625,0.014404296875,-0.163818359375,1.7969
1.816793893129771,2.0763358778625953,-1.0687022900763359,-0.463623046875,0.017333984375,-0.16357421875,1.7986
1.8473282442748091,2.015267175572519,-1.1755725190839694,-0.466064453125,0.011962890625,-0.15869140625,1.8002999999999998
1.9236641221374047,2.1374045801526718,-1.2671755725190839,-0.46728515625,0.01025390625,-0.15283203125,1.8019999999999998
1.5114503816793894,2.3053435114503817,-1.4045801526717556,-0.462158203125,0.009033203125,-0.157958984375,1.8036999999999999
1.5725190839694656,2.0610687022900764,-1.251908396946565,-0.459228515625,0.01416015625,-0.166015625,1.8054
1.5572519083969465,2.0,-1.4351145038167938,-0.459716796875,0.0126953125,-0.160400390625,1.8071
