gyrox1,gyroy1,gyroz1,accelx1,accely1,accelz1,Time
1.3587786259541985,1.5267175572519085,-0.9465648854961832,-0.444580078125,0.010498046875,-0.256103515625,0.0
1.3740458015267176,1.5114503816793894,-0.9923664122137404,-0.444580078125,0.01171875,-0.25634765625,0.0017
1.4045801526717556,1.6946564885496183,-0.916030534351145,-0.44287109375,0.013427734375,-0.25244140625,0.0034
1.3740458015267176,1.5572519083969465,-0.7480916030534351,-0.440185546875,0.015380859375,-0.2509765625,0.0050999999999999995
1.1755725190839694,1.465648854961832,-1.1145038167938932,-0.44384765625,0.01220703125,-0.25048828125,0.0068
1.4351145038167938,1.4351145038167938,-0.8091603053435115,-0.443115234375,0.015625,-0.249755859375,0.008499999999999999
1.5572519083969465,1.5267175572519085,-0.9465648854961832,-0.446044921875,0.008056640625,-0.25634765625,0.010199999999999999
1.251908396946565,1.5572519083969465,-1.0076335877862594,-0.438232421875,0.010986328125,-0.263427734375,0.011899999999999999
1.2366412213740459,1.5572519083969465,-0.8244274809160306,-0.442626953125,0.009521484375,-0.260986328125,0.0136
1.3435114503816794,1.3740458015267176,-0.7786259541984732,-0.44189453125,0.014892578125,-0.24951171875,0.0153
1.5267175572519085,1.251908396946565,-0.9007633587786259,-0.441650390625,0.009033203125,-0.24755859375,0.016999999999999998
1.6030534351145038,1.3893129770992367,-0.7633587786259542,-0.443603515625,0.012939453125,-0.25244140625,0.018699999999999998
1.4961832061068703,1.450381679389313,-0.9312977099236641,-0.4443359375,0.016357421875,-0.25048828125,0.020399999999999998
1.3129770992366412,1.3587786259541985,-0.9007633587786259,-0.445556640625,0.013671875,-0.255615234375,0.022099999999999998
1.5419847328244274,1.4045801526717556,-0.4732824427480916,-0.444091796875,0.01123046875,-0.25341796875,0.023799999999999998
1.4045801526717556,1.5725190839694656,-0.5038167938931297,-0.445068359375,0.0126953125,-0.255126953125,0.0255
1.4198473282442747,1.3129770992366412,-0.7022900763358778,-0.44287109375,0.010986328125,-0.25732421875,0.0272
1.465648854961832,1.3893129770992367,-0.42748091603053434,-0.4443359375,0.012939453125,-0.247314453125,0.0289
1.3587786259541985,1.465648854961832,-0.6870229007633588,-0.448486328125,0.009765625,-0.24951171875,0.0306
1.4198473282442747,1.3740458015267176,-0.6412213740458015,-0.442626953125,0.0087890625,-0.26220703125,0.032299999999999995
1.3893129770992367,1.3893129770992367,-0.732824427480916,-0.443359375,0.010498046875,-0.24853515625,0.033999999999999996
1.3435114503816794,1.2213740458015268,-0.48854961832061067,-0.443359375,0.009033203125,-0.254638671875,0.035699999999999996
1.4809160305343512,1.3587786259541985,-0.4580152671755725,-0.449462890625,0.0107421875,-0.246826171875,0.037399999999999996
1.450381679389313,1.4045801526717556,-0.42748091603053434,-0.45068359375,0.01123046875,-0.259521484375,0.039099999999999996
1.3740458015267176,1.297709923664122,-0.6564885496183206,-0.453125,0.011474609375,-0.253662109375,0.040799999999999996
1.465648854961832,1.4351145038167938,-0.4732824427480916,-0.443359375,0.010498046875,-0.256103515625,0.042499999999999996
1.4809160305343512,1.4961832061068703,-0.48854961832061067,-0.439697265625,0.010009765625,-0.2529296875,0.044199999999999996
1.5114503816793894,1.5419847328244274,-0.44274809160305345,-0.44482421875,0.01025390625,-0.25048828125,0.045899999999999996
1.465648854961832,1.4809160305343512,-0.7175572519083969,-0.441162109375,0.011962890625,-0.254150390625,0.047599999999999996
1.4351145038167938,1.4351145038167938,-0.549618320610687,-0.444580078125,0.015869140625,-0.257568359375,0.0493
1.6030534351145038,1.5419847328244274,-0.5038167938931297,-0.444580078125,0.010986328125,-0.25,0.051
1.4961832061068703,1.6030534351145038,-0.44274809160305345,-0.44287109375,0.011962890625,-0.25048828125,0.0527
1.465648854961832,1.633587786259542,-0.6870229007633588,-0.445068359375,0.01123046875,-0.25634765625,0.0544
1.6641221374045803,1.5419847328244274,-0.48854961832061067,-0.441162109375,0.01416015625,-0.2607421875,0.0561
1.7251908396946565,1.618320610687023,-0.5648854961832062,-0.437744140625,0.014892578125,-0.255615234375,0.0578
1.6641221374045803,1.5114503816793894,-0.4732824427480916,-0.441650390625,0.014404296875,-0.26025390625,0.0595
1.5725190839694656,1.5572519083969465,-0.9007633587786259,-0.440185546875,0.014892578125,-0.263671875,0.0612
1.5267175572519085,1.5267175572519085,-0.7480916030534351,-0.43701171875,0.012939453125,-0.2607421875,0.0629
1.6946564885496183,1.450381679389313,-0.5801526717557252,-0.44384765625,0.013427734375,-0.25732421875,0.06459999999999999
1.5419847328244274,1.450381679389313,-0.732824427480916,-0.44482421875,0.021484375,-0.25537109375,0.0663
1.7709923664122138,1.3587786259541985,-0.7175572519083969,-0.441162109375,0.014404296875,-0.252685546875,0.06799999999999999
1.7099236641221374,1.4809160305343512,-0.6259541984732825,-0.439453125,0.014404296875,-0.2578125,0.0697
1.7404580152671756,1.4045801526717556,-0.7938931297709924,-0.439697265625,0.0126953125,-0.258056640625,0.07139999999999999
1.6641221374045803,1.465648854961832,-0.5954198473282443,-0.443115234375,0.00927734375,-0.25732421875,0.0731
1.5267175572519085,1.8015267175572518,-0.7175572519083969,-0.44189453125,0.013916015625,-0.250244140625,0.07479999999999999
1.6946564885496183,1.5114503816793894,-0.6259541984732825,-0.444091796875,0.005615234375,-0.248046875,0.0765
2.122137404580153,1.5725190839694656,-0.7175572519083969,-0.445556640625,0.01416015625,-0.24951171875,0.07819999999999999
1.8778625954198473,1.6793893129770991,-0.7786259541984732,-0.447509765625,0.018310546875,-0.251220703125,0.0799
1.7099236641221374,1.7557251908396947,-0.7022900763358778,-0.4453125,0.01416015625,-0.259033203125,0.08159999999999999
1.7251908396946565,1.7404580152671756,-0.4580152671755725,-0.44482421875,0.0126953125,-0.25439453125,0.0833
2.1526717557251906,1.6793893129770991,-0.7175572519083969,-0.44384765625,0.013671875,-0.25439453125,0.08499999999999999
1.8015267175572518,1.6946564885496183,-0.5343511450381679,-0.443359375,0.00830078125,-0.251708984375,0.0867
1.8015267175572518,1.7404580152671756,-0.5038167938931297,-0.447509765625,0.01416015625,-0.250244140625,0.08839999999999999
2.0916030534351147,1.8931297709923665,-0.3053435114503817,-0.443603515625,0.01171875,-0.2578125,0.0901
2.015267175572519,1.8931297709923665,-0.3969465648854962,-0.4404296875,0.010498046875,-0.266357421875,0.09179999999999999
1.984732824427481,1.8778625954198473,-0.33587786259541985,-0.447021484375,0.014404296875,-0.24951171875,0.0935
1.7557251908396947,2.0,-0.4122137404580153,-0.444091796875,0.0126953125,-0.254638671875,0.09519999999999999
1.8778625954198473,2.0,-0.21374045801526717,-0.44287109375,0.01171875,-0.2490234375,0.0969
2.1374045801526718,1.8015267175572518,-0.3816793893129771,-0.441650390625,0.011962890625,-0.255859375,0.0986
2.1374045801526718,1.8625954198473282,-0.2900763358778626,-0.448486328125,0.015380859375,-0.2509765625,0.1003
1.9541984732824427,2.1526717557251906,-0.13740458015267176,-0.44384765625,0.01708984375,-0.256591796875,0.102
1.8778625954198473,2.015267175572519,-0.015267175572519083,-0.447021484375,0.016845703125,-0.2578125,0.1037
2.0916030534351147,2.015267175572519,-0.13740458015267176,-0.446044921875,0.017333984375,-0.26171875,0.1054
2.0916030534351147,1.984732824427481,-0.13740458015267176,-0.449951171875,0.016357421875,-0.25,0.1071
2.198473282442748,2.030534351145038,0.030534351145038167,-0.44677734375,0.017578125,-0.257080078125,0.1088
2.213740458015267,2.2595419847328246,0.061068702290076333,-0.44775390625,0.018798828125,-0.256591796875,0.11049999999999999
2.1374045801526718,2.366412213740458,0.030534351145038167,-0.445068359375,0.0126953125,-0.253173828125,0.1122
2.351145038167939,2.3206106870229006,0.16793893129770993,-0.448974609375,0.01318359375,-0.249267578125,0.11389999999999999
2.1526717557251906,2.50381679389313,-0.04580152671755725,-0.44775390625,0.019287109375,-0.25146484375,0.1156
2.2442748091603053,2.4885496183206106,0.04580152671755725,-0.45166015625,0.018310546875,-0.260498046875,0.11729999999999999
2.564885496183206,2.7022900763358777,0.13740458015267176,-0.451904296875,0.02001953125,-0.266845703125,0.119
2.564885496183206,2.8244274809160306,0.24427480916030533,-0.455078125,0.015869140625,-0.253173828125,0.12069999999999999
2.519083969465649,2.7938931297709924,0.07633587786259542,-0.445556640625,0.018798828125,-0.258544921875,0.1224
2.4885496183206106,2.9770992366412212,0.2900763358778626,-0.444091796875,0.015625,-0.259033203125,0.12409999999999999
2.6259541984732824,3.2061068702290076,0.061068702290076333,-0.446044921875,0.015625,-0.2578125,0.1258
2.946564885496183,3.2977099236641223,0.16793893129770993,-0.449951171875,0.015869140625,-0.253173828125,0.1275
2.7022900763358777,3.312977099236641,0.04580152671755725,-0.451904296875,0.021484375,-0.2587890625,0.12919999999999998
2.7938931297709924,3.404580152671756,0.10687022900763359,-0.448486328125,0.0185546875,-0.260009765625,0.1309
2.900763358778626,3.5572519083969465,0.10687022900763359,-0.451171875,0.018310546875,-0.259033203125,0.1326
2.9770992366412212,3.7404580152671754,0.2595419847328244,-0.44873046875,0.013916015625,-0.261474609375,0.1343
3.0076335877862594,3.83206106870229,-0.13740458015267176,-0.448486328125,0.01416015625,-0.267578125,0.13599999999999998
3.236641221374046,3.954198473282443,-0.015267175572519083,-0.444091796875,0.017578125,-0.257568359375,0.1377
3.1755725190839694,4.1679389312977095,-0.22900763358778625,-0.442626953125,0.019775390625,-0.256103515625,0.1394
3.3587786259541983,4.015267175572519,-0.0916030534351145,-0.446533203125,0.017822265625,-0.258056640625,0.1411
3.5419847328244276,4.198473282442748,-0.33587786259541985,-0.446533203125,0.01416015625,-0.250732421875,0.14279999999999998
3.5114503816793894,4.229007633587786,-0.33587786259541985,-0.443115234375,0.0166015625,-0.254638671875,0.1445
3.5572519083969465,4.061068702290076,-0.3969465648854962,-0.441162109375,0.016845703125,-0.2509765625,0.1462
3.5267175572519083,4.2748091603053435,-0.183206106870229,-0.443359375,0.0185546875,-0.254150390625,0.1479
3.66412213740458,4.290076335877862,-0.5648854961832062,-0.445068359375,0.010498046875,-0.2509765625,0.14959999999999998
3.8625954198473282,4.351145038167939,-0.5648854961832062,-0.447998046875,0.016845703125,-0.2607421875,0.1513
4.030534351145038,4.33587786259542,-0.549618320610687,-0.443603515625,0.015869140625,-0.2509765625,0.153
3.9083969465648853,4.1679389312977095,-0.4122137404580153,-0.43896484375,0.017822265625,-0.25048828125,0.1547
4.122137404580153,4.519083969465649,-0.4732824427480916,-0.445556640625,0.0205078125,-0.25244140625,0.15639999999999998
4.320610687022901,4.519083969465649,-0.44274809160305345,-0.4443359375,0.017333984375,-0.25634765625,0.1581
4.427480916030534,4.67175572519084,-0.7175572519083969,-0.44921875,0.013671875,-0.2578125,0.1598
4.458015267175573,4.580152671755725,-0.3816793893129771,-0.447021484375,0.022705078125,-0.25048828125,0.1615
4.625954198473282,4.870229007633588,-0.2595419847328244,-0.444091796875,0.02099609375,-0.259765625,0.16319999999999998
4.9465648854961835,4.9465648854961835,-0.24427480916030533,-0.443115234375,0.017822265625,-0.259033203125,0.1649
5.038167938931298,5.022900763358779,-0.24427480916030533,-0.445068359375,0.02001953125,-0.25439453125,0.1666
5.068702290076335,5.083969465648855,-0.15267175572519084,-0.4453125,0.018310546875,-0.249755859375,0.16829999999999998
5.175572519083969,5.206106870229007,-0.2595419847328244,-0.447265625,0.018310546875,-0.25,0.16999999999999998
4.931297709923665,5.1603053435114505,-0.10687022900763359,-0.450439453125,0.018798828125,-0.24951171875,0.1717
5.526717557251908,5.129770992366412,-0.10687022900763359,-0.444091796875,0.0146484375,-0.258056640625,0.1734
5.694656488549619,5.374045801526718,0.10687022900763359,-0.444091796875,0.01513671875,-0.25146484375,0.17509999999999998
5.8320610687022905,5.3893129770992365,-0.04580152671755725,-0.445556640625,0.01513671875,-0.253173828125,0.17679999999999998
5.816793893129771,5.465648854961832,0.12213740458015267,-0.446044921875,0.016357421875,-0.249267578125,0.1785
5.770992366412214,5.0534351145038165,0.12213740458015267,-0.44677734375,0.016845703125,-0.247802734375,0.1802
6.0,5.358778625954199,0.22900763358778625,-0.445556640625,0.019287109375,-0.256591796875,0.18189999999999998
6.061068702290076,5.221374045801527,0.3511450381679389,-0.449462890625,0.018798828125,-0.255126953125,0.18359999999999999
6.213740458015267,5.267175572519084,0.5801526717557252,-0.44482421875,0.0166015625,-0.2490234375,0.1853
6.213740458015267,5.435114503816794,0.44274809160305345,-0.445556640625,0.01806640625,-0.24658203125,0.187
6.33587786259542,5.358778625954199,0.6564885496183206,-0.44384765625,0.015380859375,-0.25927734375,0.18869999999999998
6.351145038167939,5.374045801526718,0.7938931297709924,-0.447509765625,0.019287109375,-0.258544921875,0.19039999999999999
6.396946564885496,5.312977099236641,0.7786259541984732,-0.44580078125,0.01708984375,-0.261962890625,0.1921
6.717557251908397,5.404580152671755,0.8396946564885496,-0.4462890625,0.021240234375,-0.259033203125,0.1938
6.595419847328245,5.603053435114504,0.8244274809160306,-0.443603515625,0.017822265625,-0.255126953125,0.19549999999999998
6.885496183206107,5.6183206106870225,0.9465648854961832,-0.445556640625,0.01513671875,-0.253173828125,0.1972
6.931297709923665,5.66412213740458,1.083969465648855,-0.4501953125,0.013916015625,-0.25927734375,0.1989
6.793893129770993,5.694656488549619,1.0229007633587786,-0.445556640625,0.01513671875,-0.2578125,0.2006
7.175572519083969,5.893129770992366,1.1450381679389312,-0.44873046875,0.01953125,-0.254638671875,0.20229999999999998
7.145038167938932,5.893129770992366,1.282442748091603,-0.44775390625,0.012451171875,-0.2568359375,0.204
7.022900763358779,5.877862595419847,1.297709923664122,-0.44873046875,0.018798828125,-0.2578125,0.2057
7.175572519083969,6.0,1.2061068702290076,-0.44482421875,0.0146484375,-0.251708984375,0.2074
7.251908396946565,5.923664122137405,1.4351145038167938,-0.444580078125,0.01708984375,-0.2548828125,0.20909999999999998
7.068702290076335,5.984732824427481,1.4045801526717556,-0.443359375,0.01806640625,-0.260498046875,0.2108
7.251908396946565,6.229007633587786,1.3282442748091603,-0.44140625,0.01708984375,-0.259521484375,0.2125
7.450381679389313,6.0,1.3282442748091603,-0.4462890625,0.02001953125,-0.263427734375,0.2142
7.4961832061068705,6.015267175572519,1.3435114503816794,-0.447265625,0.0205078125,-0.265380859375,0.21589999999999998
7.633587786259542,6.183206106870229,1.4809160305343512,-0.444091796875,0.017578125,-0.259033203125,0.2176
7.740458015267175,6.152671755725191,1.5267175572519085,-0.441650390625,0.020751953125,-0.25830078125,0.2193
8.061068702290076,6.030534351145038,1.2671755725190839,-0.439697265625,0.01953125,-0.257080078125,0.22099999999999997
8.030534351145038,6.061068702290076,1.450381679389313,-0.439453125,0.019287109375,-0.255615234375,0.22269999999999998
8.122137404580153,6.0,1.297709923664122,-0.445556640625,0.015625,-0.25927734375,0.2244
8.534351145038167,6.0458015267175576,1.618320610687023,-0.4453125,0.013916015625,-0.259521484375,0.2261
8.610687022900763,6.015267175572519,1.465648854961832,-0.437744140625,0.020751953125,-0.250732421875,0.22779999999999997
8.67175572519084,6.0,1.6488549618320612,-0.43798828125,0.020751953125,-0.261474609375,0.22949999999999998
8.778625954198473,5.786259541984733,1.8473282442748091,-0.43701171875,0.017333984375,-0.2646484375,0.2312
8.80916030534351,5.740458015267175,1.786259541984733,-0.444580078125,0.014892578125,-0.257568359375,0.2329
8.763358778625955,5.908396946564886,1.6030534351145038,-0.435791015625,0.018798828125,-0.253662109375,0.23459999999999998
9.007633587786259,5.9541984732824424,1.7251908396946565,-0.44091796875,0.0205078125,-0.253662109375,0.23629999999999998
8.67175572519084,5.816793893129771,1.6946564885496183,-0.43798828125,0.0126953125,-0.26123046875,0.238
9.007633587786259,5.801526717557252,1.9083969465648856,-0.4423828125,0.014404296875,-0.259521484375,0.2397
8.80916030534351,5.679389312977099,1.8473282442748091,-0.43408203125,0.014404296875,-0.260986328125,0.24139999999999998
8.946564885496183,5.923664122137405,1.8931297709923665,-0.437255859375,0.017822265625,-0.258544921875,0.24309999999999998
9.099236641221374,5.938931297709924,1.8015267175572518,-0.44140625,0.019287109375,-0.257568359375,0.2448
9.145038167938932,5.9541984732824424,1.8473282442748091,-0.441162109375,0.01806640625,-0.251953125,0.2465
8.977099236641221,6.076335877862595,1.8778625954198473,-0.44091796875,0.01611328125,-0.254150390625,0.24819999999999998
9.17557251908397,6.030534351145038,1.6641221374045803,-0.438232421875,0.015869140625,-0.2509765625,0.24989999999999998
9.465648854961833,6.0,1.7557251908396947,-0.440185546875,0.014404296875,-0.254638671875,0.2516
9.267175572519085,6.030534351145038,1.6793893129770991,-0.443115234375,0.013916015625,-0.2578125,0.25329999999999997
9.297709923664122,6.061068702290076,1.83206106870229,-0.441162109375,0.014892578125,-0.262451171875,0.255
9.099236641221374,6.1679389312977095,1.6641221374045803,-0.440185546875,0.016845703125,-0.259521484375,0.2567
9.48091603053435,6.137404580152672,1.3587786259541985,-0.442138671875,0.01806640625,-0.263916015625,0.25839999999999996
9.48091603053435,6.137404580152672,1.7709923664122138,-0.44091796875,0.016357421875,-0.252197265625,0.2601
9.557251908396946,6.320610687022901,1.633587786259542,-0.438720703125,0.0146484375,-0.260498046875,0.2618
9.618320610687023,6.137404580152672,1.4198473282442747,-0.439208984375,0.014404296875,-0.264892578125,0.2635
9.435114503816793,6.183206106870229,1.5725190839694656,-0.443359375,0.015380859375,-0.257568359375,0.2652
9.877862595419847,6.198473282442748,1.5877862595419847,-0.443603515625,0.016845703125,-0.256591796875,0.26689999999999997
9.755725190839694,6.244274809160306,1.5419847328244274,-0.44384765625,0.01611328125,-0.2607421875,0.2686
9.633587786259541,6.351145038167939,1.5267175572519085,-0.4384765625,0.0166015625,-0.2568359375,0.2703
9.83206106870229,6.3816793893129775,1.6946564885496183,-0.448486328125,0.013916015625,-0.261474609375,0.27199999999999996
9.755725190839694,6.6106870229007635,1.7099236641221374,-0.443359375,0.013916015625,-0.265380859375,0.2737
9.587786259541986,6.748091603053435,1.5572519083969465,-0.447509765625,0.013671875,-0.266357421875,0.2754
9.679389312977099,6.656488549618321,1.4961832061068703,-0.4443359375,0.0126953125,-0.267333984375,0.27709999999999996
9.679389312977099,6.854961832061068,1.7557251908396947,-0.4404296875,0.02001953125,-0.260986328125,0.2788
9.709923664122137,6.916030534351145,1.7251908396946565,-0.44140625,0.0146484375,-0.262939453125,0.28049999999999997
9.755725190839694,7.114503816793893,1.6030534351145038,-0.442626953125,0.010009765625,-0.267822265625,0.2822
9.694656488549619,7.083969465648855,1.618320610687023,-0.447021484375,0.01220703125,-0.2646484375,0.2839
9.618320610687023,7.206106870229007,1.6946564885496183,-0.447509765625,0.00927734375,-0.265625,0.28559999999999997
9.801526717557252,7.358778625954199,1.633587786259542,-0.440673828125,0.0126953125,-0.2578125,0.2873
9.755725190839694,7.465648854961832,1.6946564885496183,-0.446533203125,0.01513671875,-0.27197265625,0.289
9.755725190839694,7.633587786259542,1.7404580152671756,-0.444091796875,0.01513671875,-0.259521484375,0.29069999999999996
9.725190839694656,7.66412213740458,1.7557251908396947,-0.4443359375,0.021728515625,-0.265380859375,0.2924
10.076335877862595,7.7251908396946565,1.8015267175572518,-0.4453125,0.0146484375,-0.264892578125,0.2941
9.923664122137405,7.862595419847328,1.618320610687023,-0.4462890625,0.0126953125,-0.26611328125,0.2958
9.725190839694656,8.045801526717558,1.6641221374045803,-0.447021484375,0.013427734375,-0.268310546875,0.2975
9.893129770992367,8.091603053435115,1.6946564885496183,-0.4462890625,0.018310546875,-0.2578125,0.29919999999999997
9.98473282442748,8.106870229007633,1.6641221374045803,-0.44091796875,0.01123046875,-0.2685546875,0.3009
10.01526717557252,8.320610687022901,1.7404580152671756,-0.445556640625,0.017578125,-0.2685546875,0.3026
10.122137404580153,8.320610687022901,1.8778625954198473,-0.447021484375,0.021484375,-0.2607421875,0.30429999999999996
10.045801526717558,8.51908396946565,1.7251908396946565,-0.44873046875,0.018310546875,-0.268310546875,0.306
10.213740458015268,8.67175572519084,1.8015267175572518,-0.4462890625,0.014404296875,-0.260009765625,0.3077
10.305343511450381,8.65648854961832,1.816793893129771,-0.44677734375,0.0068359375,-0.264892578125,0.3094
10.045801526717558,8.854961832061068,1.7251908396946565,-0.443603515625,0.0166015625,-0.264404296875,0.3111
10.229007633587786,8.916030534351146,1.7251908396946565,-0.443603515625,0.0146484375,-0.270751953125,0.31279999999999997
10.335877862595419,8.946564885496183,1.816793893129771,-0.450439453125,0.010498046875,-0.26953125,0.3145
10.534351145038167,9.145038167938932,1.83206106870229,-0.4541015625,0.020263671875,-0.268310546875,0.3162
10.625954198473282,9.282442748091603,1.7709923664122138,-0.447265625,0.016357421875,-0.266845703125,0.31789999999999996
10.351145038167939,9.19083969465649,1.6488549618320612,-0.449462890625,0.01611328125,-0.26220703125,0.3196
10.51908396946565,9.358778625954198,1.7251908396946565,-0.444580078125,0.01416015625,-0.26806640625,0.3213
10.305343511450381,9.465648854961833,1.8015267175572518,-0.450439453125,0.014892578125,-0.263427734375,0.323
10.290076335877863,9.358778625954198,1.9389312977099236,-0.444091796875,0.014892578125,-0.26318359375,0.3247
10.488549618320612,9.374045801526718,1.816793893129771,-0.445068359375,0.014892578125,-0.263427734375,0.32639999999999997
10.702290076335878,9.648854961832061,1.8473282442748091,-0.442138671875,0.01513671875,-0.272216796875,0.3281
10.564885496183207,9.709923664122137,2.0,-0.44677734375,0.014404296875,-0.263671875,0.3298
10.534351145038167,9.664122137404581,1.9541984732824427,-0.444580078125,0.014892578125,-0.266845703125,0.33149999999999996
10.351145038167939,9.572519083969466,2.0610687022900764,-0.442138671875,0.011962890625,-0.269775390625,0.3332
10.366412213740459,9.740458015267176,2.0,-0.44482421875,0.01220703125,-0.2666015625,0.3349
10.65648854961832,9.770992366412214,1.816793893129771,-0.44384765625,0.01171875,-0.273681640625,0.33659999999999995
10.717557251908397,9.679389312977099,2.0916030534351147,-0.440673828125,0.014892578125,-0.272705078125,0.3383
10.625954198473282,9.954198473282442,2.0763358778625953,-0.443603515625,0.0126953125,-0.271240234375,0.33999999999999997
10.51908396946565,9.893129770992367,2.030534351145038,-0.439697265625,0.01171875,-0.265869140625,0.3417
10.076335877862595,9.648854961832061,2.045801526717557,-0.442138671875,0.0146484375,-0.263671875,0.3434
10.549618320610687,9.786259541984732,2.0610687022900764,-0.43603515625,0.010498046875,-0.2705078125,0.34509999999999996
10.50381679389313,9.801526717557252,2.0610687022900764,-0.4443359375,0.013916015625,-0.276611328125,0.3468
10.564885496183207,9.587786259541986,2.030534351145038,-0.43994140625,0.00830078125,-0.2802734375,0.3485
10.564885496183207,9.465648854961833,2.1526717557251906,-0.43798828125,0.0078125,-0.25830078125,0.35019999999999996
10.51908396946565,9.557251908396946,2.2595419847328246,-0.43505859375,0.006591796875,-0.268798828125,0.3519
10.259541984732824,9.358778625954198,2.3053435114503817,-0.437744140625,0.015625,-0.27001953125,0.35359999999999997
10.366412213740459,9.19083969465649,2.3206106870229006,-0.439697265625,0.012451171875,-0.256103515625,0.3553
10.198473282442748,9.19083969465649,2.351145038167939,-0.438720703125,0.010009765625,-0.27099609375,0.357
10.259541984732824,9.251908396946565,2.1526717557251906,-0.436279296875,0.008056640625,-0.26513671875,0.35869999999999996
10.305343511450381,9.282442748091603,2.213740458015267,-0.436767578125,0.0078125,-0.266845703125,0.3604
10.213740458015268,9.19083969465649,2.2290076335877864,-0.442138671875,0.0126953125,-0.26416015625,0.3621
10.15267175572519,9.129770992366412,2.33587786259542,-0.438720703125,0.00927734375,-0.270263671875,0.36379999999999996
10.15267175572519,9.083969465648854,2.33587786259542,-0.438232421875,0.009765625,-0.2724609375,0.3655
10.045801526717558,9.19083969465649,2.427480916030534,-0.436767578125,0.010009765625,-0.271728515625,0.36719999999999997
10.0,9.16030534351145,2.213740458015267,-0.437744140625,0.015625,-0.269287109375,0.3689
9.755725190839694,8.977099236641221,2.366412213740458,-0.436279296875,0.01318359375,-0.27490234375,0.3706
10.045801526717558,9.053435114503817,2.366412213740458,-0.438720703125,0.01171875,-0.272216796875,0.37229999999999996
9.893129770992367,9.16030534351145,2.2442748091603053,-0.438232421875,0.01123046875,-0.267822265625,0.374
10.030534351145038,9.145038167938932,2.2900763358778624,-0.43798828125,0.016357421875,-0.271484375,0.3757
9.755725190839694,9.236641221374045,2.2290076335877864,-0.4404296875,0.01220703125,-0.27392578125,0.37739999999999996
9.877862595419847,9.251908396946565,2.0610687022900764,-0.43408203125,0.01611328125,-0.271728515625,0.3791
9.908396946564885,9.267175572519085,2.0610687022900764,-0.434814453125,0.01123046875,-0.26708984375,0.38079999999999997
9.786259541984732,9.206106870229007,1.9236641221374047,-0.433349609375,0.01318359375,-0.272705078125,0.38249999999999995
10.183206106870228,9.526717557251908,2.0916030534351147,-0.4345703125,0.01416015625,-0.26806640625,0.3842
10.213740458015268,9.511450381679388,1.7557251908396947,-0.436279296875,0.015869140625,-0.272216796875,0.38589999999999997
10.061068702290076,9.679389312977099,1.7557251908396947,-0.432373046875,0.01904296875,-0.275146484375,0.3876
10.030534351145038,9.679389312977099,1.5114503816793894,-0.4375,0.01171875,-0.272216796875,0.3893
10.13740458015267,9.83206106870229,1.5725190839694656,-0.4365234375,0.01416015625,-0.267822265625,0.39099999999999996
10.076335877862595,9.679389312977099,1.5419847328244274,-0.435791015625,0.015869140625,-0.266357421875,0.3927
10.183206106870228,9.83206106870229,1.5267175572519085,-0.43994140625,0.014892578125,-0.265869140625,0.3944
10.091603053435115,9.908396946564885,1.3587786259541985,-0.439208984375,0.01513671875,-0.26806640625,0.39609999999999995
10.290076335877863,9.877862595419847,1.3893129770992367,-0.43603515625,0.0146484375,-0.26123046875,0.3978
10.320610687022901,10.045801526717558,1.297709923664122,-0.440673828125,0.012451171875,-0.27197265625,0.39949999999999997
10.183206106870228,10.290076335877863,1.3435114503816794,-0.442626953125,0.01318359375,-0.27294921875,0.4012
10.305343511450381,10.274809160305344,1.0381679389312977,-0.446533203125,0.009765625,-0.26904296875,0.4029
10.534351145038167,10.442748091603054,1.2671755725190839,-0.4453125,0.00927734375,-0.265869140625,0.40459999999999996
10.458015267175572,10.732824427480915,1.1908396946564885,-0.44189453125,0.013427734375,-0.280517578125,0.4063
10.335877862595419,10.778625954198473,1.1755725190839694,-0.43994140625,0.015625,-0.27197265625,0.408
10.335877862595419,10.916030534351146,1.083969465648855,-0.445068359375,0.01171875,-0.279541015625,0.40969999999999995
10.412213740458014,11.053435114503817,1.1908396946564885,-0.43896484375,0.01220703125,-0.275634765625,0.4114
10.51908396946565,11.282442748091603,1.0076335877862594,-0.4423828125,0.01171875,-0.274658203125,0.41309999999999997
10.473282442748092,11.404580152671755,1.1603053435114503,-0.447021484375,0.017333984375,-0.277587890625,0.4148
10.473282442748092,11.404580152671755,1.1450381679389312,-0.440185546875,0.012939453125,-0.271728515625,0.4165
10.458015267175572,11.404580152671755,1.1603053435114503,-0.44677734375,0.016357421875,-0.271728515625,0.41819999999999996
10.396946564885496,11.511450381679388,1.0534351145038168,-0.44091796875,0.015380859375,-0.26953125,0.4199
10.396946564885496,11.587786259541986,1.1908396946564885,-0.4443359375,0.01123046875,-0.269775390625,0.4216
10.488549618320612,11.587786259541986,1.1603053435114503,-0.44189453125,0.015380859375,-0.27099609375,0.42329999999999995
10.442748091603054,11.557251908396946,1.282442748091603,-0.43994140625,0.01171875,-0.287109375,0.425
10.65648854961832,11.587786259541986,1.0381679389312977,-0.443603515625,0.01416015625,-0.280517578125,0.42669999999999997
10.412213740458014,11.664122137404581,1.2366412213740459,-0.435546875,0.011962890625,-0.281494140625,0.4284
10.198473282442748,11.664122137404581,1.1450381679389312,-0.436767578125,0.01220703125,-0.27392578125,0.4301
10.412213740458014,11.648854961832061,1.099236641221374,-0.442138671875,0.01171875,-0.27490234375,0.43179999999999996
10.442748091603054,11.603053435114504,1.1908396946564885,-0.4375,0.01220703125,-0.271240234375,0.4335
10.442748091603054,11.740458015267176,1.251908396946565,-0.4375,0.017822265625,-0.27783203125,0.4352
10.091603053435115,11.755725190839694,0.9923664122137404,-0.437255859375,0.010986328125,-0.280517578125,0.43689999999999996
10.183206106870228,11.541984732824428,1.2213740458015268,-0.435791015625,0.00830078125,-0.27685546875,0.4386
10.13740458015267,11.48091603053435,1.1603053435114503,-0.43212890625,0.009033203125,-0.2763671875,0.44029999999999997
10.213740458015268,11.648854961832061,1.1908396946564885,-0.4404296875,0.014404296875,-0.282470703125,0.44199999999999995
10.229007633587786,11.557251908396946,1.0229007633587786,-0.434814453125,0.0078125,-0.279052734375,0.4437
10.198473282442748,11.557251908396946,1.2366412213740459,-0.436767578125,0.0185546875,-0.273193359375,0.44539999999999996
9.954198473282442,11.419847328244275,0.9007633587786259,-0.43359375,0.015625,-0.275390625,0.4471
10.045801526717558,11.297709923664122,1.1603053435114503,-0.43359375,0.015869140625,-0.26904296875,0.4488
10.213740458015268,11.129770992366412,1.1145038167938932,-0.429443359375,0.012939453125,-0.27587890625,0.45049999999999996
10.122137404580153,11.206106870229007,1.1603053435114503,-0.436279296875,0.01318359375,-0.281494140625,0.4522
9.908396946564885,11.083969465648854,0.9770992366412213,-0.433837890625,0.012939453125,-0.27734375,0.45389999999999997
10.122137404580153,11.129770992366412,1.1450381679389312,-0.436767578125,0.013671875,-0.277587890625,0.45559999999999995
9.954198473282442,11.038167938931299,1.099236641221374,-0.431640625,0.011474609375,-0.2685546875,0.4573
9.954198473282442,10.946564885496183,1.1908396946564885,-0.431640625,0.015380859375,-0.266357421875,0.45899999999999996
9.770992366412214,11.022900763358779,0.8091603053435115,-0.429931640625,0.010498046875,-0.266357421875,0.4607
9.648854961832061,10.65648854961832,0.9923664122137404,-0.42919921875,0.0068359375,-0.2734375,0.4624
9.801526717557252,10.625954198473282,0.9770992366412213,-0.428955078125,0.010009765625,-0.27587890625,0.46409999999999996
9.755725190839694,10.717557251908397,0.9007633587786259,-0.427001953125,0.0087890625,-0.2685546875,0.4658
9.694656488549619,10.610687022900763,0.7480916030534351,-0.43408203125,0.01416015625,-0.272216796875,0.46749999999999997
9.618320610687023,10.732824427480915,0.7633587786259542,-0.431396484375,0.010498046875,-0.275146484375,0.46919999999999995
9.450381679389313,10.549618320610687,0.732824427480916,-0.432373046875,0.010498046875,-0.27197265625,0.4709
9.618320610687023,10.320610687022901,0.7786259541984732,-0.431884765625,0.012939453125,-0.26611328125,0.47259999999999996
9.419847328244275,10.396946564885496,0.7022900763358778,-0.43115234375,0.013671875,-0.275146484375,0.4743
9.374045801526718,10.427480916030534,0.7480916030534351,-0.43017578125,0.0146484375,-0.27685546875,0.476
9.557251908396946,10.15267175572519,0.5343511450381679,-0.433349609375,0.01416015625,-0.274658203125,0.47769999999999996
9.435114503816793,10.106870229007633,0.5801526717557252,-0.43408203125,0.010498046875,-0.27294921875,0.4794
9.419847328244275,9.908396946564885,0.42748091603053434,-0.433837890625,0.01220703125,-0.27587890625,0.48109999999999997
9.389312977099237,10.030534351145038,0.5954198473282443,-0.433837890625,0.013671875,-0.279052734375,0.48279999999999995
9.236641221374045,10.030534351145038,0.33587786259541985,-0.433349609375,0.013427734375,-0.275390625,0.4845
9.267175572519085,9.954198473282442,0.3816793893129771,-0.43115234375,0.008056640625,-0.279296875,0.48619999999999997
9.053435114503817,9.83206106870229,0.24427480916030533,-0.431884765625,0.01318359375,-0.28076171875,0.4879
9.297709923664122,10.106870229007633,0.33587786259541985,-0.43212890625,0.013916015625,-0.275634765625,0.4896
9.221374045801527,9.786259541984732,0.12213740458015267,-0.429931640625,0.006591796875,-0.27490234375,0.49129999999999996
9.083969465648854,9.709923664122137,0.16793893129770993,-0.4287109375,0.006591796875,-0.267578125,0.493
8.900763358778626,9.98473282442748,-0.030534351145038167,-0.43017578125,0.007080078125,-0.2783203125,0.4947
8.916030534351146,9.908396946564885,-0.030534351145038167,-0.43017578125,0.007080078125,-0.27685546875,0.49639999999999995
8.793893129770993,9.877862595419847,-0.21374045801526717,-0.4296875,0.01318359375,-0.275146484375,0.4981
8.763358778625955,9.84732824427481,-0.1984732824427481,-0.427734375,0.012939453125,-0.283935546875,0.49979999999999997
9.145038167938932,9.83206106870229,-0.2748091603053435,-0.435546875,0.0078125,-0.287109375,0.5015
8.80916030534351,9.770992366412214,-0.04580152671755725,-0.43115234375,0.01318359375,-0.2841796875,0.5032
8.687022900763358,9.86259541984733,-0.1984732824427481,-0.431396484375,0.01318359375,-0.277587890625,0.5049
8.916030534351146,9.877862595419847,-0.3816793893129771,-0.432861328125,0.00927734375,-0.280517578125,0.5065999999999999
8.641221374045802,10.061068702290076,-0.48854961832061067,-0.43359375,0.00732421875,-0.278564453125,0.5083
8.702290076335878,9.954198473282442,-0.1984732824427481,-0.4404296875,0.015625,-0.277099609375,0.51
8.595419847328245,9.801526717557252,-0.4732824427480916,-0.434814453125,0.007080078125,-0.284912109375,0.5116999999999999
8.549618320610687,9.801526717557252,-0.4580152671755725,-0.436767578125,0.011962890625,-0.281982421875,0.5134
8.717557251908397,9.694656488549619,-0.21374045801526717,-0.4326171875,0.01318359375,-0.282470703125,0.5151
8.458015267175572,9.969465648854962,-0.33587786259541985,-0.43310546875,0.009033203125,-0.277587890625,0.5167999999999999
8.381679389312977,9.954198473282442,-0.3969465648854962,-0.429931640625,0.014404296875,-0.2841796875,0.5185
8.702290076335878,9.98473282442748,-0.3969465648854962,-0.432373046875,0.008544921875,-0.283203125,0.5202
8.549618320610687,9.877862595419847,-0.42748091603053434,-0.436279296875,0.0146484375,-0.275390625,0.5218999999999999
8.412213740458014,9.969465648854962,-0.3816793893129771,-0.4365234375,0.009765625,-0.284912109375,0.5236
8.51908396946565,10.01526717557252,-0.7022900763358778,-0.435546875,0.016845703125,-0.28125,0.5253
8.641221374045802,9.969465648854962,-0.7175572519083969,-0.43603515625,0.012939453125,-0.2880859375,0.527
8.564885496183207,10.0,-0.7022900763358778,-0.43505859375,0.013427734375,-0.279296875,0.5287
8.473282442748092,10.061068702290076,-0.7022900763358778,-0.437744140625,0.010498046875,-0.288330078125,0.5304
8.488549618320612,9.84732824427481,-0.8702290076335878,-0.434326171875,0.015380859375,-0.2783203125,0.5321
8.717557251908397,9.954198473282442,-0.7480916030534351,-0.431396484375,0.0087890625,-0.279541015625,0.5337999999999999
8.717557251908397,10.091603053435115,-0.7786259541984732,-0.435791015625,0.0087890625,-0.279052734375,0.5355
8.793893129770993,9.938931297709924,-0.9618320610687023,-0.43017578125,0.013427734375,-0.28125,0.5372
8.885496183206106,10.0,-0.9770992366412213,-0.433349609375,0.013427734375,-0.28662109375,0.5388999999999999
8.702290076335878,10.0,-0.9770992366412213,-0.43359375,0.00732421875,-0.28076171875,0.5406
8.748091603053435,9.954198473282442,-1.0381679389312977,-0.436767578125,0.01318359375,-0.28515625,0.5423
8.732824427480915,9.877862595419847,-1.1450381679389312,-0.43359375,0.010986328125,-0.2841796875,0.5439999999999999
8.67175572519084,10.061068702290076,-1.3435114503816794,-0.434814453125,0.0185546875,-0.2822265625,0.5457
8.793893129770993,10.061068702290076,-1.297709923664122,-0.43115234375,0.010009765625,-0.2763671875,0.5474
8.687022900763358,9.98473282442748,-1.3129770992366412,-0.43505859375,0.01025390625,-0.279296875,0.5490999999999999
8.916030534351146,9.923664122137405,-1.1755725190839694,-0.44140625,0.00927734375,-0.28662109375,0.5508
9.114503816793894,9.755725190839694,-1.2671755725190839,-0.42919921875,0.00537109375,-0.2763671875,0.5525
8.580152671755725,9.786259541984732,-1.3129770992366412,-0.43408203125,0.009765625,-0.279296875,0.5541999999999999
8.534351145038167,9.86259541984733,-1.4045801526717556,-0.4384765625,0.009765625,-0.283447265625,0.5559
8.961832061068701,9.709923664122137,-1.4961832061068703,-0.432373046875,0.010986328125,-0.279052734375,0.5576
8.763358778625955,9.526717557251908,-1.4809160305343512,-0.43505859375,0.015380859375,-0.28955078125,0.5593
8.717557251908397,9.557251908396946,-1.4351145038167938,-0.435302734375,0.010009765625,-0.28857421875,0.5609999999999999
9.038167938931299,9.511450381679388,-1.6946564885496183,-0.439697265625,0.0126953125,-0.275634765625,0.5627
8.82442748091603,9.587786259541986,-1.6641221374045803,-0.431640625,0.005126953125,-0.281982421875,0.5644
8.763358778625955,9.32824427480916,-1.7099236641221374,-0.4375,0.01123046875,-0.28759765625,0.5660999999999999
8.900763358778626,9.450381679389313,-1.633587786259542,-0.429931640625,0.0126953125,-0.283447265625,0.5678
9.099236641221374,9.16030534351145,-1.7099236641221374,-0.441650390625,0.008056640625,-0.278564453125,0.5695
9.068702290076336,9.251908396946565,-1.8778625954198473,-0.43994140625,0.013427734375,-0.27685546875,0.5711999999999999
8.80916030534351,9.17557251908397,-1.9694656488549618,-0.432373046875,0.01123046875,-0.280029296875,0.5729
8.916030534351146,9.114503816793894,-1.9541984732824427,-0.433349609375,0.00927734375,-0.286376953125,0.5746
9.145038167938932,9.068702290076336,-1.8015267175572518,-0.44189453125,0.01318359375,-0.284912109375,0.5762999999999999
8.870229007633588,8.992366412213741,-2.213740458015267,-0.43115234375,0.0087890625,-0.281005859375,0.578
9.007633587786259,8.916030534351146,-1.9236641221374047,-0.43017578125,0.011962890625,-0.2861328125,0.5797
9.17557251908397,8.625954198473282,-2.045801526717557,-0.4296875,0.007568359375,-0.283935546875,0.5813999999999999
8.961832061068701,8.65648854961832,-2.0,-0.430908203125,0.009033203125,-0.281005859375,0.5831
8.916030534351146,8.625954198473282,-1.9389312977099236,-0.4306640625,0.00634765625,-0.286865234375,0.5848
8.946564885496183,8.335877862595419,-2.198473282442748,-0.43359375,0.018798828125,-0.280029296875,0.5865
8.961832061068701,8.290076335877863,-2.2442748091603053,-0.43408203125,0.01220703125,-0.281005859375,0.5882
8.702290076335878,8.259541984732824,-2.16793893129771,-0.4306640625,0.009765625,-0.278076171875,0.5899
8.885496183206106,8.122137404580153,-2.366412213740458,-0.432861328125,0.01025390625,-0.283447265625,0.5916
9.358778625954198,7.938931297709924,-2.3053435114503817,-0.430908203125,0.00341796875,-0.27783203125,0.5932999999999999
8.946564885496183,7.893129770992366,-2.2595419847328246,-0.43310546875,0.004150390625,-0.28515625,0.595
9.16030534351145,7.66412213740458,-1.984732824427481,-0.43505859375,0.0087890625,-0.280517578125,0.5967
9.099236641221374,7.66412213740458,-2.366412213740458,-0.428466796875,0.01123046875,-0.279541015625,0.5983999999999999
9.038167938931299,7.419847328244275,-2.4732824427480917,-0.427734375,0.017578125,-0.281005859375,0.6001
8.977099236641221,7.282442748091603,-2.2595419847328246,-0.43310546875,0.004150390625,-0.27978515625,0.6018
9.083969465648854,7.236641221374046,-2.4427480916030535,-0.427978515625,0.01025390625,-0.285400390625,0.6034999999999999
9.038167938931299,7.022900763358779,-2.351145038167939,-0.4306640625,0.009521484375,-0.29296875,0.6052
8.885496183206106,6.961832061068702,-2.427480916030534,-0.427978515625,0.00439453125,-0.283203125,0.6069
8.961832061068701,6.961832061068702,-2.381679389312977,-0.427490234375,0.0107421875,-0.28662109375,0.6085999999999999
8.992366412213741,6.854961832061068,-2.4122137404580153,-0.430419921875,0.011962890625,-0.280029296875,0.6103
8.992366412213741,6.748091603053435,-2.4122137404580153,-0.43310546875,0.010986328125,-0.285888671875,0.612
8.763358778625955,6.564885496183206,-2.4427480916030535,-0.43115234375,0.013427734375,-0.283447265625,0.6136999999999999
8.65648854961832,6.641221374045801,-2.381679389312977,-0.431884765625,0.00439453125,-0.285400390625,0.6154
8.946564885496183,6.2748091603053435,-2.2442748091603053,-0.432861328125,0.0087890625,-0.279541015625,0.6171
8.717557251908397,6.427480916030534,-2.3206106870229006,-0.4345703125,0.00830078125,-0.28076171875,0.6188
8.610687022900763,6.213740458015267,-2.2595419847328246,-0.434326171875,0.00341796875,-0.287841796875,0.6204999999999999
8.763358778625955,6.061068702290076,-2.366412213740458,-0.4345703125,0.00537109375,-0.28564453125,0.6222
8.687022900763358,5.969465648854962,-2.2595419847328246,-0.43310546875,0.00732421875,-0.28759765625,0.6239
8.50381679389313,6.030534351145038,-2.3053435114503817,-0.43603515625,0.00732421875,-0.28271484375,0.6255999999999999
8.50381679389313,5.740458015267175,-2.3969465648854964,-0.43798828125,0.0078125,-0.27880859375,0.6273
8.335877862595419,5.938931297709924,-2.351145038167939,-0.431884765625,0.007568359375,-0.282470703125,0.629
8.473282442748092,5.893129770992366,-2.3206106870229006,-0.43115234375,0.009521484375,-0.285888671875,0.6306999999999999
8.427480916030534,5.587786259541985,-2.2290076335877864,-0.4296875,0.0068359375,-0.2880859375,0.6324
8.427480916030534,5.770992366412214,-2.2442748091603053,-0.431396484375,0.007080078125,-0.292236328125,0.6341
8.335877862595419,5.679389312977099,-2.4732824427480917,-0.428466796875,0.00537109375,-0.28759765625,0.6357999999999999
8.198473282442748,5.587786259541985,-2.183206106870229,-0.431884765625,0.006591796875,-0.28076171875,0.6375
8.244274809160306,5.511450381679389,-2.122137404580153,-0.43408203125,0.0068359375,-0.281982421875,0.6392
8.229007633587786,5.603053435114504,-2.2748091603053435,-0.430908203125,0.011474609375,-0.285888671875,0.6408999999999999
8.030534351145038,5.541984732824427,-2.2900763358778624,-0.42919921875,0.005859375,-0.2861328125,0.6426
8.244274809160306,5.511450381679389,-2.0916030534351147,-0.427490234375,0.00439453125,-0.28515625,0.6443
7.969465648854962,5.572519083969466,-2.427480916030534,-0.435791015625,0.00244140625,-0.278564453125,0.646
7.984732824427481,5.419847328244275,-2.1374045801526718,-0.434326171875,0.0068359375,-0.27734375,0.6476999999999999
8.091603053435115,5.480916030534351,-2.2900763358778624,-0.435791015625,0.0068359375,-0.276611328125,0.6494
7.862595419847328,5.465648854961832,-2.1374045801526718,-0.433349609375,0.010498046875,-0.28759765625,0.6511
8.0,5.404580152671755,-2.122137404580153,-0.431640625,0.004638671875,-0.278076171875,0.6527999999999999
7.984732824427481,5.587786259541985,-2.198473282442748,-0.427734375,0.0068359375,-0.2783203125,0.6545
7.984732824427481,5.419847328244275,-2.2442748091603053,-0.43505859375,0.011962890625,-0.284423828125,0.6562
7.862595419847328,5.32824427480916,-2.198473282442748,-0.426513671875,0.00439453125,-0.2822265625,0.6578999999999999
7.66412213740458,5.374045801526718,-2.2900763358778624,-0.433349609375,0.004638671875,-0.296875,0.6596
7.7251908396946565,5.3893129770992365,-2.183206106870229,-0.435791015625,0.0068359375,-0.286376953125,0.6613
7.679389312977099,5.251908396946565,-2.3969465648854964,-0.432861328125,0.00634765625,-0.28564453125,0.6629999999999999
7.893129770992366,5.282442748091603,-2.0610687022900764,-0.431640625,0.010009765625,-0.284912109375,0.6647
7.755725190839694,5.145038167938932,-2.2595419847328246,-0.432373046875,0.00927734375,-0.283447265625,0.6664
7.465648854961832,5.175572519083969,-2.198473282442748,-0.4326171875,0.009521484375,-0.284912109375,0.6680999999999999
7.603053435114504,5.282442748091603,-2.351145038167939,-0.4365234375,0.00341796875,-0.288330078125,0.6698
7.587786259541985,5.32824427480916,-2.3053435114503817,-0.435791015625,0.009765625,-0.2822265625,0.6715
7.694656488549619,5.297709923664122,-2.381679389312977,-0.43505859375,0.006103515625,-0.283935546875,0.6731999999999999
7.587786259541985,5.175572519083969,-2.4427480916030535,-0.431396484375,0.009765625,-0.278076171875,0.6748999999999999
7.557251908396947,5.129770992366412,-2.595419847328244,-0.437744140625,0.00634765625,-0.290283203125,0.6766
7.633587786259542,5.145038167938932,-2.2442748091603053,-0.4326171875,0.005615234375,-0.285888671875,0.6783
7.6183206106870225,4.977099236641221,-2.366412213740458,-0.430908203125,0.003173828125,-0.285888671875,0.6799999999999999
7.587786259541985,5.0534351145038165,-2.4885496183206106,-0.43017578125,0.01025390625,-0.280029296875,0.6817
7.4961832061068705,5.022900763358779,-2.366412213740458,-0.431396484375,0.00537109375,-0.282958984375,0.6834
7.282442748091603,4.9465648854961835,-2.4122137404580153,-0.4306640625,0.004150390625,-0.281494140625,0.6850999999999999
7.358778625954199,4.900763358778626,-2.595419847328244,-0.43115234375,0.005859375,-0.291748046875,0.6868
7.435114503816794,5.068702290076335,-2.4122137404580153,-0.431396484375,0.00732421875,-0.284423828125,0.6885
7.114503816793893,4.961832061068702,-2.381679389312977,-0.435791015625,0.005126953125,-0.286376953125,0.6901999999999999
7.267175572519084,4.778625954198473,-2.381679389312977,-0.4326171875,0.008056640625,-0.28759765625,0.6919
7.145038167938932,4.99236641221374,-2.7022900763358777,-0.43603515625,0.00830078125,-0.293212890625,0.6936
7.114503816793893,4.885496183206107,-2.519083969465649,-0.4326171875,0.0029296875,-0.2900390625,0.6952999999999999
6.977099236641221,4.824427480916031,-2.5801526717557253,-0.431640625,0.004150390625,-0.283935546875,0.697
7.022900763358779,4.870229007633588,-2.4885496183206106,-0.439453125,0.010009765625,-0.283935546875,0.6987
7.083969465648855,4.961832061068702,-2.7022900763358777,-0.435302734375,0.004638671875,-0.28564453125,0.7003999999999999
6.916030534351145,5.00763358778626,-2.564885496183206,-0.436767578125,0.00390625,-0.28515625,0.7021
6.99236641221374,4.900763358778626,-2.732824427480916,-0.437255859375,-0.000244140625,-0.288818359375,0.7038
6.748091603053435,4.916030534351145,-2.687022900763359,-0.438232421875,0.0029296875,-0.291748046875,0.7055
6.717557251908397,4.885496183206107,-2.5801526717557253,-0.434814453125,0.00537109375,-0.283935546875,0.7071999999999999
6.717557251908397,4.931297709923665,-2.6717557251908395,-0.4384765625,0.0078125,-0.282470703125,0.7089
6.625954198473282,4.854961832061068,-2.8396946564885495,-0.438232421875,0.000732421875,-0.281005859375,0.7106
6.595419847328245,4.916030534351145,-2.7022900763358777,-0.439208984375,0.00927734375,-0.280517578125,0.7122999999999999
6.656488549618321,5.022900763358779,-2.8244274809160306,-0.43310546875,0.00830078125,-0.286376953125,0.714
6.687022900763359,4.977099236641221,-2.8702290076335877,-0.4345703125,0.00537109375,-0.28125,0.7157
6.549618320610687,4.854961832061068,-2.900763358778626,-0.440673828125,0.00537109375,-0.286376953125,0.7173999999999999
6.488549618320611,4.885496183206107,-2.854961832061069,-0.4345703125,0.003173828125,-0.28125,0.7191
6.305343511450381,4.900763358778626,-3.099236641221374,-0.439453125,0.004150390625,-0.287109375,0.7208
6.33587786259542,4.793893129770993,-2.8396946564885495,-0.439208984375,0.001953125,-0.28759765625,0.7224999999999999
6.152671755725191,4.687022900763359,-2.9618320610687023,-0.439697265625,0.00634765625,-0.2841796875,0.7242
6.122137404580153,4.717557251908397,-2.9770992366412212,-0.436279296875,0.00732421875,-0.28271484375,0.7259
6.137404580152672,4.793893129770993,-3.0229007633587788,-0.435546875,0.005615234375,-0.284912109375,0.7275999999999999
6.122137404580153,4.717557251908397,-3.1908396946564888,-0.427978515625,-0.001953125,-0.287109375,0.7293
5.786259541984733,4.641221374045801,-3.236641221374046,-0.4345703125,0.006591796875,-0.283935546875,0.731
5.770992366412214,4.67175572519084,-3.0381679389312977,-0.43603515625,0.00341796875,-0.286865234375,0.7326999999999999
5.984732824427481,4.488549618320611,-3.1908396946564888,-0.437255859375,0.00244140625,-0.284423828125,0.7343999999999999
5.648854961832061,4.442748091603053,-3.2213740458015265,-0.432373046875,0.0,-0.2822265625,0.7361
5.648854961832061,4.458015267175573,-3.1908396946564888,-0.432861328125,0.00390625,-0.285888671875,0.7378
5.4961832061068705,4.366412213740458,-3.3740458015267176,-0.431640625,0.005126953125,-0.28515625,0.7394999999999999
5.343511450381679,4.442748091603053,-3.450381679389313,-0.431396484375,0.00634765625,-0.2802734375,0.7412
5.297709923664122,4.534351145038168,-3.312977099236641,-0.433837890625,0.00634765625,-0.286376953125,0.7429
5.175572519083969,4.2748091603053435,-3.3435114503816794,-0.430419921875,-0.000244140625,-0.288818359375,0.7445999999999999
5.114503816793893,4.152671755725191,-3.2061068702290076,-0.435791015625,0.005615234375,-0.284423828125,0.7463
5.068702290076335,4.152671755725191,-3.3740458015267176,-0.43359375,0.004150390625,-0.28662109375,0.748
4.961832061068702,4.015267175572519,-3.1297709923664123,-0.430908203125,0.00244140625,-0.28076171875,0.7496999999999999
4.748091603053435,4.106870229007634,-3.4198473282442747,-0.430908203125,-0.00146484375,-0.283935546875,0.7514
4.687022900763359,4.106870229007634,-3.5114503816793894,-0.435302734375,0.003173828125,-0.2822265625,0.7531
4.458015267175573,3.9236641221374047,-3.3740458015267176,-0.4326171875,0.00732421875,-0.28857421875,0.7547999999999999
4.33587786259542,3.9083969465648853,-3.2061068702290076,-0.4345703125,0.00634765625,-0.279296875,0.7565
4.229007633587786,3.7709923664122136,-3.3893129770992365,-0.436279296875,0.001708984375,-0.284423828125,0.7582
4.320610687022901,3.7404580152671754,-3.3893129770992365,-0.431884765625,0.006103515625,-0.2861328125,0.7598999999999999
4.091603053435114,3.618320610687023,-3.1908396946564888,-0.428955078125,0.00390625,-0.29296875,0.7615999999999999
3.7251908396946565,3.633587786259542,-3.450381679389313,-0.432373046875,0.004150390625,-0.28466796875,0.7633
3.5419847328244276,3.49618320610687,-3.5114503816793894,-0.43603515625,0.001220703125,-0.288818359375,0.7649999999999999
3.7404580152671754,3.480916030534351,-3.3740458015267176,-0.432373046875,-0.00048828125,-0.286865234375,0.7666999999999999
3.3587786259541983,3.5877862595419847,-3.3740458015267176,-0.43701171875,0.00732421875,-0.281982421875,0.7684
3.1908396946564888,3.4656488549618323,-3.312977099236641,-0.431640625,0.007080078125,-0.28955078125,0.7701
3.2977099236641223,3.3740458015267176,-3.480916030534351,-0.436279296875,-0.002685546875,-0.284912109375,0.7717999999999999
3.1755725190839694,3.404580152671756,-3.3740458015267176,-0.43701171875,-0.001953125,-0.28564453125,0.7735
3.2213740458015265,3.450381679389313,-3.5114503816793894,-0.435791015625,0.00048828125,-0.283935546875,0.7752
2.8702290076335877,3.3435114503816794,-3.4656488549618323,-0.4375,0.0009765625,-0.2890625,0.7768999999999999
2.687022900763359,3.236641221374046,-3.3435114503816794,-0.436279296875,0.00537109375,-0.280517578125,0.7786
2.6717557251908395,3.3587786259541983,-3.312977099236641,-0.43701171875,0.0,-0.279296875,0.7803
2.6412213740458017,3.3282442748091605,-3.480916030534351,-0.43212890625,0.005126953125,-0.2919921875,0.7819999999999999
2.6564885496183206,3.2977099236641223,-3.5572519083969465,-0.43359375,0.0048828125,-0.2939453125,0.7837
2.687022900763359,3.1603053435114505,-3.6030534351145036,-0.440185546875,0.0068359375,-0.287841796875,0.7854
2.549618320610687,3.282442748091603,-3.618320610687023,-0.433349609375,0.001220703125,-0.2880859375,0.7870999999999999
2.183206106870229,3.3893129770992365,-3.66412213740458,-0.433837890625,0.0029296875,-0.2802734375,0.7888
2.1526717557251906,3.3740458015267176,-3.633587786259542,-0.431640625,0.000732421875,-0.280517578125,0.7905
2.16793893129771,3.3282442748091605,-3.648854961832061,-0.441162109375,0.00146484375,-0.291748046875,0.7921999999999999
2.122137404580153,3.236641221374046,-3.66412213740458,-0.4326171875,0.003662109375,-0.28759765625,0.7938999999999999
2.045801526717557,3.3587786259541983,-3.877862595419847,-0.435791015625,0.001953125,-0.280029296875,0.7956
2.030534351145038,3.450381679389313,-3.801526717557252,-0.43408203125,-0.003662109375,-0.28564453125,0.7973
1.786259541984733,3.5114503816793894,-3.801526717557252,-0.43896484375,0.002685546875,-0.2890625,0.7989999999999999
1.9541984732824427,3.49618320610687,-3.648854961832061,-0.439697265625,0.006103515625,-0.296630859375,0.8007
1.9236641221374047,3.5114503816793894,-4.0458015267175576,-0.43994140625,0.006103515625,-0.292236328125,0.8024
1.984732824427481,3.5572519083969465,-3.984732824427481,-0.435791015625,0.0078125,-0.291015625,0.8040999999999999
1.8778625954198473,3.5267175572519083,-3.9083969465648853,-0.434814453125,0.005615234375,-0.288330078125,0.8058
1.7404580152671756,3.5267175572519083,-4.076335877862595,-0.43505859375,0.00341796875,-0.28564453125,0.8075
1.6641221374045803,3.5572519083969465,-4.076335877862595,-0.438720703125,0.00341796875,-0.286865234375,0.8091999999999999
1.6793893129770991,3.6946564885496183,-3.9236641221374047,-0.435302734375,0.000244140625,-0.28466796875,0.8109
1.5419847328244274,3.801526717557252,-4.183206106870229,-0.436767578125,-0.00146484375,-0.28759765625,0.8126
1.633587786259542,3.7709923664122136,-4.030534351145038,-0.435546875,0.004150390625,-0.2822265625,0.8142999999999999
1.4809160305343512,3.7099236641221376,-4.1679389312977095,-0.44189453125,0.004150390625,-0.28564453125,0.816
1.5572519083969465,3.7709923664122136,-4.122137404580153,-0.43603515625,0.001953125,-0.288818359375,0.8177
1.5114503816793894,3.83206106870229,-4.1679389312977095,-0.439453125,0.005615234375,-0.283447265625,0.8193999999999999
1.4961832061068703,3.801526717557252,-4.0458015267175576,-0.44287109375,0.000732421875,-0.275634765625,0.8210999999999999
1.5267175572519085,3.7709923664122136,-4.106870229007634,-0.438720703125,0.001708984375,-0.279052734375,0.8228
1.3587786259541985,3.801526717557252,-4.0458015267175576,-0.43896484375,0.00537109375,-0.294921875,0.8244999999999999
1.1450381679389312,3.9236641221374047,-4.122137404580153,-0.44091796875,0.002685546875,-0.28466796875,0.8261999999999999
1.3282442748091603,3.8931297709923665,-4.0458015267175576,-0.43701171875,0.004150390625,-0.282958984375,0.8279
1.3893129770992367,3.8931297709923665,-4.091603053435114,-0.43408203125,0.00439453125,-0.28369140625,0.8296
1.1908396946564885,3.9236641221374047,-3.9236641221374047,-0.443603515625,0.000732421875,-0.291748046875,0.8312999999999999
1.1603053435114503,3.9389312977099236,-3.9389312977099236,-0.43603515625,0.001708984375,-0.280517578125,0.833
1.3282442748091603,3.7404580152671754,-3.969465648854962,-0.4345703125,0.004150390625,-0.2783203125,0.8347
1.2213740458015268,4.0,-3.7099236641221376,-0.43798828125,0.005126953125,-0.287109375,0.8363999999999999
1.2366412213740459,3.9389312977099236,-3.816793893129771,-0.436279296875,0.000732421875,-0.281005859375,0.8381
1.2061068702290076,4.091603053435114,-3.786259541984733,-0.432861328125,0.00341796875,-0.287353515625,0.8398
1.1908396946564885,4.198473282442748,-3.6030534351145036,-0.4365234375,0.004150390625,-0.29345703125,0.8414999999999999
1.2061068702290076,4.122137404580153,-3.7099236641221376,-0.43798828125,0.00439453125,-0.28564453125,0.8432
1.282442748091603,4.198473282442748,-3.6030534351145036,-0.439453125,0.00390625,-0.28857421875,0.8449
1.1603053435114503,4.320610687022901,-3.5877862595419847,-0.4404296875,0.008056640625,-0.291748046875,0.8465999999999999
1.1603053435114503,4.412213740458015,-3.618320610687023,-0.442626953125,0.004638671875,-0.293701171875,0.8482999999999999
1.2213740458015268,4.351145038167939,-3.3740458015267176,-0.434814453125,0.00341796875,-0.298095703125,0.85
1.251908396946565,4.2748091603053435,-3.282442748091603,-0.4326171875,0.00341796875,-0.29248046875,0.8516999999999999
1.0381679389312977,4.351145038167939,-3.3282442748091605,-0.435546875,0.00390625,-0.28857421875,0.8533999999999999
1.083969465648855,4.320610687022901,-3.2519083969465647,-0.43603515625,0.001708984375,-0.2802734375,0.8551
1.2366412213740459,4.366412213740458,-3.0229007633587788,-0.43603515625,0.00390625,-0.2763671875,0.8568
1.0229007633587786,4.259541984732825,-2.9160305343511452,-0.43994140625,0.00244140625,-0.2900390625,0.8584999999999999
0.9770992366412213,4.412213740458015,-2.7938931297709924,-0.438720703125,0.005615234375,-0.285400390625,0.8602
1.0534351145038168,4.595419847328245,-2.8396946564885495,-0.44189453125,0.00048828125,-0.286865234375,0.8619
1.1603053435114503,4.5038167938931295,-2.8244274809160306,-0.436767578125,0.00390625,-0.283203125,0.8635999999999999
0.916030534351145,4.580152671755725,-2.732824427480916,-0.43701171875,-0.00390625,-0.28369140625,0.8653
0.7786259541984732,4.641221374045801,-2.6106870229007635,-0.4423828125,0.00244140625,-0.28662109375,0.867
1.099236641221374,4.519083969465649,-2.4580152671755724,-0.439208984375,0.000244140625,-0.283203125,0.8686999999999999
0.8854961832061069,4.519083969465649,-2.5343511450381677,-0.439453125,0.004150390625,-0.2890625,0.8704
0.8854961832061069,4.67175572519084,-2.4732824427480917,-0.439208984375,0.0,-0.289306640625,0.8721
0.8091603053435115,4.824427480916031,-2.3969465648854964,-0.442138671875,0.00048828125,-0.2919921875,0.8737999999999999
0.916030534351145,4.793893129770993,-2.3206106870229006,-0.439208984375,0.001708984375,-0.28857421875,0.8755
0.9770992366412213,4.809160305343512,-2.2900763358778624,-0.4423828125,-0.000244140625,-0.282470703125,0.8772
0.7480916030534351,4.931297709923665,-2.2290076335877864,-0.440673828125,-0.003173828125,-0.286865234375,0.8788999999999999
0.7633587786259542,4.977099236641221,-2.0763358778625953,-0.4404296875,-0.00439453125,-0.27880859375,0.8805999999999999
0.6564885496183206,5.068702290076335,-2.045801526717557,-0.434814453125,0.0009765625,-0.29296875,0.8823
0.6259541984732825,4.961832061068702,-2.015267175572519,-0.433349609375,0.006591796875,-0.290283203125,0.8839999999999999
0.7480916030534351,5.1603053435114505,-1.816793893129771,-0.4345703125,-0.000244140625,-0.29248046875,0.8856999999999999
0.5343511450381679,5.129770992366412,-1.6641221374045803,-0.433837890625,-0.003662109375,-0.289794921875,0.8874
0.5038167938931297,4.99236641221374,-1.6030534351145038,-0.430908203125,0.001953125,-0.285400390625,0.8891
0.44274809160305345,5.145038167938932,-1.6488549618320612,-0.432861328125,-0.0029296875,-0.285888671875,0.8907999999999999
0.366412213740458,5.1603053435114505,-1.5267175572519085,-0.43408203125,0.001708984375,-0.28466796875,0.8925
0.42748091603053434,5.175572519083969,-1.4045801526717556,-0.4365234375,0.003173828125,-0.29248046875,0.8942
0.32061068702290074,5.267175572519084,-1.4351145038167938,-0.429931640625,0.005126953125,-0.300537109375,0.8958999999999999
0.0916030534351145,5.312977099236641,-1.1145038167938932,-0.4326171875,-0.002197265625,-0.28857421875,0.8976
-0.015267175572519083,5.343511450381679,-1.251908396946565,-0.429931640625,-0.000732421875,-0.288330078125,0.8993
0.061068702290076333,5.343511450381679,-1.1297709923664123,-0.431396484375,0.0009765625,-0.2939453125,0.9009999999999999
0.015267175572519083,5.312977099236641,-1.1145038167938932,-0.43115234375,0.002197265625,-0.295166015625,0.9027
-0.12213740458015267,5.557251908396947,-1.0229007633587786,-0.432373046875,0.00341796875,-0.296875,0.9044
-0.22900763358778625,5.480916030534351,-1.0229007633587786,-0.435791015625,0.000732421875,-0.28955078125,0.9060999999999999
-0.2748091603053435,5.557251908396947,-0.7175572519083969,-0.432373046875,0.001220703125,-0.2880859375,0.9077999999999999
-0.33587786259541985,5.587786259541985,-0.7633587786259542,-0.4326171875,0.004150390625,-0.29345703125,0.9095
-0.4732824427480916,5.679389312977099,-0.7022900763358778,-0.430419921875,0.003173828125,-0.290771484375,0.9111999999999999
-0.5190839694656488,5.419847328244275,-0.6412213740458015,-0.431884765625,0.0009765625,-0.2822265625,0.9128999999999999
-0.6412213740458015,5.603053435114504,-0.5343511450381679,-0.435546875,0.003662109375,-0.28662109375,0.9146
-0.5801526717557252,5.679389312977099,-0.4580152671755725,-0.42822265625,0.0068359375,-0.286865234375,0.9163
-0.7175572519083969,5.557251908396947,-0.3511450381679389,-0.429443359375,0.0029296875,-0.28662109375,0.9179999999999999
-1.0381679389312977,5.526717557251908,-0.5038167938931297,-0.4296875,-0.004150390625,-0.286376953125,0.9197
-1.0076335877862594,5.633587786259542,-0.4732824427480916,-0.427734375,0.00244140625,-0.291259765625,0.9214
-1.1603053435114503,5.6183206106870225,-0.4580152671755725,-0.431396484375,0.005859375,-0.286865234375,0.9230999999999999
-1.282442748091603,5.572519083969466,-0.24427480916030533,-0.428466796875,-0.0029296875,-0.291748046875,0.9248
-1.297709923664122,5.679389312977099,-0.22900763358778625,-0.429931640625,-0.003173828125,-0.289794921875,0.9265
-1.450381679389313,5.572519083969466,-0.2595419847328244,-0.428955078125,0.0,-0.286865234375,0.9281999999999999
-1.4351145038167938,5.480916030534351,-0.16793893129770993,-0.427734375,-0.00048828125,-0.287353515625,0.9299
-1.4351145038167938,5.633587786259542,-0.04580152671755725,-0.43115234375,-0.001953125,-0.285888671875,0.9316
-1.5419847328244274,5.7251908396946565,-0.13740458015267176,-0.427734375,0.005615234375,-0.290283203125,0.9332999999999999
-1.6946564885496183,5.709923664122138,-0.030534351145038167,-0.433349609375,0.00927734375,-0.28515625,0.9349999999999999
-1.6793893129770991,5.801526717557252,-0.030534351145038167,-0.43994140625,0.00146484375,-0.29052734375,0.9367
-1.7099236641221374,5.816793893129771,0.0916030534351145,-0.4287109375,0.00390625,-0.295654296875,0.9383999999999999
-1.9236641221374047,6.030534351145038,-0.030534351145038167,-0.430908203125,0.002685546875,-0.29248046875,0.9400999999999999
-1.8625954198473282,5.923664122137405,-0.04580152671755725,-0.431396484375,0.0087890625,-0.296875,0.9418
-1.8473282442748091,5.877862595419847,0.030534351145038167,-0.42919921875,0.003173828125,-0.281005859375,0.9434999999999999
-1.9389312977099236,6.015267175572519,0.07633587786259542,-0.432861328125,0.00244140625,-0.289306640625,0.9451999999999999
-1.9236641221374047,5.984732824427481,0.0,-0.43505859375,0.002685546875,-0.28759765625,0.9469
-1.9541984732824427,5.877862595419847,0.015267175572519083,-0.429443359375,0.003173828125,-0.29296875,0.9486
-2.045801526717557,5.969465648854962,-0.13740458015267176,-0.4306640625,0.005859375,-0.286865234375,0.9502999999999999
-2.122137404580153,6.030534351145038,-0.04580152671755725,-0.43798828125,0.005126953125,-0.2939453125,0.952
-1.984732824427481,6.106870229007634,-0.16793893129770993,-0.43994140625,0.005859375,-0.29150390625,0.9537
-2.2290076335877864,6.290076335877862,-0.061068702290076333,-0.43408203125,0.0009765625,-0.291259765625,0.9553999999999999
-2.015267175572519,6.259541984732825,-0.22900763358778625,-0.43896484375,0.007080078125,-0.28515625,0.9571
-2.030534351145038,6.366412213740458,-0.3511450381679389,-0.435791015625,0.00244140625,-0.292724609375,0.9588
-2.1526717557251906,6.442748091603053,-0.2595419847328244,-0.43603515625,0.007568359375,-0.291259765625,0.9604999999999999
-2.2748091603053435,6.5038167938931295,-0.2595419847328244,-0.432373046875,0.00634765625,-0.2861328125,0.9621999999999999
-2.0763358778625953,6.702290076335878,-0.3053435114503817,-0.43017578125,0.005126953125,-0.294677734375,0.9639
-2.1526717557251906,6.67175572519084,-0.4122137404580153,-0.435546875,-0.00048828125,-0.293212890625,0.9655999999999999
-2.0610687022900764,6.702290076335878,-0.4732824427480916,-0.436279296875,0.003173828125,-0.291748046875,0.9672999999999999
-2.1374045801526718,6.778625954198473,-0.42748091603053434,-0.435302734375,0.00830078125,-0.29833984375,0.969
-2.0916030534351147,6.809160305343512,-0.6717557251908397,-0.43408203125,-0.001220703125,-0.296875,0.9706999999999999
-1.9236641221374047,6.702290076335878,-0.6259541984732825,-0.432373046875,-0.001220703125,-0.29443359375,0.9723999999999999
-1.8625954198473282,6.656488549618321,-0.6412213740458015,-0.43115234375,0.00439453125,-0.300537109375,0.9741
-1.9083969465648856,6.687022900763359,-0.6259541984732825,-0.431884765625,0.004638671875,-0.2958984375,0.9758
-2.1068702290076335,6.702290076335878,-0.7633587786259542,-0.439453125,0.001953125,-0.29150390625,0.9774999999999999
-2.213740458015267,6.67175572519084,-0.7022900763358778,-0.435302734375,-0.0009765625,-0.291748046875,0.9792
-2.183206106870229,6.5038167938931295,-0.5190839694656488,-0.433837890625,0.00341796875,-0.292236328125,0.9809
-2.2595419847328246,6.641221374045801,-0.6717557251908397,-0.43359375,0.003173828125,-0.296875,0.9825999999999999
-2.1374045801526718,6.519083969465649,-0.8244274809160306,-0.43310546875,0.004638671875,-0.297119140625,0.9843
-2.198473282442748,6.519083969465649,-0.5954198473282443,-0.4326171875,0.004150390625,-0.295166015625,0.986
-2.427480916030534,6.259541984732825,-0.7786259541984732,-0.433837890625,0.00390625,-0.302490234375,0.9876999999999999
-2.4580152671755724,6.3816793893129775,-0.3816793893129771,-0.43359375,0.002197265625,-0.299560546875,0.9894
-2.427480916030534,6.244274809160306,-0.5343511450381679,-0.429931640625,-0.000244140625,-0.292236328125,0.9911
-2.687022900763359,6.106870229007634,-0.3816793893129771,-0.431884765625,0.0,-0.298095703125,0.9927999999999999
-2.8244274809160306,6.137404580152672,-0.48854961832061067,-0.42724609375,0.002685546875,-0.28857421875,0.9944999999999999
-2.6717557251908395,6.106870229007634,-0.32061068702290074,-0.43212890625,0.000732421875,-0.294189453125,0.9962
-2.687022900763359,5.9541984732824424,-0.549618320610687,-0.43017578125,0.001220703125,-0.2880859375,0.9978999999999999
-2.7786259541984735,5.908396946564886,-0.2595419847328244,-0.43505859375,0.004150390625,-0.2919921875,0.9995999999999999
-2.946564885496183,5.801526717557252,-0.1984732824427481,-0.429443359375,0.001708984375,-0.290283203125,1.0012999999999999
-3.114503816793893,5.908396946564886,-0.2900763358778626,-0.431884765625,0.001220703125,-0.299560546875,1.003
-3.2061068702290076,5.877862595419847,-0.183206106870229,-0.427734375,0.0029296875,-0.292724609375,1.0047
-3.2519083969465647,5.877862595419847,-0.04580152671755725,-0.43212890625,0.004638671875,-0.296142578125,1.0064
-3.3740458015267176,5.770992366412214,-0.061068702290076333,-0.428955078125,0.00341796875,-0.29345703125,1.0081
-3.480916030534351,5.572519083969466,0.0,-0.431396484375,0.0029296875,-0.296875,1.0098
-3.801526717557252,5.435114503816794,0.030534351145038167,-0.427734375,0.0048828125,-0.29833984375,1.0114999999999998
-3.7251908396946565,5.4961832061068705,0.21374045801526717,-0.42724609375,0.00439453125,-0.301025390625,1.0131999999999999
-4.0,5.709923664122138,0.12213740458015267,-0.4287109375,-0.00146484375,-0.291015625,1.0149
-4.091603053435114,5.404580152671755,0.3969465648854962,-0.43212890625,0.006103515625,-0.294677734375,1.0166
-3.877862595419847,5.32824427480916,0.21374045801526717,-0.431640625,0.0,-0.293212890625,1.0183
-4.030534351145038,5.297709923664122,0.4122137404580153,-0.427001953125,0.007568359375,-0.29638671875,1.02
-4.1679389312977095,5.190839694656488,0.42748091603053434,-0.42919921875,0.006591796875,-0.30126953125,1.0217
-4.137404580152672,5.267175572519084,0.366412213740458,-0.4267578125,0.005859375,-0.294189453125,1.0233999999999999
-4.442748091603053,5.282442748091603,0.5801526717557252,-0.43017578125,0.00048828125,-0.296630859375,1.0251
-4.3816793893129775,5.358778625954199,0.549618320610687,-0.426025390625,0.0048828125,-0.29443359375,1.0268
-4.595419847328245,5.312977099236641,0.2900763358778626,-0.422607421875,0.004150390625,-0.29345703125,1.0285
-4.6106870229007635,5.083969465648855,0.6259541984732825,-0.427978515625,0.001708984375,-0.294921875,1.0302
-4.549618320610687,5.282442748091603,0.5038167938931297,-0.426513671875,0.0009765625,-0.30517578125,1.0319
-4.534351145038168,5.419847328244275,0.7175572519083969,-0.43408203125,0.01123046875,-0.298095703125,1.0335999999999999
-4.748091603053435,5.282442748091603,0.6870229007633588,-0.428466796875,0.0029296875,-0.301513671875,1.0352999999999999
-4.717557251908397,5.374045801526718,0.8396946564885496,-0.42626953125,0.00927734375,-0.294921875,1.037
-4.900763358778626,5.511450381679389,0.7022900763358778,-0.42333984375,0.00439453125,-0.294677734375,1.0387
-4.6106870229007635,5.236641221374046,0.8854961832061069,-0.426025390625,0.003662109375,-0.293701171875,1.0404
-4.763358778625954,5.480916030534351,0.6717557251908397,-0.42431640625,0.0078125,-0.29736328125,1.0421
-4.885496183206107,5.450381679389313,0.7938931297709924,-0.4287109375,0.003662109375,-0.3056640625,1.0437999999999998
-4.916030534351145,5.435114503816794,0.8549618320610687,-0.427734375,0.00537109375,-0.306640625,1.0454999999999999
-5.129770992366412,5.374045801526718,1.0229007633587786,-0.429931640625,0.00537109375,-0.29931640625,1.0472
-4.732824427480916,5.450381679389313,0.9770992366412213,-0.426025390625,0.00537109375,-0.2958984375,1.0489
-5.038167938931298,5.648854961832061,1.1145038167938932,-0.431884765625,0.00439453125,-0.298095703125,1.0506
-5.083969465648855,5.694656488549619,1.0076335877862594,-0.426513671875,0.00244140625,-0.29443359375,1.0523
-5.068702290076335,5.7251908396946565,1.2061068702290076,-0.431884765625,0.01123046875,-0.2978515625,1.054
-5.267175572519084,5.862595419847328,1.2061068702290076,-0.427978515625,0.002197265625,-0.29638671875,1.0556999999999999
-5.251908396946565,5.9541984732824424,1.1755725190839694,-0.427490234375,0.00634765625,-0.291015625,1.0574
-5.297709923664122,6.0458015267175576,1.251908396946565,-0.42919921875,0.012939453125,-0.298828125,1.0591
-5.251908396946565,6.015267175572519,1.282442748091603,-0.432861328125,0.0068359375,-0.29541015625,1.0608
-5.190839694656488,6.091603053435114,1.1145038167938932,-0.427490234375,0.0078125,-0.295654296875,1.0625
-5.145038167938932,6.122137404580153,1.2671755725190839,-0.42919921875,0.010498046875,-0.304443359375,1.0642
-5.206106870229007,6.137404580152672,1.3282442748091603,-0.427001953125,0.009033203125,-0.2939453125,1.0658999999999998
-5.175572519083969,6.351145038167939,1.450381679389313,-0.427734375,0.01025390625,-0.3037109375,1.0675999999999999
-5.251908396946565,6.473282442748092,1.3282442748091603,-0.426025390625,0.009521484375,-0.302978515625,1.0693
-5.175572519083969,6.473282442748092,1.4198473282442747,-0.425048828125,0.01416015625,-0.307861328125,1.071
-5.190839694656488,6.549618320610687,1.3587786259541985,-0.425048828125,0.01025390625,-0.2919921875,1.0727
-5.221374045801527,6.549618320610687,1.465648854961832,-0.425048828125,0.01318359375,-0.299072265625,1.0744
-5.267175572519084,6.580152671755725,1.4351145038167938,-0.420166015625,0.009521484375,-0.301025390625,1.0760999999999998
-5.206106870229007,6.687022900763359,1.5114503816793894,-0.4267578125,0.013427734375,-0.298583984375,1.0777999999999999
-5.221374045801527,6.473282442748092,1.4351145038167938,-0.42626953125,0.01220703125,-0.300048828125,1.0795
-5.0534351145038165,6.717557251908397,1.5572519083969465,-0.427490234375,0.009521484375,-0.297607421875,1.0812
-5.068702290076335,6.6106870229007635,1.465648854961832,-0.426025390625,0.007568359375,-0.300048828125,1.0829
-5.068702290076335,6.656488549618321,1.5877862595419847,-0.425048828125,0.011474609375,-0.299560546875,1.0846
-4.748091603053435,6.702290076335878,1.4809160305343512,-0.423583984375,0.0126953125,-0.290283203125,1.0863
-4.916030534351145,6.534351145038168,1.5877862595419847,-0.423828125,0.011474609375,-0.296142578125,1.0879999999999999
-4.8396946564885495,6.687022900763359,1.5725190839694656,-0.424072265625,0.009033203125,-0.295166015625,1.0897
-4.824427480916031,6.763358778625954,1.6641221374045803,-0.424072265625,0.0107421875,-0.2998046875,1.0914
-4.687022900763359,6.854961832061068,1.5114503816793894,-0.42822265625,0.01416015625,-0.3046875,1.0931
-4.641221374045801,6.809160305343512,1.450381679389313,-0.421630859375,0.0087890625,-0.299560546875,1.0948
-4.625954198473282,6.702290076335878,1.6641221374045803,-0.422607421875,0.01123046875,-0.306640625,1.0965
-4.6106870229007635,6.793893129770993,1.7557251908396947,-0.429931640625,0.014404296875,-0.30126953125,1.0981999999999998
-4.748091603053435,6.854961832061068,1.7404580152671756,-0.427734375,0.01025390625,-0.297119140625,1.0998999999999999
-4.473282442748092,6.793893129770993,1.83206106870229,-0.43017578125,0.0078125,-0.3046875,1.1016
-4.427480916030534,6.854961832061068,1.8625954198473282,-0.427978515625,0.0078125,-0.298583984375,1.1033
-4.3816793893129775,6.748091603053435,1.7709923664122138,-0.43017578125,0.006103515625,-0.294921875,1.105
-4.412213740458015,6.809160305343512,2.0610687022900764,-0.42578125,0.01171875,-0.305419921875,1.1067
-4.2748091603053435,6.8396946564885495,2.183206106870229,-0.428466796875,0.009765625,-0.300048828125,1.1083999999999998
-4.351145038167939,6.854961832061068,1.984732824427481,-0.426513671875,0.0068359375,-0.30859375,1.1100999999999999
-4.6106870229007635,6.870229007633588,2.1068702290076335,-0.4287109375,0.005615234375,-0.2978515625,1.1118
-4.488549618320611,6.778625954198473,2.122137404580153,-0.42529296875,-0.000732421875,-0.294677734375,1.1135
-4.442748091603053,6.641221374045801,2.2748091603053435,-0.426513671875,0.008544921875,-0.30322265625,1.1152
-4.458015267175573,6.854961832061068,2.2290076335877864,-0.42333984375,0.008544921875,-0.300537109375,1.1169
-4.717557251908397,6.793893129770993,2.5343511450381677,-0.42529296875,0.00830078125,-0.30078125,1.1186
-4.595419847328245,6.564885496183206,2.4427480916030535,-0.422119140625,0.010498046875,-0.3056640625,1.1202999999999999
-4.656488549618321,6.687022900763359,2.4122137404580153,-0.4267578125,0.01318359375,-0.3046875,1.1219999999999999
-4.564885496183206,6.625954198473282,2.6259541984732824,-0.426513671875,0.005859375,-0.304443359375,1.1237
-4.564885496183206,6.396946564885496,2.6564885496183206,-0.42578125,0.002685546875,-0.3056640625,1.1254
-4.641221374045801,6.442748091603053,2.763358778625954,-0.424072265625,0.0126953125,-0.2998046875,1.1271
-4.809160305343512,6.5038167938931295,2.854961832061069,-0.42822265625,0.01123046875,-0.299072265625,1.1288
-4.687022900763359,6.549618320610687,2.885496183206107,-0.42431640625,0.01220703125,-0.301513671875,1.1304999999999998
-4.809160305343512,6.625954198473282,2.885496183206107,-0.42333984375,0.01220703125,-0.30029296875,1.1321999999999999
-4.778625954198473,6.305343511450381,2.9923664122137406,-0.429443359375,0.0107421875,-0.305419921875,1.1339
-4.793893129770993,6.320610687022901,2.9770992366412212,-0.433349609375,0.01025390625,-0.302001953125,1.1356
-5.00763358778626,6.137404580152672,3.1603053435114505,-0.4248046875,0.011474609375,-0.31201171875,1.1373
-4.793893129770993,6.229007633587786,3.053435114503817,-0.4267578125,0.011962890625,-0.308349609375,1.139
-4.580152671755725,6.396946564885496,3.145038167938931,-0.4248046875,0.010986328125,-0.307861328125,1.1407
-4.824427480916031,6.106870229007634,3.404580152671756,-0.42431640625,0.0107421875,-0.3017578125,1.1423999999999999
-4.961832061068702,6.122137404580153,3.2213740458015265,-0.423095703125,0.0087890625,-0.310302734375,1.1441
-5.1603053435114505,6.1679389312977095,3.282442748091603,-0.427734375,0.015380859375,-0.314697265625,1.1458
-5.068702290076335,6.106870229007634,3.49618320610687,-0.4248046875,0.017578125,-0.3095703125,1.1475
-5.083969465648855,6.106870229007634,3.3435114503816794,-0.427734375,0.013916015625,-0.314208984375,1.1492
-5.221374045801527,5.984732824427481,3.3740458015267176,-0.427734375,0.009765625,-0.306396484375,1.1509
-4.916030534351145,6.0,3.450381679389313,-0.4267578125,0.01416015625,-0.303955078125,1.1525999999999998
-5.083969465648855,5.9541984732824424,3.3740458015267176,-0.427734375,0.0166015625,-0.310546875,1.1542999999999999
-5.145038167938932,5.816793893129771,3.450381679389313,-0.4296875,0.013916015625,-0.307861328125,1.156
-5.00763358778626,5.679389312977099,3.236641221374046,-0.430419921875,0.01220703125,-0.308837890625,1.1577
-4.99236641221374,5.786259541984733,3.480916030534351,-0.427978515625,0.011474609375,-0.29443359375,1.1594
-5.083969465648855,5.862595419847328,3.312977099236641,-0.426025390625,0.017578125,-0.310546875,1.1611
-5.022900763358779,5.740458015267175,3.4198473282442747,-0.424072265625,0.0166015625,-0.3056640625,1.1627999999999998
-5.1603053435114505,5.801526717557252,3.404580152671756,-0.42431640625,0.01318359375,-0.302490234375,1.1644999999999999
-5.251908396946565,5.877862595419847,3.5114503816793894,-0.42626953125,0.01171875,-0.30517578125,1.1662
-5.267175572519084,5.740458015267175,3.5419847328244276,-0.41845703125,0.017333984375,-0.306396484375,1.1679
-5.099236641221374,5.541984732824427,3.2213740458015265,-0.423583984375,0.01318359375,-0.306640625,1.1696
-5.221374045801527,5.465648854961832,3.3893129770992365,-0.42431640625,0.01611328125,-0.302001953125,1.1713
-5.312977099236641,5.557251908396947,3.480916030534351,-0.420654296875,0.01318359375,-0.307861328125,1.173
-5.114503816793893,5.480916030534351,3.4198473282442747,-0.4189453125,0.01708984375,-0.310302734375,1.1746999999999999
-5.297709923664122,5.404580152671755,3.404580152671756,-0.420654296875,0.018798828125,-0.313232421875,1.1764
-5.465648854961832,5.236641221374046,3.480916030534351,-0.4150390625,0.018310546875,-0.302978515625,1.1781
-5.145038167938932,5.145038167938932,3.3893129770992365,-0.42626953125,0.015869140625,-0.307373046875,1.1798
-5.221374045801527,5.068702290076335,3.5114503816793894,-0.427978515625,0.018310546875,-0.307373046875,1.1815
-5.297709923664122,5.00763358778626,3.3435114503816794,-0.4267578125,0.018310546875,-0.30908203125,1.1832
-5.374045801526718,4.900763358778626,3.480916030534351,-0.4208984375,0.017578125,-0.30419921875,1.1848999999999998
-5.511450381679389,5.038167938931298,3.3893129770992365,-0.42138671875,0.013916015625,-0.3017578125,1.1865999999999999
-5.374045801526718,5.0534351145038165,3.4198473282442747,-0.426513671875,0.01904296875,-0.3046875,1.1883
-5.297709923664122,5.129770992366412,3.3587786259541983,-0.42578125,0.014892578125,-0.3173828125,1.19
-5.435114503816794,4.99236641221374,3.3587786259541983,-0.424560546875,0.015625,-0.31591796875,1.1917
-5.572519083969466,5.038167938931298,3.2519083969465647,-0.426025390625,0.01416015625,-0.305908203125,1.1934
-5.450381679389313,5.145038167938932,3.267175572519084,-0.42529296875,0.018310546875,-0.30224609375,1.1950999999999998
-5.526717557251908,5.083969465648855,3.2977099236641223,-0.424072265625,0.016845703125,-0.298095703125,1.1967999999999999
-5.419847328244275,4.9465648854961835,3.3282442748091605,-0.4189453125,0.01953125,-0.3037109375,1.1985
-5.6183206106870225,5.114503816793893,3.2519083969465647,-0.423095703125,0.015625,-0.30517578125,1.2002
-5.404580152671755,5.297709923664122,3.0229007633587788,-0.431640625,0.02001953125,-0.3134765625,1.2019
-5.435114503816794,5.1603053435114505,3.0076335877862594,-0.42919921875,0.017333984375,-0.317626953125,1.2036
-5.175572519083969,5.145038167938932,2.931297709923664,-0.421875,0.01806640625,-0.308349609375,1.2053
-5.648854961832061,5.312977099236641,2.6259541984732824,-0.42822265625,0.027587890625,-0.30859375,1.2069999999999999
-5.419847328244275,5.267175572519084,2.763358778625954,-0.42236328125,0.020751953125,-0.3115234375,1.2086999999999999
-5.358778625954199,5.083969465648855,2.717557251908397,-0.424072265625,0.021240234375,-0.313720703125,1.2104
-5.32824427480916,5.175572519083969,2.7786259541984735,-0.41748046875,0.02880859375,-0.3125,1.2121
-5.236641221374046,5.068702290076335,2.6259541984732824,-0.419921875,0.0263671875,-0.308837890625,1.2138
-5.297709923664122,5.190839694656488,2.6259541984732824,-0.424560546875,0.02099609375,-0.300048828125,1.2155
-5.297709923664122,5.190839694656488,2.366412213740458,-0.4228515625,0.019287109375,-0.304931640625,1.2171999999999998
-5.175572519083969,5.175572519083969,2.6259541984732824,-0.4208984375,0.01953125,-0.304443359375,1.2188999999999999
-5.022900763358779,4.9465648854961835,2.4885496183206106,-0.42333984375,0.02099609375,-0.301513671875,1.2206
-5.282442748091603,4.8396946564885495,2.4122137404580153,-0.423828125,0.019775390625,-0.3095703125,1.2223
-5.267175572519084,4.809160305343512,2.2290076335877864,-0.421875,0.025390625,-0.306884765625,1.224
-5.068702290076335,4.824427480916031,2.2900763358778624,-0.421875,0.0224609375,-0.31005859375,1.2257
-5.251908396946565,4.885496183206107,2.2748091603053435,-0.424072265625,0.021484375,-0.308349609375,1.2273999999999998
-5.190839694656488,4.824427480916031,2.045801526717557,-0.424072265625,0.015380859375,-0.30517578125,1.2290999999999999
-5.1603053435114505,4.702290076335878,2.213740458015267,-0.4248046875,0.01953125,-0.306884765625,1.2308
-5.0534351145038165,4.717557251908397,2.045801526717557,-0.420166015625,0.021728515625,-0.3056640625,1.2325
-5.129770992366412,4.595419847328245,2.0610687022900764,-0.422119140625,0.025146484375,-0.305419921875,1.2342
-5.297709923664122,4.595419847328245,2.045801526717557,-0.422119140625,0.019287109375,-0.30029296875,1.2359
-5.099236641221374,4.625954198473282,1.9541984732824427,-0.416015625,0.01806640625,-0.3115234375,1.2376
-4.916030534351145,4.580152671755725,1.9236641221374047,-0.4208984375,0.02099609375,-0.300048828125,1.2392999999999998
-4.961832061068702,4.625954198473282,1.816793893129771,-0.421875,0.020263671875,-0.308837890625,1.2409999999999999
-4.809160305343512,4.534351145038168,1.8625954198473282,-0.420166015625,0.02099609375,-0.308349609375,1.2427
-5.0534351145038165,4.549618320610687,1.8625954198473282,-0.4208984375,0.0244140625,-0.31689453125,1.2444
-4.870229007633588,4.412213740458015,1.8473282442748091,-0.424560546875,0.02490234375,-0.309326171875,1.2461
-4.809160305343512,4.549618320610687,1.5877862595419847,-0.421875,0.0224609375,-0.308837890625,1.2478
-4.900763358778626,4.534351145038168,1.9236641221374047,-0.418701171875,0.02587890625,-0.306640625,1.2494999999999998
-4.763358778625954,4.5038167938931295,1.786259541984733,-0.418701171875,0.031005859375,-0.304443359375,1.2511999999999999
-4.778625954198473,4.259541984732825,1.5877862595419847,-0.419921875,0.02734375,-0.302490234375,1.2529
-4.396946564885496,4.305343511450381,1.4961832061068703,-0.4208984375,0.027587890625,-0.31103515625,1.2546
-4.641221374045801,4.320610687022901,1.6946564885496183,-0.416748046875,0.026611328125,-0.313232421875,1.2563
-4.549618320610687,4.244274809160306,1.786259541984733,-0.420654296875,0.025634765625,-0.30712890625,1.258
-4.458015267175573,4.152671755725191,1.8473282442748091,-0.42041015625,0.022216796875,-0.316162109375,1.2596999999999998
-4.5038167938931295,4.183206106870229,1.5725190839694656,-0.42236328125,0.027099609375,-0.301025390625,1.2613999999999999
-4.366412213740458,4.290076335877862,1.6030534351145038,-0.419921875,0.026611328125,-0.31201171875,1.2631
-4.396946564885496,4.1679389312977095,1.5725190839694656,-0.421630859375,0.031005859375,-0.30908203125,1.2648
-4.213740458015267,4.030534351145038,1.6946564885496183,-0.421142578125,0.025146484375,-0.305908203125,1.2665
-3.969465648854962,4.076335877862595,1.5877862595419847,-0.42626953125,0.02099609375,-0.3095703125,1.2682
-4.0,4.076335877862595,1.5725190839694656,-0.418701171875,0.02490234375,-0.307373046875,1.2699
-4.1679389312977095,3.83206106870229,1.6946564885496183,-0.425048828125,0.02294921875,-0.316650390625,1.2715999999999998
-3.7404580152671754,4.0,1.5267175572519085,-0.423583984375,0.030029296875,-0.308837890625,1.2732999999999999
-3.6946564885496183,4.122137404580153,1.4198473282442747,-0.422607421875,0.0302734375,-0.3115234375,1.275
-3.66412213740458,3.954198473282443,1.4198473282442747,-0.423828125,0.02734375,-0.308349609375,1.2767
-3.618320610687023,3.9389312977099236,1.282442748091603,-0.42236328125,0.033935546875,-0.31396484375,1.2784
-3.3740458015267176,3.969465648854962,1.3893129770992367,-0.42138671875,0.03466796875,-0.31494140625,1.2801
-3.2519083969465647,3.9389312977099236,1.3740458015267176,-0.423095703125,0.028076171875,-0.31298828125,1.2817999999999998
-3.1603053435114505,4.0,1.5267175572519085,-0.42333984375,0.029541015625,-0.308837890625,1.2834999999999999
-3.1297709923664123,3.9389312977099236,1.1450381679389312,-0.423583984375,0.025390625,-0.3115234375,1.2852
-3.0229007633587788,3.954198473282443,1.4351145038167938,-0.423828125,0.028076171875,-0.310302734375,1.2869
-2.900763358778626,4.076335877862595,1.083969465648855,-0.42333984375,0.0263671875,-0.30908203125,1.2886
-2.732824427480916,4.030534351145038,1.3893129770992367,-0.420654296875,0.028076171875,-0.304931640625,1.2903
-2.717557251908397,3.8625954198473282,1.2213740458015268,-0.425048828125,0.02734375,-0.306884765625,1.292
-2.3206106870229006,4.0,1.083969465648855,-0.419921875,0.028564453125,-0.312255859375,1.2936999999999999
-2.2595419847328246,3.8931297709923665,1.0687022900763359,-0.42333984375,0.027587890625,-0.310302734375,1.2953999999999999
-2.213740458015267,3.969465648854962,1.0687022900763359,-0.4208984375,0.031494140625,-0.306640625,1.2971
-2.2748091603053435,3.8473282442748094,1.0229007633587786,-0.422607421875,0.02587890625,-0.301513671875,1.2988
-2.015267175572519,4.0,1.2213740458015268,-0.421875,0.03125,-0.306396484375,1.3005
-1.9236641221374047,3.9083969465648853,0.9770992366412213,-0.418701171875,0.029541015625,-0.3134765625,1.3022
-1.7404580152671756,3.877862595419847,0.9465648854961832,-0.416259765625,0.028076171875,-0.312255859375,1.3038999999999998
-1.5114503816793894,3.7099236641221376,0.8549618320610687,-0.424560546875,0.029296875,-0.3095703125,1.3055999999999999
-1.4198473282442747,3.6946564885496183,1.0687022900763359,-0.420166015625,0.024658203125,-0.310302734375,1.3073
-1.465648854961832,3.786259541984733,0.9007633587786259,-0.41845703125,0.028076171875,-0.309326171875,1.309
-1.0534351145038168,3.83206106870229,0.8244274809160306,-0.420654296875,0.027099609375,-0.3076171875,1.3107
-1.0229007633587786,3.7099236641221376,0.7480916030534351,-0.41943359375,0.027587890625,-0.306884765625,1.3124
-1.1297709923664123,3.786259541984733,0.8549618320610687,-0.423828125,0.026123046875,-0.306396484375,1.3140999999999998
-1.099236641221374,3.8931297709923665,0.5954198473282443,-0.42138671875,0.027587890625,-0.315673828125,1.3157999999999999
-0.7938931297709924,3.786259541984733,0.6717557251908397,-0.419921875,0.023193359375,-0.31640625,1.3175
-0.5954198473282443,3.66412213740458,0.5038167938931297,-0.42236328125,0.029541015625,-0.30859375,1.3192
-0.3816793893129771,3.7099236641221376,0.6259541984732825,-0.42236328125,0.035888671875,-0.3076171875,1.3209
-0.4122137404580153,3.5572519083969465,0.4732824427480916,-0.423095703125,0.028076171875,-0.310302734375,1.3226
-0.3511450381679389,3.4198473282442747,0.549618320610687,-0.4189453125,0.030029296875,-0.308837890625,1.3243
0.0,3.450381679389313,0.32061068702290074,-0.4228515625,0.025390625,-0.311767578125,1.3259999999999998
0.1984732824427481,3.4198473282442747,0.2595419847328244,-0.421630859375,0.0302734375,-0.3125,1.3276999999999999
0.0916030534351145,3.3893129770992365,0.24427480916030533,-0.417236328125,0.029541015625,-0.31201171875,1.3294
0.15267175572519084,3.4198473282442747,0.4732824427480916,-0.418212890625,0.029296875,-0.307861328125,1.3311
0.48854961832061067,3.4198473282442747,0.2748091603053435,-0.421875,0.026611328125,-0.306640625,1.3328
0.3816793893129771,3.312977099236641,0.24427480916030533,-0.419189453125,0.026123046875,-0.298095703125,1.3345
0.5801526717557252,3.1755725190839694,0.22900763358778625,-0.416259765625,0.028076171875,-0.311767578125,1.3361999999999998
0.732824427480916,3.145038167938931,0.2900763358778626,-0.411865234375,0.031005859375,-0.315185546875,1.3378999999999999
0.7022900763358778,3.099236641221374,-0.015267175572519083,-0.418701171875,0.027587890625,-0.31640625,1.3396
0.8549618320610687,2.8396946564885495,0.10687022900763359,-0.418212890625,0.029052734375,-0.31591796875,1.3413
0.916030534351145,2.854961832061069,-0.13740458015267176,-0.421630859375,0.0224609375,-0.316650390625,1.343
0.9007633587786259,3.0381679389312977,-0.030534351145038167,-0.415283203125,0.03076171875,-0.312744140625,1.3447
1.0687022900763359,2.7938931297709924,-0.183206106870229,-0.41845703125,0.032470703125,-0.302978515625,1.3463999999999998
1.1297709923664123,2.9160305343511452,-0.15267175572519084,-0.417724609375,0.027099609375,-0.303955078125,1.3480999999999999
1.3129770992366412,2.7480916030534353,-0.3816793893129771,-0.419189453125,0.0302734375,-0.302001953125,1.3497999999999999
1.3587786259541985,2.5801526717557253,-0.1984732824427481,-0.419921875,0.02685546875,-0.31396484375,1.3515
1.5114503816793894,2.717557251908397,-0.44274809160305345,-0.42138671875,0.028564453125,-0.309814453125,1.3532
1.3740458015267176,2.687022900763359,-0.4732824427480916,-0.41845703125,0.02490234375,-0.31884765625,1.3549
1.465648854961832,2.3969465648854964,-0.4732824427480916,-0.417236328125,0.025634765625,-0.320556640625,1.3566
1.7557251908396947,2.4885496183206106,-0.4732824427480916,-0.41845703125,0.029052734375,-0.311767578125,1.3582999999999998
1.7404580152671756,2.3969465648854964,-0.6259541984732825,-0.413330078125,0.024169921875,-0.314208984375,1.3599999999999999
1.5572519083969465,2.366412213740458,-0.48854961832061067,-0.4208984375,0.025634765625,-0.31103515625,1.3617
1.618320610687023,2.381679389312977,-0.6717557251908397,-0.416748046875,0.0263671875,-0.3076171875,1.3634
1.8931297709923665,2.3969465648854964,-0.7175572519083969,-0.418212890625,0.023681640625,-0.30615234375,1.3651
1.83206106870229,2.366412213740458,-0.8091603053435115,-0.424072265625,0.025390625,-0.306884765625,1.3668
1.7709923664122138,2.1526717557251906,-0.9465648854961832,-0.419189453125,0.026611328125,-0.315673828125,1.3684999999999998
1.984732824427481,2.2900763358778624,-0.9618320610687023,-0.419189453125,0.027099609375,-0.314453125,1.3701999999999999
2.030534351145038,2.16793893129771,-1.0229007633587786,-0.41650390625,0.018310546875,-0.309814453125,1.3719
2.213740458015267,2.1068702290076335,-1.0687022900763359,-0.41552734375,0.0234375,-0.313720703125,1.3736
1.9541984732824427,2.1068702290076335,-1.1755725190839694,-0.425537109375,0.0244140625,-0.3193359375,1.3753
2.0,2.015267175572519,-1.1603053435114503,-0.423583984375,0.01708984375,-0.317138671875,1.377
2.183206106870229,2.0,-1.2213740458015268,-0.41943359375,0.025146484375,-0.315185546875,1.3786999999999998
2.198473282442748,1.9389312977099236,-1.3282442748091603,-0.420166015625,0.02099609375,-0.308837890625,1.3803999999999998
2.2748091603053435,1.8931297709923665,-1.3282442748091603,-0.416748046875,0.022216796875,-0.30810546875,1.3820999999999999
2.1374045801526718,1.7709923664122138,-1.450381679389313,-0.42333984375,0.024658203125,-0.30859375,1.3838
2.2748091603053435,1.83206106870229,-1.4045801526717556,-0.421875,0.0185546875,-0.312255859375,1.3855
2.2290076335877864,1.5877862595419847,-1.5877862595419847,-0.4189453125,0.02734375,-0.314453125,1.3872
2.2748091603053435,1.618320610687023,-1.6030534351145038,-0.4248046875,0.02197265625,-0.30908203125,1.3889
2.4732824427480917,1.4045801526717556,-1.450381679389313,-0.4189453125,0.023681640625,-0.31640625,1.3905999999999998
2.2748091603053435,1.3893129770992367,-1.4961832061068703,-0.418212890625,0.02880859375,-0.310546875,1.3922999999999999
2.3969465648854964,1.5572519083969465,-1.6030534351145038,-0.420166015625,0.023681640625,-0.313232421875,1.394
2.366412213740458,1.6030534351145038,-1.786259541984733,-0.420166015625,0.019287109375,-0.306640625,1.3957
2.519083969465649,1.4198473282442747,-1.816793893129771,-0.41943359375,0.019287109375,-0.314697265625,1.3974
2.427480916030534,1.282442748091603,-1.5419847328244274,-0.4189453125,0.021240234375,-0.3076171875,1.3991
2.2595419847328246,1.282442748091603,-1.816793893129771,-0.41845703125,0.025146484375,-0.31201171875,1.4007999999999998
2.5343511450381677,1.297709923664122,-1.786259541984733,-0.424072265625,0.025634765625,-0.3056640625,1.4024999999999999
2.4427480916030535,1.4198473282442747,-1.8931297709923665,-0.421142578125,0.024169921875,-0.311279296875,1.4042
2.4580152671755724,1.3740458015267176,-1.786259541984733,-0.419189453125,0.018798828125,-0.311767578125,1.4059
2.381679389312977,1.1908396946564885,-1.8473282442748091,-0.425537109375,0.02490234375,-0.316162109375,1.4076
2.2748091603053435,0.916030534351145,-1.9236641221374047,-0.423583984375,0.01953125,-0.320556640625,1.4093
2.3969465648854964,1.0534351145038168,-1.8778625954198473,-0.4248046875,0.022216796875,-0.31494140625,1.411
2.351145038167939,1.099236641221374,-1.7709923664122138,-0.421630859375,0.01708984375,-0.301513671875,1.4126999999999998
2.427480916030534,1.2061068702290076,-2.030534351145038,-0.421630859375,0.025146484375,-0.313720703125,1.4143999999999999
2.519083969465649,1.099236641221374,-2.122137404580153,-0.42236328125,0.019775390625,-0.30712890625,1.4161
2.427480916030534,0.8549618320610687,-2.045801526717557,-0.4189453125,0.019775390625,-0.3154296875,1.4178
2.50381679389313,0.9618320610687023,-2.0916030534351147,-0.4208984375,0.019287109375,-0.310302734375,1.4195
2.4427480916030535,0.9923664122137404,-2.1374045801526718,-0.422119140625,0.02099609375,-0.300048828125,1.4212
2.4732824427480917,0.8702290076335878,-2.2595419847328246,-0.4228515625,0.02001953125,-0.315185546875,1.4228999999999998
2.4427480916030535,0.9312977099236641,-2.213740458015267,-0.419921875,0.0234375,-0.309814453125,1.4245999999999999
2.4732824427480917,0.8244274809160306,-2.183206106870229,-0.425537109375,0.0244140625,-0.3154296875,1.4263
2.381679389312977,0.916030534351145,-2.16793893129771,-0.42041015625,0.020263671875,-0.305419921875,1.428
2.3053435114503817,0.732824427480916,-2.3206106870229006,-0.42236328125,0.023193359375,-0.313232421875,1.4297
2.595419847328244,0.732824427480916,-2.366412213740458,-0.425537109375,0.0244140625,-0.308349609375,1.4314
2.4122137404580153,0.9465648854961832,-1.984732824427481,-0.419189453125,0.0205078125,-0.3154296875,1.4330999999999998
2.366412213740458,0.8702290076335878,-2.16793893129771,-0.41845703125,0.02001953125,-0.31298828125,1.4347999999999999
2.2595419847328246,0.8396946564885496,-2.2748091603053435,-0.4208984375,0.024658203125,-0.317138671875,1.4364999999999999
2.2442748091603053,0.5954198473282443,-2.16793893129771,-0.424072265625,0.0302734375,-0.317626953125,1.4382
2.3969465648854964,0.7175572519083969,-2.2442748091603053,-0.4228515625,0.020751953125,-0.3076171875,1.4399
2.519083969465649,0.5343511450381679,-2.366412213740458,-0.424072265625,0.019775390625,-0.315185546875,1.4416
2.351145038167939,0.7938931297709924,-2.2595419847328246,-0.424072265625,0.0205078125,-0.314697265625,1.4433
2.4885496183206106,0.7022900763358778,-2.381679389312977,-0.42578125,0.019775390625,-0.30615234375,1.4449999999999998
2.549618320610687,0.4580152671755725,-2.2442748091603053,-0.417724609375,0.016357421875,-0.31494140625,1.4466999999999999
2.366412213740458,0.6412213740458015,-2.33587786259542,-0.419921875,0.016845703125,-0.315185546875,1.4484
2.4580152671755724,0.5190839694656488,-2.2748091603053435,-0.423583984375,0.021484375,-0.311279296875,1.4501
2.3053435114503817,0.4122137404580153,-2.381679389312977,-0.4208984375,0.018798828125,-0.30859375,1.4518
2.381679389312977,0.4732824427480916,-2.198473282442748,-0.422119140625,0.026123046875,-0.306396484375,1.4535
2.50381679389313,0.6412213740458015,-2.4732824427480917,-0.420166015625,0.0244140625,-0.31591796875,1.4551999999999998
2.2442748091603053,0.5038167938931297,-2.2595419847328246,-0.42333984375,0.02197265625,-0.31005859375,1.4568999999999999
2.4732824427480917,0.32061068702290074,-2.2442748091603053,-0.42138671875,0.02294921875,-0.304931640625,1.4586
2.4122137404580153,0.5801526717557252,-2.4427480916030535,-0.419677734375,0.02294921875,-0.314208984375,1.4603
2.50381679389313,0.5343511450381679,-2.2748091603053435,-0.4208984375,0.027099609375,-0.307861328125,1.462
2.732824427480916,0.549618320610687,-2.33587786259542,-0.42138671875,0.017822265625,-0.309814453125,1.4637
2.366412213740458,0.3969465648854962,-2.4122137404580153,-0.41796875,0.01611328125,-0.302978515625,1.4653999999999998
2.6259541984732824,0.21374045801526717,-2.2290076335877864,-0.422607421875,0.017333984375,-0.31494140625,1.4670999999999998
2.4732824427480917,0.366412213740458,-2.4122137404580153,-0.42138671875,0.025390625,-0.30859375,1.4687999999999999
2.50381679389313,0.4580152671755725,-2.366412213740458,-0.421142578125,0.02294921875,-0.30224609375,1.4705
2.427480916030534,0.366412213740458,-2.2748091603053435,-0.424560546875,0.02001953125,-0.30908203125,1.4722
2.6564885496183206,0.3053435114503817,-2.4885496183206106,-0.42236328125,0.01904296875,-0.3095703125,1.4739
2.33587786259542,0.15267175572519084,-2.6259541984732824,-0.423095703125,0.019287109375,-0.315673828125,1.4756
2.3969465648854964,0.2595419847328244,-2.427480916030534,-0.419677734375,0.021240234375,-0.31787109375,1.4772999999999998
2.5801526717557253,0.366412213740458,-2.33587786259542,-0.421875,0.016357421875,-0.31689453125,1.4789999999999999
2.4122137404580153,0.33587786259541985,-2.366412213740458,-0.422119140625,0.013671875,-0.30908203125,1.4807
2.4427480916030535,0.3053435114503817,-2.50381679389313,-0.423828125,0.01708984375,-0.30517578125,1.4824
2.366412213740458,0.12213740458015267,-2.2595419847328246,-0.42138671875,0.02099609375,-0.30322265625,1.4841
2.4732824427480917,0.15267175572519084,-2.16793893129771,-0.421142578125,0.016357421875,-0.316162109375,1.4858
2.4122137404580153,0.3969465648854962,-2.2748091603053435,-0.427490234375,0.020263671875,-0.320556640625,1.4874999999999998
2.427480916030534,0.21374045801526717,-2.381679389312977,-0.423583984375,0.017578125,-0.312255859375,1.4891999999999999
2.2442748091603053,0.15267175572519084,-2.351145038167939,-0.417724609375,0.011962890625,-0.3046875,1.4909
2.2442748091603053,0.22900763358778625,-2.1374045801526718,-0.423095703125,0.016357421875,-0.310302734375,1.4926
2.2900763358778624,0.32061068702290074,-2.2442748091603053,-0.4287109375,0.01953125,-0.30859375,1.4943
2.427480916030534,0.15267175572519084,-2.366412213740458,-0.42822265625,0.0234375,-0.3056640625,1.496
2.2442748091603053,0.2900763358778626,-2.33587786259542,-0.421630859375,0.019775390625,-0.31298828125,1.4976999999999998
2.33587786259542,0.33587786259541985,-2.1068702290076335,-0.426025390625,0.01708984375,-0.306640625,1.4993999999999998
2.2290076335877864,0.04580152671755725,-2.351145038167939,-0.4228515625,0.02294921875,-0.310302734375,1.5010999999999999
2.198473282442748,0.13740458015267176,-2.2442748091603053,-0.42724609375,0.02294921875,-0.310791015625,1.5028
2.2748091603053435,0.13740458015267176,-2.2290076335877864,-0.42431640625,0.02001953125,-0.304931640625,1.5045
2.33587786259542,0.10687022900763359,-2.3206106870229006,-0.420654296875,0.0146484375,-0.31884765625,1.5062
2.3206106870229006,0.061068702290076333,-2.4122137404580153,-0.419921875,0.01513671875,-0.31298828125,1.5079
2.2442748091603053,0.061068702290076333,-2.3053435114503817,-0.427734375,0.02001953125,-0.310546875,1.5095999999999998
1.984732824427481,0.13740458015267176,-2.183206106870229,-0.423095703125,0.021484375,-0.30615234375,1.5112999999999999
2.2595419847328246,0.061068702290076333,-2.1526717557251906,-0.4248046875,0.01953125,-0.31103515625,1.513
2.198473282442748,0.10687022900763359,-2.381679389312977,-0.42236328125,0.01708984375,-0.308837890625,1.5147
2.198473282442748,0.2595419847328244,-2.0916030534351147,-0.4228515625,0.02001953125,-0.31494140625,1.5164
2.183206106870229,0.030534351145038167,-2.1374045801526718,-0.42333984375,0.016845703125,-0.309326171875,1.5181
2.1374045801526718,0.061068702290076333,-2.2442748091603053,-0.422607421875,0.0205078125,-0.311767578125,1.5197999999999998
1.984732824427481,0.015267175572519083,-2.2595419847328246,-0.4228515625,0.017333984375,-0.3125,1.5214999999999999
1.9541984732824427,0.12213740458015267,-2.183206106870229,-0.423583984375,0.021484375,-0.311279296875,1.5231999999999999
2.16793893129771,0.2595419847328244,-2.2748091603053435,-0.425537109375,0.0205078125,-0.31494140625,1.5249
1.816793893129771,0.16793893129770993,-2.0916030534351147,-0.424560546875,0.0205078125,-0.313720703125,1.5266
1.9541984732824427,0.04580152671755725,-2.2595419847328246,-0.4189453125,0.015869140625,-0.31201171875,1.5283
2.0,0.10687022900763359,-2.16793893129771,-0.420654296875,0.017822265625,-0.303466796875,1.5299999999999998
1.9389312977099236,0.15267175572519084,-2.213740458015267,-0.424560546875,0.018798828125,-0.311767578125,1.5316999999999998
2.198473282442748,0.12213740458015267,-2.0610687022900764,-0.42236328125,0.017822265625,-0.30810546875,1.5333999999999999
1.7557251908396947,0.24427480916030533,-2.213740458015267,-0.42529296875,0.016845703125,-0.31396484375,1.5351
1.9694656488549618,0.32061068702290074,-2.2748091603053435,-0.42333984375,0.017822265625,-0.31201171875,1.5368
1.8778625954198473,0.16793893129770993,-2.122137404580153,-0.422607421875,0.017822265625,-0.32080078125,1.5385
1.8778625954198473,0.15267175572519084,-2.0916030534351147,-0.427001953125,0.019775390625,-0.314208984375,1.5402
1.7709923664122138,0.3053435114503817,-2.045801526717557,-0.421142578125,0.013916015625,-0.310791015625,1.5418999999999998
1.6793893129770991,0.21374045801526717,-1.9541984732824427,-0.426025390625,0.01220703125,-0.3046875,1.5435999999999999
1.8778625954198473,0.2595419847328244,-2.122137404580153,-0.424560546875,0.0185546875,-0.313232421875,1.5453
1.8473282442748091,0.1984732824427481,-2.030534351145038,-0.416748046875,0.022216796875,-0.314208984375,1.547
1.7709923664122138,0.32061068702290074,-2.0610687022900764,-0.420654296875,0.023681640625,-0.310791015625,1.5487
1.7251908396946565,0.183206106870229,-1.8473282442748091,-0.42431640625,0.01611328125,-0.3056640625,1.5504
1.83206106870229,0.2595419847328244,-2.1068702290076335,-0.424072265625,0.018798828125,-0.309326171875,1.5520999999999998
1.7251908396946565,0.24427480916030533,-1.8473282442748091,-0.42431640625,0.02197265625,-0.315185546875,1.5537999999999998
1.7251908396946565,0.3969465648854962,-1.984732824427481,-0.427001953125,0.020751953125,-0.3115234375,1.5554999999999999
1.8473282442748091,0.2900763358778626,-1.9236641221374047,-0.4267578125,0.01611328125,-0.306396484375,1.5572
1.6946564885496183,0.3053435114503817,-2.16793893129771,-0.422119140625,0.0205078125,-0.30224609375,1.5589
1.7251908396946565,0.33587786259541985,-2.0916030534351147,-0.422607421875,0.015869140625,-0.322021484375,1.5606
1.9236641221374047,0.32061068702290074,-2.0763358778625953,-0.418212890625,0.018798828125,-0.308349609375,1.5623
1.6488549618320612,0.1984732824427481,-1.8625954198473282,-0.4248046875,0.024169921875,-0.3125,1.5639999999999998
1.6641221374045803,0.183206106870229,-2.0,-0.4267578125,0.019775390625,-0.31103515625,1.5656999999999999
1.816793893129771,0.2595419847328244,-1.8931297709923665,-0.42431640625,0.019775390625,-0.306396484375,1.5674
1.6030534351145038,0.366412213740458,-1.9083969465648856,-0.42041015625,0.015869140625,-0.318359375,1.5691
1.7099236641221374,0.3053435114503817,-1.9389312977099236,-0.4228515625,0.016845703125,-0.31884765625,1.5708
1.8625954198473282,0.3511450381679389,-2.0916030534351147,-0.419921875,0.020751953125,-0.310302734375,1.5725
1.6641221374045803,0.22900763358778625,-1.816793893129771,-0.42333984375,0.01708984375,-0.31005859375,1.5741999999999998
1.7709923664122138,0.13740458015267176,-1.9389312977099236,-0.426513671875,0.020263671875,-0.316162109375,1.5758999999999999
1.8473282442748091,0.0916030534351145,-1.6793893129770991,-0.4248046875,0.021728515625,-0.313720703125,1.5776
1.8778625954198473,0.12213740458015267,-1.8015267175572518,-0.421630859375,0.01708984375,-0.3046875,1.5793
1.9236641221374047,0.33587786259541985,-1.9236641221374047,-0.419189453125,0.01904296875,-0.3056640625,1.581
1.83206106870229,0.2595419847328244,-1.6946564885496183,-0.415771484375,0.021240234375,-0.3056640625,1.5827
1.8931297709923665,-0.061068702290076333,-1.6793893129770991,-0.430908203125,0.022705078125,-0.304443359375,1.5843999999999998
1.9236641221374047,0.10687022900763359,-1.7404580152671756,-0.42236328125,0.027099609375,-0.3095703125,1.5860999999999998
1.8625954198473282,0.183206106870229,-1.6030534351145038,-0.416015625,0.021484375,-0.30419921875,1.5877999999999999
1.6946564885496183,0.015267175572519083,-1.7099236641221374,-0.420654296875,0.019775390625,-0.308837890625,1.5895
2.122137404580153,0.04580152671755725,-1.6030534351145038,-0.423095703125,0.021484375,-0.3076171875,1.5912
1.984732824427481,-0.030534351145038167,-1.5267175572519085,-0.417236328125,0.02294921875,-0.306640625,1.5929
1.984732824427481,-0.10687022900763359,-1.6641221374045803,-0.4189453125,0.018798828125,-0.305908203125,1.5946
1.9389312977099236,-0.16793893129770993,-1.6793893129770991,-0.4248046875,0.02099609375,-0.306396484375,1.5962999999999998
1.816793893129771,-0.030534351145038167,-1.4045801526717556,-0.419677734375,0.020751953125,-0.312744140625,1.5979999999999999
2.0763358778625953,-0.15267175572519084,-1.4961832061068703,-0.423095703125,0.022705078125,-0.30859375,1.5997
2.1526717557251906,-0.10687022900763359,-1.2671755725190839,-0.417724609375,0.023681640625,-0.31103515625,1.6014
1.9694656488549618,-0.2900763358778626,-1.450381679389313,-0.423583984375,0.024658203125,-0.310546875,1.6031
2.0,-0.21374045801526717,-1.3893129770992367,-0.420166015625,0.01708984375,-0.30517578125,1.6048
2.0763358778625953,-0.24427480916030533,-1.465648854961832,-0.42529296875,0.01708984375,-0.317138671875,1.6064999999999998
2.16793893129771,-0.22900763358778625,-1.3893129770992367,-0.422607421875,0.021240234375,-0.29833984375,1.6081999999999999
2.122137404580153,-0.4580152671755725,-1.4809160305343512,-0.42578125,0.017578125,-0.3017578125,1.6098999999999999
2.1068702290076335,-0.4732824427480916,-1.1145038167938932,-0.421142578125,0.02197265625,-0.309326171875,1.6116
2.1374045801526718,-0.4732824427480916,-1.2671755725190839,-0.423828125,0.017333984375,-0.308837890625,1.6133
2.183206106870229,-0.4122137404580153,-1.2061068702290076,-0.421630859375,0.021728515625,-0.30419921875,1.615
2.33587786259542,-0.5190839694656488,-1.3282442748091603,-0.42041015625,0.01953125,-0.305419921875,1.6166999999999998
2.16793893129771,-0.48854961832061067,-1.1908396946564885,-0.4228515625,0.018798828125,-0.311279296875,1.6183999999999998
2.1526717557251906,-0.5648854961832062,-1.1908396946564885,-0.41943359375,0.02197265625,-0.313720703125,1.6200999999999999
2.213740458015267,-0.5648854961832062,-1.0534351145038168,-0.421630859375,0.02587890625,-0.306884765625,1.6218
2.4427480916030535,-0.4580152671755725,-1.099236641221374,-0.420166015625,0.017822265625,-0.3076171875,1.6235
2.2595419847328246,-0.42748091603053434,-0.9618320610687023,-0.4228515625,0.0185546875,-0.309326171875,1.6252
2.4732824427480917,-0.4122137404580153,-1.0229007633587786,-0.422119140625,0.021484375,-0.309326171875,1.6269
2.2900763358778624,-0.5190839694656488,-1.0687022900763359,-0.421630859375,0.025634765625,-0.305419921875,1.6285999999999998
2.3969465648854964,-0.6870229007633588,-0.9618320610687023,-0.421630859375,0.0224609375,-0.308837890625,1.6302999999999999
2.3969465648854964,-0.4580152671755725,-1.0076335877862594,-0.42138671875,0.018310546875,-0.31005859375,1.632
2.3053435114503817,-0.7022900763358778,-0.9465648854961832,-0.420654296875,0.02392578125,-0.30517578125,1.6337
2.2900763358778624,-0.9618320610687023,-0.8091603053435115,-0.426025390625,0.027099609375,-0.31103515625,1.6354
2.50381679389313,-0.7786259541984732,-0.7786259541984732,-0.42041015625,0.017578125,-0.30859375,1.6371
2.50381679389313,-0.7175572519083969,-0.8244274809160306,-0.424072265625,0.017822265625,-0.306396484375,1.6387999999999998
2.5801526717557253,-0.7633587786259542,-0.8396946564885496,-0.426025390625,0.02099609375,-0.31005859375,1.6404999999999998
2.50381679389313,-0.9007633587786259,-0.7938931297709924,-0.4228515625,0.019287109375,-0.314697265625,1.6421999999999999
2.564885496183206,-0.7938931297709924,-0.7633587786259542,-0.4228515625,0.019775390625,-0.321533203125,1.6439
2.6412213740458017,-0.8244274809160306,-0.7480916030534351,-0.424560546875,0.02294921875,-0.306884765625,1.6456
2.732824427480916,-0.8854961832061069,-0.8396946564885496,-0.428955078125,0.021484375,-0.299072265625,1.6473
2.717557251908397,-0.732824427480916,-0.732824427480916,-0.426513671875,0.026123046875,-0.30224609375,1.6489999999999998
2.8244274809160306,-0.8396946564885496,-0.732824427480916,-0.4189453125,0.024169921875,-0.3095703125,1.6506999999999998
2.564885496183206,-0.8396946564885496,-0.8091603053435115,-0.4228515625,0.022705078125,-0.306640625,1.6523999999999999
2.4427480916030535,-0.732824427480916,-0.732824427480916,-0.423095703125,0.018310546875,-0.302978515625,1.6541
2.595419847328244,-0.7480916030534351,-0.7786259541984732,-0.423828125,0.026123046875,-0.310302734375,1.6558
2.8702290076335877,-0.7786259541984732,-0.9007633587786259,-0.425537109375,0.0234375,-0.306396484375,1.6575
2.687022900763359,-0.8244274809160306,-0.8396946564885496,-0.421875,0.019775390625,-0.3154296875,1.6592
2.595419847328244,-0.7938931297709924,-0.6259541984732825,-0.420654296875,0.021728515625,-0.310546875,1.6608999999999998
2.5801526717557253,-0.8702290076335878,-0.7175572519083969,-0.42529296875,0.021240234375,-0.306396484375,1.6625999999999999
2.7938931297709924,-0.7633587786259542,-0.8549618320610687,-0.427734375,0.02783203125,-0.3046875,1.6643
2.9618320610687023,-0.8396946564885496,-0.8854961832061069,-0.4267578125,0.02197265625,-0.305908203125,1.666
2.763358778625954,-0.7786259541984732,-0.7175572519083969,-0.419189453125,0.020263671875,-0.314208984375,1.6677
2.7022900763358777,-0.8854961832061069,-0.6870229007633588,-0.42333984375,0.021240234375,-0.314697265625,1.6694
2.7480916030534353,-0.8396946564885496,-0.8091603053435115,-0.42138671875,0.024169921875,-0.30419921875,1.6710999999999998
2.687022900763359,-0.9618320610687023,-0.7938931297709924,-0.42138671875,0.016845703125,-0.303466796875,1.6727999999999998
2.900763358778626,-0.732824427480916,-0.9007633587786259,-0.4287109375,0.023193359375,-0.306640625,1.6744999999999999
2.595419847328244,-0.8091603053435115,-0.8702290076335878,-0.427490234375,0.02783203125,-0.30419921875,1.6762
2.5801526717557253,-0.8854961832061069,-0.7633587786259542,-0.4248046875,0.0263671875,-0.309326171875,1.6779
2.5801526717557253,-1.0076335877862594,-0.6564885496183206,-0.418701171875,0.02001953125,-0.30859375,1.6796
2.8244274809160306,-0.916030534351145,-0.8244274809160306,-0.41845703125,0.014404296875,-0.3134765625,1.6813
2.8244274809160306,-0.916030534351145,-0.732824427480916,-0.41845703125,0.0185546875,-0.314453125,1.6829999999999998
2.763358778625954,-1.1145038167938932,-0.6717557251908397,-0.41845703125,0.0185546875,-0.309326171875,1.6846999999999999
2.717557251908397,-1.1297709923664123,-0.732824427480916,-0.424560546875,0.015869140625,-0.306640625,1.6864
2.6106870229007635,-1.1145038167938932,-0.8549618320610687,-0.421630859375,0.02099609375,-0.30712890625,1.6881
2.519083969465649,-1.1450381679389312,-0.8244274809160306,-0.423583984375,0.018798828125,-0.308349609375,1.6898
2.7938931297709924,-1.1450381679389312,-0.9770992366412213,-0.4208984375,0.0205078125,-0.30908203125,1.6915
2.6717557251908395,-1.2671755725190839,-0.8702290076335878,-0.419677734375,0.019775390625,-0.30810546875,1.6931999999999998
2.7480916030534353,-1.0534351145038168,-0.8396946564885496,-0.421142578125,0.025146484375,-0.311279296875,1.6948999999999999
2.595419847328244,-1.1603053435114503,-1.0381679389312977,-0.421630859375,0.022216796875,-0.30078125,1.6965999999999999
2.6259541984732824,-1.3435114503816794,-0.9465648854961832,-0.4287109375,0.018798828125,-0.303466796875,1.6983
2.519083969465649,-1.297709923664122,-0.6870229007633588,-0.427734375,0.022216796875,-0.30859375,1.7
2.4122137404580153,-1.251908396946565,-0.8702290076335878,-0.415771484375,0.016845703125,-0.31298828125,1.7017
2.3969465648854964,-1.282442748091603,-0.9312977099236641,-0.418701171875,0.02294921875,-0.314208984375,1.7033999999999998
2.50381679389313,-1.4045801526717556,-0.8702290076335878,-0.42333984375,0.01953125,-0.304443359375,1.7050999999999998
2.6564885496183206,-1.3740458015267176,-0.9770992366412213,-0.426513671875,0.0205078125,-0.302978515625,1.7067999999999999
2.564885496183206,-1.4351145038167938,-0.9923664122137404,-0.426025390625,0.0185546875,-0.306640625,1.7085
2.6106870229007635,-1.6488549618320612,-1.0687022900763359,-0.424072265625,0.0224609375,-0.30615234375,1.7102
2.4732824427480917,-1.618320610687023,-0.9923664122137404,-0.423095703125,0.0234375,-0.303955078125,1.7119
2.519083969465649,-1.6030534351145038,-1.0229007633587786,-0.421875,0.0185546875,-0.307373046875,1.7136
2.5343511450381677,-1.465648854961832,-1.0381679389312977,-0.427978515625,0.01708984375,-0.3056640625,1.7152999999999998
2.4885496183206106,-1.465648854961832,-1.0687022900763359,-0.423095703125,0.016357421875,-0.308349609375,1.7169999999999999
2.2748091603053435,-1.6030534351145038,-1.1603053435114503,-0.427490234375,0.01904296875,-0.303955078125,1.7187
2.3053435114503817,-1.4961832061068703,-1.1145038167938932,-0.423095703125,0.01806640625,-0.314697265625,1.7204
2.595419847328244,-1.4961832061068703,-1.1908396946564885,-0.42041015625,0.023681640625,-0.31201171875,1.7221
2.4122137404580153,-1.465648854961832,-1.2671755725190839,-0.427490234375,0.0224609375,-0.307861328125,1.7238
2.50381679389313,-1.4045801526717556,-1.3893129770992367,-0.43359375,0.023193359375,-0.306396484375,1.7254999999999998
2.2900763358778624,-1.3282442748091603,-1.3740458015267176,-0.428955078125,0.02197265625,-0.302734375,1.7271999999999998
2.4885496183206106,-1.1297709923664123,-1.1908396946564885,-0.424560546875,0.019775390625,-0.2978515625,1.7288999999999999
2.4732824427480917,-1.1755725190839694,-1.5572519083969465,-0.427490234375,0.019775390625,-0.308837890625,1.7306
2.5343511450381677,-1.297709923664122,-1.7709923664122138,-0.4228515625,0.01708984375,-0.310791015625,1.7323
2.381679389312977,-1.1450381679389312,-1.6641221374045803,-0.42431640625,0.015869140625,-0.30712890625,1.734
2.6259541984732824,-1.0076335877862594,-1.6946564885496183,-0.424560546875,0.02099609375,-0.310302734375,1.7356999999999998
2.4122137404580153,-1.1145038167938932,-1.7709923664122138,-0.430908203125,0.02197265625,-0.3076171875,1.7373999999999998
2.564885496183206,-0.9007633587786259,-1.83206106870229,-0.42919921875,0.02001953125,-0.313232421875,1.7390999999999999
2.4580152671755724,-0.9770992366412213,-1.816793893129771,-0.419677734375,0.022216796875,-0.30859375,1.7408
2.6412213740458017,-0.9923664122137404,-1.9083969465648856,-0.42919921875,0.019287109375,-0.3056640625,1.7425
2.6717557251908395,-1.0534351145038168,-1.984732824427481,-0.429931640625,0.020751953125,-0.3046875,1.7442
2.5343511450381677,-0.7938931297709924,-2.183206106870229,-0.426025390625,0.023681640625,-0.302734375,1.7459
2.5343511450381677,-0.9312977099236641,-2.122137404580153,-0.425048828125,0.020263671875,-0.30517578125,1.7475999999999998
2.4885496183206106,-0.9465648854961832,-2.1068702290076335,-0.42236328125,0.021484375,-0.310302734375,1.7492999999999999
2.4580152671755724,-1.083969465648855,-2.1526717557251906,-0.425048828125,0.025146484375,-0.301513671875,1.751
2.519083969465649,-1.1145038167938932,-2.0763358778625953,-0.42724609375,0.024658203125,-0.29833984375,1.7527
2.3969465648854964,-1.1755725190839694,-2.2442748091603053,-0.423095703125,0.020751953125,-0.300537109375,1.7544
2.427480916030534,-1.3282442748091603,-2.2900763358778624,-0.420654296875,0.016357421875,-0.307373046875,1.7561
2.50381679389313,-1.3893129770992367,-2.351145038167939,-0.4189453125,0.0205078125,-0.30517578125,1.7577999999999998
2.4732824427480917,-1.4809160305343512,-2.351145038167939,-0.425048828125,0.0205078125,-0.30419921875,1.7594999999999998
2.5801526717557253,-1.3282442748091603,-2.549618320610687,-0.42236328125,0.0185546875,-0.30859375,1.7611999999999999
2.50381679389313,-1.450381679389313,-2.3969465648854964,-0.4287109375,0.02197265625,-0.303466796875,1.7629
2.351145038167939,-1.5725190839694656,-2.5343511450381677,-0.42041015625,0.020263671875,-0.31103515625,1.7646
2.50381679389313,-1.6030534351145038,-2.4580152671755724,-0.41845703125,0.0205078125,-0.30517578125,1.7663
2.4732824427480917,-1.633587786259542,-2.427480916030534,-0.419921875,0.02294921875,-0.302001953125,1.7679999999999998
2.3053435114503817,-1.7404580152671756,-2.213740458015267,-0.42578125,0.02685546875,-0.30419921875,1.7696999999999998
2.3053435114503817,-1.786259541984733,-2.3053435114503817,-0.4189453125,0.020263671875,-0.30126953125,1.7713999999999999
2.2900763358778624,-1.83206106870229,-2.6412213740458017,-0.42626953125,0.01806640625,-0.3056640625,1.7731
2.2748091603053435,-1.83206106870229,-2.6259541984732824,-0.43017578125,0.018798828125,-0.3037109375,1.7748
2.16793893129771,-1.9236641221374047,-2.4580152671755724,-0.42529296875,0.017333984375,-0.304931640625,1.7765
2.2290076335877864,-2.0610687022900764,-2.5343511450381677,-0.426513671875,0.0146484375,-0.303955078125,1.7782
2.4732824427480917,-2.0,-2.6717557251908395,-0.4189453125,0.021728515625,-0.31396484375,1.7798999999999998
2.16793893129771,-2.1068702290076335,-2.564885496183206,-0.423828125,0.017333984375,-0.3095703125,1.7815999999999999
2.0916030534351147,-2.0916030534351147,-2.4122137404580153,-0.421630859375,0.01806640625,-0.316650390625,1.7832999999999999
2.122137404580153,-2.2442748091603053,-2.732824427480916,-0.42333984375,0.013671875,-0.3154296875,1.785
2.045801526717557,-2.3969465648854964,-2.595419847328244,-0.423095703125,0.016357421875,-0.29931640625,1.7867
2.030534351145038,-2.351145038167939,-2.6106870229007635,-0.427001953125,0.02197265625,-0.313720703125,1.7884
2.1374045801526718,-2.3206106870229006,-2.595419847328244,-0.424560546875,0.020751953125,-0.30810546875,1.7900999999999998
2.33587786259542,-2.2900763358778624,-2.5343511450381677,-0.42333984375,0.0146484375,-0.302734375,1.7917999999999998
2.213740458015267,-2.381679389312977,-2.763358778625954,-0.421142578125,0.01708984375,-0.302734375,1.7934999999999999
1.9389312977099236,-2.6717557251908395,-2.6564885496183206,-0.42724609375,0.0166015625,-0.302978515625,1.7952
2.0,-2.5801526717557253,-2.50381679389313,-0.421142578125,0.01904296875,-0.2919921875,1.7969
2.198473282442748,-2.6412213740458017,-2.7938931297709924,-0.420166015625,0.021484375,-0.291748046875,1.7986
2.198473282442748,-2.564885496183206,-2.732824427480916,-0.4228515625,0.018798828125,-0.29541015625,1.8002999999999998
2.2748091603053435,-2.7938931297709924,-2.900763358778626,-0.418212890625,0.010986328125,-0.302978515625,1.8019999999999998
2.015267175572519,-2.9618320610687023,-2.7786259541984735,-0.42431640625,0.0205078125,-0.303466796875,1.8036999999999999
2.1526717557251906,-2.687022900763359,-2.6717557251908395,-0.426513671875,0.02294921875,-0.303955078125,1.8054
2.0916030534351147,-2.885496183206107,-2.732824427480916,-0.426025390625,0.015869140625,-0.29931640625,1.8071
2.1068702290076335,-2.9618320610687023,-2.6106870229007635,-0.42333984375,0.02197265625,-0.296630859375,1.8088
2.0610687022900764,-2.9770992366412212,-2.763358778625954,-0.4248046875,0.016845703125,-0.313232421875,1.8105
2.2595419847328246,-3.068702290076336,-2.946564885496183,-0.42529296875,0.015625,-0.308349609375,1.8121999999999998
2.0763358778625953,-3.1297709923664123,-2.6564885496183206,-0.42236328125,0.018310546875,-0.302490234375,1.8138999999999998
2.1374045801526718,-2.9618320610687023,-2.7786259541984735,-0.421630859375,0.0205078125,-0.299072265625,1.8155999999999999
2.183206106870229,-2.8396946564885495,-2.763358778625954,-0.4208984375,0.02197265625,-0.301513671875,1.8173
1.9694656488549618,-3.053435114503817,-2.854961832061069,-0.4267578125,0.0185546875,-0.29541015625,1.819
2.198473282442748,-2.9770992366412212,-2.8244274809160306,-0.4248046875,0.018310546875,-0.293212890625,1.8207
