gyrox1,gyroy1,gyroz1,accelx1,accely1,accelz1,Time
2.7786259541984735,1.6488549618320612,-1.0076335877862594,-0.457275390625,-0.09326171875,-0.12353515625,0.0
2.854961832061069,1.83206106870229,-1.3282442748091603,-0.45849609375,-0.090576171875,-0.12841796875,0.0017
2.6717557251908395,1.8473282442748091,-1.251908396946565,-0.4560546875,-0.0927734375,-0.1279296875,0.0034
2.6259541984732824,1.450381679389313,-1.3740458015267176,-0.458740234375,-0.09423828125,-0.12646484375,0.0050999999999999995
2.7480916030534353,1.6030534351145038,-1.1297709923664123,-0.458740234375,-0.091796875,-0.120849609375,0.0068
3.068702290076336,1.6946564885496183,-1.3435114503816794,-0.45751953125,-0.09033203125,-0.12744140625,0.008499999999999999
2.6564885496183206,1.6030534351145038,-1.2671755725190839,-0.452392578125,-0.090576171875,-0.13232421875,0.010199999999999999
2.8702290076335877,1.4198473282442747,-1.5267175572519085,-0.4521484375,-0.09423828125,-0.124755859375,0.011899999999999999
2.8091603053435112,1.465648854961832,-1.4045801526717556,-0.453369140625,-0.087158203125,-0.129638671875,0.0136
2.8396946564885495,1.450381679389313,-1.2213740458015268,-0.451416015625,-0.095458984375,-0.1318359375,0.0153
2.8244274809160306,1.6793893129770991,-1.282442748091603,-0.453369140625,-0.093994140625,-0.125732421875,0.016999999999999998
2.8091603053435112,1.4045801526717556,-1.3282442748091603,-0.45703125,-0.09228515625,-0.125244140625,0.018699999999999998
2.9160305343511452,1.5877862595419847,-1.0687022900763359,-0.458984375,-0.09228515625,-0.129638671875,0.020399999999999998
2.5801526717557253,1.282442748091603,-1.2213740458015268,-0.4599609375,-0.09814453125,-0.12451171875,0.022099999999999998
2.8702290076335877,1.1908396946564885,-0.9923664122137404,-0.457763671875,-0.097900390625,-0.127197265625,0.023799999999999998
2.717557251908397,1.5419847328244274,-1.1603053435114503,-0.45654296875,-0.09375,-0.127197265625,0.0255
2.6564885496183206,1.2061068702290076,-1.1145038167938932,-0.452880859375,-0.09765625,-0.13037109375,0.0272
2.7022900763358777,0.916030534351145,-1.2213740458015268,-0.4541015625,-0.097900390625,-0.135498046875,0.0289
3.053435114503817,1.0534351145038168,-0.9770992366412213,-0.461181640625,-0.09716796875,-0.130859375,0.0306
2.763358778625954,1.0534351145038168,-1.4351145038167938,-0.454833984375,-0.09765625,-0.12841796875,0.032299999999999995
2.6564885496183206,0.9770992366412213,-1.251908396946565,-0.45703125,-0.0966796875,-0.13232421875,0.033999999999999996
3.0076335877862594,1.2061068702290076,-1.3282442748091603,-0.45556640625,-0.1025390625,-0.12353515625,0.035699999999999996
2.8396946564885495,0.9465648854961832,-1.0687022900763359,-0.456787109375,-0.1044921875,-0.126708984375,0.037399999999999996
2.854961832061069,1.0076335877862594,-1.5114503816793894,-0.45703125,-0.09814453125,-0.1318359375,0.039099999999999996
2.7938931297709924,1.1603053435114503,-1.2671755725190839,-0.454345703125,-0.094482421875,-0.121337890625,0.040799999999999996
2.763358778625954,1.2366412213740459,-1.3129770992366412,-0.459716796875,-0.100341796875,-0.122802734375,0.042499999999999996
2.8244274809160306,1.3282442748091603,-1.4045801526717556,-0.45361328125,-0.09765625,-0.1259765625,0.044199999999999996
2.595419847328244,1.2366412213740459,-1.251908396946565,-0.453857421875,-0.097412109375,-0.12255859375,0.045899999999999996
2.4732824427480917,1.251908396946565,-1.0381679389312977,-0.455810546875,-0.09814453125,-0.122314453125,0.047599999999999996
2.549618320610687,1.4045801526717556,-1.2213740458015268,-0.45556640625,-0.09814453125,-0.126953125,0.0493
2.564885496183206,1.4045801526717556,-1.3129770992366412,-0.453369140625,-0.0966796875,-0.122802734375,0.051
2.351145038167939,1.465648854961832,-1.251908396946565,-0.458740234375,-0.098876953125,-0.132568359375,0.0527
2.3206106870229006,1.5572519083969465,-1.2671755725190839,-0.454345703125,-0.096435546875,-0.128173828125,0.0544
2.2748091603053435,1.4809160305343512,-1.1297709923664123,-0.45068359375,-0.099609375,-0.128173828125,0.0561
2.3206106870229006,1.4961832061068703,-0.9618320610687023,-0.453125,-0.09619140625,-0.132568359375,0.0578
2.2748091603053435,1.4198473282442747,-1.1145038167938932,-0.45458984375,-0.10205078125,-0.1298828125,0.0595
1.9236641221374047,1.282442748091603,-1.1450381679389312,-0.454833984375,-0.0966796875,-0.122802734375,0.0612
1.8778625954198473,1.297709923664122,-1.2061068702290076,-0.45361328125,-0.099365234375,-0.12548828125,0.0629
1.7404580152671756,1.0381679389312977,-1.2213740458015268,-0.453857421875,-0.096923828125,-0.127197265625,0.06459999999999999
1.9236641221374047,0.9770992366412213,-1.1450381679389312,-0.451416015625,-0.09619140625,-0.129150390625,0.0663
1.9083969465648856,1.2213740458015268,-1.1908396946564885,-0.455810546875,-0.09814453125,-0.12841796875,0.06799999999999999
1.7709923664122138,0.8244274809160306,-1.2366412213740459,-0.456298828125,-0.09619140625,-0.120361328125,0.0697
1.7251908396946565,1.0381679389312977,-1.297709923664122,-0.454345703125,-0.09716796875,-0.122314453125,0.07139999999999999
1.7557251908396947,0.8549618320610687,-1.2671755725190839,-0.4541015625,-0.09521484375,-0.13427734375,0.0731
1.6030534351145038,0.6412213740458015,-1.4198473282442747,-0.45361328125,-0.0986328125,-0.130859375,0.07479999999999999
1.4045801526717556,0.6717557251908397,-1.4809160305343512,-0.45654296875,-0.101806640625,-0.129150390625,0.0765
1.5114503816793894,0.6259541984732825,-1.2061068702290076,-0.457763671875,-0.098388671875,-0.1328125,0.07819999999999999
1.3587786259541985,0.549618320610687,-1.4961832061068703,-0.457275390625,-0.095458984375,-0.134521484375,0.0799
1.3282442748091603,0.48854961832061067,-1.297709923664122,-0.45751953125,-0.10302734375,-0.13232421875,0.08159999999999999
1.4045801526717556,0.44274809160305345,-1.3893129770992367,-0.46044921875,-0.098388671875,-0.13427734375,0.0833
1.1145038167938932,0.6412213740458015,-1.3740458015267176,-0.455322265625,-0.100341796875,-0.13232421875,0.08499999999999999
0.8854961832061069,0.5954198473282443,-1.4809160305343512,-0.460205078125,-0.10205078125,-0.125732421875,0.0867
1.1755725190839694,0.6870229007633588,-1.3435114503816794,-0.457763671875,-0.10107421875,-0.119140625,0.08839999999999999
0.9312977099236641,0.5954198473282443,-1.2671755725190839,-0.46337890625,-0.094970703125,-0.126708984375,0.0901
0.9770992366412213,0.7786259541984732,-1.450381679389313,-0.45947265625,-0.09716796875,-0.12255859375,0.09179999999999999
0.7480916030534351,0.7938931297709924,-1.282442748091603,-0.459716796875,-0.098388671875,-0.116943359375,0.0935
0.6717557251908397,0.732824427480916,-1.1908396946564885,-0.458251953125,-0.09716796875,-0.131103515625,0.09519999999999999
0.6412213740458015,0.8549618320610687,-1.4351145038167938,-0.4638671875,-0.098876953125,-0.127197265625,0.0969
0.7938931297709924,0.8702290076335878,-1.1603053435114503,-0.46435546875,-0.0986328125,-0.12060546875,0.0986
0.5343511450381679,0.6870229007633588,-1.251908396946565,-0.460205078125,-0.09619140625,-0.124267578125,0.1003
0.7022900763358778,0.7938931297709924,-1.1603053435114503,-0.459228515625,-0.093994140625,-0.122314453125,0.102
0.3969465648854962,0.7633587786259542,-1.3129770992366412,-0.4599609375,-0.095703125,-0.126953125,0.1037
0.6412213740458015,0.6717557251908397,-1.1603053435114503,-0.462890625,-0.0986328125,-0.12548828125,0.1054
0.7633587786259542,0.6717557251908397,-1.297709923664122,-0.458984375,-0.09765625,-0.120361328125,0.1071
0.5343511450381679,0.5648854961832062,-1.2671755725190839,-0.457275390625,-0.098876953125,-0.127685546875,0.1088
0.6412213740458015,0.7175572519083969,-1.1145038167938932,-0.460693359375,-0.09619140625,-0.12451171875,0.11049999999999999
0.3816793893129771,0.6412213740458015,-1.1450381679389312,-0.462158203125,-0.095703125,-0.121337890625,0.1122
0.3053435114503817,0.732824427480916,-1.3435114503816794,-0.465576171875,-0.095703125,-0.118408203125,0.11389999999999999
0.366412213740458,0.732824427480916,-0.9770992366412213,-0.464599609375,-0.10009765625,-0.125,0.1156
0.3511450381679389,0.8702290076335878,-1.0687022900763359,-0.460205078125,-0.09326171875,-0.125244140625,0.11729999999999999
0.3511450381679389,1.251908396946565,-1.297709923664122,-0.463623046875,-0.095947265625,-0.12939453125,0.119
0.366412213740458,1.0076335877862594,-1.2061068702290076,-0.4619140625,-0.09814453125,-0.127197265625,0.12069999999999999
0.183206106870229,1.0534351145038168,-1.083969465648855,-0.464599609375,-0.097412109375,-0.123046875,0.1224
0.22900763358778625,0.916030534351145,-0.9923664122137404,-0.462158203125,-0.09814453125,-0.129638671875,0.12409999999999999
0.1984732824427481,1.0229007633587786,-1.3282442748091603,-0.4658203125,-0.091552734375,-0.131591796875,0.1258
0.3053435114503817,0.9618320610687023,-1.2213740458015268,-0.462158203125,-0.097412109375,-0.126708984375,0.1275
0.48854961832061067,0.8549618320610687,-1.1145038167938932,-0.466064453125,-0.092041015625,-0.123291015625,0.12919999999999998
0.1984732824427481,1.0534351145038168,-1.3129770992366412,-0.460205078125,-0.088134765625,-0.122802734375,0.1309
0.4732824427480916,0.9312977099236641,-1.3893129770992367,-0.458984375,-0.087646484375,-0.133056640625,0.1326
0.549618320610687,0.8396946564885496,-1.618320610687023,-0.464111328125,-0.099853515625,-0.125244140625,0.1343
0.5343511450381679,1.0381679389312977,-1.5114503816793894,-0.459716796875,-0.098876953125,-0.123291015625,0.13599999999999998
0.4580152671755725,0.9923664122137404,-1.4351145038167938,-0.46240234375,-0.09912109375,-0.130126953125,0.1377
0.3511450381679389,0.7022900763358778,-1.4961832061068703,-0.460693359375,-0.0986328125,-0.125244140625,0.1394
0.366412213740458,0.8702290076335878,-1.6488549618320612,-0.4599609375,-0.09375,-0.12451171875,0.1411
0.6717557251908397,0.9007633587786259,-1.7709923664122138,-0.45947265625,-0.096923828125,-0.130859375,0.14279999999999998
0.4732824427480916,0.8549618320610687,-1.83206106870229,-0.46240234375,-0.095703125,-0.11767578125,0.1445
0.16793893129770993,0.7633587786259542,-1.6946564885496183,-0.462158203125,-0.0927734375,-0.12548828125,0.1462
0.061068702290076333,0.916030534351145,-1.83206106870229,-0.45849609375,-0.0927734375,-0.12109375,0.1479
0.10687022900763359,0.9312977099236641,-1.8625954198473282,-0.4580078125,-0.094970703125,-0.129150390625,0.14959999999999998
0.07633587786259542,0.8396946564885496,-1.984732824427481,-0.459716796875,-0.0927734375,-0.138916015625,0.1513
0.030534351145038167,0.8396946564885496,-1.7709923664122138,-0.46240234375,-0.09423828125,-0.1279296875,0.153
0.10687022900763359,0.9923664122137404,-1.8778625954198473,-0.46142578125,-0.090087890625,-0.120849609375,0.1547
0.10687022900763359,0.9923664122137404,-2.015267175572519,-0.455810546875,-0.09228515625,-0.122802734375,0.15639999999999998
0.2900763358778626,0.8549618320610687,-2.0,-0.45654296875,-0.0927734375,-0.1357421875,0.1581
0.21374045801526717,0.8244274809160306,-1.7709923664122138,-0.452880859375,-0.0888671875,-0.13427734375,0.1598
0.24427480916030533,0.8091603053435115,-1.8931297709923665,-0.45458984375,-0.088134765625,-0.130859375,0.1615
0.33587786259541985,0.916030534351145,-1.6793893129770991,-0.4609375,-0.09130859375,-0.12158203125,0.16319999999999998
0.4732824427480916,0.8702290076335878,-1.8931297709923665,-0.460205078125,-0.087158203125,-0.12890625,0.1649
0.3816793893129771,0.7786259541984732,-1.7251908396946565,-0.458984375,-0.0849609375,-0.135498046875,0.1666
0.48854961832061067,0.9770992366412213,-1.7709923664122138,-0.458740234375,-0.086181640625,-0.1279296875,0.16829999999999998
0.6717557251908397,0.7938931297709924,-1.5572519083969465,-0.460693359375,-0.088623046875,-0.1318359375,0.16999999999999998
0.8244274809160306,0.9007633587786259,-1.7709923664122138,-0.4541015625,-0.087158203125,-0.127197265625,0.1717
0.9007633587786259,0.8702290076335878,-1.6946564885496183,-0.45556640625,-0.092041015625,-0.13232421875,0.1734
0.9465648854961832,1.0381679389312977,-1.4198473282442747,-0.4580078125,-0.0869140625,-0.127197265625,0.17509999999999998
1.1603053435114503,0.6564885496183206,-1.4351145038167938,-0.45849609375,-0.089599609375,-0.1298828125,0.17679999999999998
1.1450381679389312,0.6412213740458015,-1.297709923664122,-0.459228515625,-0.088623046875,-0.135498046875,0.1785
1.297709923664122,0.8091603053435115,-1.251908396946565,-0.45947265625,-0.092529296875,-0.123291015625,0.1802
1.5877862595419847,0.9770992366412213,-1.3893129770992367,-0.462646484375,-0.08984375,-0.12841796875,0.18189999999999998
1.4809160305343512,0.8244274809160306,-1.2671755725190839,-0.458984375,-0.08837890625,-0.13232421875,0.18359999999999999
1.7099236641221374,0.916030534351145,-1.2366412213740459,-0.4560546875,-0.0830078125,-0.128662109375,0.1853
1.8778625954198473,1.0534351145038168,-1.3129770992366412,-0.457763671875,-0.084716796875,-0.12744140625,0.187
1.8931297709923665,1.0381679389312977,-1.3129770992366412,-0.46240234375,-0.08984375,-0.13720703125,0.18869999999999998
1.9694656488549618,1.1297709923664123,-1.0687022900763359,-0.45751953125,-0.090576171875,-0.124755859375,0.19039999999999999
2.0763358778625953,1.0229007633587786,-0.9618320610687023,-0.46044921875,-0.096435546875,-0.123779296875,0.1921
2.1526717557251906,1.2213740458015268,-1.0229007633587786,-0.458251953125,-0.094482421875,-0.12451171875,0.1938
2.3206106870229006,1.2671755725190839,-1.1755725190839694,-0.4580078125,-0.091064453125,-0.11767578125,0.19549999999999998
2.198473282442748,1.3282442748091603,-1.282442748091603,-0.4599609375,-0.0927734375,-0.12353515625,0.1972
2.1374045801526718,1.3740458015267176,-0.9618320610687023,-0.458984375,-0.091064453125,-0.12890625,0.1989
2.3053435114503817,1.5114503816793894,-1.0076335877862594,-0.45556640625,-0.094970703125,-0.126220703125,0.2006
2.4122137404580153,1.5267175572519085,-1.0534351145038168,-0.456298828125,-0.092529296875,-0.12109375,0.20229999999999998
2.4427480916030535,1.4961832061068703,-0.8702290076335878,-0.45458984375,-0.0927734375,-0.126953125,0.204
2.4427480916030535,1.3282442748091603,-1.0534351145038168,-0.458984375,-0.09326171875,-0.129150390625,0.2057
2.2900763358778624,1.450381679389313,-1.2213740458015268,-0.4541015625,-0.09521484375,-0.123291015625,0.2074
2.2748091603053435,1.297709923664122,-1.2061068702290076,-0.45947265625,-0.092529296875,-0.1220703125,0.20909999999999998
2.5343511450381677,1.3587786259541985,-1.1297709923664123,-0.4599609375,-0.098876953125,-0.12744140625,0.2108
2.4580152671755724,1.4961832061068703,-1.1908396946564885,-0.4599609375,-0.098388671875,-0.130859375,0.2125
2.366412213740458,1.3587786259541985,-1.3282442748091603,-0.45947265625,-0.094482421875,-0.1318359375,0.2142
2.4885496183206106,1.2671755725190839,-1.2061068702290076,-0.457275390625,-0.09765625,-0.12646484375,0.21589999999999998
2.5801526717557253,1.4809160305343512,-1.1603053435114503,-0.45654296875,-0.097900390625,-0.125,0.2176
2.33587786259542,1.3740458015267176,-1.1603053435114503,-0.457763671875,-0.09765625,-0.13232421875,0.2193
2.351145038167939,1.3129770992366412,-1.4198473282442747,-0.46142578125,-0.093505859375,-0.133544921875,0.22099999999999997
2.595419847328244,1.3282442748091603,-1.297709923664122,-0.457763671875,-0.0986328125,-0.12744140625,0.22269999999999998
2.381679389312977,1.4961832061068703,-1.1450381679389312,-0.46533203125,-0.091552734375,-0.122802734375,0.2244
2.4732824427480917,1.465648854961832,-1.2213740458015268,-0.458740234375,-0.1044921875,-0.12060546875,0.2261
2.549618320610687,1.1908396946564885,-1.0687022900763359,-0.457763671875,-0.10205078125,-0.129150390625,0.22779999999999997
2.595419847328244,1.2061068702290076,-1.1145038167938932,-0.458740234375,-0.0986328125,-0.13037109375,0.22949999999999998
2.5801526717557253,1.2366412213740459,-1.099236641221374,-0.46240234375,-0.1044921875,-0.134033203125,0.2312
2.50381679389313,1.0687022900763359,-1.1145038167938932,-0.462890625,-0.100341796875,-0.123046875,0.2329
2.4885496183206106,1.0229007633587786,-1.2366412213740459,-0.46435546875,-0.098388671875,-0.120849609375,0.23459999999999998
2.33587786259542,1.282442748091603,-1.1908396946564885,-0.462646484375,-0.099853515625,-0.127197265625,0.23629999999999998
2.4580152671755724,1.0687022900763359,-1.297709923664122,-0.461181640625,-0.09375,-0.132080078125,0.238
2.3053435114503817,1.1297709923664123,-1.2213740458015268,-0.46142578125,-0.097412109375,-0.126708984375,0.2397
2.2900763358778624,1.2213740458015268,-1.3435114503816794,-0.462890625,-0.09912109375,-0.137451171875,0.24139999999999998
2.198473282442748,1.1908396946564885,-1.297709923664122,-0.46044921875,-0.0966796875,-0.134033203125,0.24309999999999998
2.2595419847328246,1.1450381679389312,-1.282442748091603,-0.46044921875,-0.09765625,-0.132568359375,0.2448
2.0763358778625953,1.2061068702290076,-1.1603053435114503,-0.4580078125,-0.095458984375,-0.1279296875,0.2465
1.8778625954198473,1.0229007633587786,-1.2671755725190839,-0.460205078125,-0.10107421875,-0.136962890625,0.24819999999999998
1.618320610687023,1.1145038167938932,-1.251908396946565,-0.4599609375,-0.100830078125,-0.135498046875,0.24989999999999998
2.045801526717557,1.297709923664122,-1.099236641221374,-0.4619140625,-0.0966796875,-0.13427734375,0.2516
1.7404580152671756,1.3435114503816794,-1.083969465648855,-0.459716796875,-0.105224609375,-0.13818359375,0.25329999999999997
1.465648854961832,1.1908396946564885,-1.251908396946565,-0.457763671875,-0.09716796875,-0.132568359375,0.255
1.6488549618320612,1.099236641221374,-1.2061068702290076,-0.457763671875,-0.099609375,-0.1240234375,0.2567
1.5725190839694656,1.1908396946564885,-1.1145038167938932,-0.4599609375,-0.099365234375,-0.125732421875,0.25839999999999996
1.2366412213740459,1.1297709923664123,-1.1755725190839694,-0.457275390625,-0.093505859375,-0.117431640625,0.2601
1.1297709923664123,1.0381679389312977,-1.1908396946564885,-0.45556640625,-0.10205078125,-0.121337890625,0.2618
1.3129770992366412,1.083969465648855,-1.2366412213740459,-0.45849609375,-0.0986328125,-0.131103515625,0.2635
1.2366412213740459,1.1755725190839694,-1.3129770992366412,-0.4521484375,-0.097412109375,-0.1279296875,0.2652
1.0076335877862594,0.9007633587786259,-1.3282442748091603,-0.451904296875,-0.10107421875,-0.12255859375,0.26689999999999997
1.2213740458015268,0.8244274809160306,-1.0534351145038168,-0.461669921875,-0.097412109375,-0.124267578125,0.2686
1.1603053435114503,0.8244274809160306,-1.1145038167938932,-0.458251953125,-0.0947265625,-0.12451171875,0.2703
1.1450381679389312,0.7938931297709924,-1.3893129770992367,-0.46044921875,-0.098388671875,-0.1259765625,0.27199999999999996
1.0229007633587786,1.083969465648855,-1.2366412213740459,-0.456298828125,-0.0986328125,-0.1259765625,0.2737
1.297709923664122,1.1145038167938932,-1.2671755725190839,-0.45703125,-0.094482421875,-0.136474609375,0.2754
1.3282442748091603,0.7786259541984732,-1.1603053435114503,-0.4560546875,-0.095947265625,-0.13134765625,0.27709999999999996
1.251908396946565,0.9923664122137404,-1.2366412213740459,-0.45947265625,-0.0966796875,-0.1259765625,0.2788
1.251908396946565,0.916030534351145,-1.1755725190839694,-0.452880859375,-0.09765625,-0.119384765625,0.28049999999999997
1.1297709923664123,0.9923664122137404,-1.3129770992366412,-0.4521484375,-0.09814453125,-0.121826171875,0.2822
1.2213740458015268,1.099236641221374,-1.1755725190839694,-0.454345703125,-0.095703125,-0.126708984375,0.2839
1.2366412213740459,0.9618320610687023,-1.282442748091603,-0.460205078125,-0.09228515625,-0.124267578125,0.28559999999999997
1.282442748091603,1.282442748091603,-1.1755725190839694,-0.456298828125,-0.08935546875,-0.13134765625,0.2873
1.3282442748091603,1.2213740458015268,-1.3282442748091603,-0.456787109375,-0.08837890625,-0.134521484375,0.289
1.2671755725190839,1.0076335877862594,-1.2061068702290076,-0.461181640625,-0.09716796875,-0.125732421875,0.29069999999999996
1.4198473282442747,1.0534351145038168,-1.1755725190839694,-0.454345703125,-0.097900390625,-0.135498046875,0.2924
1.251908396946565,1.2061068702290076,-1.2061068702290076,-0.4580078125,-0.096435546875,-0.133544921875,0.2941
1.251908396946565,1.2061068702290076,-1.3129770992366412,-0.457763671875,-0.095458984375,-0.1201171875,0.2958
1.3435114503816794,1.2366412213740459,-1.3435114503816794,-0.45556640625,-0.09326171875,-0.11669921875,0.2975
1.5267175572519085,1.1297709923664123,-1.3435114503816794,-0.455322265625,-0.091064453125,-0.12548828125,0.29919999999999997
1.3740458015267176,1.251908396946565,-1.4961832061068703,-0.458984375,-0.092529296875,-0.124755859375,0.3009
1.3740458015267176,1.1755725190839694,-1.6641221374045803,-0.457763671875,-0.099609375,-0.119140625,0.3026
1.4351145038167938,1.1603053435114503,-1.251908396946565,-0.453125,-0.094482421875,-0.128173828125,0.30429999999999996
1.633587786259542,1.1297709923664123,-1.3435114503816794,-0.458984375,-0.093017578125,-0.12890625,0.306
1.450381679389313,1.1297709923664123,-1.3435114503816794,-0.45947265625,-0.093017578125,-0.13037109375,0.3077
1.5572519083969465,1.0687022900763359,-1.5419847328244274,-0.45654296875,-0.092041015625,-0.128173828125,0.3094
1.7251908396946565,1.083969465648855,-1.3587786259541985,-0.457275390625,-0.099609375,-0.124755859375,0.3111
2.0,1.0687022900763359,-1.3893129770992367,-0.45166015625,-0.09814453125,-0.1328125,0.31279999999999997
1.786259541984733,1.1450381679389312,-1.450381679389313,-0.45068359375,-0.09619140625,-0.134033203125,0.3145
2.1374045801526718,1.0534351145038168,-1.4198473282442747,-0.458984375,-0.0947265625,-0.13037109375,0.3162
2.0916030534351147,1.083969465648855,-1.3740458015267176,-0.4580078125,-0.093994140625,-0.123291015625,0.31789999999999996
2.213740458015267,1.3282442748091603,-1.3282442748091603,-0.459228515625,-0.09326171875,-0.128662109375,0.3196
2.2748091603053435,1.3129770992366412,-1.4198473282442747,-0.457763671875,-0.09130859375,-0.1201171875,0.3213
2.351145038167939,1.1603053435114503,-1.465648854961832,-0.459716796875,-0.0908203125,-0.127197265625,0.323
2.3969465648854964,1.3282442748091603,-1.3893129770992367,-0.458251953125,-0.097900390625,-0.129150390625,0.3247
2.732824427480916,1.5114503816793894,-1.618320610687023,-0.454345703125,-0.09326171875,-0.131103515625,0.32639999999999997
2.564885496183206,1.4198473282442747,-1.0687022900763359,-0.451416015625,-0.09033203125,-0.134521484375,0.3281
2.717557251908397,1.465648854961832,-1.3740458015267176,-0.45263671875,-0.095947265625,-0.133056640625,0.3298
2.8091603053435112,1.5877862595419847,-1.3740458015267176,-0.4580078125,-0.0927734375,-0.125732421875,0.33149999999999996
2.8702290076335877,1.6030534351145038,-1.6641221374045803,-0.457763671875,-0.091796875,-0.130859375,0.3332
2.5801526717557253,1.6488549618320612,-1.282442748091603,-0.451416015625,-0.092529296875,-0.128173828125,0.3349
2.7480916030534353,1.5267175572519085,-1.2671755725190839,-0.455322265625,-0.087890625,-0.12841796875,0.33659999999999995
2.854961832061069,1.6488549618320612,-1.3282442748091603,-0.452880859375,-0.09375,-0.124267578125,0.3383
2.732824427480916,1.450381679389313,-1.4198473282442747,-0.45263671875,-0.094970703125,-0.126708984375,0.33999999999999997
2.9160305343511452,1.3282442748091603,-1.3129770992366412,-0.4541015625,-0.095947265625,-0.12451171875,0.3417
2.717557251908397,1.3435114503816794,-1.282442748091603,-0.45263671875,-0.0966796875,-0.12890625,0.3434
2.854961832061069,1.1145038167938932,-1.2671755725190839,-0.4541015625,-0.09375,-0.13134765625,0.34509999999999996
2.8244274809160306,1.099236641221374,-1.4045801526717556,-0.449462890625,-0.092529296875,-0.1298828125,0.3468
2.8396946564885495,1.251908396946565,-1.2366412213740459,-0.45458984375,-0.097900390625,-0.1337890625,0.3485
2.6717557251908395,0.9923664122137404,-1.2671755725190839,-0.457275390625,-0.0908203125,-0.13134765625,0.35019999999999996
2.4122137404580153,0.8549618320610687,-0.9770992366412213,-0.455322265625,-0.09912109375,-0.129150390625,0.3519
2.687022900763359,0.9007633587786259,-1.4045801526717556,-0.458984375,-0.094970703125,-0.13134765625,0.35359999999999997
2.50381679389313,0.7175572519083969,-1.3282442748091603,-0.460205078125,-0.09619140625,-0.128662109375,0.3553
2.519083969465649,0.6717557251908397,-1.0534351145038168,-0.46142578125,-0.093505859375,-0.123046875,0.357
2.381679389312977,0.6870229007633588,-1.099236641221374,-0.458984375,-0.09228515625,-0.12255859375,0.35869999999999996
2.213740458015267,0.7633587786259542,-1.1908396946564885,-0.455078125,-0.09423828125,-0.125,0.3604
2.16793893129771,0.7480916030534351,-1.0076335877862594,-0.46240234375,-0.095458984375,-0.123046875,0.3621
2.045801526717557,0.7633587786259542,-1.1297709923664123,-0.457763671875,-0.096435546875,-0.130615234375,0.36379999999999996
1.8473282442748091,0.9007633587786259,-1.083969465648855,-0.45947265625,-0.096923828125,-0.119140625,0.3655
1.6793893129770991,0.9923664122137404,-0.9923664122137404,-0.45703125,-0.09326171875,-0.1240234375,0.36719999999999997
1.7709923664122138,1.1908396946564885,-0.8396946564885496,-0.45849609375,-0.096435546875,-0.12890625,0.3689
1.618320610687023,1.099236641221374,-0.9923664122137404,-0.459716796875,-0.098388671875,-0.126953125,0.3706
1.1755725190839694,1.2213740458015268,-0.8244274809160306,-0.45654296875,-0.099365234375,-0.126220703125,0.37229999999999996
1.2213740458015268,1.0076335877862594,-0.9618320610687023,-0.453125,-0.097900390625,-0.12548828125,0.374
1.2671755725190839,1.3282442748091603,-0.7786259541984732,-0.4580078125,-0.094970703125,-0.12548828125,0.3757
1.0076335877862594,1.4198473282442747,-0.9618320610687023,-0.458740234375,-0.09716796875,-0.13134765625,0.37739999999999996
0.9312977099236641,1.2061068702290076,-0.916030534351145,-0.458984375,-0.0908203125,-0.129638671875,0.3791
0.9007633587786259,1.2366412213740459,-1.1145038167938932,-0.45556640625,-0.098388671875,-0.123291015625,0.38079999999999997
0.7022900763358778,1.1450381679389312,-0.7175572519083969,-0.459716796875,-0.095947265625,-0.12841796875,0.38249999999999995
0.732824427480916,1.3893129770992367,-0.8702290076335878,-0.4619140625,-0.095703125,-0.11865234375,0.3842
0.6259541984732825,1.3587786259541985,-0.9618320610687023,-0.45458984375,-0.10009765625,-0.122802734375,0.38589999999999997
0.6717557251908397,1.099236641221374,-0.9312977099236641,-0.46435546875,-0.097900390625,-0.119140625,0.3876
0.5954198473282443,0.9312977099236641,-1.083969465648855,-0.46435546875,-0.098388671875,-0.128662109375,0.3893
0.5190839694656488,0.9923664122137404,-1.0687022900763359,-0.4560546875,-0.095703125,-0.1171875,0.39099999999999996
0.4732824427480916,0.7480916030534351,-0.9618320610687023,-0.4599609375,-0.09765625,-0.125732421875,0.3927
0.5954198473282443,0.732824427480916,-1.099236641221374,-0.4580078125,-0.0947265625,-0.120849609375,0.3944
0.6259541984732825,0.7633587786259542,-1.099236641221374,-0.459228515625,-0.0966796875,-0.11865234375,0.39609999999999995
0.7022900763358778,0.7022900763358778,-0.9618320610687023,-0.45458984375,-0.0986328125,-0.127685546875,0.3978
0.6259541984732825,0.7175572519083969,-1.0534351145038168,-0.45458984375,-0.097900390625,-0.12158203125,0.39949999999999997
0.7480916030534351,0.5190839694656488,-1.282442748091603,-0.463623046875,-0.094482421875,-0.130859375,0.4012
0.9312977099236641,0.5343511450381679,-1.4198473282442747,-0.465576171875,-0.09326171875,-0.12890625,0.4029
0.7480916030534351,0.549618320610687,-1.3740458015267176,-0.459716796875,-0.095947265625,-0.134521484375,0.40459999999999996
0.9770992366412213,0.5343511450381679,-1.2213740458015268,-0.462158203125,-0.0966796875,-0.133544921875,0.4063
0.9618320610687023,0.7480916030534351,-1.4045801526717556,-0.461181640625,-0.093505859375,-0.128662109375,0.408
0.7633587786259542,0.5038167938931297,-1.2213740458015268,-0.46533203125,-0.09765625,-0.12353515625,0.40969999999999995
0.9312977099236641,0.48854961832061067,-1.3740458015267176,-0.458984375,-0.09716796875,-0.135009765625,0.4114
1.297709923664122,0.5190839694656488,-1.450381679389313,-0.461181640625,-0.09326171875,-0.12646484375,0.41309999999999997
1.1755725190839694,0.7175572519083969,-1.5267175572519085,-0.46630859375,-0.09912109375,-0.133056640625,0.4148
1.1145038167938932,0.6106870229007634,-1.6488549618320612,-0.462890625,-0.09326171875,-0.130859375,0.4165
1.0229007633587786,0.6564885496183206,-1.7709923664122138,-0.46435546875,-0.089599609375,-0.1240234375,0.41819999999999996
1.1145038167938932,0.9770992366412213,-1.6641221374045803,-0.4638671875,-0.09033203125,-0.128173828125,0.4199
1.0229007633587786,0.9465648854961832,-1.7251908396946565,-0.46044921875,-0.091552734375,-0.12841796875,0.4216
1.1450381679389312,1.0687022900763359,-1.6946564885496183,-0.46044921875,-0.093505859375,-0.1259765625,0.42329999999999995
1.2061068702290076,1.1145038167938932,-1.9083969465648856,-0.465576171875,-0.0966796875,-0.1328125,0.425
1.4045801526717556,1.2671755725190839,-1.786259541984733,-0.45751953125,-0.091796875,-0.134521484375,0.42669999999999997
1.1297709923664123,1.2366412213740459,-1.8778625954198473,-0.45947265625,-0.089111328125,-0.12744140625,0.4284
1.1297709923664123,1.251908396946565,-1.8778625954198473,-0.459228515625,-0.09326171875,-0.11767578125,0.4301
1.3435114503816794,1.251908396946565,-1.7251908396946565,-0.458740234375,-0.091796875,-0.132080078125,0.43179999999999996
1.1755725190839694,1.251908396946565,-1.786259541984733,-0.46044921875,-0.0908203125,-0.12939453125,0.4335
1.3282442748091603,1.2061068702290076,-1.786259541984733,-0.462158203125,-0.088134765625,-0.12158203125,0.4352
1.2671755725190839,1.2061068702290076,-1.7251908396946565,-0.460693359375,-0.094970703125,-0.1376953125,0.43689999999999996
1.450381679389313,1.282442748091603,-1.6488549618320612,-0.46142578125,-0.094482421875,-0.143310546875,0.4386
1.1603053435114503,1.4045801526717556,-1.8473282442748091,-0.4619140625,-0.093994140625,-0.128662109375,0.44029999999999997
1.1450381679389312,1.3282442748091603,-1.7099236641221374,-0.457275390625,-0.090087890625,-0.119873046875,0.44199999999999995
1.1450381679389312,1.465648854961832,-1.7099236641221374,-0.45947265625,-0.092529296875,-0.133056640625,0.4437
1.1908396946564885,1.4351145038167938,-1.6641221374045803,-0.460205078125,-0.099853515625,-0.133544921875,0.44539999999999996
0.916030534351145,1.3893129770992367,-1.7251908396946565,-0.459716796875,-0.087890625,-0.127685546875,0.4471
0.9618320610687023,1.4045801526717556,-1.633587786259542,-0.456298828125,-0.092041015625,-0.124755859375,0.4488
0.8549618320610687,1.4045801526717556,-1.633587786259542,-0.460693359375,-0.09375,-0.127197265625,0.45049999999999996
1.1603053435114503,1.282442748091603,-1.5877862595419847,-0.4599609375,-0.098388671875,-0.118408203125,0.4522
1.083969465648855,1.282442748091603,-1.618320610687023,-0.456787109375,-0.092041015625,-0.12451171875,0.45389999999999997
1.099236641221374,1.1145038167938932,-1.3893129770992367,-0.45703125,-0.09375,-0.135986328125,0.45559999999999995
0.9465648854961832,1.2366412213740459,-1.7404580152671756,-0.458984375,-0.08837890625,-0.123779296875,0.4573
1.0229007633587786,1.0229007633587786,-1.6793893129770991,-0.4599609375,-0.097412109375,-0.120849609375,0.45899999999999996
0.9618320610687023,1.1297709923664123,-1.4961832061068703,-0.460205078125,-0.0966796875,-0.1220703125,0.4607
0.6870229007633588,0.8549618320610687,-1.5419847328244274,-0.45556640625,-0.09521484375,-0.1259765625,0.4624
0.8091603053435115,0.7633587786259542,-1.6793893129770991,-0.4599609375,-0.09765625,-0.123779296875,0.46409999999999996
0.9923664122137404,0.9312977099236641,-1.7099236641221374,-0.45849609375,-0.092041015625,-0.12451171875,0.4658
0.9618320610687023,0.8091603053435115,-1.450381679389313,-0.45947265625,-0.09912109375,-0.127197265625,0.46749999999999997
0.8854961832061069,0.8854961832061069,-1.5419847328244274,-0.455078125,-0.093017578125,-0.12451171875,0.46919999999999995
0.8396946564885496,0.9007633587786259,-1.4809160305343512,-0.455322265625,-0.092529296875,-0.1279296875,0.4709
0.7938931297709924,0.8244274809160306,-1.4809160305343512,-0.457763671875,-0.091796875,-0.12939453125,0.47259999999999996
0.916030534351145,0.9312977099236641,-1.3893129770992367,-0.460205078125,-0.09326171875,-0.125,0.4743
0.8396946564885496,0.9618320610687023,-1.3587786259541985,-0.460205078125,-0.095458984375,-0.120849609375,0.476
0.8244274809160306,0.916030534351145,-1.5572519083969465,-0.4541015625,-0.09228515625,-0.124267578125,0.47769999999999996
1.0534351145038168,0.9312977099236641,-1.5877862595419847,-0.45556640625,-0.0927734375,-0.12353515625,0.4794
1.0229007633587786,1.0687022900763359,-1.3282442748091603,-0.45556640625,-0.0986328125,-0.123291015625,0.48109999999999997
1.0076335877862594,0.8091603053435115,-1.1755725190839694,-0.45703125,-0.09619140625,-0.12451171875,0.48279999999999995
1.0687022900763359,0.916030534351145,-1.2366412213740459,-0.45703125,-0.09814453125,-0.122314453125,0.4845
1.1755725190839694,0.9618320610687023,-1.1755725190839694,-0.459228515625,-0.095458984375,-0.135498046875,0.48619999999999997
1.3282442748091603,0.9770992366412213,-1.3740458015267176,-0.46044921875,-0.099853515625,-0.135498046875,0.4879
1.4045801526717556,1.1145038167938932,-1.4198473282442747,-0.457275390625,-0.099853515625,-0.126953125,0.4896
1.465648854961832,0.9770992366412213,-1.1755725190839694,-0.46142578125,-0.094970703125,-0.12939453125,0.49129999999999996
1.251908396946565,1.0687022900763359,-1.251908396946565,-0.4599609375,-0.094970703125,-0.119384765625,0.493
1.4351145038167938,1.0534351145038168,-1.2061068702290076,-0.458984375,-0.09716796875,-0.11865234375,0.4947
1.633587786259542,1.1755725190839694,-1.0381679389312977,-0.457763671875,-0.094482421875,-0.116943359375,0.49639999999999995
1.4045801526717556,1.0076335877862594,-0.9923664122137404,-0.462890625,-0.09228515625,-0.122314453125,0.4981
1.4351145038167938,1.099236641221374,-1.0687022900763359,-0.459716796875,-0.0908203125,-0.128173828125,0.49979999999999997
1.465648854961832,1.1297709923664123,-1.1297709923664123,-0.457275390625,-0.09423828125,-0.1337890625,0.5015
1.7557251908396947,1.0229007633587786,-1.0381679389312977,-0.45361328125,-0.0986328125,-0.1201171875,0.5032
1.6946564885496183,1.0687022900763359,-0.9312977099236641,-0.454345703125,-0.0947265625,-0.123046875,0.5049
1.9389312977099236,1.1145038167938932,-1.1603053435114503,-0.4580078125,-0.093505859375,-0.127685546875,0.5065999999999999
1.6488549618320612,1.1755725190839694,-1.0534351145038168,-0.457275390625,-0.097900390625,-0.13037109375,0.5083
1.7099236641221374,1.2213740458015268,-1.083969465648855,-0.458251953125,-0.09765625,-0.129150390625,0.51
1.8473282442748091,1.2671755725190839,-1.0381679389312977,-0.460205078125,-0.099365234375,-0.135009765625,0.5116999999999999
1.5877862595419847,1.2213740458015268,-1.099236641221374,-0.46142578125,-0.09423828125,-0.1259765625,0.5134
1.5572519083969465,1.1297709923664123,-1.282442748091603,-0.45556640625,-0.099609375,-0.1279296875,0.5151
1.6793893129770991,1.083969465648855,-1.3282442748091603,-0.460693359375,-0.095947265625,-0.12353515625,0.5167999999999999
1.6641221374045803,1.1297709923664123,-1.450381679389313,-0.46142578125,-0.105224609375,-0.13427734375,0.5185
1.633587786259542,1.0687022900763359,-1.3587786259541985,-0.458740234375,-0.093994140625,-0.125244140625,0.5202
1.633587786259542,1.0381679389312977,-1.3282442748091603,-0.4638671875,-0.097900390625,-0.13037109375,0.5218999999999999
1.7404580152671756,0.9923664122137404,-1.2366412213740459,-0.45947265625,-0.098876953125,-0.133544921875,0.5236
1.4198473282442747,1.1145038167938932,-1.3282442748091603,-0.462646484375,-0.095458984375,-0.123046875,0.5253
1.5572519083969465,1.1145038167938932,-1.4351145038167938,-0.46142578125,-0.099853515625,-0.124755859375,0.527
1.2366412213740459,1.0229007633587786,-1.816793893129771,-0.4638671875,-0.099853515625,-0.1337890625,0.5287
1.3435114503816794,1.0534351145038168,-1.4198473282442747,-0.4677734375,-0.09912109375,-0.12939453125,0.5304
1.465648854961832,1.3587786259541985,-1.83206106870229,-0.45947265625,-0.103515625,-0.123779296875,0.5321
1.3435114503816794,1.1755725190839694,-1.786259541984733,-0.464599609375,-0.098876953125,-0.13330078125,0.5337999999999999
1.2671755725190839,1.1450381679389312,-1.6488549618320612,-0.458740234375,-0.099853515625,-0.130126953125,0.5355
1.4045801526717556,1.2213740458015268,-1.3893129770992367,-0.451171875,-0.100830078125,-0.13330078125,0.5372
1.4198473282442747,1.2061068702290076,-1.5725190839694656,-0.460205078125,-0.099853515625,-0.131103515625,0.5388999999999999
1.4809160305343512,1.3282442748091603,-1.3587786259541985,-0.463134765625,-0.101806640625,-0.13330078125,0.5406
1.618320610687023,1.3587786259541985,-1.5419847328244274,-0.456787109375,-0.096435546875,-0.130859375,0.5423
1.5114503816793894,1.3129770992366412,-1.3893129770992367,-0.46240234375,-0.095458984375,-0.12744140625,0.5439999999999999
1.4045801526717556,1.465648854961832,-1.5877862595419847,-0.460205078125,-0.098876953125,-0.12744140625,0.5457
1.7709923664122138,1.4045801526717556,-1.1450381679389312,-0.45947265625,-0.09716796875,-0.135498046875,0.5474
1.8778625954198473,1.450381679389313,-1.2213740458015268,-0.458984375,-0.08740234375,-0.12255859375,0.5490999999999999
1.8015267175572518,1.4045801526717556,-1.1755725190839694,-0.45849609375,-0.093505859375,-0.12841796875,0.5508
1.8015267175572518,1.465648854961832,-1.1450381679389312,-0.4560546875,-0.092529296875,-0.128173828125,0.5525
1.8015267175572518,1.2671755725190839,-1.0534351145038168,-0.453857421875,-0.09375,-0.129638671875,0.5541999999999999
2.213740458015267,1.3282442748091603,-1.3740458015267176,-0.45361328125,-0.096435546875,-0.128173828125,0.5559
2.045801526717557,1.297709923664122,-1.0534351145038168,-0.4580078125,-0.09326171875,-0.123291015625,0.5576
2.045801526717557,1.0534351145038168,-1.099236641221374,-0.4580078125,-0.095947265625,-0.12744140625,0.5593
2.030534351145038,1.0687022900763359,-1.1450381679389312,-0.459228515625,-0.094970703125,-0.122802734375,0.5609999999999999
1.9236641221374047,1.4045801526717556,-0.9923664122137404,-0.45947265625,-0.094482421875,-0.119873046875,0.5627
1.6030534351145038,1.1603053435114503,-0.9770992366412213,-0.460205078125,-0.094970703125,-0.12255859375,0.5644
2.1374045801526718,1.0381679389312977,-1.0229007633587786,-0.46044921875,-0.098388671875,-0.124267578125,0.5660999999999999
2.045801526717557,1.0687022900763359,-1.0229007633587786,-0.4609375,-0.0927734375,-0.12646484375,0.5678
1.465648854961832,1.1603053435114503,-1.099236641221374,-0.45849609375,-0.09521484375,-0.118896484375,0.5695
1.4961832061068703,0.9770992366412213,-1.0534351145038168,-0.458740234375,-0.093017578125,-0.127685546875,0.5711999999999999
1.5114503816793894,1.0381679389312977,-1.0534351145038168,-0.46044921875,-0.09619140625,-0.127197265625,0.5729
1.450381679389313,0.9618320610687023,-1.0534351145038168,-0.45361328125,-0.09521484375,-0.123779296875,0.5746
1.1603053435114503,1.1297709923664123,-1.1297709923664123,-0.45849609375,-0.08984375,-0.12158203125,0.5762999999999999
1.2366412213740459,1.1755725190839694,-1.1297709923664123,-0.458984375,-0.09423828125,-0.1201171875,0.578
1.4045801526717556,1.0687022900763359,-1.099236641221374,-0.457275390625,-0.09521484375,-0.1357421875,0.5797
1.3282442748091603,1.0687022900763359,-1.0229007633587786,-0.453857421875,-0.094970703125,-0.131591796875,0.5813999999999999
1.1603053435114503,1.0534351145038168,-1.0229007633587786,-0.45751953125,-0.09375,-0.128662109375,0.5831
0.6259541984732825,1.2671755725190839,-1.0534351145038168,-0.458251953125,-0.098388671875,-0.12255859375,0.5848
0.7480916030534351,1.2213740458015268,-1.297709923664122,-0.457275390625,-0.096435546875,-0.12451171875,0.5865
0.7938931297709924,1.083969465648855,-1.1145038167938932,-0.453857421875,-0.09765625,-0.12646484375,0.5882
0.7022900763358778,1.0381679389312977,-1.1603053435114503,-0.452392578125,-0.0966796875,-0.130859375,0.5899
0.4122137404580153,1.1755725190839694,-1.3129770992366412,-0.453857421875,-0.097900390625,-0.132080078125,0.5916
0.5343511450381679,0.9465648854961832,-1.2671755725190839,-0.45947265625,-0.09521484375,-0.13037109375,0.5932999999999999
0.7022900763358778,1.0687022900763359,-1.2061068702290076,-0.460205078125,-0.097900390625,-0.12548828125,0.595
0.5190839694656488,1.099236641221374,-1.3282442748091603,-0.454345703125,-0.09619140625,-0.130859375,0.5967
0.732824427480916,0.9923664122137404,-1.465648854961832,-0.451904296875,-0.09375,-0.13916015625,0.5983999999999999
0.7938931297709924,0.8396946564885496,-1.3740458015267176,-0.4580078125,-0.101318359375,-0.124755859375,0.6001
0.4122137404580153,0.5954198473282443,-1.3740458015267176,-0.45703125,-0.10302734375,-0.126220703125,0.6018
0.549618320610687,0.7480916030534351,-1.251908396946565,-0.456787109375,-0.087646484375,-0.1396484375,0.6034999999999999
0.5801526717557252,0.8396946564885496,-1.3129770992366412,-0.454833984375,-0.09423828125,-0.132568359375,0.6052
0.6259541984732825,0.9312977099236641,-1.3129770992366412,-0.454345703125,-0.09326171875,-0.13232421875,0.6069
0.8244274809160306,0.8244274809160306,-1.618320610687023,-0.45703125,-0.09033203125,-0.124267578125,0.6085999999999999
0.8091603053435115,0.6870229007633588,-1.4198473282442747,-0.453125,-0.09423828125,-0.1298828125,0.6103
0.8091603053435115,0.8549618320610687,-1.1755725190839694,-0.456298828125,-0.0966796875,-0.1328125,0.612
0.9465648854961832,0.9465648854961832,-1.5572519083969465,-0.459716796875,-0.08984375,-0.134765625,0.6136999999999999
1.1603053435114503,1.0076335877862594,-1.4045801526717556,-0.45947265625,-0.094482421875,-0.134033203125,0.6154
1.0534351145038168,0.9312977099236641,-1.251908396946565,-0.457275390625,-0.094482421875,-0.132080078125,0.6171
1.2061068702290076,0.9770992366412213,-1.3587786259541985,-0.45947265625,-0.094482421875,-0.13232421875,0.6188
1.3282442748091603,1.251908396946565,-1.6641221374045803,-0.457763671875,-0.090576171875,-0.133056640625,0.6204999999999999
1.3129770992366412,1.099236641221374,-1.297709923664122,-0.460205078125,-0.08544921875,-0.1328125,0.6222
1.4045801526717556,1.1450381679389312,-1.297709923664122,-0.455322265625,-0.08251953125,-0.135009765625,0.6239
1.6488549618320612,1.5114503816793894,-1.251908396946565,-0.454833984375,-0.09130859375,-0.13232421875,0.6255999999999999
1.5267175572519085,1.4045801526717556,-1.3893129770992367,-0.453369140625,-0.08984375,-0.124267578125,0.6273
1.6946564885496183,1.2671755725190839,-1.2366412213740459,-0.454345703125,-0.096435546875,-0.12451171875,0.629
1.465648854961832,1.4351145038167938,-1.4351145038167938,-0.45947265625,-0.090576171875,-0.131103515625,0.6306999999999999
1.618320610687023,1.5877862595419847,-1.1450381679389312,-0.454345703125,-0.092529296875,-0.1142578125,0.6324
1.8473282442748091,1.5419847328244274,-1.5267175572519085,-0.453125,-0.087158203125,-0.118408203125,0.6341
1.9236641221374047,1.5267175572519085,-1.251908396946565,-0.453857421875,-0.095947265625,-0.1171875,0.6357999999999999
1.7709923664122138,1.3740458015267176,-1.4809160305343512,-0.45654296875,-0.09521484375,-0.129150390625,0.6375
2.015267175572519,1.450381679389313,-1.3435114503816794,-0.453857421875,-0.090576171875,-0.12646484375,0.6392
2.2442748091603053,1.6030534351145038,-1.4809160305343512,-0.455322265625,-0.0966796875,-0.121826171875,0.6408999999999999
2.1526717557251906,1.5114503816793894,-1.3587786259541985,-0.459716796875,-0.09228515625,-0.11767578125,0.6426
2.2900763358778624,1.7099236641221374,-1.3740458015267176,-0.458251953125,-0.0947265625,-0.1259765625,0.6443
2.2595419847328246,1.4198473282442747,-1.5114503816793894,-0.457275390625,-0.091552734375,-0.12353515625,0.646
2.0610687022900764,1.3740458015267176,-1.4809160305343512,-0.45703125,-0.091796875,-0.129150390625,0.6476999999999999
2.2900763358778624,1.5419847328244274,-1.2061068702290076,-0.45361328125,-0.098388671875,-0.124755859375,0.6494
2.3969465648854964,1.5114503816793894,-1.3435114503816794,-0.457763671875,-0.095947265625,-0.126220703125,0.6511
2.427480916030534,1.5419847328244274,-1.5572519083969465,-0.45703125,-0.09130859375,-0.1240234375,0.6527999999999999
2.4427480916030535,1.5267175572519085,-1.6488549618320612,-0.45654296875,-0.097412109375,-0.116455078125,0.6545
2.5801526717557253,1.7709923664122138,-1.4809160305343512,-0.458984375,-0.094482421875,-0.12060546875,0.6562
2.4885496183206106,1.7099236641221374,-1.2366412213740459,-0.458740234375,-0.094482421875,-0.115966796875,0.6578999999999999
2.3053435114503817,1.6946564885496183,-1.4045801526717556,-0.463623046875,-0.09912109375,-0.124267578125,0.6596
2.366412213740458,1.6641221374045803,-1.5114503816793894,-0.46435546875,-0.09130859375,-0.124267578125,0.6613
2.6106870229007635,1.5267175572519085,-1.3740458015267176,-0.46484375,-0.097412109375,-0.118408203125,0.6629999999999999
2.427480916030534,1.4809160305343512,-1.3893129770992367,-0.457275390625,-0.099609375,-0.116455078125,0.6647
2.3206106870229006,1.7099236641221374,-1.5114503816793894,-0.455078125,-0.09228515625,-0.12548828125,0.6664
2.381679389312977,1.6488549618320612,-1.4961832061068703,-0.454833984375,-0.093505859375,-0.122314453125,0.6680999999999999
2.1068702290076335,1.7404580152671756,-1.4351145038167938,-0.457763671875,-0.09326171875,-0.12109375,0.6698
2.1374045801526718,1.6793893129770991,-1.4809160305343512,-0.459716796875,-0.09716796875,-0.126953125,0.6715
2.030534351145038,1.5877862595419847,-1.4961832061068703,-0.454833984375,-0.09619140625,-0.11865234375,0.6731999999999999
2.0610687022900764,1.633587786259542,-1.297709923664122,-0.4580078125,-0.0947265625,-0.11669921875,0.6748999999999999
1.9694656488549618,1.4351145038167938,-1.4045801526717556,-0.4580078125,-0.091064453125,-0.130126953125,0.6766
2.0,1.450381679389313,-1.465648854961832,-0.45703125,-0.093994140625,-0.12890625,0.6783
1.8473282442748091,1.3893129770992367,-1.2671755725190839,-0.459228515625,-0.09619140625,-0.12890625,0.6799999999999999
1.8015267175572518,1.297709923664122,-1.3282442748091603,-0.45458984375,-0.09716796875,-0.12744140625,0.6817
1.7557251908396947,1.083969465648855,-1.2213740458015268,-0.454345703125,-0.09521484375,-0.12158203125,0.6834
1.816793893129771,1.0229007633587786,-1.3129770992366412,-0.45654296875,-0.09912109375,-0.127685546875,0.6850999999999999
1.633587786259542,0.916030534351145,-1.251908396946565,-0.457275390625,-0.093017578125,-0.12548828125,0.6868
1.6946564885496183,0.9618320610687023,-1.282442748091603,-0.462158203125,-0.104736328125,-0.11865234375,0.6885
1.6793893129770991,0.9618320610687023,-1.1450381679389312,-0.46142578125,-0.0966796875,-0.123779296875,0.6901999999999999
1.7099236641221374,0.8549618320610687,-1.1908396946564885,-0.459228515625,-0.0966796875,-0.131103515625,0.6919
1.6030534351145038,0.7938931297709924,-1.3740458015267176,-0.458251953125,-0.09814453125,-0.1318359375,0.6936
1.618320610687023,0.6717557251908397,-1.2366412213740459,-0.456787109375,-0.096435546875,-0.126708984375,0.6952999999999999
1.3435114503816794,0.7786259541984732,-1.3893129770992367,-0.462646484375,-0.093505859375,-0.12158203125,0.697
1.4198473282442747,0.8091603053435115,-1.2671755725190839,-0.458740234375,-0.09619140625,-0.129150390625,0.6987
1.4045801526717556,0.7633587786259542,-1.2061068702290076,-0.4580078125,-0.095703125,-0.129150390625,0.7003999999999999
1.2671755725190839,1.1450381679389312,-1.3587786259541985,-0.462890625,-0.099609375,-0.130615234375,0.7021
1.2061068702290076,0.9770992366412213,-1.3435114503816794,-0.456787109375,-0.098876953125,-0.12548828125,0.7038
1.1145038167938932,0.916030534351145,-1.465648854961832,-0.467041015625,-0.094970703125,-0.12646484375,0.7055
1.2366412213740459,1.0229007633587786,-1.4045801526717556,-0.46435546875,-0.094970703125,-0.12646484375,0.7071999999999999
1.099236641221374,1.0687022900763359,-1.2671755725190839,-0.463623046875,-0.094482421875,-0.128662109375,0.7089
1.0076335877862594,1.1450381679389312,-1.3282442748091603,-0.4609375,-0.09619140625,-0.12841796875,0.7106
1.0381679389312977,1.251908396946565,-1.3740458015267176,-0.455078125,-0.099609375,-0.13232421875,0.7122999999999999
0.9007633587786259,1.2213740458015268,-1.450381679389313,-0.4619140625,-0.094482421875,-0.129150390625,0.714
0.9007633587786259,1.251908396946565,-1.2671755725190839,-0.4609375,-0.09716796875,-0.1240234375,0.7157
0.7633587786259542,1.4045801526717556,-1.3740458015267176,-0.4560546875,-0.1015625,-0.12890625,0.7173999999999999
0.7175572519083969,1.282442748091603,-1.5877862595419847,-0.453369140625,-0.09814453125,-0.134521484375,0.7191
0.9312977099236641,1.297709923664122,-1.3129770992366412,-0.4580078125,-0.099365234375,-0.12744140625,0.7208
0.8244274809160306,1.282442748091603,-1.297709923664122,-0.463134765625,-0.095947265625,-0.127197265625,0.7224999999999999
0.6870229007633588,1.2061068702290076,-1.2671755725190839,-0.460693359375,-0.095947265625,-0.1298828125,0.7242
0.9618320610687023,1.099236641221374,-1.5114503816793894,-0.458984375,-0.0966796875,-0.130126953125,0.7259
0.9923664122137404,1.2061068702290076,-1.4961832061068703,-0.45751953125,-0.096923828125,-0.12451171875,0.7275999999999999
0.8244274809160306,1.1755725190839694,-1.4351145038167938,-0.460205078125,-0.092529296875,-0.13037109375,0.7293
0.9923664122137404,1.099236641221374,-1.5572519083969465,-0.45947265625,-0.09423828125,-0.115966796875,0.731
0.8854961832061069,1.0687022900763359,-1.3740458015267176,-0.459228515625,-0.098388671875,-0.125,0.7326999999999999
0.9923664122137404,1.2213740458015268,-1.4961832061068703,-0.466064453125,-0.093994140625,-0.1259765625,0.7343999999999999
1.0229007633587786,1.2061068702290076,-1.5725190839694656,-0.458984375,-0.095947265625,-0.13232421875,0.7361
0.7938931297709924,1.1755725190839694,-1.5267175572519085,-0.456298828125,-0.0986328125,-0.127685546875,0.7378
1.0534351145038168,0.9923664122137404,-1.7251908396946565,-0.45751953125,-0.094482421875,-0.12841796875,0.7394999999999999
1.1145038167938932,0.9618320610687023,-1.5114503816793894,-0.456787109375,-0.095458984375,-0.12255859375,0.7412
1.0229007633587786,1.1450381679389312,-1.3587786259541985,-0.457763671875,-0.0947265625,-0.123779296875,0.7429
1.1908396946564885,1.2671755725190839,-1.465648854961832,-0.466796875,-0.093994140625,-0.134765625,0.7445999999999999
0.9312977099236641,1.282442748091603,-1.282442748091603,-0.459228515625,-0.096435546875,-0.124755859375,0.7463
1.083969465648855,1.297709923664122,-1.633587786259542,-0.455810546875,-0.090087890625,-0.1259765625,0.748
1.282442748091603,1.3587786259541985,-1.6030534351145038,-0.460693359375,-0.091552734375,-0.1318359375,0.7496999999999999
1.0534351145038168,1.3129770992366412,-1.3740458015267176,-0.46044921875,-0.0888671875,-0.138916015625,0.7514
1.1450381679389312,1.2671755725190839,-1.4809160305343512,-0.455322265625,-0.092529296875,-0.131591796875,0.7531
1.1450381679389312,1.282442748091603,-1.465648854961832,-0.462890625,-0.093017578125,-0.13427734375,0.7547999999999999
1.2213740458015268,1.450381679389313,-1.5419847328244274,-0.45751953125,-0.091796875,-0.128662109375,0.7565
1.1603053435114503,1.1603053435114503,-1.5267175572519085,-0.459716796875,-0.097412109375,-0.1318359375,0.7582
1.297709923664122,1.2061068702290076,-1.4045801526717556,-0.46142578125,-0.09130859375,-0.1259765625,0.7598999999999999
1.1755725190839694,1.4198473282442747,-1.4961832061068703,-0.458984375,-0.087158203125,-0.131103515625,0.7615999999999999
1.2671755725190839,1.3587786259541985,-1.4198473282442747,-0.451904296875,-0.09033203125,-0.12451171875,0.7633
1.0381679389312977,1.3893129770992367,-1.282442748091603,-0.457275390625,-0.095947265625,-0.125244140625,0.7649999999999999
0.7938931297709924,1.4045801526717556,-1.3435114503816794,-0.458740234375,-0.094970703125,-0.1240234375,0.7666999999999999
1.1603053435114503,1.1755725190839694,-1.5114503816793894,-0.45751953125,-0.095458984375,-0.1259765625,0.7684
1.2671755725190839,1.3129770992366412,-1.465648854961832,-0.452392578125,-0.094482421875,-0.125732421875,0.7701
1.0687022900763359,1.0687022900763359,-1.4809160305343512,-0.455322265625,-0.092529296875,-0.1337890625,0.7717999999999999
1.251908396946565,1.1297709923664123,-1.4045801526717556,-0.45751953125,-0.09423828125,-0.1220703125,0.7735
1.297709923664122,1.2366412213740459,-1.3893129770992367,-0.456298828125,-0.09228515625,-0.1279296875,0.7752
1.1145038167938932,1.297709923664122,-1.3587786259541985,-0.452880859375,-0.099853515625,-0.1259765625,0.7768999999999999
1.2366412213740459,1.083969465648855,-1.450381679389313,-0.45361328125,-0.093017578125,-0.12548828125,0.7786
1.282442748091603,1.0381679389312977,-1.282442748091603,-0.454833984375,-0.09619140625,-0.125,0.7803
1.1755725190839694,1.099236641221374,-1.1603053435114503,-0.45556640625,-0.094482421875,-0.125,0.7819999999999999
1.282442748091603,0.9618320610687023,-1.450381679389313,-0.459228515625,-0.093505859375,-0.13623046875,0.7837
1.450381679389313,1.0381679389312977,-1.4351145038167938,-0.4609375,-0.0947265625,-0.1337890625,0.7854
1.1755725190839694,0.9618320610687023,-1.297709923664122,-0.456787109375,-0.09619140625,-0.1318359375,0.7870999999999999
1.1450381679389312,1.1145038167938932,-1.3893129770992367,-0.462158203125,-0.092529296875,-0.132568359375,0.7888
1.1603053435114503,1.2366412213740459,-1.3435114503816794,-0.457763671875,-0.089599609375,-0.129150390625,0.7905
1.2213740458015268,1.2213740458015268,-1.3129770992366412,-0.460693359375,-0.092041015625,-0.123779296875,0.7921999999999999
1.1450381679389312,1.099236641221374,-1.1450381679389312,-0.4580078125,-0.09375,-0.13134765625,0.7938999999999999
1.1755725190839694,1.2366412213740459,-1.3282442748091603,-0.460693359375,-0.091552734375,-0.12939453125,0.7956
1.3129770992366412,1.1297709923664123,-1.083969465648855,-0.461669921875,-0.09375,-0.119873046875,0.7973
1.1450381679389312,1.3435114503816794,-1.1450381679389312,-0.458251953125,-0.093017578125,-0.13134765625,0.7989999999999999
1.083969465648855,1.3740458015267176,-1.282442748091603,-0.45849609375,-0.09423828125,-0.123779296875,0.8007
1.1755725190839694,1.2213740458015268,-1.3129770992366412,-0.46142578125,-0.0986328125,-0.125244140625,0.8024
1.282442748091603,1.251908396946565,-0.9312977099236641,-0.456787109375,-0.096435546875,-0.121337890625,0.8040999999999999
1.3740458015267176,1.3129770992366412,-1.297709923664122,-0.45849609375,-0.094482421875,-0.1240234375,0.8058
1.1145038167938932,1.2213740458015268,-1.2366412213740459,-0.4580078125,-0.09716796875,-0.13134765625,0.8075
1.2366412213740459,1.0229007633587786,-1.2061068702290076,-0.45703125,-0.099365234375,-0.12744140625,0.8091999999999999
1.3587786259541985,0.9923664122137404,-1.0229007633587786,-0.45751953125,-0.094970703125,-0.139892578125,0.8109
1.3587786259541985,1.0534351145038168,-1.083969465648855,-0.453125,-0.09814453125,-0.134033203125,0.8126
1.4351145038167938,1.099236641221374,-1.1450381679389312,-0.454345703125,-0.09521484375,-0.12841796875,0.8142999999999999
1.4198473282442747,0.8702290076335878,-1.099236641221374,-0.454833984375,-0.101806640625,-0.121826171875,0.816
1.3129770992366412,1.0076335877862594,-1.1145038167938932,-0.458984375,-0.09814453125,-0.12548828125,0.8177
1.5725190839694656,0.9923664122137404,-1.1297709923664123,-0.46044921875,-0.0966796875,-0.12109375,0.8193999999999999
1.4961832061068703,1.0229007633587786,-1.0076335877862594,-0.458740234375,-0.098388671875,-0.129638671875,0.8210999999999999
1.6488549618320612,0.9618320610687023,-1.2213740458015268,-0.458740234375,-0.09326171875,-0.122802734375,0.8228
1.8015267175572518,1.0687022900763359,-1.1603053435114503,-0.466064453125,-0.095458984375,-0.12548828125,0.8244999999999999
1.8015267175572518,1.0076335877862594,-1.099236641221374,-0.46630859375,-0.095458984375,-0.125244140625,0.8261999999999999
1.6030534351145038,1.0229007633587786,-1.1145038167938932,-0.46142578125,-0.092041015625,-0.138916015625,0.8279
1.6793893129770991,1.1145038167938932,-1.0534351145038168,-0.46435546875,-0.090087890625,-0.12548828125,0.8296
2.015267175572519,1.2213740458015268,-0.9923664122137404,-0.457763671875,-0.1005859375,-0.133544921875,0.8312999999999999
1.786259541984733,1.2671755725190839,-1.1908396946564885,-0.459228515625,-0.09619140625,-0.127685546875,0.833
1.8625954198473282,1.3435114503816794,-0.9923664122137404,-0.458984375,-0.09716796875,-0.127685546875,0.8347
2.2595419847328246,1.0534351145038168,-1.0687022900763359,-0.461181640625,-0.09375,-0.12353515625,0.8363999999999999
2.0916030534351147,1.4351145038167938,-1.083969465648855,-0.464111328125,-0.09716796875,-0.13330078125,0.8381
2.015267175572519,1.4351145038167938,-1.0076335877862594,-0.45849609375,-0.095947265625,-0.132080078125,0.8398
1.9541984732824427,1.297709923664122,-1.0534351145038168,-0.457763671875,-0.099609375,-0.13037109375,0.8414999999999999
2.2595419847328246,1.3893129770992367,-0.9770992366412213,-0.461669921875,-0.0888671875,-0.132080078125,0.8432
2.6106870229007635,1.450381679389313,-0.9007633587786259,-0.4609375,-0.094970703125,-0.13671875,0.8449
2.381679389312977,1.450381679389313,-1.083969465648855,-0.462158203125,-0.095947265625,-0.139892578125,0.8465999999999999
2.0763358778625953,1.6488549618320612,-1.0381679389312977,-0.4580078125,-0.09423828125,-0.128173828125,0.8482999999999999
2.1526717557251906,1.5419847328244274,-0.7938931297709924,-0.459716796875,-0.098388671875,-0.134765625,0.85
2.213740458015267,1.5877862595419847,-0.7938931297709924,-0.458740234375,-0.09130859375,-0.126708984375,0.8516999999999999
2.0610687022900764,1.4809160305343512,-0.9007633587786259,-0.456298828125,-0.097412109375,-0.126708984375,0.8533999999999999
2.1068702290076335,1.5725190839694656,-0.8244274809160306,-0.45556640625,-0.09423828125,-0.127685546875,0.8551
2.2595419847328246,1.3740458015267176,-0.8091603053435115,-0.457275390625,-0.097412109375,-0.135009765625,0.8568
2.1068702290076335,1.3435114503816794,-0.7786259541984732,-0.4560546875,-0.0927734375,-0.12841796875,0.8584999999999999
2.0916030534351147,1.251908396946565,-0.8854961832061069,-0.456298828125,-0.097900390625,-0.126220703125,0.8602
2.045801526717557,1.282442748091603,-0.8702290076335878,-0.46044921875,-0.09912109375,-0.126953125,0.8619
2.122137404580153,1.1145038167938932,-0.916030534351145,-0.4609375,-0.098388671875,-0.140625,0.8635999999999999
1.984732824427481,1.1297709923664123,-0.8091603053435115,-0.461669921875,-0.094970703125,-0.1318359375,0.8653
1.786259541984733,0.9923664122137404,-0.7786259541984732,-0.46044921875,-0.09814453125,-0.126953125,0.867
1.5267175572519085,0.9618320610687023,-0.9465648854961832,-0.458251953125,-0.09423828125,-0.123291015625,0.8686999999999999
1.4351145038167938,0.7633587786259542,-1.0534351145038168,-0.46044921875,-0.098388671875,-0.121337890625,0.8704
1.450381679389313,0.9923664122137404,-0.8549618320610687,-0.45849609375,-0.100341796875,-0.133544921875,0.8721
1.465648854961832,1.0687022900763359,-1.0687022900763359,-0.459228515625,-0.0986328125,-0.128662109375,0.8737999999999999
1.5877862595419847,0.7633587786259542,-1.1297709923664123,-0.466796875,-0.09716796875,-0.127197265625,0.8755
1.465648854961832,0.6870229007633588,-1.1603053435114503,-0.459228515625,-0.0986328125,-0.1298828125,0.8772
1.099236641221374,0.8396946564885496,-1.0534351145038168,-0.452392578125,-0.096923828125,-0.129150390625,0.8788999999999999
0.8549618320610687,0.7022900763358778,-1.2366412213740459,-0.457275390625,-0.09716796875,-0.121337890625,0.8805999999999999
0.9618320610687023,0.9465648854961832,-1.2366412213740459,-0.455810546875,-0.0986328125,-0.129150390625,0.8823
0.9007633587786259,0.9007633587786259,-1.1908396946564885,-0.45654296875,-0.0986328125,-0.133544921875,0.8839999999999999
0.9770992366412213,0.8244274809160306,-1.2671755725190839,-0.454833984375,-0.098388671875,-0.128173828125,0.8856999999999999
1.1297709923664123,0.8396946564885496,-1.4809160305343512,-0.453857421875,-0.092041015625,-0.126708984375,0.8874
1.1755725190839694,0.7938931297709924,-1.1297709923664123,-0.462890625,-0.09619140625,-0.1240234375,0.8891
1.0687022900763359,1.0687022900763359,-1.2061068702290076,-0.45654296875,-0.09765625,-0.124267578125,0.8907999999999999
1.099236641221374,0.8244274809160306,-1.2213740458015268,-0.4521484375,-0.08935546875,-0.128662109375,0.8925
1.0381679389312977,0.7938931297709924,-1.4961832061068703,-0.45703125,-0.09521484375,-0.131103515625,0.8942
0.9770992366412213,1.083969465648855,-1.2366412213740459,-0.45458984375,-0.09423828125,-0.1259765625,0.8958999999999999
1.251908396946565,0.9618320610687023,-1.1755725190839694,-0.453369140625,-0.092041015625,-0.12841796875,0.8976
1.1145038167938932,0.9618320610687023,-1.2671755725190839,-0.456298828125,-0.095947265625,-0.126708984375,0.8993
1.1908396946564885,0.916030534351145,-1.2213740458015268,-0.454345703125,-0.0908203125,-0.122314453125,0.9009999999999999
1.099236641221374,0.916030534351145,-1.0534351145038168,-0.4580078125,-0.092529296875,-0.12841796875,0.9027
1.3740458015267176,1.1297709923664123,-1.2366412213740459,-0.454833984375,-0.0927734375,-0.132568359375,0.9044
1.6641221374045803,1.083969465648855,-1.2671755725190839,-0.458740234375,-0.090087890625,-0.12548828125,0.9060999999999999
1.5114503816793894,0.916030534351145,-1.282442748091603,-0.455322265625,-0.096435546875,-0.130859375,0.9077999999999999
1.6946564885496183,1.0076335877862594,-1.1603053435114503,-0.45751953125,-0.0888671875,-0.1201171875,0.9095
1.8015267175572518,1.0534351145038168,-1.282442748091603,-0.455322265625,-0.095458984375,-0.130615234375,0.9111999999999999
1.786259541984733,1.1450381679389312,-1.1755725190839694,-0.455810546875,-0.0927734375,-0.117919921875,0.9128999999999999
1.5114503816793894,1.0076335877862594,-1.3740458015267176,-0.453857421875,-0.09423828125,-0.120849609375,0.9146
2.1068702290076335,0.9465648854961832,-1.1297709923664123,-0.451416015625,-0.092529296875,-0.13134765625,0.9163
2.122137404580153,1.0229007633587786,-1.3282442748091603,-0.456787109375,-0.087646484375,-0.128662109375,0.9179999999999999
1.8625954198473282,1.1297709923664123,-1.3129770992366412,-0.45458984375,-0.08837890625,-0.130126953125,0.9197
2.2595419847328246,1.3435114503816794,-1.4351145038167938,-0.451904296875,-0.09228515625,-0.130126953125,0.9214
2.381679389312977,1.2061068702290076,-1.3129770992366412,-0.45068359375,-0.096435546875,-0.131103515625,0.9230999999999999
2.4122137404580153,1.083969465648855,-1.4961832061068703,-0.45166015625,-0.0888671875,-0.125,0.9248
2.351145038167939,1.2213740458015268,-1.3893129770992367,-0.455322265625,-0.0966796875,-0.1259765625,0.9265
2.5343511450381677,1.3740458015267176,-1.3893129770992367,-0.453857421875,-0.097900390625,-0.12353515625,0.9281999999999999
2.5343511450381677,1.3129770992366412,-1.2671755725190839,-0.4521484375,-0.091796875,-0.1240234375,0.9299
2.3206106870229006,1.2671755725190839,-1.465648854961832,-0.4521484375,-0.096923828125,-0.122802734375,0.9316
2.33587786259542,1.4351145038167938,-1.297709923664122,-0.455078125,-0.091552734375,-0.12451171875,0.9332999999999999
2.3053435114503817,1.3282442748091603,-1.0229007633587786,-0.455078125,-0.092529296875,-0.130859375,0.9349999999999999
2.3206106870229006,1.465648854961832,-1.1297709923664123,-0.45703125,-0.094970703125,-0.131103515625,0.9367
2.5801526717557253,1.3129770992366412,-1.297709923664122,-0.45263671875,-0.098876953125,-0.12841796875,0.9383999999999999
2.5801526717557253,1.3893129770992367,-1.0687022900763359,-0.462158203125,-0.09326171875,-0.12548828125,0.9400999999999999
2.33587786259542,1.2366412213740459,-1.1755725190839694,-0.460693359375,-0.089599609375,-0.1201171875,0.9418
2.4122137404580153,1.2671755725190839,-0.9770992366412213,-0.4599609375,-0.093017578125,-0.133544921875,0.9434999999999999
2.427480916030534,1.282442748091603,-1.0687022900763359,-0.4521484375,-0.09814453125,-0.1298828125,0.9451999999999999
2.213740458015267,1.297709923664122,-0.9465648854961832,-0.457275390625,-0.09423828125,-0.134521484375,0.9469
2.351145038167939,1.2366412213740459,-0.9923664122137404,-0.458251953125,-0.099853515625,-0.12939453125,0.9486
2.2290076335877864,1.2671755725190839,-0.7786259541984732,-0.463134765625,-0.100341796875,-0.1201171875,0.9502999999999999
1.9694656488549618,1.3740458015267176,-0.8854961832061069,-0.4599609375,-0.096923828125,-0.128173828125,0.952
2.122137404580153,1.4198473282442747,-0.7633587786259542,-0.466064453125,-0.10205078125,-0.1279296875,0.9537
2.0610687022900764,1.4198473282442747,-0.6259541984732825,-0.463623046875,-0.094970703125,-0.120361328125,0.9553999999999999
1.9541984732824427,1.465648854961832,-0.6870229007633588,-0.4609375,-0.096923828125,-0.128173828125,0.9571
1.8778625954198473,1.4351145038167938,-0.6259541984732825,-0.455810546875,-0.095458984375,-0.125,0.9588
1.5419847328244274,1.297709923664122,-0.6106870229007634,-0.468017578125,-0.10009765625,-0.124755859375,0.9604999999999999
1.3893129770992367,1.282442748091603,-0.6412213740458015,-0.45947265625,-0.1025390625,-0.124755859375,0.9621999999999999
1.450381679389313,1.3740458015267176,-0.7175572519083969,-0.461669921875,-0.102294921875,-0.1259765625,0.9639
1.2366412213740459,1.3129770992366412,-0.8549618320610687,-0.45947265625,-0.102294921875,-0.12158203125,0.9655999999999999
0.9770992366412213,1.4198473282442747,-0.7175572519083969,-0.462890625,-0.099853515625,-0.130859375,0.9672999999999999
0.7480916030534351,1.3740458015267176,-1.0687022900763359,-0.458740234375,-0.103271484375,-0.129150390625,0.969
0.8091603053435115,1.3282442748091603,-0.9312977099236641,-0.4599609375,-0.10107421875,-0.123779296875,0.9706999999999999
0.6870229007633588,1.2061068702290076,-0.9770992366412213,-0.458740234375,-0.10400390625,-0.12646484375,0.9723999999999999
0.5343511450381679,1.4198473282442747,-1.1755725190839694,-0.46484375,-0.099609375,-0.129150390625,0.9741
0.4580152671755725,1.282442748091603,-1.2671755725190839,-0.464599609375,-0.1064453125,-0.1259765625,0.9758
0.3969465648854962,1.0687022900763359,-1.251908396946565,-0.462890625,-0.102783203125,-0.137451171875,0.9774999999999999
0.48854961832061067,1.1297709923664123,-1.3893129770992367,-0.458984375,-0.09814453125,-0.132080078125,0.9792
0.42748091603053434,1.251908396946565,-1.6030534351145038,-0.456298828125,-0.096435546875,-0.12451171875,0.9809
0.5801526717557252,1.0687022900763359,-1.5877862595419847,-0.45751953125,-0.099853515625,-0.125244140625,0.9825999999999999
0.5648854961832062,1.0534351145038168,-1.6030534351145038,-0.46044921875,-0.097900390625,-0.125,0.9843
0.3969465648854962,0.9923664122137404,-1.4961832061068703,-0.46044921875,-0.1005859375,-0.1337890625,0.986
0.48854961832061067,1.0381679389312977,-1.5572519083969465,-0.4638671875,-0.099853515625,-0.134521484375,0.9876999999999999
0.32061068702290074,1.0229007633587786,-1.7251908396946565,-0.460693359375,-0.102294921875,-0.124755859375,0.9894
0.1984732824427481,0.8244274809160306,-1.7099236641221374,-0.453857421875,-0.097412109375,-0.135986328125,0.9911
0.015267175572519083,0.8396946564885496,-1.6946564885496183,-0.45654296875,-0.09375,-0.133056640625,0.9927999999999999
-0.04580152671755725,0.9007633587786259,-1.7099236641221374,-0.45849609375,-0.0966796875,-0.128173828125,0.9944999999999999
0.015267175572519083,0.7022900763358778,-1.786259541984733,-0.45849609375,-0.09619140625,-0.120849609375,0.9962
0.10687022900763359,0.8244274809160306,-1.816793893129771,-0.460205078125,-0.09033203125,-0.121826171875,0.9978999999999999
0.22900763358778625,1.0076335877862594,-1.8473282442748091,-0.458984375,-0.096435546875,-0.124755859375,0.9995999999999999
0.07633587786259542,0.7175572519083969,-1.8778625954198473,-0.461181640625,-0.091552734375,-0.131103515625,1.0012999999999999
0.0,0.9770992366412213,-1.7709923664122138,-0.459228515625,-0.090087890625,-0.129638671875,1.003
-0.030534351145038167,0.9007633587786259,-1.786259541984733,-0.462890625,-0.090576171875,-0.119384765625,1.0047
0.2595419847328244,0.7480916030534351,-1.786259541984733,-0.4619140625,-0.089599609375,-0.126953125,1.0064
0.33587786259541985,0.916030534351145,-1.6488549618320612,-0.4599609375,-0.086181640625,-0.122802734375,1.0081
0.32061068702290074,1.0076335877862594,-1.7557251908396947,-0.4541015625,-0.0859375,-0.1298828125,1.0098
0.22900763358778625,0.7786259541984732,-1.9236641221374047,-0.454833984375,-0.090576171875,-0.1171875,1.0114999999999998
0.5038167938931297,0.7938931297709924,-1.9236641221374047,-0.4560546875,-0.09130859375,-0.115234375,1.0131999999999999
0.6259541984732825,0.9312977099236641,-1.9083969465648856,-0.455322265625,-0.087890625,-0.12548828125,1.0149
0.5190839694656488,0.9618320610687023,-1.786259541984733,-0.4638671875,-0.09130859375,-0.115966796875,1.0166
0.6717557251908397,0.8854961832061069,-1.7709923664122138,-0.45947265625,-0.093505859375,-0.127197265625,1.0183
0.8244274809160306,0.7938931297709924,-1.7557251908396947,-0.458984375,-0.091552734375,-0.123291015625,1.02
0.6412213740458015,0.8244274809160306,-1.7709923664122138,-0.460693359375,-0.092041015625,-0.12255859375,1.0217
1.0687022900763359,0.7938931297709924,-1.9083969465648856,-0.460205078125,-0.088623046875,-0.12353515625,1.0233999999999999
1.0534351145038168,0.916030534351145,-1.7557251908396947,-0.45849609375,-0.09130859375,-0.125732421875,1.0251
0.8396946564885496,1.0534351145038168,-1.7709923664122138,-0.4560546875,-0.0947265625,-0.12890625,1.0268
1.083969465648855,1.0229007633587786,-2.0610687022900764,-0.455322265625,-0.092529296875,-0.117431640625,1.0285
1.2671755725190839,1.083969465648855,-1.786259541984733,-0.45849609375,-0.084716796875,-0.128662109375,1.0302
1.450381679389313,1.2061068702290076,-1.7709923664122138,-0.464111328125,-0.090576171875,-0.126953125,1.0319
1.4961832061068703,1.4351145038167938,-1.9694656488549618,-0.453369140625,-0.092041015625,-0.128173828125,1.0335999999999999
1.2061068702290076,1.3740458015267176,-1.8015267175572518,-0.459716796875,-0.08740234375,-0.127197265625,1.0352999999999999
1.5419847328244274,1.4045801526717556,-1.7709923664122138,-0.458740234375,-0.087158203125,-0.123291015625,1.037
1.6946564885496183,1.3587786259541985,-1.6641221374045803,-0.4580078125,-0.091552734375,-0.131103515625,1.0387
1.618320610687023,1.4961832061068703,-1.8015267175572518,-0.4541015625,-0.092041015625,-0.128662109375,1.0404
1.7557251908396947,1.5877862595419847,-1.83206106870229,-0.4580078125,-0.093505859375,-0.118408203125,1.0421
2.030534351145038,1.786259541984733,-1.6793893129770991,-0.45458984375,-0.085205078125,-0.1240234375,1.0437999999999998
1.8931297709923665,1.7099236641221374,-1.6488549618320612,-0.454833984375,-0.0849609375,-0.126953125,1.0454999999999999
2.0,1.450381679389313,-1.5725190839694656,-0.45751953125,-0.08837890625,-0.125732421875,1.0472
2.213740458015267,1.618320610687023,-1.3587786259541985,-0.457763671875,-0.091064453125,-0.126953125,1.0489
1.984732824427481,1.5572519083969465,-1.5267175572519085,-0.4599609375,-0.0947265625,-0.1279296875,1.0506
2.1526717557251906,1.465648854961832,-1.3893129770992367,-0.4521484375,-0.08984375,-0.12158203125,1.0523
2.2748091603053435,1.4809160305343512,-1.1297709923664123,-0.4580078125,-0.08935546875,-0.120849609375,1.054
2.2595419847328246,1.5877862595419847,-1.099236641221374,-0.45361328125,-0.091552734375,-0.13916015625,1.0556999999999999
2.381679389312977,1.450381679389313,-1.2366412213740459,-0.455810546875,-0.09228515625,-0.133544921875,1.0574
2.4427480916030535,1.0687022900763359,-1.3282442748091603,-0.45263671875,-0.09326171875,-0.133544921875,1.0591
2.4885496183206106,1.297709923664122,-1.0229007633587786,-0.455810546875,-0.095458984375,-0.123779296875,1.0608
2.5343511450381677,1.3587786259541985,-1.2061068702290076,-0.453857421875,-0.096923828125,-0.11962890625,1.0625
2.33587786259542,1.1908396946564885,-1.1603053435114503,-0.453857421875,-0.088623046875,-0.12646484375,1.0642
2.3053435114503817,1.1450381679389312,-1.3282442748091603,-0.453857421875,-0.0986328125,-0.121826171875,1.0658999999999998
2.2900763358778624,1.1603053435114503,-1.3282442748091603,-0.455810546875,-0.093994140625,-0.126220703125,1.0675999999999999
2.213740458015267,0.916030534351145,-1.2366412213740459,-0.460693359375,-0.097900390625,-0.13330078125,1.0693
2.3053435114503817,1.0381679389312977,-1.2671755725190839,-0.457763671875,-0.0986328125,-0.130615234375,1.071
2.0610687022900764,0.8702290076335878,-1.297709923664122,-0.458740234375,-0.09814453125,-0.123779296875,1.0727
2.3053435114503817,0.8549618320610687,-1.282442748091603,-0.462158203125,-0.1005859375,-0.12890625,1.0744
1.9389312977099236,0.8549618320610687,-1.3435114503816794,-0.459716796875,-0.098876953125,-0.13330078125,1.0760999999999998
2.045801526717557,1.0687022900763359,-1.2366412213740459,-0.453857421875,-0.095458984375,-0.134765625,1.0777999999999999
2.1526717557251906,0.9618320610687023,-1.1908396946564885,-0.4580078125,-0.103759765625,-0.14013671875,1.0795
1.8015267175572518,0.7633587786259542,-1.2366412213740459,-0.4580078125,-0.09716796875,-0.132568359375,1.0812
1.8625954198473282,1.083969465648855,-1.297709923664122,-0.453857421875,-0.094970703125,-0.13232421875,1.0829
2.183206106870229,0.8702290076335878,-1.3740458015267176,-0.456787109375,-0.097900390625,-0.1259765625,1.0846
1.633587786259542,0.9923664122137404,-1.3893129770992367,-0.457275390625,-0.09814453125,-0.126953125,1.0863
1.8931297709923665,0.9618320610687023,-1.251908396946565,-0.45947265625,-0.098876953125,-0.130859375,1.0879999999999999
1.8015267175572518,0.9770992366412213,-1.4351145038167938,-0.45703125,-0.0986328125,-0.13232421875,1.0897
1.6030534351145038,1.0687022900763359,-1.3129770992366412,-0.456298828125,-0.09814453125,-0.1298828125,1.0914
1.816793893129771,1.083969465648855,-1.633587786259542,-0.460693359375,-0.0986328125,-0.13232421875,1.0931
1.83206106870229,0.9618320610687023,-1.3129770992366412,-0.4580078125,-0.097412109375,-0.130859375,1.0948
1.3740458015267176,0.8702290076335878,-1.4198473282442747,-0.45947265625,-0.101806640625,-0.130615234375,1.0965
1.6641221374045803,0.9770992366412213,-1.465648854961832,-0.455322265625,-0.099853515625,-0.139404296875,1.0981999999999998
1.6946564885496183,0.8702290076335878,-1.633587786259542,-0.456787109375,-0.095703125,-0.139404296875,1.0998999999999999
1.4351145038167938,0.9770992366412213,-1.465648854961832,-0.458740234375,-0.09619140625,-0.132080078125,1.1016
1.4198473282442747,0.8549618320610687,-1.450381679389313,-0.461181640625,-0.1015625,-0.119873046875,1.1033
1.450381679389313,0.9312977099236641,-1.450381679389313,-0.460693359375,-0.099853515625,-0.131591796875,1.105
1.4809160305343512,1.0534351145038168,-1.465648854961832,-0.458984375,-0.09765625,-0.132080078125,1.1067
1.1297709923664123,0.9618320610687023,-1.3893129770992367,-0.45849609375,-0.099365234375,-0.119140625,1.1083999999999998
1.3435114503816794,0.8091603053435115,-1.5572519083969465,-0.458251953125,-0.098388671875,-0.13232421875,1.1100999999999999
1.3740458015267176,0.9007633587786259,-1.450381679389313,-0.460205078125,-0.099365234375,-0.1357421875,1.1118
1.3587786259541985,0.7633587786259542,-1.4198473282442747,-0.4580078125,-0.09814453125,-0.1162109375,1.1135
1.282442748091603,0.8396946564885496,-1.3587786259541985,-0.456298828125,-0.098388671875,-0.12744140625,1.1152
1.4198473282442747,0.7022900763358778,-1.5114503816793894,-0.4619140625,-0.095947265625,-0.12744140625,1.1169
1.3740458015267176,0.7938931297709924,-1.3893129770992367,-0.457763671875,-0.095703125,-0.1259765625,1.1186
1.4045801526717556,0.7938931297709924,-1.4809160305343512,-0.459716796875,-0.09765625,-0.1328125,1.1202999999999999
1.297709923664122,0.916030534351145,-1.5419847328244274,-0.458984375,-0.098388671875,-0.13427734375,1.1219999999999999
1.1297709923664123,0.732824427480916,-1.4961832061068703,-0.46142578125,-0.095458984375,-0.134765625,1.1237
1.2213740458015268,0.7480916030534351,-1.4045801526717556,-0.4619140625,-0.096435546875,-0.135986328125,1.1254
1.3129770992366412,0.7480916030534351,-1.7404580152671756,-0.460205078125,-0.092529296875,-0.128173828125,1.1271
1.5267175572519085,1.0229007633587786,-1.5267175572519085,-0.456787109375,-0.096923828125,-0.126220703125,1.1288
1.7557251908396947,0.8702290076335878,-1.6030534351145038,-0.458984375,-0.0966796875,-0.1318359375,1.1304999999999998
1.7709923664122138,0.7022900763358778,-1.282442748091603,-0.4619140625,-0.099365234375,-0.13671875,1.1321999999999999
1.9541984732824427,0.732824427480916,-1.450381679389313,-0.46044921875,-0.09326171875,-0.12646484375,1.1339
1.816793893129771,0.9770992366412213,-1.3893129770992367,-0.465087890625,-0.09814453125,-0.123046875,1.1356
2.213740458015267,0.9007633587786259,-1.2213740458015268,-0.4599609375,-0.097412109375,-0.125244140625,1.1373
2.2290076335877864,0.7175572519083969,-1.4045801526717556,-0.4580078125,-0.09033203125,-0.125,1.139
2.015267175572519,0.9007633587786259,-1.4198473282442747,-0.46630859375,-0.095947265625,-0.12548828125,1.1407
2.5343511450381677,1.1145038167938932,-1.3740458015267176,-0.463623046875,-0.09814453125,-0.12255859375,1.1423999999999999
2.5343511450381677,0.8396946564885496,-1.465648854961832,-0.462646484375,-0.094482421875,-0.127685546875,1.1441
2.519083969465649,0.8549618320610687,-1.1908396946564885,-0.461181640625,-0.09423828125,-0.128173828125,1.1458
2.732824427480916,0.9618320610687023,-1.1603053435114503,-0.46044921875,-0.09423828125,-0.13330078125,1.1475
2.946564885496183,1.083969465648855,-0.9923664122137404,-0.45654296875,-0.09619140625,-0.132568359375,1.1492
2.9923664122137406,1.3282442748091603,-1.0076335877862594,-0.463623046875,-0.092041015625,-0.12841796875,1.1509
3.0381679389312977,1.0534351145038168,-0.9770992366412213,-0.45947265625,-0.095703125,-0.1298828125,1.1525999999999998
3.6030534351145036,1.1908396946564885,-1.1450381679389312,-0.460205078125,-0.09326171875,-0.123291015625,1.1542999999999999
3.633587786259542,0.9770992366412213,-1.0381679389312977,-0.4560546875,-0.09326171875,-0.127197265625,1.156
3.4656488549618323,1.0381679389312977,-1.0381679389312977,-0.46142578125,-0.09912109375,-0.135986328125,1.1577
3.5572519083969465,1.3282442748091603,-0.916030534351145,-0.460693359375,-0.093505859375,-0.129150390625,1.1594
3.5267175572519083,1.282442748091603,-0.8244274809160306,-0.457275390625,-0.1005859375,-0.134521484375,1.1611
3.7557251908396947,0.9770992366412213,-0.6870229007633588,-0.460693359375,-0.101806640625,-0.1259765625,1.1627999999999998
4.0458015267175576,0.9923664122137404,-0.7022900763358778,-0.46435546875,-0.09814453125,-0.13037109375,1.1644999999999999
3.633587786259542,1.1145038167938932,-0.8396946564885496,-0.457763671875,-0.093994140625,-0.128662109375,1.1662
3.5267175572519083,0.8549618320610687,-0.9770992366412213,-0.458251953125,-0.0966796875,-0.12744140625,1.1679
3.6793893129770994,0.7633587786259542,-0.5954198473282443,-0.464599609375,-0.095458984375,-0.13134765625,1.1696
3.7709923664122136,0.8549618320610687,-0.732824427480916,-0.459716796875,-0.091064453125,-0.132568359375,1.1713
3.3740458015267176,0.9007633587786259,-0.6870229007633588,-0.460205078125,-0.0986328125,-0.12939453125,1.173
3.4656488549618323,1.099236641221374,-0.8396946564885496,-0.46240234375,-0.09912109375,-0.120849609375,1.1746999999999999
3.7251908396946565,1.0381679389312977,-0.5954198473282443,-0.460205078125,-0.09765625,-0.127197265625,1.1764
3.282442748091603,0.732824427480916,-0.8244274809160306,-0.45849609375,-0.0966796875,-0.128662109375,1.1781
3.282442748091603,0.7786259541984732,-0.8702290076335878,-0.457763671875,-0.1015625,-0.120361328125,1.1798
3.1297709923664123,0.8702290076335878,-0.9618320610687023,-0.45703125,-0.095703125,-0.131103515625,1.1815
3.0381679389312977,0.9923664122137404,-0.8091603053435115,-0.46044921875,-0.095458984375,-0.132080078125,1.1832
2.6412213740458017,0.8854961832061069,-0.916030534351145,-0.45703125,-0.0986328125,-0.1337890625,1.1848999999999998
2.5801526717557253,0.8396946564885496,-1.1145038167938932,-0.454833984375,-0.0927734375,-0.12548828125,1.1865999999999999
2.595419847328244,0.732824427480916,-1.0687022900763359,-0.458740234375,-0.09326171875,-0.12548828125,1.1883
2.3969465648854964,0.9007633587786259,-0.8702290076335878,-0.456298828125,-0.0966796875,-0.134521484375,1.19
2.2442748091603053,0.8091603053435115,-0.916030534351145,-0.4619140625,-0.096923828125,-0.1318359375,1.1917
1.9541984732824427,0.8244274809160306,-0.9007633587786259,-0.463134765625,-0.095458984375,-0.1328125,1.1934
2.045801526717557,0.8854961832061069,-1.1145038167938932,-0.45556640625,-0.0927734375,-0.125,1.1950999999999998
1.83206106870229,0.8244274809160306,-0.8396946564885496,-0.45556640625,-0.0947265625,-0.133056640625,1.1967999999999999
1.618320610687023,0.8702290076335878,-0.9618320610687023,-0.4560546875,-0.091552734375,-0.13037109375,1.1985
1.8931297709923665,0.6259541984732825,-0.9618320610687023,-0.4560546875,-0.094970703125,-0.12109375,1.2002
1.8625954198473282,0.732824427480916,-0.6870229007633588,-0.4560546875,-0.091796875,-0.12255859375,1.2019
1.5419847328244274,0.7938931297709924,-0.8244274809160306,-0.457763671875,-0.094970703125,-0.125732421875,1.2036
1.7099236641221374,0.7480916030534351,-1.1145038167938932,-0.455322265625,-0.09130859375,-0.130859375,1.2053
1.5114503816793894,0.732824427480916,-1.1145038167938932,-0.453857421875,-0.092041015625,-0.12353515625,1.2069999999999999
1.5877862595419847,0.732824427480916,-0.9770992366412213,-0.453857421875,-0.091796875,-0.12646484375,1.2086999999999999
1.3893129770992367,0.8854961832061069,-0.916030534351145,-0.452880859375,-0.091064453125,-0.122802734375,1.2104
1.3587786259541985,0.8244274809160306,-0.7175572519083969,-0.450439453125,-0.087646484375,-0.13037109375,1.2121
1.5877862595419847,1.0534351145038168,-0.6106870229007634,-0.455322265625,-0.09326171875,-0.126220703125,1.2138
1.6641221374045803,1.251908396946565,-0.5801526717557252,-0.453857421875,-0.091552734375,-0.13037109375,1.2155
1.5419847328244274,1.0229007633587786,-0.6412213740458015,-0.458251953125,-0.08935546875,-0.11865234375,1.2171999999999998
1.8473282442748091,1.1145038167938932,-0.6259541984732825,-0.45654296875,-0.087890625,-0.128662109375,1.2188999999999999
1.8015267175572518,1.1603053435114503,-0.48854961832061067,-0.45703125,-0.09033203125,-0.12109375,1.2206
2.0,1.1297709923664123,-0.6870229007633588,-0.45068359375,-0.08984375,-0.121337890625,1.2223
2.1374045801526718,1.0534351145038168,-0.6259541984732825,-0.451416015625,-0.089599609375,-0.12255859375,1.224
2.030534351145038,1.1145038167938932,-0.7480916030534351,-0.459228515625,-0.08935546875,-0.129638671875,1.2257
2.0763358778625953,0.916030534351145,-0.5648854961832062,-0.461181640625,-0.089599609375,-0.130126953125,1.2273999999999998
2.1526717557251906,0.9465648854961832,-0.8244274809160306,-0.457763671875,-0.09033203125,-0.1240234375,1.2290999999999999
2.3206106870229006,1.1297709923664123,-0.8702290076335878,-0.457763671875,-0.088623046875,-0.126708984375,1.2308
2.16793893129771,1.1450381679389312,-1.0534351145038168,-0.456787109375,-0.085205078125,-0.1259765625,1.2325
2.717557251908397,0.9923664122137404,-0.8091603053435115,-0.45458984375,-0.091064453125,-0.125244140625,1.2342
2.7022900763358777,1.2213740458015268,-0.7786259541984732,-0.4580078125,-0.08837890625,-0.119873046875,1.2359
2.4427480916030535,1.1450381679389312,-0.9770992366412213,-0.455078125,-0.090576171875,-0.1220703125,1.2376
2.763358778625954,1.1297709923664123,-0.9465648854961832,-0.45068359375,-0.094482421875,-0.12060546875,1.2392999999999998
2.946564885496183,1.2213740458015268,-0.916030534351145,-0.455078125,-0.086669921875,-0.13232421875,1.2409999999999999
2.9923664122137406,1.1297709923664123,-0.9770992366412213,-0.45703125,-0.087890625,-0.1201171875,1.2427
2.9770992366412212,1.1297709923664123,-1.0076335877862594,-0.452880859375,-0.09326171875,-0.129150390625,1.2444
3.0839694656488548,1.1908396946564885,-1.0229007633587786,-0.456787109375,-0.08935546875,-0.12646484375,1.2461
3.1603053435114505,1.3129770992366412,-0.8702290076335878,-0.454833984375,-0.092041015625,-0.124267578125,1.2478
3.4656488549618323,1.3587786259541985,-1.0381679389312977,-0.454345703125,-0.09375,-0.125,1.2494999999999998
3.435114503816794,1.4198473282442747,-1.0687022900763359,-0.458740234375,-0.08984375,-0.122802734375,1.2511999999999999
3.2519083969465647,1.2671755725190839,-1.282442748091603,-0.45751953125,-0.0927734375,-0.12451171875,1.2529
3.5267175572519083,1.1908396946564885,-1.251908396946565,-0.45849609375,-0.09130859375,-0.124267578125,1.2546
3.633587786259542,1.2366412213740459,-1.1297709923664123,-0.453857421875,-0.093017578125,-0.1328125,1.2563
3.786259541984733,1.2366412213740459,-1.1297709923664123,-0.453857421875,-0.09228515625,-0.128662109375,1.258
3.633587786259542,1.1297709923664123,-1.1908396946564885,-0.454833984375,-0.0966796875,-0.125244140625,1.2596999999999998
3.7404580152671754,1.099236641221374,-1.1603053435114503,-0.460205078125,-0.092041015625,-0.126220703125,1.2613999999999999
3.969465648854962,1.1908396946564885,-1.2213740458015268,-0.460693359375,-0.087890625,-0.131591796875,1.2631
3.8473282442748094,1.3587786259541985,-1.0534351145038168,-0.46044921875,-0.09228515625,-0.126953125,1.2648
3.8625954198473282,1.4198473282442747,-1.1908396946564885,-0.4619140625,-0.0888671875,-0.12353515625,1.2665
4.076335877862595,1.1755725190839694,-1.0687022900763359,-0.45654296875,-0.09326171875,-0.1357421875,1.2682
3.9389312977099236,1.1908396946564885,-1.1908396946564885,-0.455810546875,-0.093994140625,-0.11962890625,1.2699
3.954198473282443,1.282442748091603,-1.2213740458015268,-0.45556640625,-0.093017578125,-0.129150390625,1.2715999999999998
3.969465648854962,1.3740458015267176,-1.1755725190839694,-0.459716796875,-0.094482421875,-0.129150390625,1.2732999999999999
3.9083969465648853,1.3282442748091603,-1.282442748091603,-0.45947265625,-0.09765625,-0.12939453125,1.275
4.106870229007634,1.3587786259541985,-1.2213740458015268,-0.462158203125,-0.0947265625,-0.129150390625,1.2767
4.244274809160306,1.450381679389313,-1.2366412213740459,-0.461181640625,-0.089599609375,-0.12890625,1.2784
3.8931297709923665,1.3129770992366412,-1.1908396946564885,-0.45849609375,-0.094970703125,-0.129150390625,1.2801
3.877862595419847,1.1755725190839694,-1.2671755725190839,-0.458251953125,-0.09423828125,-0.12646484375,1.2817999999999998
3.969465648854962,1.2061068702290076,-1.1450381679389312,-0.45751953125,-0.095947265625,-0.122802734375,1.2834999999999999
3.7251908396946565,1.3435114503816794,-1.3282442748091603,-0.4619140625,-0.094482421875,-0.13134765625,1.2852
3.618320610687023,1.2671755725190839,-1.297709923664122,-0.45947265625,-0.1015625,-0.12646484375,1.2869
3.6946564885496183,1.4198473282442747,-1.2366412213740459,-0.45947265625,-0.098876953125,-0.125,1.2886
3.6030534351145036,1.6030534351145038,-1.4351145038167938,-0.458740234375,-0.098388671875,-0.1318359375,1.2903
3.312977099236641,1.3129770992366412,-1.4198473282442747,-0.45751953125,-0.0947265625,-0.125244140625,1.292
3.3587786259541983,1.4045801526717556,-1.1603053435114503,-0.4560546875,-0.09375,-0.124755859375,1.2936999999999999
3.099236641221374,1.3740458015267176,-1.1603053435114503,-0.46337890625,-0.09814453125,-0.13623046875,1.2953999999999999
2.946564885496183,1.1908396946564885,-1.465648854961832,-0.46435546875,-0.099365234375,-0.126708984375,1.2971
2.931297709923664,1.4045801526717556,-1.3893129770992367,-0.46533203125,-0.09912109375,-0.127197265625,1.2988
2.7938931297709924,1.3740458015267176,-1.4045801526717556,-0.45947265625,-0.096923828125,-0.12744140625,1.3005
2.6564885496183206,1.2366412213740459,-1.4351145038167938,-0.46240234375,-0.097900390625,-0.12109375,1.3022
2.366412213740458,1.1755725190839694,-1.4045801526717556,-0.45849609375,-0.0966796875,-0.12109375,1.3038999999999998
2.549618320610687,1.1755725190839694,-1.251908396946565,-0.455810546875,-0.09814453125,-0.133056640625,1.3055999999999999
2.33587786259542,1.1755725190839694,-1.5419847328244274,-0.45556640625,-0.093994140625,-0.125732421875,1.3073
2.122137404580153,1.282442748091603,-1.5877862595419847,-0.4560546875,-0.09619140625,-0.123779296875,1.309
2.1526717557251906,1.2366412213740459,-1.5114503816793894,-0.458740234375,-0.103515625,-0.1298828125,1.3107
2.045801526717557,1.0534351145038168,-1.4045801526717556,-0.457763671875,-0.099853515625,-0.123779296875,1.3124
2.16793893129771,0.9312977099236641,-1.2213740458015268,-0.45556640625,-0.095703125,-0.1259765625,1.3140999999999998
1.9541984732824427,0.9312977099236641,-1.4961832061068703,-0.4541015625,-0.09521484375,-0.134033203125,1.3157999999999999
1.8625954198473282,0.8396946564885496,-1.2213740458015268,-0.460205078125,-0.10205078125,-0.12744140625,1.3175
1.6488549618320612,0.6870229007633588,-1.465648854961832,-0.46435546875,-0.099853515625,-0.127197265625,1.3192
1.6488549618320612,0.6717557251908397,-1.3282442748091603,-0.462646484375,-0.097900390625,-0.126220703125,1.3209
1.7404580152671756,0.5648854961832062,-1.083969465648855,-0.4580078125,-0.094970703125,-0.120849609375,1.3226
1.4045801526717556,0.5801526717557252,-1.251908396946565,-0.461181640625,-0.103271484375,-0.12353515625,1.3243
1.4351145038167938,0.42748091603053434,-1.4198473282442747,-0.45703125,-0.102783203125,-0.124267578125,1.3259999999999998
1.4961832061068703,0.48854961832061067,-1.2213740458015268,-0.455322265625,-0.1015625,-0.130126953125,1.3276999999999999
1.5114503816793894,0.5190839694656488,-1.465648854961832,-0.458251953125,-0.096435546875,-0.126220703125,1.3294
1.450381679389313,0.5648854961832062,-1.4198473282442747,-0.461181640625,-0.09716796875,-0.127685546875,1.3311
1.1755725190839694,0.5801526717557252,-1.5267175572519085,-0.459228515625,-0.09228515625,-0.1220703125,1.3328
1.3587786259541985,0.7175572519083969,-1.4351145038167938,-0.458740234375,-0.101806640625,-0.125732421875,1.3345
1.6793893129770991,0.5343511450381679,-1.5572519083969465,-0.457763671875,-0.0947265625,-0.129150390625,1.3361999999999998
1.3129770992366412,0.6412213740458015,-1.4198473282442747,-0.456787109375,-0.096923828125,-0.127685546875,1.3378999999999999
1.297709923664122,0.732824427480916,-1.5725190839694656,-0.455810546875,-0.094970703125,-0.130859375,1.3396
1.3282442748091603,0.8549618320610687,-1.4809160305343512,-0.460205078125,-0.094482421875,-0.131103515625,1.3413
1.450381679389313,0.916030534351145,-1.5114503816793894,-0.45947265625,-0.09716796875,-0.12353515625,1.343
1.2671755725190839,0.7022900763358778,-1.4045801526717556,-0.4599609375,-0.09619140625,-0.1240234375,1.3447
1.4961832061068703,0.8854961832061069,-1.5419847328244274,-0.46337890625,-0.096435546875,-0.11865234375,1.3463999999999998
1.618320610687023,0.8854961832061069,-1.3282442748091603,-0.46142578125,-0.09375,-0.12255859375,1.3480999999999999
1.6641221374045803,0.8854961832061069,-1.5267175572519085,-0.457763671875,-0.096923828125,-0.121337890625,1.3497999999999999
1.6488549618320612,0.8702290076335878,-1.5114503816793894,-0.455078125,-0.09423828125,-0.127197265625,1.3515
1.7251908396946565,0.6870229007633588,-1.5267175572519085,-0.462158203125,-0.090087890625,-0.12060546875,1.3532
1.9389312977099236,0.5954198473282443,-1.5114503816793894,-0.462646484375,-0.09033203125,-0.132568359375,1.3549
1.633587786259542,0.8091603053435115,-1.5877862595419847,-0.461181640625,-0.095947265625,-0.136962890625,1.3566
2.16793893129771,0.7480916030534351,-1.4045801526717556,-0.4560546875,-0.091796875,-0.123046875,1.3582999999999998
2.1068702290076335,0.732824427480916,-1.6946564885496183,-0.458740234375,-0.091796875,-0.1201171875,1.3599999999999999
2.015267175572519,0.7786259541984732,-1.633587786259542,-0.457763671875,-0.09521484375,-0.126953125,1.3617
2.0610687022900764,0.732824427480916,-1.6488549618320612,-0.458984375,-0.092041015625,-0.1318359375,1.3634
2.015267175572519,0.6564885496183206,-1.5419847328244274,-0.456787109375,-0.09375,-0.12451171875,1.3651
2.2290076335877864,0.5801526717557252,-1.6488549618320612,-0.455810546875,-0.092041015625,-0.1240234375,1.3668
2.045801526717557,0.8091603053435115,-1.5419847328244274,-0.460205078125,-0.090576171875,-0.131103515625,1.3684999999999998
2.2290076335877864,0.9618320610687023,-1.5877862595419847,-0.46142578125,-0.095947265625,-0.12890625,1.3701999999999999
1.8778625954198473,1.0076335877862594,-1.4198473282442747,-0.462646484375,-0.094482421875,-0.136474609375,1.3719
2.1068702290076335,0.9618320610687023,-1.5725190839694656,-0.45947265625,-0.093994140625,-0.12548828125,1.3736
2.213740458015267,0.916030534351145,-1.5725190839694656,-0.45947265625,-0.087158203125,-0.1240234375,1.3753
2.0916030534351147,0.9007633587786259,-1.633587786259542,-0.4560546875,-0.089111328125,-0.1240234375,1.377
2.0763358778625953,1.251908396946565,-1.4351145038167938,-0.461181640625,-0.0986328125,-0.13623046875,1.3786999999999998
1.8625954198473282,1.099236641221374,-1.5419847328244274,-0.463134765625,-0.0908203125,-0.1259765625,1.3803999999999998
2.0916030534351147,1.0381679389312977,-1.3587786259541985,-0.46533203125,-0.093017578125,-0.13232421875,1.3820999999999999
2.2900763358778624,1.2366412213740459,-1.7557251908396947,-0.462646484375,-0.09033203125,-0.124267578125,1.3838
2.2290076335877864,1.4961832061068703,-1.6641221374045803,-0.4580078125,-0.095947265625,-0.130859375,1.3855
2.122137404580153,1.1450381679389312,-1.7251908396946565,-0.458251953125,-0.09423828125,-0.12451171875,1.3872
2.3053435114503817,1.2213740458015268,-1.450381679389313,-0.457275390625,-0.09375,-0.128662109375,1.3889
2.122137404580153,1.3435114503816794,-1.7404580152671756,-0.45703125,-0.089111328125,-0.1220703125,1.3905999999999998
1.8625954198473282,1.6030534351145038,-1.6641221374045803,-0.45361328125,-0.0966796875,-0.13330078125,1.3922999999999999
2.0916030534351147,1.3740458015267176,-1.83206106870229,-0.456787109375,-0.094970703125,-0.130615234375,1.394
1.9541984732824427,1.3740458015267176,-1.5114503816793894,-0.45849609375,-0.09521484375,-0.12646484375,1.3957
2.0916030534351147,1.5572519083969465,-1.83206106870229,-0.457275390625,-0.094482421875,-0.13134765625,1.3974
1.9389312977099236,1.3282442748091603,-1.5419847328244274,-0.459228515625,-0.095947265625,-0.131103515625,1.3991
2.015267175572519,1.3435114503816794,-1.6488549618320612,-0.4560546875,-0.095458984375,-0.13037109375,1.4007999999999998
1.9083969465648856,1.4809160305343512,-1.6488549618320612,-0.456787109375,-0.094970703125,-0.12744140625,1.4024999999999999
1.984732824427481,1.2061068702290076,-1.7557251908396947,-0.457275390625,-0.09521484375,-0.127685546875,1.4042
1.6946564885496183,1.3129770992366412,-1.5725190839694656,-0.46044921875,-0.093017578125,-0.128662109375,1.4059
1.984732824427481,1.2213740458015268,-1.5877862595419847,-0.45751953125,-0.098388671875,-0.126708984375,1.4076
2.122137404580153,1.1297709923664123,-1.450381679389313,-0.455078125,-0.09423828125,-0.122802734375,1.4093
1.786259541984733,0.9007633587786259,-1.5114503816793894,-0.455078125,-0.0947265625,-0.119140625,1.411
1.9541984732824427,0.9770992366412213,-1.5419847328244274,-0.45458984375,-0.093017578125,-0.1240234375,1.4126999999999998
2.0916030534351147,1.083969465648855,-1.4961832061068703,-0.461669921875,-0.094970703125,-0.128662109375,1.4143999999999999
1.9389312977099236,0.9465648854961832,-1.5572519083969465,-0.45849609375,-0.091064453125,-0.1220703125,1.4161
2.0,0.9465648854961832,-1.5419847328244274,-0.460205078125,-0.0908203125,-0.133544921875,1.4178
2.0610687022900764,0.9770992366412213,-1.3129770992366412,-0.4580078125,-0.092041015625,-0.13232421875,1.4195
2.16793893129771,0.9618320610687023,-1.4351145038167938,-0.4521484375,-0.095458984375,-0.123046875,1.4212
2.381679389312977,0.8854961832061069,-1.3587786259541985,-0.458251953125,-0.095458984375,-0.131103515625,1.4228999999999998
2.2290076335877864,1.0534351145038168,-1.3129770992366412,-0.460693359375,-0.09326171875,-0.122802734375,1.4245999999999999
2.351145038167939,0.8244274809160306,-1.4809160305343512,-0.453857421875,-0.09423828125,-0.126220703125,1.4263
2.33587786259542,0.8702290076335878,-1.3587786259541985,-0.456298828125,-0.093505859375,-0.122802734375,1.428
2.33587786259542,1.0076335877862594,-1.2671755725190839,-0.4619140625,-0.0966796875,-0.126220703125,1.4297
2.33587786259542,0.8549618320610687,-1.465648854961832,-0.457763671875,-0.094482421875,-0.13134765625,1.4314
2.4427480916030535,0.9465648854961832,-1.3740458015267176,-0.455322265625,-0.09765625,-0.126220703125,1.4330999999999998
2.381679389312977,0.8396946564885496,-1.4045801526717556,-0.455078125,-0.0966796875,-0.1240234375,1.4347999999999999
2.2748091603053435,0.9770992366412213,-1.0381679389312977,-0.463134765625,-0.097900390625,-0.124755859375,1.4364999999999999
2.213740458015267,0.7938931297709924,-1.3129770992366412,-0.463134765625,-0.09521484375,-0.124755859375,1.4382
2.381679389312977,0.8702290076335878,-1.450381679389313,-0.460693359375,-0.09716796875,-0.125,1.4399
2.2442748091603053,1.1450381679389312,-1.3435114503816794,-0.45703125,-0.095458984375,-0.132568359375,1.4416
2.2595419847328246,1.083969465648855,-1.1145038167938932,-0.46044921875,-0.093994140625,-0.134033203125,1.4433
2.2442748091603053,1.099236641221374,-1.297709923664122,-0.45849609375,-0.098876953125,-0.12939453125,1.4449999999999998
2.2290076335877864,1.0076335877862594,-1.1297709923664123,-0.45751953125,-0.094970703125,-0.128662109375,1.4466999999999999
2.1374045801526718,1.1450381679389312,-1.251908396946565,-0.460693359375,-0.104736328125,-0.12646484375,1.4484
2.198473282442748,1.0687022900763359,-1.2213740458015268,-0.459228515625,-0.105224609375,-0.118896484375,1.4501
2.1068702290076335,0.9923664122137404,-1.3129770992366412,-0.45849609375,-0.0986328125,-0.12255859375,1.4518
1.9389312977099236,0.8702290076335878,-1.3282442748091603,-0.454345703125,-0.10205078125,-0.125,1.4535
1.83206106870229,1.0076335877862594,-1.297709923664122,-0.454345703125,-0.10205078125,-0.134033203125,1.4551999999999998
2.3969465648854964,1.0076335877862594,-1.2061068702290076,-0.461181640625,-0.102783203125,-0.120849609375,1.4568999999999999
2.1068702290076335,0.8854961832061069,-1.3740458015267176,-0.455322265625,-0.10205078125,-0.134033203125,1.4586
1.8015267175572518,0.9465648854961832,-1.1755725190839694,-0.460693359375,-0.099365234375,-0.1298828125,1.4603
2.16793893129771,0.7786259541984732,-1.4045801526717556,-0.461181640625,-0.10205078125,-0.122802734375,1.462
2.0610687022900764,0.7938931297709924,-1.2671755725190839,-0.456787109375,-0.099853515625,-0.1181640625,1.4637
1.9694656488549618,0.6106870229007634,-1.6641221374045803,-0.45703125,-0.10205078125,-0.128662109375,1.4653999999999998
1.8778625954198473,0.6106870229007634,-1.450381679389313,-0.4560546875,-0.104248046875,-0.127197265625,1.4670999999999998
1.9694656488549618,0.7175572519083969,-1.5267175572519085,-0.4580078125,-0.09912109375,-0.1201171875,1.4687999999999999
2.1374045801526718,0.5801526717557252,-1.2213740458015268,-0.458984375,-0.096435546875,-0.127685546875,1.4705
1.786259541984733,0.6106870229007634,-1.4809160305343512,-0.459716796875,-0.098876953125,-0.130126953125,1.4722
1.7404580152671756,0.732824427480916,-1.297709923664122,-0.46044921875,-0.1025390625,-0.121337890625,1.4739
2.015267175572519,0.5801526717557252,-1.3129770992366412,-0.45556640625,-0.100830078125,-0.12939453125,1.4756
1.8473282442748091,0.7633587786259542,-1.2213740458015268,-0.459716796875,-0.09716796875,-0.122314453125,1.4772999999999998
2.015267175572519,0.8702290076335878,-1.4198473282442747,-0.457275390625,-0.094482421875,-0.128173828125,1.4789999999999999
2.0916030534351147,0.5190839694656488,-1.3893129770992367,-0.4599609375,-0.099365234375,-0.12890625,1.4807
2.0610687022900764,0.4122137404580153,-1.4351145038167938,-0.45556640625,-0.099365234375,-0.119140625,1.4824
2.0610687022900764,0.8396946564885496,-1.3435114503816794,-0.457763671875,-0.1025390625,-0.1220703125,1.4841
1.8473282442748091,0.366412213740458,-1.6488549618320612,-0.458251953125,-0.09912109375,-0.128173828125,1.4858
2.122137404580153,0.2900763358778626,-1.465648854961832,-0.462890625,-0.10009765625,-0.126708984375,1.4874999999999998
2.1374045801526718,0.4122137404580153,-1.450381679389313,-0.45947265625,-0.099365234375,-0.1279296875,1.4891999999999999
2.030534351145038,0.33587786259541985,-1.5725190839694656,-0.458740234375,-0.09765625,-0.133056640625,1.4909
1.984732824427481,0.3511450381679389,-1.5877862595419847,-0.456298828125,-0.093994140625,-0.12890625,1.4926
2.0763358778625953,0.3053435114503817,-1.8625954198473282,-0.456787109375,-0.096435546875,-0.1376953125,1.4943
2.1526717557251906,0.4122137404580153,-1.5877862595419847,-0.458740234375,-0.096435546875,-0.125732421875,1.496
1.8931297709923665,0.3969465648854962,-1.6030534351145038,-0.4619140625,-0.0947265625,-0.1259765625,1.4976999999999998
1.7709923664122138,0.44274809160305345,-1.7251908396946565,-0.4541015625,-0.087890625,-0.12744140625,1.4993999999999998
1.9541984732824427,0.6259541984732825,-1.7709923664122138,-0.459716796875,-0.098876953125,-0.12451171875,1.5010999999999999
1.83206106870229,0.549618320610687,-1.5572519083969465,-0.457275390625,-0.093994140625,-0.139404296875,1.5028
2.0,0.5801526717557252,-1.7404580152671756,-0.46044921875,-0.095947265625,-0.13232421875,1.5045
1.984732824427481,0.7938931297709924,-1.618320610687023,-0.458984375,-0.098876953125,-0.1298828125,1.5062
2.0,0.8702290076335878,-1.2671755725190839,-0.458984375,-0.096923828125,-0.138671875,1.5079
1.8778625954198473,0.9465648854961832,-1.450381679389313,-0.457275390625,-0.091552734375,-0.12451171875,1.5095999999999998
1.83206106870229,0.9465648854961832,-1.6030534351145038,-0.454833984375,-0.088134765625,-0.1357421875,1.5112999999999999
2.2595419847328246,1.0229007633587786,-1.5725190839694656,-0.455078125,-0.09228515625,-0.139892578125,1.513
1.9389312977099236,1.1145038167938932,-1.2671755725190839,-0.453125,-0.090087890625,-0.130859375,1.5147
2.045801526717557,1.2366412213740459,-1.450381679389313,-0.4560546875,-0.093017578125,-0.130615234375,1.5164
2.1374045801526718,1.282442748091603,-1.3435114503816794,-0.454833984375,-0.092041015625,-0.13134765625,1.5181
2.045801526717557,1.3129770992366412,-1.4198473282442747,-0.461181640625,-0.091796875,-0.134033203125,1.5197999999999998
2.0,1.2366412213740459,-1.3893129770992367,-0.463134765625,-0.095458984375,-0.130615234375,1.5214999999999999
2.122137404580153,1.0381679389312977,-1.3893129770992367,-0.462158203125,-0.095947265625,-0.124267578125,1.5231999999999999
2.030534351145038,1.099236641221374,-1.3893129770992367,-0.458251953125,-0.090087890625,-0.125732421875,1.5249
1.83206106870229,1.0534351145038168,-1.297709923664122,-0.46044921875,-0.089111328125,-0.122314453125,1.5266
1.9694656488549618,1.083969465648855,-1.282442748091603,-0.46142578125,-0.093017578125,-0.132568359375,1.5283
1.9236641221374047,1.099236641221374,-1.3435114503816794,-0.4609375,-0.092041015625,-0.126708984375,1.5299999999999998
1.9083969465648856,1.0076335877862594,-1.3435114503816794,-0.455078125,-0.09619140625,-0.12939453125,1.5316999999999998
1.7709923664122138,0.9007633587786259,-1.5114503816793894,-0.4541015625,-0.0966796875,-0.12255859375,1.5333999999999999
1.7251908396946565,1.1297709923664123,-1.4351145038167938,-0.461669921875,-0.094970703125,-0.12109375,1.5351
1.786259541984733,0.9465648854961832,-1.3587786259541985,-0.45556640625,-0.09375,-0.1259765625,1.5368
1.3893129770992367,0.9923664122137404,-1.2061068702290076,-0.456787109375,-0.093505859375,-0.12841796875,1.5385
1.3587786259541985,0.8549618320610687,-1.2671755725190839,-0.45556640625,-0.098876953125,-0.134033203125,1.5402
1.4809160305343512,1.1450381679389312,-1.297709923664122,-0.45458984375,-0.092041015625,-0.127197265625,1.5418999999999998
1.3435114503816794,0.9618320610687023,-1.2213740458015268,-0.45751953125,-0.093017578125,-0.123046875,1.5435999999999999
1.1603053435114503,0.8244274809160306,-1.1603053435114503,-0.451904296875,-0.091552734375,-0.1201171875,1.5453
1.0229007633587786,0.8702290076335878,-1.251908396946565,-0.45361328125,-0.096923828125,-0.11767578125,1.547
1.3129770992366412,0.8854961832061069,-1.2213740458015268,-0.45751953125,-0.092041015625,-0.122802734375,1.5487
1.251908396946565,0.732824427480916,-1.3129770992366412,-0.4580078125,-0.087646484375,-0.123779296875,1.5504
1.0381679389312977,0.9465648854961832,-1.2671755725190839,-0.460205078125,-0.0908203125,-0.13671875,1.5520999999999998
1.2366412213740459,0.9618320610687023,-1.1145038167938932,-0.450439453125,-0.0927734375,-0.12353515625,1.5537999999999998
1.0229007633587786,0.916030534351145,-1.251908396946565,-0.458740234375,-0.09130859375,-0.115966796875,1.5554999999999999
1.0229007633587786,0.7480916030534351,-1.0076335877862594,-0.460205078125,-0.086669921875,-0.129150390625,1.5572
0.9618320610687023,0.9618320610687023,-1.1450381679389312,-0.461181640625,-0.08984375,-0.120361328125,1.5589
1.3435114503816794,1.099236641221374,-1.0687022900763359,-0.455810546875,-0.088623046875,-0.12548828125,1.5606
1.3587786259541985,1.0534351145038168,-1.0076335877862594,-0.458984375,-0.086181640625,-0.126220703125,1.5623
1.5419847328244274,0.8854961832061069,-1.0534351145038168,-0.464599609375,-0.0888671875,-0.126220703125,1.5639999999999998
1.4961832061068703,0.8396946564885496,-1.083969465648855,-0.4560546875,-0.091552734375,-0.123046875,1.5656999999999999
1.618320610687023,0.916030534351145,-0.916030534351145,-0.459228515625,-0.0888671875,-0.128173828125,1.5674
1.9236641221374047,0.8702290076335878,-1.083969465648855,-0.458740234375,-0.088134765625,-0.12109375,1.5691
1.9694656488549618,1.1603053435114503,-0.8549618320610687,-0.457275390625,-0.08837890625,-0.126953125,1.5708
2.1068702290076335,1.2061068702290076,-0.7480916030534351,-0.452392578125,-0.087158203125,-0.126708984375,1.5725
2.1068702290076335,1.083969465648855,-0.5801526717557252,-0.45654296875,-0.090576171875,-0.11962890625,1.5741999999999998
2.366412213740458,1.1755725190839694,-0.6259541984732825,-0.46533203125,-0.086669921875,-0.134521484375,1.5758999999999999
2.4580152671755724,1.2366412213740459,-0.8091603053435115,-0.462890625,-0.087890625,-0.125244140625,1.5776
2.564885496183206,1.3129770992366412,-0.8549618320610687,-0.457275390625,-0.08837890625,-0.12451171875,1.5793
2.5801526717557253,1.450381679389313,-0.732824427480916,-0.463134765625,-0.08837890625,-0.11962890625,1.581
2.7022900763358777,1.5877862595419847,-0.732824427480916,-0.45458984375,-0.08935546875,-0.123291015625,1.5827
2.8396946564885495,1.5572519083969465,-0.6870229007633588,-0.461669921875,-0.092041015625,-0.1201171875,1.5843999999999998
3.1297709923664123,1.5572519083969465,-0.7633587786259542,-0.463623046875,-0.091552734375,-0.123046875,1.5860999999999998
3.0076335877862594,1.6641221374045803,-0.7480916030534351,-0.461669921875,-0.087646484375,-0.124267578125,1.5877999999999999
2.854961832061069,1.5877862595419847,-0.7175572519083969,-0.46142578125,-0.088623046875,-0.121826171875,1.5895
3.267175572519084,1.5267175572519085,-0.7480916030534351,-0.45849609375,-0.086669921875,-0.1201171875,1.5912
3.2977099236641223,1.786259541984733,-0.8549618320610687,-0.463623046875,-0.088134765625,-0.1240234375,1.5929
3.0839694656488548,1.5877862595419847,-0.6412213740458015,-0.461181640625,-0.090087890625,-0.11767578125,1.5946
3.282442748091603,1.465648854961832,-0.6717557251908397,-0.4658203125,-0.091064453125,-0.122802734375,1.5962999999999998
3.3282442748091605,1.618320610687023,-0.7480916030534351,-0.461669921875,-0.0947265625,-0.121337890625,1.5979999999999999
3.1908396946564888,1.786259541984733,-0.9007633587786259,-0.4619140625,-0.090087890625,-0.130859375,1.5997
3.114503816793893,1.786259541984733,-0.8396946564885496,-0.4599609375,-0.09375,-0.129150390625,1.6014
3.0839694656488548,1.8625954198473282,-0.8854961832061069,-0.460693359375,-0.0947265625,-0.12841796875,1.6031
3.236641221374046,2.030534351145038,-0.9007633587786259,-0.462158203125,-0.09228515625,-0.12451171875,1.6048
3.114503816793893,2.0,-1.0076335877862594,-0.4619140625,-0.091552734375,-0.139404296875,1.6064999999999998
3.068702290076336,1.8778625954198473,-0.7480916030534351,-0.4599609375,-0.0927734375,-0.13427734375,1.6081999999999999
2.8244274809160306,1.8473282442748091,-0.9770992366412213,-0.461181640625,-0.09375,-0.1259765625,1.6098999999999999
2.687022900763359,1.83206106870229,-1.0229007633587786,-0.460205078125,-0.09326171875,-0.123046875,1.6116
2.9160305343511452,1.786259541984733,-0.9618320610687023,-0.45849609375,-0.09521484375,-0.125,1.6133
2.900763358778626,1.7251908396946565,-0.9770992366412213,-0.463623046875,-0.095703125,-0.125,1.615
2.763358778625954,1.7557251908396947,-0.9618320610687023,-0.459716796875,-0.09716796875,-0.128662109375,1.6166999999999998
2.6564885496183206,1.8931297709923665,-1.099236641221374,-0.462158203125,-0.09765625,-0.1298828125,1.6183999999999998
2.595419847328244,1.786259541984733,-1.2213740458015268,-0.45849609375,-0.100830078125,-0.11669921875,1.6200999999999999
2.50381679389313,1.5877862595419847,-0.9312977099236641,-0.463623046875,-0.10107421875,-0.134521484375,1.6218
2.381679389312977,1.5572519083969465,-1.083969465648855,-0.4638671875,-0.09619140625,-0.12451171875,1.6235
2.595419847328244,1.3893129770992367,-1.1755725190839694,-0.457275390625,-0.09765625,-0.130859375,1.6252
2.3053435114503817,1.4198473282442747,-1.1145038167938932,-0.454345703125,-0.0947265625,-0.124267578125,1.6269
2.2290076335877864,1.5725190839694656,-0.9770992366412213,-0.460693359375,-0.09716796875,-0.124267578125,1.6285999999999998
2.2900763358778624,1.633587786259542,-1.099236641221374,-0.45947265625,-0.090576171875,-0.126708984375,1.6302999999999999
2.0610687022900764,1.450381679389313,-1.1297709923664123,-0.456787109375,-0.0986328125,-0.1220703125,1.632
2.045801526717557,1.4045801526717556,-1.2061068702290076,-0.455078125,-0.097412109375,-0.12548828125,1.6337
2.3053435114503817,1.2671755725190839,-1.1145038167938932,-0.46142578125,-0.092041015625,-0.124267578125,1.6354
2.122137404580153,1.5114503816793894,-0.9618320610687023,-0.45703125,-0.09765625,-0.11767578125,1.6371
2.0916030534351147,1.4809160305343512,-0.9923664122137404,-0.454345703125,-0.0927734375,-0.13525390625,1.6387999999999998
2.0610687022900764,1.4351145038167938,-1.3740458015267176,-0.460205078125,-0.09814453125,-0.12841796875,1.6404999999999998
1.9541984732824427,1.3587786259541985,-1.099236641221374,-0.463623046875,-0.093994140625,-0.123046875,1.6421999999999999
2.2748091603053435,1.5114503816793894,-1.083969465648855,-0.4599609375,-0.09375,-0.118896484375,1.6439
2.3053435114503817,1.5419847328244274,-1.083969465648855,-0.455322265625,-0.09814453125,-0.126953125,1.6456
2.2748091603053435,1.3893129770992367,-1.2213740458015268,-0.4580078125,-0.098876953125,-0.128173828125,1.6473
2.519083969465649,1.3740458015267176,-1.1297709923664123,-0.458740234375,-0.092041015625,-0.121337890625,1.6489999999999998
2.4732824427480917,1.450381679389313,-1.2366412213740459,-0.45947265625,-0.097412109375,-0.126953125,1.6506999999999998
2.7938931297709924,1.3282442748091603,-1.0229007633587786,-0.461669921875,-0.093017578125,-0.128662109375,1.6523999999999999
2.7480916030534353,1.5267175572519085,-1.1755725190839694,-0.463134765625,-0.0986328125,-0.12353515625,1.6541
2.7786259541984735,1.4961832061068703,-1.1755725190839694,-0.462158203125,-0.100341796875,-0.12353515625,1.6558
2.6412213740458017,1.5267175572519085,-1.3587786259541985,-0.461669921875,-0.09814453125,-0.125732421875,1.6575
2.931297709923664,1.5877862595419847,-1.2671755725190839,-0.459228515625,-0.097412109375,-0.12548828125,1.6592
2.8396946564885495,1.6030534351145038,-1.1450381679389312,-0.458740234375,-0.092041015625,-0.137451171875,1.6608999999999998
2.564885496183206,1.6641221374045803,-1.083969465648855,-0.462158203125,-0.09619140625,-0.1318359375,1.6625999999999999
2.900763358778626,1.6946564885496183,-1.2061068702290076,-0.457275390625,-0.09423828125,-0.124755859375,1.6643
2.7786259541984735,1.8015267175572518,-1.1908396946564885,-0.464599609375,-0.095703125,-0.133056640625,1.666
2.7786259541984735,1.7251908396946565,-1.5877862595419847,-0.467529296875,-0.09765625,-0.129150390625,1.6677
2.900763358778626,1.5572519083969465,-1.1755725190839694,-0.462646484375,-0.092041015625,-0.127197265625,1.6694
2.6564885496183206,1.8931297709923665,-1.4045801526717556,-0.461669921875,-0.091796875,-0.13134765625,1.6710999999999998
2.595419847328244,1.9541984732824427,-1.450381679389313,-0.461669921875,-0.094970703125,-0.1259765625,1.6727999999999998
2.6717557251908395,1.8931297709923665,-1.3893129770992367,-0.45654296875,-0.093994140625,-0.123291015625,1.6744999999999999
2.4885496183206106,1.8778625954198473,-1.3587786259541985,-0.4599609375,-0.091796875,-0.124755859375,1.6762
2.6106870229007635,2.1068702290076335,-1.5725190839694656,-0.460205078125,-0.09521484375,-0.11865234375,1.6779
2.198473282442748,2.1068702290076335,-1.1908396946564885,-0.459716796875,-0.09521484375,-0.1259765625,1.6796
2.4427480916030535,1.8473282442748091,-1.3435114503816794,-0.457275390625,-0.1015625,-0.135009765625,1.6813
2.122137404580153,1.9389312977099236,-1.2671755725190839,-0.457763671875,-0.099609375,-0.131591796875,1.6829999999999998
2.0916030534351147,2.122137404580153,-1.3740458015267176,-0.46240234375,-0.095703125,-0.136962890625,1.6846999999999999
2.0916030534351147,1.9236641221374047,-1.251908396946565,-0.453369140625,-0.101318359375,-0.12744140625,1.6864
1.7251908396946565,1.8931297709923665,-1.465648854961832,-0.459228515625,-0.099609375,-0.122802734375,1.6881
1.5725190839694656,1.9236641221374047,-1.099236641221374,-0.45751953125,-0.098876953125,-0.12939453125,1.6898
1.7251908396946565,1.7099236641221374,-1.2366412213740459,-0.46044921875,-0.098876953125,-0.127197265625,1.6915
1.633587786259542,1.7557251908396947,-1.2366412213740459,-0.4658203125,-0.09521484375,-0.130126953125,1.6931999999999998
1.4198473282442747,1.7557251908396947,-1.4198473282442747,-0.4609375,-0.09912109375,-0.127197265625,1.6948999999999999
1.3893129770992367,1.633587786259542,-1.1603053435114503,-0.460205078125,-0.09521484375,-0.127197265625,1.6965999999999999
1.3129770992366412,1.5877862595419847,-1.2671755725190839,-0.454833984375,-0.101806640625,-0.1298828125,1.6983
1.2213740458015268,1.465648854961832,-1.2366412213740459,-0.45361328125,-0.100341796875,-0.120361328125,1.7
1.4809160305343512,1.5725190839694656,-1.2671755725190839,-0.455078125,-0.0966796875,-0.11962890625,1.7017
1.1755725190839694,1.5725190839694656,-1.083969465648855,-0.46044921875,-0.095458984375,-0.1259765625,1.7033999999999998
1.4045801526717556,1.465648854961832,-1.251908396946565,-0.461181640625,-0.098876953125,-0.1328125,1.7050999999999998
1.0381679389312977,1.450381679389313,-1.083969465648855,-0.4609375,-0.098388671875,-0.134521484375,1.7067999999999999
1.0534351145038168,1.297709923664122,-1.099236641221374,-0.460205078125,-0.0947265625,-0.1259765625,1.7085
1.099236641221374,1.2671755725190839,-1.0076335877862594,-0.460693359375,-0.096923828125,-0.123779296875,1.7102
1.1297709923664123,1.2061068702290076,-1.0076335877862594,-0.457275390625,-0.096923828125,-0.119140625,1.7119
1.1145038167938932,1.297709923664122,-0.9618320610687023,-0.451904296875,-0.09814453125,-0.118408203125,1.7136
0.9923664122137404,1.1450381679389312,-1.0534351145038168,-0.452880859375,-0.096923828125,-0.1279296875,1.7152999999999998
1.1297709923664123,1.1145038167938932,-0.9007633587786259,-0.45849609375,-0.095947265625,-0.130126953125,1.7169999999999999
1.3740458015267176,1.083969465648855,-0.8854961832061069,-0.4541015625,-0.08984375,-0.1279296875,1.7187
1.297709923664122,0.9618320610687023,-0.8244274809160306,-0.4541015625,-0.09228515625,-0.130126953125,1.7204
1.2671755725190839,0.8244274809160306,-0.7633587786259542,-0.4560546875,-0.09033203125,-0.12890625,1.7221
1.4351145038167938,0.9923664122137404,-0.916030534351145,-0.457275390625,-0.09375,-0.131591796875,1.7238
1.5267175572519085,0.9770992366412213,-0.9923664122137404,-0.456787109375,-0.091552734375,-0.1279296875,1.7254999999999998
1.4045801526717556,1.0076335877862594,-0.9618320610687023,-0.455322265625,-0.0986328125,-0.12890625,1.7271999999999998
1.465648854961832,1.1603053435114503,-0.9923664122137404,-0.45703125,-0.096923828125,-0.12548828125,1.7288999999999999
1.7404580152671756,1.083969465648855,-1.0381679389312977,-0.45947265625,-0.093017578125,-0.127685546875,1.7306
1.8931297709923665,0.9007633587786259,-1.0687022900763359,-0.454833984375,-0.091796875,-0.128173828125,1.7323
2.1068702290076335,1.0229007633587786,-0.8854961832061069,-0.45703125,-0.09130859375,-0.12158203125,1.734
1.9236641221374047,1.1297709923664123,-0.9923664122137404,-0.45458984375,-0.093017578125,-0.12841796875,1.7356999999999998
2.122137404580153,1.2671755725190839,-0.9465648854961832,-0.45947265625,-0.09521484375,-0.1220703125,1.7373999999999998
2.351145038167939,1.3435114503816794,-0.8702290076335878,-0.453369140625,-0.091552734375,-0.128662109375,1.7390999999999999
2.351145038167939,1.3129770992366412,-1.1297709923664123,-0.4560546875,-0.09033203125,-0.1279296875,1.7408
2.4580152671755724,1.3129770992366412,-1.1603053435114503,-0.461181640625,-0.095947265625,-0.129638671875,1.7425
2.2900763358778624,1.251908396946565,-0.8854961832061069,-0.451904296875,-0.096435546875,-0.1240234375,1.7442
2.6564885496183206,1.4351145038167938,-1.0381679389312977,-0.45458984375,-0.092041015625,-0.12841796875,1.7459
2.7022900763358777,1.297709923664122,-1.0687022900763359,-0.45556640625,-0.095947265625,-0.12109375,1.7475999999999998
2.4732824427480917,1.450381679389313,-1.1450381679389312,-0.463134765625,-0.09716796875,-0.129150390625,1.7492999999999999
2.7786259541984735,1.3587786259541985,-1.1908396946564885,-0.45849609375,-0.100830078125,-0.12353515625,1.751
2.7022900763358777,1.4198473282442747,-1.2213740458015268,-0.4580078125,-0.096435546875,-0.12255859375,1.7527
2.519083969465649,1.6030534351145038,-1.1603053435114503,-0.46044921875,-0.0908203125,-0.12451171875,1.7544
2.8244274809160306,1.6641221374045803,-1.2671755725190839,-0.45263671875,-0.096435546875,-0.127685546875,1.7561
2.732824427480916,1.450381679389313,-1.1145038167938932,-0.451904296875,-0.095703125,-0.1240234375,1.7577999999999998
2.519083969465649,1.5267175572519085,-1.2213740458015268,-0.455322265625,-0.094970703125,-0.135986328125,1.7594999999999998
2.595419847328244,1.5877862595419847,-1.251908396946565,-0.460205078125,-0.09423828125,-0.125,1.7611999999999999
2.5801526717557253,1.4961832061068703,-1.3282442748091603,-0.456787109375,-0.09326171875,-0.12939453125,1.7629
2.2290076335877864,1.7557251908396947,-1.2671755725190839,-0.458740234375,-0.096923828125,-0.127685546875,1.7646
2.2900763358778624,1.83206106870229,-1.3282442748091603,-0.452392578125,-0.099609375,-0.130859375,1.7663
2.564885496183206,1.7557251908396947,-1.2671755725190839,-0.45458984375,-0.1025390625,-0.12841796875,1.7679999999999998
2.6564885496183206,1.6030534351145038,-1.2213740458015268,-0.457275390625,-0.09765625,-0.132080078125,1.7696999999999998
2.4427480916030535,1.465648854961832,-1.083969465648855,-0.45361328125,-0.09814453125,-0.1279296875,1.7713999999999999
2.3969465648854964,1.618320610687023,-1.297709923664122,-0.456787109375,-0.1005859375,-0.125,1.7731
2.3206106870229006,1.4045801526717556,-1.2366412213740459,-0.459228515625,-0.098876953125,-0.124755859375,1.7748
2.4580152671755724,1.450381679389313,-1.083969465648855,-0.455322265625,-0.1015625,-0.130615234375,1.7765
2.519083969465649,1.618320610687023,-1.099236641221374,-0.45361328125,-0.099365234375,-0.13623046875,1.7782
2.366412213740458,1.618320610687023,-0.9618320610687023,-0.45654296875,-0.10009765625,-0.13037109375,1.7798999999999998
2.16793893129771,1.4198473282442747,-1.0534351145038168,-0.456787109375,-0.10009765625,-0.12548828125,1.7815999999999999
2.183206106870229,1.5114503816793894,-0.916030534351145,-0.45556640625,-0.0966796875,-0.132080078125,1.7832999999999999
2.213740458015267,1.3587786259541985,-0.9770992366412213,-0.453369140625,-0.09716796875,-0.134521484375,1.785
2.122137404580153,1.1908396946564885,-0.7938931297709924,-0.4580078125,-0.097412109375,-0.121337890625,1.7867
2.1068702290076335,1.1908396946564885,-0.7786259541984732,-0.4609375,-0.099365234375,-0.1201171875,1.7884
1.9541984732824427,1.1908396946564885,-0.7786259541984732,-0.4541015625,-0.10302734375,-0.1298828125,1.7900999999999998
