gyrox1,gyroy1,gyroz1,accelx1,accely1,accelz1,Time
7.099236641221374,-4.778625954198473,-4.778625954198473,-0.009765625,-0.07421875,-0.63818359375,0.0
7.114503816793893,-4.9465648854961835,-5.00763358778626,-0.01171875,-0.07470703125,-0.63916015625,0.0017
6.931297709923665,-4.9465648854961835,-5.236641221374046,-0.014404296875,-0.069091796875,-0.63525390625,0.0034
6.625954198473282,-5.022900763358779,-5.145038167938932,-0.01318359375,-0.072265625,-0.635986328125,0.0050999999999999995
6.290076335877862,-5.297709923664122,-5.480916030534351,-0.01318359375,-0.069091796875,-0.63232421875,0.0068
6.244274809160306,-5.404580152671755,-5.32824427480916,-0.012939453125,-0.070068359375,-0.633056640625,0.008499999999999999
6.229007633587786,-5.6183206106870225,-5.572519083969466,-0.01806640625,-0.071044921875,-0.623046875,0.010199999999999999
5.7251908396946565,-5.633587786259542,-5.587786259541985,-0.01513671875,-0.0712890625,-0.62353515625,0.011899999999999999
5.450381679389313,-5.755725190839694,-5.893129770992366,-0.01806640625,-0.074462890625,-0.634033203125,0.0136
5.358778625954199,-5.847328244274809,-5.908396946564886,-0.01708984375,-0.07177734375,-0.6376953125,0.0153
5.00763358778626,-6.030534351145038,-5.984732824427481,-0.02197265625,-0.071044921875,-0.634765625,0.016999999999999998
4.763358778625954,-6.091603053435114,-6.030534351145038,-0.017333984375,-0.068603515625,-0.6298828125,0.018699999999999998
4.564885496183206,-6.122137404580153,-6.351145038167939,-0.012939453125,-0.076904296875,-0.634521484375,0.020399999999999998
4.183206106870229,-6.183206106870229,-6.580152671755725,-0.0166015625,-0.07177734375,-0.640380859375,0.022099999999999998
3.984732824427481,-6.1679389312977095,-6.763358778625954,-0.0205078125,-0.074462890625,-0.63330078125,0.023799999999999998
3.5572519083969465,-6.198473282442748,-6.809160305343512,-0.01904296875,-0.072998046875,-0.6279296875,0.0255
3.2519083969465647,-6.320610687022901,-6.9465648854961835,-0.017578125,-0.074462890625,-0.630126953125,0.0272
3.0076335877862594,-6.366412213740458,-7.099236641221374,-0.017822265625,-0.075439453125,-0.628173828125,0.0289
2.6259541984732824,-6.564885496183206,-7.251908396946565,-0.017578125,-0.07080078125,-0.63037109375,0.0306
2.549618320610687,-6.396946564885496,-7.251908396946565,-0.017822265625,-0.07177734375,-0.631591796875,0.032299999999999995
2.3053435114503817,-6.5038167938931295,-7.526717557251908,-0.018798828125,-0.069580078125,-0.62939453125,0.033999999999999996
1.8931297709923665,-6.656488549618321,-7.358778625954199,-0.01513671875,-0.064453125,-0.63037109375,0.035699999999999996
1.6030534351145038,-6.977099236641221,-7.526717557251908,-0.01904296875,-0.074462890625,-0.629150390625,0.037399999999999996
1.7709923664122138,-6.748091603053435,-7.755725190839694,-0.02197265625,-0.07373046875,-0.637939453125,0.039099999999999996
1.4045801526717556,-6.9465648854961835,-7.694656488549619,-0.024658203125,-0.07373046875,-0.637451171875,0.040799999999999996
1.2213740458015268,-6.885496183206107,-7.877862595419847,-0.015625,-0.07373046875,-0.63037109375,0.042499999999999996
0.8244274809160306,-6.870229007633588,-8.0,-0.018798828125,-0.06884765625,-0.6279296875,0.044199999999999996
0.7022900763358778,-7.00763358778626,-8.045801526717558,-0.02197265625,-0.070556640625,-0.62744140625,0.045899999999999996
0.42748091603053434,-7.00763358778626,-8.122137404580153,-0.017578125,-0.07373046875,-0.62451171875,0.047599999999999996
0.2748091603053435,-7.206106870229007,-8.122137404580153,-0.021240234375,-0.069580078125,-0.62158203125,0.0493
0.183206106870229,-7.297709923664122,-8.106870229007633,-0.02001953125,-0.069091796875,-0.629638671875,0.051
-0.0916030534351145,-7.312977099236641,-8.076335877862595,-0.02197265625,-0.0703125,-0.619140625,0.0527
-0.0916030534351145,-7.32824427480916,-8.351145038167939,-0.019775390625,-0.072509765625,-0.615234375,0.0544
-0.48854961832061067,-7.419847328244275,-8.534351145038167,-0.0224609375,-0.06787109375,-0.6162109375,0.0561
-0.7480916030534351,-7.374045801526718,-8.305343511450381,-0.024169921875,-0.068115234375,-0.61865234375,0.0578
-0.7786259541984732,-7.587786259541985,-8.51908396946565,-0.023193359375,-0.067138671875,-0.623779296875,0.0595
-1.1908396946564885,-7.526717557251908,-8.564885496183207,-0.018798828125,-0.06884765625,-0.62109375,0.0612
-1.2671755725190839,-7.526717557251908,-8.51908396946565,-0.019775390625,-0.066650390625,-0.61328125,0.0629
-1.3587786259541985,-7.557251908396947,-8.778625954198473,-0.02197265625,-0.06884765625,-0.614990234375,0.06459999999999999
-1.2366412213740459,-7.679389312977099,-8.885496183206106,-0.01611328125,-0.06591796875,-0.624267578125,0.0663
-1.3587786259541985,-7.6183206106870225,-8.625954198473282,-0.0205078125,-0.069091796875,-0.62841796875,0.06799999999999999
-1.5114503816793894,-7.679389312977099,-8.717557251908397,-0.01611328125,-0.068603515625,-0.61328125,0.0697
-1.5572519083969465,-7.648854961832061,-8.763358778625955,-0.0224609375,-0.068359375,-0.615478515625,0.07139999999999999
-1.5419847328244274,-7.6183206106870225,-8.595419847328245,-0.019287109375,-0.0693359375,-0.617919921875,0.0731
-1.4045801526717556,-7.572519083969466,-8.51908396946565,-0.019287109375,-0.0703125,-0.61962890625,0.07479999999999999
-1.450381679389313,-7.541984732824427,-8.580152671755725,-0.02099609375,-0.07373046875,-0.613037109375,0.0765
-1.618320610687023,-7.480916030534351,-8.641221374045802,-0.021484375,-0.071044921875,-0.614990234375,0.07819999999999999
-1.297709923664122,-7.419847328244275,-8.610687022900763,-0.02099609375,-0.069580078125,-0.617431640625,0.0799
-1.251908396946565,-7.419847328244275,-8.641221374045802,-0.020751953125,-0.07080078125,-0.614990234375,0.08159999999999999
-1.3435114503816794,-7.480916030534351,-8.488549618320612,-0.020263671875,-0.0693359375,-0.605712890625,0.0833
-1.3587786259541985,-7.572519083969466,-8.396946564885496,-0.01953125,-0.07080078125,-0.60302734375,0.08499999999999999
-1.3435114503816794,-7.450381679389313,-8.50381679389313,-0.0166015625,-0.07470703125,-0.61767578125,0.0867
-1.2366412213740459,-7.206106870229007,-8.335877862595419,-0.02001953125,-0.06982421875,-0.601318359375,0.08839999999999999
-1.3129770992366412,-7.251908396946565,-8.259541984732824,-0.01806640625,-0.069091796875,-0.61474609375,0.0901
-1.0229007633587786,-7.175572519083969,-8.045801526717558,-0.013916015625,-0.073486328125,-0.60693359375,0.09179999999999999
-1.251908396946565,-7.0534351145038165,-7.9541984732824424,-0.018798828125,-0.065673828125,-0.60595703125,0.0935
-1.4809160305343512,-7.175572519083969,-7.847328244274809,-0.018798828125,-0.07470703125,-0.601806640625,0.09519999999999999
-1.251908396946565,-7.1603053435114505,-7.770992366412214,-0.01416015625,-0.07470703125,-0.603759765625,0.0969
-1.1908396946564885,-7.099236641221374,-7.435114503816794,-0.021240234375,-0.082275390625,-0.599365234375,0.0986
-1.1450381679389312,-6.641221374045801,-7.633587786259542,-0.02294921875,-0.071044921875,-0.6044921875,0.1003
-0.9770992366412213,-6.8396946564885495,-7.450381679389313,-0.025634765625,-0.077392578125,-0.605224609375,0.102
-0.9770992366412213,-6.778625954198473,-7.1603053435114505,-0.020751953125,-0.072265625,-0.609619140625,0.1037
-0.9923664122137404,-6.732824427480916,-7.175572519083969,-0.02001953125,-0.074951171875,-0.60009765625,0.1054
-0.732824427480916,-6.6106870229007635,-7.251908396946565,-0.018798828125,-0.081787109375,-0.6025390625,0.1071
-1.0381679389312977,-6.534351145038168,-7.022900763358779,-0.020751953125,-0.078125,-0.597900390625,0.1088
-0.7786259541984732,-6.687022900763359,-7.038167938931298,-0.02001953125,-0.080078125,-0.602294921875,0.11049999999999999
-0.7480916030534351,-6.412213740458015,-7.00763358778626,-0.018310546875,-0.079833984375,-0.60205078125,0.1122
-0.5801526717557252,-6.33587786259542,-6.824427480916031,-0.017333984375,-0.07470703125,-0.59716796875,0.11389999999999999
-0.5190839694656488,-6.290076335877862,-6.67175572519084,-0.023681640625,-0.07763671875,-0.59375,0.1156
-0.3053435114503817,-6.213740458015267,-6.5038167938931295,-0.0244140625,-0.073974609375,-0.59814453125,0.11729999999999999
-0.21374045801526717,-6.030534351145038,-6.33587786259542,-0.019775390625,-0.077880859375,-0.591796875,0.119
-0.13740458015267176,-5.847328244274809,-6.366412213740458,-0.021484375,-0.0791015625,-0.60546875,0.12069999999999999
0.21374045801526717,-5.740458015267175,-6.213740458015267,-0.02392578125,-0.085205078125,-0.599365234375,0.1224
0.061068702290076333,-5.541984732824427,-6.229007633587786,-0.021728515625,-0.078369140625,-0.593994140625,0.12409999999999999
0.21374045801526717,-5.603053435114504,-5.9541984732824424,-0.025634765625,-0.081298828125,-0.597900390625,0.1258
0.3511450381679389,-5.435114503816794,-6.030534351145038,-0.0224609375,-0.082275390625,-0.593994140625,0.1275
0.4732824427480916,-5.419847328244275,-5.8320610687022905,-0.025146484375,-0.084228515625,-0.6015625,0.12919999999999998
0.5954198473282443,-5.32824427480916,-5.755725190839694,-0.025146484375,-0.085205078125,-0.59326171875,0.1309
0.5648854961832062,-4.931297709923665,-5.801526717557252,-0.020263671875,-0.083984375,-0.59130859375,0.1326
0.44274809160305345,-4.748091603053435,-5.648854961832061,-0.026611328125,-0.081298828125,-0.58984375,0.1343
0.7022900763358778,-4.6106870229007635,-5.358778625954199,-0.0224609375,-0.0849609375,-0.5927734375,0.13599999999999998
0.9465648854961832,-4.809160305343512,-5.404580152671755,-0.029541015625,-0.087646484375,-0.57861328125,0.1377
0.7938931297709924,-4.6106870229007635,-4.99236641221374,-0.0234375,-0.089111328125,-0.585693359375,0.1394
0.9007633587786259,-4.33587786259542,-5.267175572519084,-0.0224609375,-0.090576171875,-0.59326171875,0.1411
0.9770992366412213,-4.1679389312977095,-5.0534351145038165,-0.024169921875,-0.084228515625,-0.5888671875,0.14279999999999998
0.9618320610687023,-4.213740458015267,-5.129770992366412,-0.02392578125,-0.08642578125,-0.583251953125,0.1445
0.9465648854961832,-4.0,-4.99236641221374,-0.02587890625,-0.093017578125,-0.59521484375,0.1462
1.099236641221374,-3.9389312977099236,-4.854961832061068,-0.027587890625,-0.089599609375,-0.59130859375,0.1479
1.0534351145038168,-3.7251908396946565,-4.580152671755725,-0.022216796875,-0.085693359375,-0.587646484375,0.14959999999999998
1.1145038167938932,-3.6793893129770994,-4.687022900763359,-0.022216796875,-0.086669921875,-0.591552734375,0.1513
1.0229007633587786,-3.5572519083969465,-4.595419847328245,-0.02294921875,-0.08984375,-0.588134765625,0.153
1.1450381679389312,-3.480916030534351,-4.625954198473282,-0.020751953125,-0.089111328125,-0.585693359375,0.1547
1.0229007633587786,-3.2213740458015265,-4.198473282442748,-0.026123046875,-0.09228515625,-0.593505859375,0.15639999999999998
1.1297709923664123,-3.2061068702290076,-4.458015267175573,-0.0224609375,-0.091064453125,-0.591064453125,0.1581
1.2671755725190839,-3.1755725190839694,-4.198473282442748,-0.026611328125,-0.089599609375,-0.58740234375,0.1598
1.3587786259541985,-3.0381679389312977,-4.198473282442748,-0.023193359375,-0.08984375,-0.583984375,0.1615
1.3282442748091603,-2.9770992366412212,-4.183206106870229,-0.02783203125,-0.09228515625,-0.59130859375,0.16319999999999998
1.2061068702290076,-2.7938931297709924,-4.061068702290076,-0.0224609375,-0.088623046875,-0.59228515625,0.1649
1.465648854961832,-2.885496183206107,-3.954198473282443,-0.022216796875,-0.091796875,-0.589111328125,0.1666
1.3435114503816794,-2.6564885496183206,-3.8473282442748094,-0.025634765625,-0.090087890625,-0.588623046875,0.16829999999999998
1.5114503816793894,-2.4580152671755724,-3.877862595419847,-0.025146484375,-0.092041015625,-0.589111328125,0.16999999999999998
1.4961832061068703,-2.366412213740458,-3.7099236641221376,-0.028076171875,-0.09130859375,-0.586669921875,0.1717
1.6488549618320612,-2.33587786259542,-3.5877862595419847,-0.02685546875,-0.09130859375,-0.597412109375,0.1734
1.4809160305343512,-2.3206106870229006,-3.648854961832061,-0.024169921875,-0.092529296875,-0.6005859375,0.17509999999999998
1.465648854961832,-2.2900763358778624,-3.572519083969466,-0.028564453125,-0.09375,-0.589599609375,0.17679999999999998
1.618320610687023,-2.0763358778625953,-3.480916030534351,-0.026123046875,-0.093017578125,-0.588134765625,0.1785
1.8625954198473282,-2.045801526717557,-3.5114503816793894,-0.021240234375,-0.092529296875,-0.5888671875,0.1802
1.9389312977099236,-1.984732824427481,-3.6793893129770994,-0.026123046875,-0.08837890625,-0.58544921875,0.18189999999999998
1.786259541984733,-1.786259541984733,-3.3587786259541983,-0.0263671875,-0.10009765625,-0.587646484375,0.18359999999999999
2.2900763358778624,-1.7404580152671756,-3.3435114503816794,-0.031982421875,-0.099853515625,-0.588134765625,0.1853
2.2290076335877864,-1.5114503816793894,-3.1755725190839694,-0.032958984375,-0.092529296875,-0.58935546875,0.187
2.2595419847328246,-1.4198473282442747,-3.1908396946564888,-0.0263671875,-0.092529296875,-0.591064453125,0.18869999999999998
2.351145038167939,-1.4045801526717556,-2.900763358778626,-0.024658203125,-0.09375,-0.595947265625,0.19039999999999999
2.4732824427480917,-1.083969465648855,-3.0076335877862594,-0.0224609375,-0.100830078125,-0.586181640625,0.1921
2.4580152671755724,-1.251908396946565,-2.900763358778626,-0.02685546875,-0.09423828125,-0.591552734375,0.1938
2.519083969465649,-1.1755725190839694,-2.8702290076335877,-0.03466796875,-0.092529296875,-0.59033203125,0.19549999999999998
2.5801526717557253,-1.0687022900763359,-2.6717557251908395,-0.03515625,-0.094970703125,-0.600830078125,0.1972
2.6259541984732824,-1.099236641221374,-2.687022900763359,-0.029052734375,-0.09521484375,-0.5859375,0.1989
2.366412213740458,-0.8854961832061069,-2.50381679389313,-0.029296875,-0.09423828125,-0.59326171875,0.2006
2.5343511450381677,-0.916030534351145,-2.6412213740458017,-0.030029296875,-0.09814453125,-0.593505859375,0.20229999999999998
2.7938931297709924,-0.6564885496183206,-2.595419847328244,-0.032470703125,-0.09130859375,-0.58349609375,0.204
2.7938931297709924,-0.5038167938931297,-2.5801526717557253,-0.033203125,-0.103759765625,-0.593505859375,0.2057
2.8091603053435112,-0.5648854961832062,-2.33587786259542,-0.037353515625,-0.095703125,-0.59033203125,0.2074
2.4885496183206106,-0.366412213740458,-2.4122137404580153,-0.033203125,-0.094970703125,-0.592041015625,0.20909999999999998
2.8244274809160306,-0.0916030534351145,-2.351145038167939,-0.037109375,-0.095947265625,-0.59228515625,0.2108
2.9770992366412212,-0.04580152671755725,-2.198473282442748,-0.0234375,-0.100830078125,-0.585205078125,0.2125
3.053435114503817,0.07633587786259542,-2.183206106870229,-0.025634765625,-0.1025390625,-0.58740234375,0.2142
3.0076335877862594,0.04580152671755725,-2.427480916030534,-0.033935546875,-0.1005859375,-0.59619140625,0.21589999999999998
2.8091603053435112,0.13740458015267176,-2.1526717557251906,-0.0283203125,-0.09423828125,-0.59033203125,0.2176
2.946564885496183,0.2748091603053435,-2.2290076335877864,-0.03076171875,-0.10107421875,-0.58984375,0.2193
2.8702290076335877,0.16793893129770993,-2.1526717557251906,-0.032958984375,-0.102783203125,-0.5859375,0.22099999999999997
2.946564885496183,0.24427480916030533,-2.381679389312977,-0.0341796875,-0.097412109375,-0.590576171875,0.22269999999999998
3.2213740458015265,0.3816793893129771,-2.351145038167939,-0.034912109375,-0.099853515625,-0.585693359375,0.2244
2.9770992366412212,0.5038167938931297,-2.2442748091603053,-0.034912109375,-0.1044921875,-0.586669921875,0.2261
2.931297709923664,0.6259541984732825,-2.2900763358778624,-0.03271484375,-0.094970703125,-0.591796875,0.22779999999999997
2.885496183206107,0.549618320610687,-2.4122137404580153,-0.031005859375,-0.095458984375,-0.590576171875,0.22949999999999998
3.0229007633587788,0.6412213740458015,-2.183206106870229,-0.031982421875,-0.100830078125,-0.5927734375,0.2312
2.7938931297709924,0.4122137404580153,-2.3206106870229006,-0.029541015625,-0.099365234375,-0.58984375,0.2329
2.9923664122137406,0.5801526717557252,-2.183206106870229,-0.039306640625,-0.1015625,-0.594970703125,0.23459999999999998
2.8244274809160306,0.6259541984732825,-2.3053435114503817,-0.029541015625,-0.101318359375,-0.595458984375,0.23629999999999998
2.900763358778626,0.549618320610687,-2.1374045801526718,-0.028076171875,-0.099853515625,-0.598388671875,0.238
2.8091603053435112,0.7633587786259542,-2.122137404580153,-0.02880859375,-0.095458984375,-0.587890625,0.2397
2.854961832061069,0.6564885496183206,-2.183206106870229,-0.0302734375,-0.099853515625,-0.59423828125,0.24139999999999998
2.717557251908397,0.8396946564885496,-2.183206106870229,-0.033935546875,-0.0986328125,-0.59765625,0.24309999999999998
2.50381679389313,0.9312977099236641,-2.045801526717557,-0.02978515625,-0.100830078125,-0.59716796875,0.2448
2.763358778625954,0.9312977099236641,-1.9541984732824427,-0.029052734375,-0.103271484375,-0.587158203125,0.2465
2.6412213740458017,0.7633587786259542,-1.8473282442748091,-0.031982421875,-0.103271484375,-0.5947265625,0.24819999999999998
2.4122137404580153,0.7633587786259542,-1.816793893129771,-0.03515625,-0.098388671875,-0.59423828125,0.24989999999999998
2.564885496183206,0.9007633587786259,-1.816793893129771,-0.036865234375,-0.100341796875,-0.597900390625,0.2516
2.4732824427480917,0.9923664122137404,-1.7709923664122138,-0.029541015625,-0.09814453125,-0.595947265625,0.25329999999999997
2.366412213740458,1.1450381679389312,-1.7099236641221374,-0.033935546875,-0.102294921875,-0.5927734375,0.255
2.6106870229007635,1.251908396946565,-1.7709923664122138,-0.02783203125,-0.095947265625,-0.587158203125,0.2567
2.6717557251908395,1.1908396946564885,-1.618320610687023,-0.031494140625,-0.094970703125,-0.595458984375,0.25839999999999996
2.6106870229007635,1.2061068702290076,-1.6030534351145038,-0.031005859375,-0.09765625,-0.586181640625,0.2601
2.7786259541984735,1.3282442748091603,-1.5114503816793894,-0.0322265625,-0.09619140625,-0.594482421875,0.2618
2.595419847328244,1.5267175572519085,-1.5114503816793894,-0.0361328125,-0.096923828125,-0.6005859375,0.2635
2.6564885496183206,1.4198473282442747,-1.6793893129770991,-0.0341796875,-0.093505859375,-0.595703125,0.2652
2.7480916030534353,1.5572519083969465,-1.7099236641221374,-0.03369140625,-0.09130859375,-0.5927734375,0.26689999999999997
2.5801526717557253,1.5114503816793894,-1.6946564885496183,-0.033203125,-0.09033203125,-0.5947265625,0.2686
2.595419847328244,1.5877862595419847,-1.618320610687023,-0.031494140625,-0.091064453125,-0.5986328125,0.2703
2.519083969465649,1.6488549618320612,-1.6641221374045803,-0.025146484375,-0.09228515625,-0.587890625,0.27199999999999996
2.6259541984732824,1.6488549618320612,-1.7251908396946565,-0.031005859375,-0.08447265625,-0.594482421875,0.2737
2.717557251908397,1.6030534351145038,-1.618320610687023,-0.02880859375,-0.089111328125,-0.59033203125,0.2754
2.8244274809160306,1.5877862595419847,-1.6641221374045803,-0.0302734375,-0.087158203125,-0.59619140625,0.27709999999999996
2.7480916030534353,1.633587786259542,-1.5877862595419847,-0.029541015625,-0.085693359375,-0.59716796875,0.2788
3.1908396946564888,1.6793893129770991,-1.4809160305343512,-0.028564453125,-0.090576171875,-0.596435546875,0.28049999999999997
3.2977099236641223,1.6793893129770991,-1.633587786259542,-0.028564453125,-0.09130859375,-0.5966796875,0.2822
3.114503816793893,1.9083969465648856,-1.450381679389313,-0.02783203125,-0.088623046875,-0.58935546875,0.2839
3.145038167938931,1.618320610687023,-1.4351145038167938,-0.02880859375,-0.087890625,-0.593505859375,0.28559999999999997
3.4656488549618323,1.618320610687023,-1.633587786259542,-0.0302734375,-0.087890625,-0.595947265625,0.2873
3.5267175572519083,1.4809160305343512,-1.633587786259542,-0.02783203125,-0.083740234375,-0.5849609375,0.289
3.49618320610687,1.465648854961832,-1.7251908396946565,-0.03125,-0.082763671875,-0.5927734375,0.29069999999999996
3.312977099236641,1.1297709923664123,-1.5725190839694656,-0.02978515625,-0.080322265625,-0.59521484375,0.2924
3.5267175572519083,1.297709923664122,-1.6946564885496183,-0.0302734375,-0.082275390625,-0.597900390625,0.2941
3.633587786259542,1.1755725190839694,-1.7557251908396947,-0.02734375,-0.083984375,-0.600341796875,0.2958
3.450381679389313,1.1145038167938932,-1.5419847328244274,-0.026611328125,-0.07861328125,-0.6015625,0.2975
3.801526717557252,1.1755725190839694,-1.6641221374045803,-0.02783203125,-0.084228515625,-0.591796875,0.29919999999999997
4.015267175572519,1.1145038167938932,-1.4961832061068703,-0.026611328125,-0.08154296875,-0.58935546875,0.3009
4.030534351145038,0.8854961832061069,-1.5419847328244274,-0.02490234375,-0.0810546875,-0.60009765625,0.3026
4.152671755725191,0.9312977099236641,-1.6030534351145038,-0.0244140625,-0.086181640625,-0.596435546875,0.30429999999999996
4.412213740458015,0.7633587786259542,-1.5877862595419847,-0.02685546875,-0.085693359375,-0.6015625,0.306
4.656488549618321,0.7480916030534351,-1.3435114503816794,-0.022216796875,-0.085205078125,-0.60400390625,0.3077
4.809160305343512,0.5648854961832062,-1.4961832061068703,-0.024658203125,-0.0849609375,-0.59423828125,0.3094
4.8396946564885495,0.42748091603053434,-1.3435114503816794,-0.025390625,-0.0888671875,-0.5986328125,0.3111
4.99236641221374,0.5954198473282443,-1.4198473282442747,-0.027099609375,-0.083251953125,-0.601806640625,0.31279999999999997
5.129770992366412,0.24427480916030533,-1.2671755725190839,-0.02587890625,-0.08203125,-0.6005859375,0.3145
5.145038167938932,0.3511450381679389,-1.251908396946565,-0.02294921875,-0.08642578125,-0.593994140625,0.3162
5.1603053435114505,0.33587786259541985,-1.083969465648855,-0.022705078125,-0.08447265625,-0.597900390625,0.31789999999999996
5.312977099236641,0.22900763358778625,-1.083969465648855,-0.023681640625,-0.086669921875,-0.60498046875,0.3196
5.480916030534351,0.183206106870229,-0.9465648854961832,-0.02490234375,-0.090576171875,-0.60009765625,0.3213
5.450381679389313,0.0916030534351145,-1.0229007633587786,-0.024169921875,-0.08837890625,-0.60400390625,0.323
5.816793893129771,-0.061068702290076333,-0.5801526717557252,-0.0205078125,-0.0849609375,-0.603759765625,0.3247
5.526717557251908,0.0916030534351145,-0.7022900763358778,-0.024658203125,-0.091064453125,-0.610107421875,0.32639999999999997
5.465648854961832,0.07633587786259542,-0.4580152671755725,-0.021240234375,-0.09033203125,-0.60888671875,0.3281
5.816793893129771,0.030534351145038167,-0.5648854961832062,-0.025146484375,-0.090576171875,-0.60791015625,0.3298
5.938931297709924,0.0916030534351145,-0.2595419847328244,-0.022705078125,-0.0927734375,-0.60791015625,0.33149999999999996
5.3893129770992365,0.015267175572519083,-0.5343511450381679,-0.029052734375,-0.0888671875,-0.604736328125,0.3332
5.633587786259542,-0.24427480916030533,-0.2900763358778626,-0.025390625,-0.08935546875,-0.600830078125,0.3349
5.541984732824427,-0.3511450381679389,-0.3969465648854962,-0.0205078125,-0.092041015625,-0.60009765625,0.33659999999999995
5.251908396946565,-0.0916030534351145,-0.0916030534351145,-0.022216796875,-0.0869140625,-0.6103515625,0.3383
5.038167938931298,-0.15267175572519084,-0.061068702290076333,-0.0234375,-0.087890625,-0.611572265625,0.33999999999999997
4.916030534351145,-0.3053435114503817,0.015267175572519083,-0.02099609375,-0.094970703125,-0.607666015625,0.3417
4.961832061068702,-0.2748091603053435,0.061068702290076333,-0.023193359375,-0.09033203125,-0.601318359375,0.3434
4.763358778625954,-0.2900763358778626,0.13740458015267176,-0.01904296875,-0.09228515625,-0.610595703125,0.34509999999999996
4.519083969465649,-0.15267175572519084,0.13740458015267176,-0.02099609375,-0.0927734375,-0.604248046875,0.3468
4.396946564885496,-0.4122137404580153,0.3053435114503817,-0.020751953125,-0.08837890625,-0.606689453125,0.3485
4.229007633587786,-0.3511450381679389,0.04580152671755725,-0.0234375,-0.089599609375,-0.604736328125,0.35019999999999996
3.9083969465648853,-0.2595419847328244,0.12213740458015267,-0.0234375,-0.08740234375,-0.605712890625,0.3519
3.786259541984733,-0.48854961832061067,0.061068702290076333,-0.0234375,-0.0869140625,-0.609130859375,0.35359999999999997
3.633587786259542,-0.3053435114503817,0.061068702290076333,-0.02490234375,-0.090576171875,-0.60986328125,0.3553
3.4656488549618323,-0.3816793893129771,-0.10687022900763359,-0.022705078125,-0.0849609375,-0.6015625,0.357
3.3435114503816794,-0.3969465648854962,0.04580152671755725,-0.02294921875,-0.086181640625,-0.61083984375,0.35869999999999996
3.068702290076336,-0.4122137404580153,-0.15267175572519084,-0.01953125,-0.08154296875,-0.607177734375,0.3604
2.8091603053435112,-0.5038167938931297,-0.015267175572519083,-0.022216796875,-0.086181640625,-0.600341796875,0.3621
2.8091603053435112,-0.32061068702290074,0.04580152671755725,-0.020751953125,-0.083251953125,-0.6005859375,0.36379999999999996
2.854961832061069,-0.4122137404580153,-0.030534351145038167,-0.021728515625,-0.081787109375,-0.60693359375,0.3655
2.4732824427480917,-0.5038167938931297,-0.22900763358778625,-0.021240234375,-0.081787109375,-0.595703125,0.36719999999999997
2.564885496183206,-0.5648854961832062,-0.0916030534351145,-0.0263671875,-0.079345703125,-0.602294921875,0.3689
2.564885496183206,-0.5801526717557252,-0.16793893129770993,-0.0224609375,-0.077880859375,-0.599609375,0.3706
2.7480916030534353,-0.6564885496183206,-0.061068702290076333,-0.024169921875,-0.08251953125,-0.60693359375,0.37229999999999996
2.7786259541984735,-0.8091603053435115,-0.21374045801526717,-0.02490234375,-0.07958984375,-0.604736328125,0.374
2.7480916030534353,-0.6412213740458015,-0.21374045801526717,-0.02392578125,-0.07763671875,-0.60302734375,0.3757
2.9160305343511452,-0.6106870229007634,-0.2595419847328244,-0.022705078125,-0.083251953125,-0.60498046875,0.37739999999999996
3.1297709923664123,-1.0076335877862594,-0.366412213740458,-0.023681640625,-0.08251953125,-0.603271484375,0.3791
3.236641221374046,-0.9312977099236641,-0.33587786259541985,-0.0224609375,-0.081787109375,-0.605712890625,0.38079999999999997
3.236641221374046,-0.6717557251908397,-0.32061068702290074,-0.024169921875,-0.085205078125,-0.6083984375,0.38249999999999995
3.3435114503816794,-0.6106870229007634,-0.5190839694656488,-0.02099609375,-0.08154296875,-0.60009765625,0.3842
3.435114503816794,-0.9312977099236641,-0.5343511450381679,-0.025634765625,-0.079345703125,-0.60595703125,0.38589999999999997
3.7557251908396947,-1.0687022900763359,-0.6106870229007634,-0.023193359375,-0.081298828125,-0.5966796875,0.3876
3.9236641221374047,-1.0534351145038168,-0.6870229007633588,-0.023193359375,-0.079345703125,-0.60986328125,0.3893
3.786259541984733,-0.9007633587786259,-0.8244274809160306,-0.0234375,-0.083984375,-0.603759765625,0.39099999999999996
4.0,-1.1145038167938932,-0.6870229007633588,-0.025146484375,-0.078125,-0.603759765625,0.3927
4.244274809160306,-1.2061068702290076,-0.7175572519083969,-0.02734375,-0.084716796875,-0.603759765625,0.3944
3.8625954198473282,-1.2366412213740459,-0.8091603053435115,-0.025146484375,-0.089599609375,-0.6025390625,0.39609999999999995
4.015267175572519,-1.1603053435114503,-0.8091603053435115,-0.023681640625,-0.08544921875,-0.60107421875,0.3978
4.1679389312977095,-1.1297709923664123,-0.5190839694656488,-0.02734375,-0.084716796875,-0.6044921875,0.39949999999999997
3.618320610687023,-1.0381679389312977,-0.5954198473282443,-0.024658203125,-0.087646484375,-0.609619140625,0.4012
3.7251908396946565,-1.0687022900763359,-0.6106870229007634,-0.0224609375,-0.080322265625,-0.6064453125,0.4029
3.877862595419847,-1.099236641221374,-0.732824427480916,-0.0283203125,-0.084228515625,-0.60498046875,0.40459999999999996
3.5419847328244276,-1.099236641221374,-0.42748091603053434,-0.025390625,-0.086669921875,-0.610595703125,0.4063
3.5572519083969465,-1.1603053435114503,-0.3969465648854962,-0.021240234375,-0.088134765625,-0.614013671875,0.408
3.3435114503816794,-1.1145038167938932,-0.2900763358778626,-0.02197265625,-0.085693359375,-0.609375,0.40969999999999995
3.3893129770992365,-1.0381679389312977,-0.24427480916030533,-0.02294921875,-0.0849609375,-0.617919921875,0.4114
2.9923664122137406,-1.0381679389312977,-0.24427480916030533,-0.028564453125,-0.090087890625,-0.609375,0.41309999999999997
2.946564885496183,-1.0687022900763359,-0.2595419847328244,-0.02734375,-0.08984375,-0.607177734375,0.4148
2.8091603053435112,-0.7938931297709924,-0.3511450381679389,-0.023681640625,-0.0869140625,-0.609619140625,0.4165
2.549618320610687,-0.8854961832061069,-0.32061068702290074,-0.029052734375,-0.08154296875,-0.608642578125,0.41819999999999996
2.4427480916030535,-0.8244274809160306,-0.366412213740458,-0.029541015625,-0.082275390625,-0.61328125,0.4199
2.4122137404580153,-0.8702290076335878,-0.33587786259541985,-0.031494140625,-0.085205078125,-0.61767578125,0.4216
2.0610687022900764,-0.7633587786259542,-0.44274809160305345,-0.024658203125,-0.08642578125,-0.611328125,0.42329999999999995
1.8931297709923665,-0.6412213740458015,-0.5801526717557252,-0.02587890625,-0.08740234375,-0.61328125,0.425
1.8931297709923665,-0.5954198473282443,-0.3511450381679389,-0.02978515625,-0.08837890625,-0.61181640625,0.42669999999999997
1.8015267175572518,-0.5801526717557252,-0.6412213740458015,-0.031005859375,-0.09033203125,-0.60595703125,0.4284
1.1603053435114503,-0.5190839694656488,-0.6717557251908397,-0.02734375,-0.0888671875,-0.607666015625,0.4301
1.3282442748091603,-0.42748091603053434,-0.7480916030534351,-0.031982421875,-0.08544921875,-0.614501953125,0.43179999999999996
1.099236641221374,-0.3816793893129771,-0.7633587786259542,-0.02685546875,-0.087646484375,-0.60205078125,0.4335
0.7938931297709924,-0.10687022900763359,-0.9618320610687023,-0.02685546875,-0.087158203125,-0.604736328125,0.4352
0.6870229007633588,0.030534351145038167,-0.9923664122137404,-0.030029296875,-0.0849609375,-0.60693359375,0.43689999999999996
0.8702290076335878,-0.07633587786259542,-0.9465648854961832,-0.027099609375,-0.08349609375,-0.6044921875,0.4386
0.7938931297709924,0.07633587786259542,-0.8702290076335878,-0.031005859375,-0.084716796875,-0.605224609375,0.44029999999999997
0.6259541984732825,0.12213740458015267,-0.9465648854961832,-0.031982421875,-0.087646484375,-0.607177734375,0.44199999999999995
0.7786259541984732,0.2595419847328244,-1.2061068702290076,-0.037109375,-0.08203125,-0.603759765625,0.4437
0.549618320610687,0.3053435114503817,-1.1908396946564885,-0.032470703125,-0.08544921875,-0.61083984375,0.44539999999999996
0.2900763358778626,0.4732824427480916,-1.3282442748091603,-0.02978515625,-0.0791015625,-0.6064453125,0.4471
0.4122137404580153,0.732824427480916,-1.099236641221374,-0.03173828125,-0.087646484375,-0.611083984375,0.4488
0.549618320610687,0.7480916030534351,-1.3587786259541985,-0.0244140625,-0.08203125,-0.608642578125,0.45049999999999996
0.183206106870229,1.0076335877862594,-1.3435114503816794,-0.031005859375,-0.080322265625,-0.60986328125,0.4522
0.15267175572519084,1.0229007633587786,-1.3129770992366412,-0.029541015625,-0.083251953125,-0.6083984375,0.45389999999999997
0.3053435114503817,1.083969465648855,-1.282442748091603,-0.03271484375,-0.084228515625,-0.6083984375,0.45559999999999995
0.2595419847328244,1.4045801526717556,-1.5725190839694656,-0.026123046875,-0.08203125,-0.61962890625,0.4573
0.2748091603053435,1.3740458015267176,-1.4351145038167938,-0.026123046875,-0.078857421875,-0.60888671875,0.45899999999999996
0.24427480916030533,1.3587786259541985,-1.5114503816793894,-0.02392578125,-0.08349609375,-0.6015625,0.4607
0.10687022900763359,1.4809160305343512,-1.5267175572519085,-0.02685546875,-0.0771484375,-0.59814453125,0.4624
0.42748091603053434,1.6641221374045803,-1.4045801526717556,-0.0302734375,-0.081298828125,-0.59619140625,0.46409999999999996
0.24427480916030533,1.7709923664122138,-1.3893129770992367,-0.0283203125,-0.083984375,-0.60205078125,0.4658
0.33587786259541985,1.816793893129771,-1.5114503816793894,-0.03076171875,-0.080810546875,-0.601318359375,0.46749999999999997
0.44274809160305345,1.816793893129771,-1.6946564885496183,-0.030029296875,-0.07958984375,-0.608642578125,0.46919999999999995
0.2900763358778626,2.0610687022900764,-1.5267175572519085,-0.03173828125,-0.07861328125,-0.600830078125,0.4709
0.32061068702290074,1.9694656488549618,-1.4961832061068703,-0.030517578125,-0.079833984375,-0.597900390625,0.47259999999999996
0.5038167938931297,2.16793893129771,-1.5877862595419847,-0.03173828125,-0.07666015625,-0.602294921875,0.4743
0.6106870229007634,2.4427480916030535,-1.3740458015267176,-0.032958984375,-0.07568359375,-0.6015625,0.476
0.5038167938931297,2.3206106870229006,-1.4961832061068703,-0.026611328125,-0.082763671875,-0.595947265625,0.47769999999999996
0.6564885496183206,2.3969465648854964,-1.5114503816793894,-0.02880859375,-0.080810546875,-0.6103515625,0.4794
0.7786259541984732,2.50381679389313,-1.4809160305343512,-0.029296875,-0.08203125,-0.609375,0.48109999999999997
0.6412213740458015,2.885496183206107,-1.3282442748091603,-0.024658203125,-0.0810546875,-0.606689453125,0.48279999999999995
0.8244274809160306,2.9618320610687023,-1.4809160305343512,-0.031982421875,-0.082275390625,-0.60205078125,0.4845
0.6717557251908397,3.068702290076336,-1.450381679389313,-0.025634765625,-0.07568359375,-0.602783203125,0.48619999999999997
0.8854961832061069,3.0076335877862594,-1.6488549618320612,-0.023193359375,-0.08203125,-0.600830078125,0.4879
0.8091603053435115,3.1297709923664123,-1.5267175572519085,-0.02685546875,-0.07421875,-0.6123046875,0.4896
0.9618320610687023,3.3740458015267176,-1.5725190839694656,-0.02392578125,-0.080078125,-0.595458984375,0.49129999999999996
0.9618320610687023,3.312977099236641,-1.450381679389313,-0.02587890625,-0.0810546875,-0.6005859375,0.493
1.099236641221374,3.282442748091603,-1.5419847328244274,-0.027587890625,-0.083740234375,-0.604736328125,0.4947
1.1297709923664123,3.5419847328244276,-1.251908396946565,-0.02587890625,-0.08984375,-0.605712890625,0.49639999999999995
0.8854961832061069,3.618320610687023,-1.2366412213740459,-0.0234375,-0.086669921875,-0.608154296875,0.4981
0.9770992366412213,3.450381679389313,-1.4045801526717556,-0.024169921875,-0.082275390625,-0.607666015625,0.49979999999999997
1.2671755725190839,3.5877862595419847,-1.465648854961832,-0.031982421875,-0.085693359375,-0.59912109375,0.5015
1.3129770992366412,3.6030534351145036,-1.4045801526717556,-0.027099609375,-0.082763671875,-0.59716796875,0.5032
1.297709923664122,3.66412213740458,-1.3893129770992367,-0.02734375,-0.08251953125,-0.59765625,0.5049
1.099236641221374,3.648854961832061,-1.3435114503816794,-0.0244140625,-0.082275390625,-0.6083984375,0.5065999999999999
1.282442748091603,3.83206106870229,-1.465648854961832,-0.0166015625,-0.08642578125,-0.605224609375,0.5083
1.3435114503816794,3.9083969465648853,-1.099236641221374,-0.02294921875,-0.0859375,-0.60400390625,0.51
1.083969465648855,3.9083969465648853,-1.3587786259541985,-0.025390625,-0.0810546875,-0.598388671875,0.5116999999999999
1.2366412213740459,3.8625954198473282,-1.450381679389313,-0.024169921875,-0.080322265625,-0.6025390625,0.5134
1.4351145038167938,4.091603053435114,-1.465648854961832,-0.031982421875,-0.08447265625,-0.59814453125,0.5151
1.4809160305343512,4.2748091603053435,-1.251908396946565,-0.022705078125,-0.082275390625,-0.597900390625,0.5167999999999999
1.4351145038167938,4.183206106870229,-1.4961832061068703,-0.025634765625,-0.0849609375,-0.60205078125,0.5185
1.5877862595419847,4.351145038167939,-1.3435114503816794,-0.0263671875,-0.082763671875,-0.60302734375,0.5202
1.4351145038167938,4.580152671755725,-1.465648854961832,-0.025390625,-0.078857421875,-0.59619140625,0.5218999999999999
1.5114503816793894,4.916030534351145,-1.2671755725190839,-0.017822265625,-0.08349609375,-0.60400390625,0.5236
1.6641221374045803,4.9465648854961835,-1.450381679389313,-0.02392578125,-0.08642578125,-0.60205078125,0.5253
1.8473282442748091,5.038167938931298,-1.3435114503816794,-0.017578125,-0.083251953125,-0.6005859375,0.527
2.045801526717557,5.267175572519084,-1.3740458015267176,-0.022705078125,-0.080078125,-0.591552734375,0.5287
1.8931297709923665,5.404580152671755,-1.5114503816793894,-0.01904296875,-0.079833984375,-0.59326171875,0.5304
1.8931297709923665,5.419847328244275,-1.4198473282442747,-0.024658203125,-0.078125,-0.600830078125,0.5321
2.183206106870229,5.541984732824427,-1.099236641221374,-0.0263671875,-0.07666015625,-0.603271484375,0.5337999999999999
2.4885496183206106,5.877862595419847,-1.1145038167938932,-0.02685546875,-0.0810546875,-0.59912109375,0.5355
2.1374045801526718,6.030534351145038,-1.3435114503816794,-0.0205078125,-0.07861328125,-0.601806640625,0.5372
2.16793893129771,6.137404580152672,-1.4045801526717556,-0.025634765625,-0.07861328125,-0.59716796875,0.5388999999999999
2.549618320610687,6.0458015267175576,-1.1908396946564885,-0.027587890625,-0.081298828125,-0.59619140625,0.5406
2.717557251908397,6.122137404580153,-1.297709923664122,-0.031982421875,-0.08251953125,-0.607177734375,0.5423
2.763358778625954,6.320610687022901,-1.2671755725190839,-0.02392578125,-0.079345703125,-0.59716796875,0.5439999999999999
2.763358778625954,6.412213740458015,-1.099236641221374,-0.018798828125,-0.083740234375,-0.60107421875,0.5457
2.6412213740458017,6.366412213740458,-0.9465648854961832,-0.023193359375,-0.081787109375,-0.601318359375,0.5474
2.7786259541984735,6.580152671755725,-0.8244274809160306,-0.021484375,-0.0771484375,-0.60009765625,0.5490999999999999
2.717557251908397,6.6106870229007635,-0.8244274809160306,-0.02099609375,-0.0810546875,-0.606689453125,0.5508
2.8091603053435112,6.67175572519084,-0.8091603053435115,-0.02294921875,-0.084228515625,-0.604736328125,0.5525
2.854961832061069,6.67175572519084,-0.4732824427480916,-0.017578125,-0.08447265625,-0.60888671875,0.5541999999999999
2.7938931297709924,6.809160305343512,-0.4732824427480916,-0.020751953125,-0.087646484375,-0.6083984375,0.5559
2.519083969465649,6.916030534351145,-0.3816793893129771,-0.02001953125,-0.08837890625,-0.60107421875,0.5576
2.6412213740458017,6.793893129770993,-0.2900763358778626,-0.016357421875,-0.087158203125,-0.600830078125,0.5593
2.50381679389313,6.900763358778626,-0.0916030534351145,-0.021484375,-0.088134765625,-0.591796875,0.5609999999999999
2.6106870229007635,6.900763358778626,-0.16793893129770993,-0.022216796875,-0.08642578125,-0.611083984375,0.5627
2.7022900763358777,6.900763358778626,0.030534351145038167,-0.023681640625,-0.093505859375,-0.611083984375,0.5644
2.2900763358778624,6.778625954198473,0.13740458015267176,-0.02490234375,-0.09228515625,-0.607421875,0.5660999999999999
2.2290076335877864,6.824427480916031,0.366412213740458,-0.0224609375,-0.09033203125,-0.600830078125,0.5678
2.3053435114503817,6.870229007633588,0.2595419847328244,-0.0205078125,-0.09423828125,-0.60107421875,0.5695
2.1526717557251906,6.854961832061068,0.48854961832061067,-0.0234375,-0.09521484375,-0.601318359375,0.5711999999999999
2.0610687022900764,6.793893129770993,0.2748091603053435,-0.0205078125,-0.09521484375,-0.600830078125,0.5729
2.015267175572519,6.900763358778626,0.7022900763358778,-0.019775390625,-0.0966796875,-0.606201171875,0.5746
1.786259541984733,6.702290076335878,0.6564885496183206,-0.019287109375,-0.09619140625,-0.607177734375,0.5762999999999999
1.5725190839694656,6.717557251908397,0.6259541984732825,-0.021484375,-0.09423828125,-0.608642578125,0.578
1.5572519083969465,6.702290076335878,0.5954198473282443,-0.018798828125,-0.091796875,-0.59765625,0.5797
1.450381679389313,6.641221374045801,0.6870229007633588,-0.0146484375,-0.0927734375,-0.596435546875,0.5813999999999999
1.3893129770992367,6.793893129770993,0.8244274809160306,-0.0166015625,-0.08642578125,-0.609619140625,0.5831
1.3282442748091603,6.824427480916031,1.0229007633587786,-0.015380859375,-0.089111328125,-0.605224609375,0.5848
1.4045801526717556,6.763358778625954,0.6564885496183206,-0.021728515625,-0.089599609375,-0.61181640625,0.5865
1.2366412213740459,6.854961832061068,0.9465648854961832,-0.01904296875,-0.08984375,-0.611328125,0.5882
1.251908396946565,6.961832061068702,0.8702290076335878,-0.01953125,-0.087646484375,-0.6083984375,0.5899
1.3129770992366412,6.870229007633588,0.9618320610687023,-0.016357421875,-0.087890625,-0.604736328125,0.5916
1.2213740458015268,7.00763358778626,0.9618320610687023,-0.017578125,-0.0869140625,-0.603759765625,0.5932999999999999
1.4198473282442747,7.221374045801527,1.0076335877862594,-0.017578125,-0.086669921875,-0.600830078125,0.595
1.450381679389313,7.038167938931298,1.099236641221374,-0.01806640625,-0.0849609375,-0.606201171875,0.5967
1.5725190839694656,7.206106870229007,1.3587786259541985,-0.01806640625,-0.085693359375,-0.614501953125,0.5983999999999999
1.7099236641221374,7.190839694656488,1.3282442748091603,-0.014404296875,-0.084228515625,-0.60693359375,0.6001
1.7709923664122138,7.206106870229007,1.3282442748091603,-0.016357421875,-0.083251953125,-0.6044921875,0.6018
1.9541984732824427,7.114503816793893,1.3587786259541985,-0.01806640625,-0.08740234375,-0.609130859375,0.6034999999999999
2.1068702290076335,7.312977099236641,1.465648854961832,-0.01318359375,-0.08984375,-0.61279296875,0.6052
2.0763358778625953,7.175572519083969,1.4809160305343512,-0.0146484375,-0.0869140625,-0.6015625,0.6069
2.4732824427480917,7.236641221374046,1.6793893129770991,-0.019775390625,-0.0869140625,-0.603759765625,0.6085999999999999
2.4427480916030535,7.343511450381679,1.6488549618320612,-0.019287109375,-0.084716796875,-0.606689453125,0.6103
2.7480916030534353,7.190839694656488,1.7099236641221374,-0.008056640625,-0.085693359375,-0.607666015625,0.612
2.763358778625954,7.022900763358779,1.5725190839694656,-0.010009765625,-0.08447265625,-0.608642578125,0.6136999999999999
2.931297709923664,7.00763358778626,1.8015267175572518,-0.01513671875,-0.081787109375,-0.610107421875,0.6154
3.145038167938931,7.114503816793893,1.7709923664122138,-0.015869140625,-0.08544921875,-0.599609375,0.6171
3.0076335877862594,6.916030534351145,1.8015267175572518,-0.009765625,-0.08544921875,-0.60791015625,0.6188
3.145038167938931,6.824427480916031,1.6488549618320612,-0.013427734375,-0.0849609375,-0.603759765625,0.6204999999999999
3.236641221374046,7.00763358778626,1.9236641221374047,-0.018798828125,-0.08447265625,-0.6123046875,0.6222
3.4656488549618323,6.9465648854961835,1.8778625954198473,-0.009521484375,-0.086181640625,-0.605712890625,0.6239
3.404580152671756,6.778625954198473,1.7251908396946565,-0.013916015625,-0.082275390625,-0.603759765625,0.6255999999999999
3.450381679389313,6.702290076335878,1.8778625954198473,-0.00927734375,-0.08349609375,-0.604248046875,0.6273
3.572519083969466,6.6106870229007635,1.83206106870229,-0.018310546875,-0.08203125,-0.607177734375,0.629
3.786259541984733,6.412213740458015,1.984732824427481,-0.011962890625,-0.080078125,-0.6083984375,0.6306999999999999
3.7251908396946565,6.458015267175573,1.8931297709923665,-0.01171875,-0.08203125,-0.61279296875,0.6324
3.7099236641221376,6.366412213740458,1.7557251908396947,-0.013916015625,-0.090087890625,-0.610595703125,0.6341
3.8473282442748094,6.305343511450381,1.7557251908396947,-0.017333984375,-0.08447265625,-0.6064453125,0.6357999999999999
3.9236641221374047,6.213740458015267,1.7099236641221374,-0.015380859375,-0.087646484375,-0.60205078125,0.6375
3.6793893129770994,6.122137404580153,1.8015267175572518,-0.0185546875,-0.088134765625,-0.60205078125,0.6392
3.7251908396946565,5.8320610687022905,1.9541984732824427,-0.017333984375,-0.082763671875,-0.6083984375,0.6408999999999999
3.8473282442748094,5.984732824427481,1.786259541984733,-0.018310546875,-0.086669921875,-0.622314453125,0.6426
3.3282442748091605,5.984732824427481,1.8625954198473282,-0.0185546875,-0.08349609375,-0.615966796875,0.6443
3.3282442748091605,5.816793893129771,1.9236641221374047,-0.0146484375,-0.0888671875,-0.6083984375,0.646
3.2213740458015265,5.893129770992366,1.984732824427481,-0.02001953125,-0.083740234375,-0.612060546875,0.6476999999999999
3.0839694656488548,5.908396946564886,2.015267175572519,-0.0185546875,-0.086669921875,-0.59912109375,0.6494
3.0381679389312977,5.893129770992366,1.8778625954198473,-0.018310546875,-0.08837890625,-0.608154296875,0.6511
2.931297709923664,5.969465648854962,1.8015267175572518,-0.017822265625,-0.083251953125,-0.60595703125,0.6527999999999999
2.7786259541984735,5.694656488549619,1.8778625954198473,-0.018798828125,-0.0869140625,-0.609375,0.6545
2.5801526717557253,5.755725190839694,1.9083969465648856,-0.01806640625,-0.087890625,-0.602783203125,0.6562
2.519083969465649,5.755725190839694,1.8931297709923665,-0.02099609375,-0.091552734375,-0.6142578125,0.6578999999999999
2.5801526717557253,5.801526717557252,1.9083969465648856,-0.0224609375,-0.087890625,-0.60791015625,0.6596
2.351145038167939,5.648854961832061,1.8625954198473282,-0.02587890625,-0.090576171875,-0.614013671875,0.6613
2.366412213740458,5.679389312977099,1.5877862595419847,-0.021240234375,-0.085205078125,-0.610595703125,0.6629999999999999
2.2442748091603053,5.572519083969466,1.83206106870229,-0.017578125,-0.08447265625,-0.61669921875,0.6647
2.2442748091603053,5.633587786259542,1.5267175572519085,-0.018310546875,-0.086669921875,-0.611572265625,0.6664
2.1526717557251906,5.6183206106870225,1.6030534351145038,-0.0244140625,-0.0888671875,-0.607666015625,0.6680999999999999
1.9541984732824427,5.480916030534351,1.633587786259542,-0.021240234375,-0.08984375,-0.614990234375,0.6698
1.6793893129770991,5.450381679389313,1.633587786259542,-0.012451171875,-0.089111328125,-0.611083984375,0.6715
1.5267175572519085,5.435114503816794,1.5725190839694656,-0.01904296875,-0.085693359375,-0.609619140625,0.6731999999999999
1.3129770992366412,5.465648854961832,1.7099236641221374,-0.02392578125,-0.08447265625,-0.609130859375,0.6748999999999999
1.282442748091603,5.526717557251908,1.4961832061068703,-0.022705078125,-0.085205078125,-0.607666015625,0.6766
1.1908396946564885,5.450381679389313,1.5572519083969465,-0.02099609375,-0.080322265625,-0.60205078125,0.6783
0.9923664122137404,5.206106870229007,1.4809160305343512,-0.01904296875,-0.079833984375,-0.610595703125,0.6799999999999999
1.282442748091603,5.267175572519084,1.5267175572519085,-0.02294921875,-0.08203125,-0.607421875,0.6817
1.0687022900763359,5.190839694656488,1.4809160305343512,-0.0224609375,-0.08447265625,-0.614013671875,0.6834
0.916030534351145,5.175572519083969,1.5114503816793894,-0.018310546875,-0.08544921875,-0.61279296875,0.6850999999999999
1.1603053435114503,5.145038167938932,1.465648854961832,-0.01904296875,-0.085693359375,-0.61279296875,0.6868
0.9465648854961832,4.9465648854961835,1.4961832061068703,-0.0166015625,-0.086181640625,-0.611083984375,0.6885
0.9923664122137404,4.687022900763359,1.4961832061068703,-0.02294921875,-0.08251953125,-0.61181640625,0.6901999999999999
1.0076335877862594,4.809160305343512,1.465648854961832,-0.02001953125,-0.08154296875,-0.60400390625,0.6919
0.9618320610687023,4.732824427480916,1.2366412213740459,-0.017578125,-0.078857421875,-0.607421875,0.6936
0.9770992366412213,4.549618320610687,1.6641221374045803,-0.020751953125,-0.079345703125,-0.6142578125,0.6952999999999999
1.1145038167938932,4.412213740458015,1.3435114503816794,-0.01708984375,-0.07861328125,-0.6025390625,0.697
0.9770992366412213,4.412213740458015,1.1908396946564885,-0.021484375,-0.082763671875,-0.6064453125,0.6987
0.9312977099236641,4.229007633587786,1.3282442748091603,-0.015380859375,-0.088134765625,-0.61474609375,0.7003999999999999
0.9465648854961832,4.015267175572519,1.4351145038167938,-0.0205078125,-0.08740234375,-0.60986328125,0.7021
0.9618320610687023,3.8625954198473282,1.3129770992366412,-0.01904296875,-0.08447265625,-0.597900390625,0.7038
0.9923664122137404,3.969465648854962,1.5114503816793894,-0.019287109375,-0.083984375,-0.610595703125,0.7055
0.9465648854961832,3.954198473282443,1.2671755725190839,-0.01953125,-0.08154296875,-0.60400390625,0.7071999999999999
1.1297709923664123,3.618320610687023,1.3435114503816794,-0.01904296875,-0.082763671875,-0.60302734375,0.7089
1.2213740458015268,3.480916030534351,1.2366412213740459,-0.020751953125,-0.084716796875,-0.6064453125,0.7106
1.0534351145038168,3.5877862595419847,1.3129770992366412,-0.021240234375,-0.086669921875,-0.606689453125,0.7122999999999999
1.0687022900763359,3.4198473282442747,1.297709923664122,-0.024169921875,-0.085205078125,-0.603271484375,0.714
1.0381679389312977,3.3435114503816794,1.0534351145038168,-0.0224609375,-0.089111328125,-0.601318359375,0.7157
0.9465648854961832,3.236641221374046,1.1603053435114503,-0.020751953125,-0.084716796875,-0.59716796875,0.7173999999999999
0.9923664122137404,3.267175572519084,1.1297709923664123,-0.020263671875,-0.082763671875,-0.601318359375,0.7191
1.0381679389312977,3.236641221374046,1.099236641221374,-0.017333984375,-0.083251953125,-0.605712890625,0.7208
1.0687022900763359,3.2213740458015265,1.1908396946564885,-0.01611328125,-0.08251953125,-0.60302734375,0.7224999999999999
0.8702290076335878,3.2519083969465647,0.9770992366412213,-0.0244140625,-0.07958984375,-0.605712890625,0.7242
0.7480916030534351,3.0839694656488548,0.9465648854961832,-0.02490234375,-0.082275390625,-0.599853515625,0.7259
0.5190839694656488,3.114503816793893,0.7022900763358778,-0.021728515625,-0.078125,-0.599853515625,0.7275999999999999
0.7938931297709924,3.1755725190839694,0.732824427480916,-0.028076171875,-0.08544921875,-0.610107421875,0.7293
0.7022900763358778,3.267175572519084,0.4580152671755725,-0.0283203125,-0.087646484375,-0.61181640625,0.731
0.3816793893129771,3.312977099236641,0.5343511450381679,-0.02880859375,-0.083984375,-0.607666015625,0.7326999999999999
0.33587786259541985,3.5114503816793894,0.32061068702290074,-0.027099609375,-0.079345703125,-0.60546875,0.7343999999999999
0.44274809160305345,3.450381679389313,0.549618320610687,-0.02392578125,-0.082275390625,-0.600830078125,0.7361
0.366412213740458,3.5267175572519083,0.32061068702290074,-0.0234375,-0.08154296875,-0.600830078125,0.7378
0.44274809160305345,3.49618320610687,0.1984732824427481,-0.02294921875,-0.082275390625,-0.596923828125,0.7394999999999999
0.44274809160305345,3.6030534351145036,0.10687022900763359,-0.030517578125,-0.082275390625,-0.59033203125,0.7412
0.33587786259541985,3.7557251908396947,0.015267175572519083,-0.022216796875,-0.083984375,-0.608154296875,0.7429
0.3511450381679389,3.7404580152671754,-0.015267175572519083,-0.022705078125,-0.090087890625,-0.59619140625,0.7445999999999999
0.21374045801526717,3.633587786259542,-0.13740458015267176,-0.0244140625,-0.084228515625,-0.60693359375,0.7463
0.10687022900763359,3.9389312977099236,-0.42748091603053434,-0.023681640625,-0.080078125,-0.58349609375,0.748
0.22900763358778625,4.0458015267175576,-0.366412213740458,-0.027099609375,-0.082763671875,-0.5966796875,0.7496999999999999
0.16793893129770993,3.9389312977099236,-0.42748091603053434,-0.019287109375,-0.080078125,-0.58154296875,0.7514
0.22900763358778625,4.061068702290076,-0.5343511450381679,-0.017822265625,-0.08154296875,-0.585693359375,0.7531
-0.015267175572519083,4.152671755725191,-0.8549618320610687,-0.02001953125,-0.083251953125,-0.5859375,0.7547999999999999
0.12213740458015267,4.076335877862595,-0.732824427480916,-0.01806640625,-0.076904296875,-0.595947265625,0.7565
0.2595419847328244,4.106870229007634,-0.8702290076335878,-0.019287109375,-0.07958984375,-0.601806640625,0.7582
-0.030534351145038167,4.229007633587786,-0.9923664122137404,-0.021240234375,-0.078369140625,-0.587158203125,0.7598999999999999
-0.030534351145038167,4.198473282442748,-1.1145038167938932,-0.017578125,-0.078125,-0.595947265625,0.7615999999999999
0.0916030534351145,4.1679389312977095,-1.0381679389312977,-0.0205078125,-0.07861328125,-0.598388671875,0.7633
0.0,4.0,-1.2366412213740459,-0.01318359375,-0.0830078125,-0.587158203125,0.7649999999999999
0.015267175572519083,4.198473282442748,-1.2213740458015268,-0.013916015625,-0.083740234375,-0.589111328125,0.7666999999999999
0.04580152671755725,4.351145038167939,-1.4198473282442747,-0.015625,-0.08056640625,-0.58349609375,0.7684
0.4122137404580153,4.2748091603053435,-1.2061068702290076,-0.01416015625,-0.084716796875,-0.591064453125,0.7701
0.6106870229007634,4.259541984732825,-1.2061068702290076,-0.01904296875,-0.08056640625,-0.593994140625,0.7717999999999999
0.32061068702290074,4.229007633587786,-1.1755725190839694,-0.017333984375,-0.079345703125,-0.5849609375,0.7735
0.549618320610687,4.1679389312977095,-1.2366412213740459,-0.01416015625,-0.08154296875,-0.588134765625,0.7752
0.7786259541984732,4.122137404580153,-1.1908396946564885,-0.013671875,-0.081787109375,-0.586669921875,0.7768999999999999
0.6259541984732825,4.2748091603053435,-1.1603053435114503,-0.012451171875,-0.08154296875,-0.58251953125,0.7786
0.7480916030534351,4.137404580152672,-1.297709923664122,-0.015380859375,-0.086181640625,-0.587158203125,0.7803
0.7480916030534351,4.091603053435114,-1.297709923664122,-0.0126953125,-0.080322265625,-0.58447265625,0.7819999999999999
1.0381679389312977,4.213740458015267,-1.3587786259541985,-0.010498046875,-0.084228515625,-0.586669921875,0.7837
0.9618320610687023,4.091603053435114,-1.0687022900763359,-0.01513671875,-0.083251953125,-0.58642578125,0.7854
1.0534351145038168,4.0,-1.0687022900763359,-0.01123046875,-0.08447265625,-0.585205078125,0.7870999999999999
1.0076335877862594,4.0458015267175576,-0.9312977099236641,-0.015869140625,-0.080322265625,-0.579833984375,0.7888
1.1297709923664123,4.061068702290076,-0.9923664122137404,-0.007568359375,-0.081787109375,-0.580810546875,0.7905
1.0381679389312977,4.030534351145038,-0.9618320610687023,-0.0166015625,-0.080810546875,-0.588623046875,0.7921999999999999
1.0381679389312977,4.106870229007634,-0.916030534351145,-0.012451171875,-0.08544921875,-0.59033203125,0.7938999999999999
1.0229007633587786,4.106870229007634,-1.0076335877862594,-0.01220703125,-0.083984375,-0.58837890625,0.7956
1.297709923664122,4.198473282442748,-1.0076335877862594,-0.0126953125,-0.092529296875,-0.592041015625,0.7973
1.0229007633587786,4.091603053435114,-1.0229007633587786,-0.01318359375,-0.0869140625,-0.598876953125,0.7989999999999999
1.1297709923664123,4.061068702290076,-0.8396946564885496,-0.007568359375,-0.0859375,-0.595458984375,0.8007
1.1603053435114503,4.106870229007634,-0.9770992366412213,-0.01806640625,-0.08251953125,-0.5869140625,0.8024
1.1297709923664123,4.244274809160306,-0.8244274809160306,-0.01416015625,-0.083984375,-0.59033203125,0.8040999999999999
0.9618320610687023,4.152671755725191,-0.7938931297709924,-0.0107421875,-0.089111328125,-0.59521484375,0.8058
1.3435114503816794,4.2748091603053435,-0.9312977099236641,-0.0087890625,-0.091552734375,-0.591064453125,0.8075
1.4045801526717556,4.198473282442748,-0.9312977099236641,-0.0087890625,-0.091552734375,-0.59228515625,0.8091999999999999
1.297709923664122,4.259541984732825,-0.916030534351145,-0.013916015625,-0.08935546875,-0.590087890625,0.8109
1.282442748091603,4.229007633587786,-1.0687022900763359,-0.006103515625,-0.087890625,-0.58203125,0.8126
1.633587786259542,4.33587786259542,-1.099236641221374,-0.012451171875,-0.092529296875,-0.59619140625,0.8142999999999999
1.5114503816793894,4.366412213740458,-1.0687022900763359,-0.01220703125,-0.0888671875,-0.5947265625,0.816
1.6641221374045803,4.3816793893129775,-1.2213740458015268,-0.014892578125,-0.094970703125,-0.587646484375,0.8177
1.5877862595419847,4.427480916030534,-1.1450381679389312,-0.01611328125,-0.08984375,-0.579345703125,0.8193999999999999
1.7709923664122138,4.442748091603053,-1.083969465648855,-0.0107421875,-0.090576171875,-0.589599609375,0.8210999999999999
1.633587786259542,4.366412213740458,-1.0381679389312977,-0.015380859375,-0.0869140625,-0.586181640625,0.8228
1.7099236641221374,4.656488549618321,-1.2213740458015268,-0.01953125,-0.09228515625,-0.585693359375,0.8244999999999999
1.6946564885496183,4.625954198473282,-1.3740458015267176,-0.010009765625,-0.088623046875,-0.5947265625,0.8261999999999999
1.6641221374045803,4.458015267175573,-1.282442748091603,-0.01416015625,-0.0888671875,-0.589599609375,0.8279
1.618320610687023,4.687022900763359,-1.4351145038167938,-0.0166015625,-0.086669921875,-0.5947265625,0.8296
1.5572519083969465,4.717557251908397,-1.3282442748091603,-0.012939453125,-0.08837890625,-0.59765625,0.8312999999999999
1.6946564885496183,4.8396946564885495,-1.3435114503816794,-0.017333984375,-0.08984375,-0.596435546875,0.833
1.8931297709923665,4.870229007633588,-1.3893129770992367,-0.01123046875,-0.083740234375,-0.6005859375,0.8347
1.9541984732824427,4.9465648854961835,-1.3435114503816794,-0.012939453125,-0.092529296875,-0.583984375,0.8363999999999999
1.9083969465648856,4.931297709923665,-1.5572519083969465,-0.0166015625,-0.0859375,-0.58203125,0.8381
2.015267175572519,4.885496183206107,-1.450381679389313,-0.015380859375,-0.08447265625,-0.585693359375,0.8398
2.0610687022900764,5.068702290076335,-1.450381679389313,-0.01416015625,-0.08837890625,-0.587158203125,0.8414999999999999
2.2748091603053435,4.99236641221374,-1.3435114503816794,-0.009521484375,-0.09130859375,-0.593505859375,0.8432
2.2748091603053435,4.931297709923665,-1.7557251908396947,-0.01123046875,-0.091552734375,-0.5888671875,0.8449
2.2595419847328246,4.9465648854961835,-1.4809160305343512,-0.01123046875,-0.08349609375,-0.591552734375,0.8465999999999999
2.366412213740458,4.717557251908397,-1.6488549618320612,-0.005859375,-0.087158203125,-0.59619140625,0.8482999999999999
2.519083969465649,4.824427480916031,-1.6030534351145038,-0.006591796875,-0.083740234375,-0.60009765625,0.85
2.687022900763359,4.564885496183206,-1.7404580152671756,-0.004638671875,-0.0869140625,-0.59765625,0.8516999999999999
2.4885496183206106,4.427480916030534,-1.7709923664122138,-0.0078125,-0.090087890625,-0.589599609375,0.8533999999999999
2.4885496183206106,4.5038167938931295,-1.7557251908396947,-0.0107421875,-0.091552734375,-0.58935546875,0.8551
2.8244274809160306,4.366412213740458,-1.6030534351145038,-0.007568359375,-0.090576171875,-0.596435546875,0.8568
2.8091603053435112,4.366412213740458,-1.618320610687023,-0.00830078125,-0.0869140625,-0.59765625,0.8584999999999999
2.854961832061069,4.213740458015267,-1.3893129770992367,-0.007080078125,-0.08349609375,-0.5888671875,0.8602
2.900763358778626,4.0458015267175576,-1.5114503816793894,-0.011474609375,-0.083740234375,-0.591552734375,0.8619
3.099236641221374,4.030534351145038,-1.450381679389313,-0.007080078125,-0.08642578125,-0.582275390625,0.8635999999999999
3.236641221374046,4.015267175572519,-1.450381679389313,-0.010009765625,-0.088134765625,-0.60009765625,0.8653
3.435114503816794,3.816793893129771,-1.5267175572519085,-0.006591796875,-0.08203125,-0.59033203125,0.867
3.5267175572519083,3.786259541984733,-1.450381679389313,-0.009033203125,-0.096923828125,-0.58203125,0.8686999999999999
3.6030534351145036,3.8931297709923665,-1.1603053435114503,-0.005859375,-0.092529296875,-0.589599609375,0.8704
3.66412213740458,3.816793893129771,-1.4198473282442747,-0.006103515625,-0.0927734375,-0.5888671875,0.8721
3.7709923664122136,3.8473282442748094,-1.4045801526717556,-0.005126953125,-0.089599609375,-0.593017578125,0.8737999999999999
4.076335877862595,3.5877862595419847,-1.4961832061068703,-0.003662109375,-0.086181640625,-0.59375,0.8755
3.8625954198473282,3.633587786259542,-1.297709923664122,-0.009033203125,-0.08544921875,-0.591064453125,0.8772
4.229007633587786,3.572519083969466,-1.4809160305343512,-0.00927734375,-0.088134765625,-0.583251953125,0.8788999999999999
4.137404580152672,3.3587786259541983,-1.450381679389313,-0.007568359375,-0.0888671875,-0.581298828125,0.8805999999999999
4.015267175572519,3.267175572519084,-1.7251908396946565,-0.006103515625,-0.09033203125,-0.591064453125,0.8823
4.076335877862595,3.3435114503816794,-1.618320610687023,-0.006591796875,-0.085693359375,-0.585693359375,0.8839999999999999
4.183206106870229,3.282442748091603,-1.7099236641221374,-0.00927734375,-0.079833984375,-0.599609375,0.8856999999999999
4.122137404580153,3.0839694656488548,-1.8473282442748091,-0.004638671875,-0.08251953125,-0.598876953125,0.8874
4.0458015267175576,3.2519083969465647,-2.015267175572519,-0.00732421875,-0.0810546875,-0.591064453125,0.8891
4.091603053435114,3.0839694656488548,-1.8931297709923665,-0.011962890625,-0.087890625,-0.586669921875,0.8907999999999999
3.954198473282443,3.053435114503817,-2.0,-0.009033203125,-0.081298828125,-0.58642578125,0.8925
3.969465648854962,3.236641221374046,-1.9541984732824427,-0.00830078125,-0.08251953125,-0.59375,0.8942
4.091603053435114,3.1755725190839694,-1.9694656488549618,-0.010498046875,-0.087890625,-0.591552734375,0.8958999999999999
3.984732824427481,3.0839694656488548,-1.9541984732824427,-0.010009765625,-0.083251953125,-0.59375,0.8976
4.1679389312977095,2.9770992366412212,-1.9236641221374047,-0.0078125,-0.08837890625,-0.594482421875,0.8993
4.152671755725191,3.0076335877862594,-1.6641221374045803,-0.006103515625,-0.082275390625,-0.591064453125,0.9009999999999999
4.259541984732825,3.114503816793893,-2.1374045801526718,-0.00830078125,-0.093994140625,-0.58984375,0.9027
4.3816793893129775,3.145038167938931,-2.1068702290076335,-0.004150390625,-0.095458984375,-0.595458984375,0.9044
4.6106870229007635,2.9618320610687023,-2.0610687022900764,-0.007080078125,-0.09521484375,-0.60107421875,0.9060999999999999
4.564885496183206,2.931297709923664,-1.9236641221374047,-0.008544921875,-0.093017578125,-0.60009765625,0.9077999999999999
4.641221374045801,2.8396946564885495,-1.9083969465648856,-0.008056640625,-0.0927734375,-0.600341796875,0.9095
4.763358778625954,2.732824427480916,-1.9389312977099236,-0.005615234375,-0.090087890625,-0.599609375,0.9111999999999999
4.595419847328245,2.8396946564885495,-2.183206106870229,-0.0087890625,-0.096435546875,-0.59814453125,0.9128999999999999
4.67175572519084,2.717557251908397,-2.0610687022900764,-0.00146484375,-0.09619140625,-0.594482421875,0.9146
4.748091603053435,2.6717557251908395,-2.1374045801526718,-0.003662109375,-0.093994140625,-0.600341796875,0.9163
4.519083969465649,2.7022900763358777,-2.1374045801526718,-0.00048828125,-0.090576171875,-0.59521484375,0.9179999999999999
4.488549618320611,2.5343511450381677,-2.0610687022900764,-0.008544921875,-0.096435546875,-0.603759765625,0.9197
4.366412213740458,2.519083969465649,-1.8778625954198473,-0.010009765625,-0.0927734375,-0.597900390625,0.9214
4.33587786259542,2.5343511450381677,-2.2595419847328246,-0.00537109375,-0.0927734375,-0.5966796875,0.9230999999999999
4.3816793893129775,2.763358778625954,-2.045801526717557,-0.0029296875,-0.094970703125,-0.5927734375,0.9248
4.229007633587786,2.732824427480916,-1.9541984732824427,-0.003662109375,-0.090576171875,-0.5947265625,0.9265
4.0458015267175576,2.351145038167939,-2.0,-0.004150390625,-0.091552734375,-0.59375,0.9281999999999999
3.633587786259542,2.564885496183206,-1.9694656488549618,-0.002685546875,-0.0927734375,-0.596923828125,0.9299
3.5572519083969465,2.427480916030534,-1.9389312977099236,-0.006591796875,-0.095947265625,-0.588134765625,0.9316
3.4198473282442747,2.366412213740458,-2.030534351145038,-0.00634765625,-0.099365234375,-0.585693359375,0.9332999999999999
3.450381679389313,2.4580152671755724,-2.030534351145038,-0.005615234375,-0.095947265625,-0.601806640625,0.9349999999999999
2.9770992366412212,2.4732824427480917,-2.045801526717557,-0.003173828125,-0.095703125,-0.603515625,0.9367
3.0076335877862594,2.4580152671755724,-1.8778625954198473,-0.009521484375,-0.09228515625,-0.591552734375,0.9383999999999999
2.8396946564885495,2.3969465648854964,-1.8778625954198473,-0.007080078125,-0.090087890625,-0.592041015625,0.9400999999999999
2.763358778625954,2.3969465648854964,-1.8015267175572518,-0.009765625,-0.094482421875,-0.600830078125,0.9418
2.564885496183206,2.50381679389313,-1.83206106870229,-0.003662109375,-0.09814453125,-0.603515625,0.9434999999999999
2.427480916030534,2.4580152671755724,-1.83206106870229,-0.0048828125,-0.09716796875,-0.59814453125,0.9451999999999999
2.427480916030534,2.4732824427480917,-1.8931297709923665,-0.00830078125,-0.095947265625,-0.59326171875,0.9469
2.3969465648854964,2.717557251908397,-1.6946564885496183,-0.0146484375,-0.09228515625,-0.595458984375,0.9486
2.3206106870229006,2.519083969465649,-1.6793893129770991,-0.011474609375,-0.09619140625,-0.60107421875,0.9502999999999999
2.2290076335877864,2.549618320610687,-1.7099236641221374,-0.0078125,-0.09765625,-0.596923828125,0.952
2.1374045801526718,2.519083969465649,-1.7557251908396947,-0.017333984375,-0.09619140625,-0.59033203125,0.9537
2.0763358778625953,2.717557251908397,-1.5877862595419847,-0.010986328125,-0.092041015625,-0.596923828125,0.9553999999999999
1.8473282442748091,2.885496183206107,-1.7557251908396947,-0.014404296875,-0.0908203125,-0.598388671875,0.9571
1.8015267175572518,2.7480916030534353,-1.786259541984733,-0.01416015625,-0.0966796875,-0.596435546875,0.9588
1.5572519083969465,2.7938931297709924,-1.8625954198473282,-0.013671875,-0.09619140625,-0.59619140625,0.9604999999999999
1.1297709923664123,2.7786259541984735,-1.7557251908396947,-0.011474609375,-0.092041015625,-0.59912109375,0.9621999999999999
1.3129770992366412,2.717557251908397,-2.0610687022900764,-0.013671875,-0.09228515625,-0.58740234375,0.9639
0.9618320610687023,2.7480916030534353,-2.16793893129771,-0.009765625,-0.087158203125,-0.597412109375,0.9655999999999999
1.0534351145038168,2.763358778625954,-2.1526717557251906,-0.017822265625,-0.083740234375,-0.592041015625,0.9672999999999999
0.8091603053435115,2.7786259541984735,-2.2290076335877864,-0.017333984375,-0.0859375,-0.5966796875,0.969
0.5038167938931297,2.8091603053435112,-2.519083969465649,-0.021240234375,-0.083984375,-0.6005859375,0.9706999999999999
0.9007633587786259,2.931297709923664,-2.381679389312977,-0.01708984375,-0.086181640625,-0.5947265625,0.9723999999999999
1.0229007633587786,2.763358778625954,-2.5343511450381677,-0.014404296875,-0.08349609375,-0.5908203125,0.9741
1.1297709923664123,2.763358778625954,-2.7938931297709924,-0.0126953125,-0.0791015625,-0.593017578125,0.9758
1.0687022900763359,2.8702290076335877,-2.7786259541984735,-0.013427734375,-0.08154296875,-0.593017578125,0.9774999999999999
1.450381679389313,2.6259541984732824,-2.7786259541984735,-0.009521484375,-0.08251953125,-0.5927734375,0.9792
1.7099236641221374,2.7022900763358777,-3.1755725190839694,-0.013916015625,-0.084228515625,-0.59521484375,0.9809
1.9389312977099236,2.7480916030534353,-3.0381679389312977,-0.010009765625,-0.083251953125,-0.592529296875,0.9825999999999999
1.9541984732824427,2.6106870229007635,-3.1297709923664123,-0.017578125,-0.079345703125,-0.599365234375,0.9843
2.4885496183206106,2.717557251908397,-3.0839694656488548,-0.012451171875,-0.082763671875,-0.597412109375,0.986
2.7786259541984735,2.5801526717557253,-3.1908396946564888,-0.016845703125,-0.082275390625,-0.596923828125,0.9876999999999999
3.0839694656488548,2.381679389312977,-3.114503816793893,-0.01611328125,-0.083984375,-0.599365234375,0.9894
3.404580152671756,2.5801526717557253,-3.2519083969465647,-0.015625,-0.08251953125,-0.593994140625,0.9911
3.83206106870229,2.595419847328244,-3.3435114503816794,-0.0087890625,-0.075927734375,-0.59228515625,0.9927999999999999
3.954198473282443,2.381679389312977,-3.2213740458015265,-0.01416015625,-0.082275390625,-0.6005859375,0.9944999999999999
4.320610687022901,2.183206106870229,-3.312977099236641,-0.013671875,-0.082763671875,-0.6005859375,0.9962
4.2748091603053435,2.3206106870229006,-3.2213740458015265,-0.012939453125,-0.087158203125,-0.59375,0.9978999999999999
4.412213740458015,2.3969465648854964,-3.1755725190839694,-0.011474609375,-0.0869140625,-0.609375,0.9995999999999999
4.534351145038168,2.1526717557251906,-3.2213740458015265,-0.010498046875,-0.08349609375,-0.611328125,1.0012999999999999
4.3816793893129775,2.0916030534351147,-3.145038167938931,-0.013916015625,-0.08935546875,-0.600341796875,1.003
4.625954198473282,2.0610687022900764,-2.8396946564885495,-0.009033203125,-0.0908203125,-0.616455078125,1.0047
4.564885496183206,1.7709923664122138,-2.7938931297709924,-0.01220703125,-0.084228515625,-0.6142578125,1.0064
4.809160305343512,1.6030534351145038,-2.6412213740458017,-0.015869140625,-0.0927734375,-0.612548828125,1.0081
4.809160305343512,1.6793893129770991,-2.519083969465649,-0.0146484375,-0.0908203125,-0.61328125,1.0098
4.99236641221374,1.4961832061068703,-2.213740458015267,-0.0087890625,-0.093505859375,-0.614990234375,1.0114999999999998
5.236641221374046,1.3740458015267176,-2.183206106870229,-0.0146484375,-0.097900390625,-0.612060546875,1.0131999999999999
5.068702290076335,1.2061068702290076,-2.0916030534351147,-0.01220703125,-0.095458984375,-0.6064453125,1.0149
5.236641221374046,1.1450381679389312,-2.0,-0.0146484375,-0.098388671875,-0.6171875,1.0166
5.374045801526718,1.0687022900763359,-1.816793893129771,-0.011962890625,-0.096923828125,-0.6142578125,1.0183
5.32824427480916,0.8244274809160306,-1.5572519083969465,-0.010498046875,-0.102783203125,-0.613037109375,1.02
5.32824427480916,0.8702290076335878,-1.465648854961832,-0.015380859375,-0.1025390625,-0.619140625,1.0217
5.435114503816794,0.6259541984732825,-1.5114503816793894,-0.012451171875,-0.099365234375,-0.619140625,1.0233999999999999
5.145038167938932,0.2748091603053435,-1.465648854961832,-0.014892578125,-0.10546875,-0.6142578125,1.0251
5.0534351145038165,0.32061068702290074,-1.0534351145038168,-0.01318359375,-0.105712890625,-0.624267578125,1.0268
5.022900763358779,0.2900763358778626,-1.1145038167938932,-0.01611328125,-0.1044921875,-0.6259765625,1.0285
4.748091603053435,0.3053435114503817,-1.0076335877862594,-0.01513671875,-0.105712890625,-0.622314453125,1.0302
4.5038167938931295,0.2900763358778626,-0.7175572519083969,-0.017333984375,-0.10546875,-0.623779296875,1.0319
4.259541984732825,0.24427480916030533,-0.5648854961832062,-0.017822265625,-0.10791015625,-0.62939453125,1.0335999999999999
4.091603053435114,-0.10687022900763359,-0.6564885496183206,-0.021484375,-0.105224609375,-0.62890625,1.0352999999999999
3.8931297709923665,0.030534351145038167,-0.32061068702290074,-0.0205078125,-0.10546875,-0.621826171875,1.037
3.3282442748091605,-0.061068702290076333,-0.33587786259541985,-0.0244140625,-0.1103515625,-0.613037109375,1.0387
2.9618320610687023,-0.15267175572519084,-0.0916030534351145,-0.02197265625,-0.111328125,-0.61474609375,1.0404
2.595419847328244,-0.22900763358778625,0.12213740458015267,-0.023193359375,-0.10693359375,-0.625,1.0421
2.4427480916030535,0.0,0.24427480916030533,-0.02685546875,-0.10791015625,-0.614501953125,1.0437999999999998
1.9389312977099236,0.07633587786259542,0.2595419847328244,-0.02001953125,-0.10888671875,-0.617919921875,1.0454999999999999
1.3282442748091603,-0.04580152671755725,0.10687022900763359,-0.024169921875,-0.099853515625,-0.634521484375,1.0472
1.0229007633587786,0.0,0.2595419847328244,-0.018310546875,-0.106201171875,-0.620849609375,1.0489
0.8091603053435115,0.061068702290076333,0.2748091603053435,-0.021484375,-0.10400390625,-0.62646484375,1.0506
0.24427480916030533,-0.04580152671755725,0.3053435114503817,-0.029541015625,-0.103271484375,-0.621826171875,1.0523
-0.21374045801526717,0.0916030534351145,0.3053435114503817,-0.025146484375,-0.101806640625,-0.625,1.054
-0.3816793893129771,-0.030534351145038167,0.2900763358778626,-0.023193359375,-0.099853515625,-0.621337890625,1.0556999999999999
-0.5801526717557252,0.16793893129770993,0.33587786259541985,-0.01904296875,-0.098876953125,-0.619873046875,1.0574
-0.8091603053435115,0.3053435114503817,0.42748091603053434,-0.029296875,-0.100830078125,-0.615234375,1.0591
-1.4045801526717556,0.061068702290076333,0.2595419847328244,-0.0283203125,-0.09912109375,-0.616455078125,1.0608
-1.1450381679389312,0.32061068702290074,0.183206106870229,-0.029541015625,-0.09912109375,-0.611328125,1.0625
-1.2061068702290076,0.21374045801526717,-0.030534351145038167,-0.02880859375,-0.093505859375,-0.618896484375,1.0642
-1.4809160305343512,0.21374045801526717,0.0,-0.0263671875,-0.09130859375,-0.611572265625,1.0658999999999998
-1.5725190839694656,0.366412213740458,-0.0916030534351145,-0.027099609375,-0.09130859375,-0.614501953125,1.0675999999999999
-1.4961832061068703,0.2748091603053435,-0.1984732824427481,-0.02197265625,-0.094482421875,-0.6103515625,1.0693
-1.465648854961832,0.3053435114503817,-0.4122137404580153,-0.029052734375,-0.088134765625,-0.618896484375,1.071
-1.6030534351145038,0.32061068702290074,-0.4732824427480916,-0.03076171875,-0.0859375,-0.61865234375,1.0727
-1.4351145038167938,0.21374045801526717,-0.4122137404580153,-0.02734375,-0.0869140625,-0.6259765625,1.0744
-1.251908396946565,0.3969465648854962,-0.33587786259541985,-0.030029296875,-0.087890625,-0.611083984375,1.0760999999999998
-1.2671755725190839,0.7175572519083969,-0.44274809160305345,-0.024169921875,-0.081787109375,-0.604248046875,1.0777999999999999
-1.1755725190839694,0.5343511450381679,-0.8244274809160306,-0.021728515625,-0.080078125,-0.6083984375,1.0795
-1.099236641221374,0.5343511450381679,-0.732824427480916,-0.03076171875,-0.08203125,-0.619140625,1.0812
-0.7175572519083969,0.5648854961832062,-0.5190839694656488,-0.030517578125,-0.08251953125,-0.605224609375,1.0829
-0.9007633587786259,0.5343511450381679,-0.9007633587786259,-0.021240234375,-0.082763671875,-0.610107421875,1.0846
-0.732824427480916,0.5648854961832062,-0.8244274809160306,-0.028564453125,-0.075439453125,-0.607666015625,1.0863
-0.32061068702290074,0.6870229007633588,-0.7022900763358778,-0.027587890625,-0.0771484375,-0.61572265625,1.0879999999999999
-0.061068702290076333,0.5954198473282443,-0.8091603053435115,-0.027587890625,-0.079345703125,-0.598388671875,1.0897
0.22900763358778625,0.5343511450381679,-0.8549618320610687,-0.026611328125,-0.079345703125,-0.604248046875,1.0914
0.183206106870229,0.6564885496183206,-0.7633587786259542,-0.03125,-0.076904296875,-0.61767578125,1.0931
0.6259541984732825,0.7633587786259542,-1.0229007633587786,-0.029296875,-0.082275390625,-0.612548828125,1.0948
0.9312977099236641,0.6870229007633588,-1.0229007633587786,-0.028076171875,-0.078369140625,-0.61328125,1.0965
0.7022900763358778,0.6870229007633588,-0.9923664122137404,-0.02685546875,-0.0810546875,-0.6064453125,1.0981999999999998
0.7175572519083969,0.7786259541984732,-0.9923664122137404,-0.028076171875,-0.076904296875,-0.608642578125,1.0998999999999999
0.8244274809160306,0.5954198473282443,-1.2366412213740459,-0.029052734375,-0.082763671875,-0.614013671875,1.1016
1.0229007633587786,0.5343511450381679,-0.9923664122137404,-0.031005859375,-0.08447265625,-0.612548828125,1.1033
0.9923664122137404,0.549618320610687,-1.3587786259541985,-0.028564453125,-0.082275390625,-0.610595703125,1.105
0.9312977099236641,0.4580152671755725,-1.0381679389312977,-0.028076171875,-0.081298828125,-0.603271484375,1.1067
1.1145038167938932,0.42748091603053434,-1.1297709923664123,-0.023193359375,-0.085693359375,-0.61474609375,1.1083999999999998
1.1755725190839694,0.6106870229007634,-0.9312977099236641,-0.024169921875,-0.0830078125,-0.607177734375,1.1100999999999999
0.7480916030534351,0.6106870229007634,-0.9770992366412213,-0.028076171875,-0.089111328125,-0.6142578125,1.1118
0.732824427480916,0.3969465648854962,-0.916030534351145,-0.0244140625,-0.089111328125,-0.6142578125,1.1135
0.5801526717557252,0.5648854961832062,-0.9770992366412213,-0.02587890625,-0.086669921875,-0.612060546875,1.1152
0.6870229007633588,0.3969465648854962,-0.7175572519083969,-0.02490234375,-0.090087890625,-0.609619140625,1.1169
0.44274809160305345,0.48854961832061067,-0.7633587786259542,-0.019775390625,-0.08837890625,-0.614013671875,1.1186
0.33587786259541985,0.5190839694656488,-0.6106870229007634,-0.03125,-0.089599609375,-0.610107421875,1.1202999999999999
-0.061068702290076333,0.6717557251908397,-0.6259541984732825,-0.0244140625,-0.08837890625,-0.603759765625,1.1219999999999999
0.030534351145038167,0.5648854961832062,-0.22900763358778625,-0.025390625,-0.08642578125,-0.60791015625,1.1237
-0.22900763358778625,0.6106870229007634,-0.22900763358778625,-0.023681640625,-0.09326171875,-0.61279296875,1.1254
-0.2595419847328244,0.7633587786259542,-0.15267175572519084,-0.023193359375,-0.0947265625,-0.6044921875,1.1271
-0.44274809160305345,0.6259541984732825,-0.2748091603053435,-0.025390625,-0.092529296875,-0.61181640625,1.1288
-0.5801526717557252,0.5190839694656488,0.1984732824427481,-0.030029296875,-0.092041015625,-0.609375,1.1304999999999998
-0.5954198473282443,0.6259541984732825,0.061068702290076333,-0.025634765625,-0.08740234375,-0.60546875,1.1321999999999999
-0.9618320610687023,0.9007633587786259,0.183206106870229,-0.027099609375,-0.089599609375,-0.613525390625,1.1339
-1.1603053435114503,0.9007633587786259,0.13740458015267176,-0.0244140625,-0.093017578125,-0.607666015625,1.1356
-1.2061068702290076,0.7938931297709924,0.33587786259541985,-0.020751953125,-0.097900390625,-0.60595703125,1.1373
-1.465648854961832,0.7938931297709924,0.3053435114503817,-0.025634765625,-0.09228515625,-0.6015625,1.139
-1.7099236641221374,0.8702290076335878,0.48854961832061067,-0.022705078125,-0.093994140625,-0.59521484375,1.1407
-1.7557251908396947,0.9312977099236641,0.3969465648854962,-0.0224609375,-0.088623046875,-0.602783203125,1.1423999999999999
-1.9083969465648856,1.0229007633587786,0.44274809160305345,-0.02490234375,-0.09033203125,-0.60107421875,1.1441
-2.0610687022900764,0.8549618320610687,0.5648854961832062,-0.021728515625,-0.0869140625,-0.604248046875,1.1458
-2.16793893129771,1.0229007633587786,0.5648854961832062,-0.02294921875,-0.08447265625,-0.598388671875,1.1475
-2.3053435114503817,1.1297709923664123,0.7022900763358778,-0.022705078125,-0.08837890625,-0.6005859375,1.1492
-2.4427480916030535,1.0381679389312977,0.9465648854961832,-0.014892578125,-0.09228515625,-0.596923828125,1.1509
-2.4885496183206106,1.1908396946564885,0.9618320610687023,-0.020263671875,-0.09423828125,-0.59521484375,1.1525999999999998
-2.519083969465649,1.2061068702290076,0.9007633587786259,-0.019287109375,-0.09228515625,-0.5966796875,1.1542999999999999
-2.122137404580153,1.099236641221374,1.0534351145038168,-0.017578125,-0.08935546875,-0.5927734375,1.156
-2.1526717557251906,1.2213740458015268,1.297709923664122,-0.01806640625,-0.09033203125,-0.596923828125,1.1577
-2.1526717557251906,1.2213740458015268,1.4045801526717556,-0.014892578125,-0.084228515625,-0.5947265625,1.1594
-1.9236641221374047,1.297709923664122,1.5114503816793894,-0.015625,-0.0888671875,-0.597900390625,1.1611
-1.6641221374045803,1.3282442748091603,1.7099236641221374,-0.01708984375,-0.091796875,-0.596435546875,1.1627999999999998
-1.4809160305343512,1.3587786259541985,1.786259541984733,-0.009765625,-0.093017578125,-0.59228515625,1.1644999999999999
-1.4961832061068703,1.3129770992366412,1.8625954198473282,-0.013427734375,-0.08837890625,-0.5966796875,1.1662
-1.1908396946564885,1.2213740458015268,2.1068702290076335,-0.0126953125,-0.0859375,-0.598876953125,1.1679
-0.9618320610687023,1.1297709923664123,2.16793893129771,-0.013427734375,-0.091064453125,-0.5986328125,1.1696
-0.8549618320610687,1.099236641221374,2.6259541984732824,-0.009765625,-0.087646484375,-0.59130859375,1.1713
-0.8091603053435115,1.0381679389312977,2.6717557251908395,-0.00732421875,-0.089599609375,-0.592041015625,1.173
-0.549618320610687,1.0534351145038168,2.854961832061069,-0.01123046875,-0.0908203125,-0.59619140625,1.1746999999999999
-0.13740458015267176,1.0534351145038168,3.2061068702290076,-0.006103515625,-0.088623046875,-0.580322265625,1.1764
0.13740458015267176,0.7938931297709924,3.236641221374046,-0.001708984375,-0.09033203125,-0.589599609375,1.1781
0.16793893129770993,0.8244274809160306,3.4198473282442747,-0.00732421875,-0.09033203125,-0.591796875,1.1798
-0.13740458015267176,0.7480916030534351,3.7557251908396947,-0.006591796875,-0.09033203125,-0.60107421875,1.1815
0.12213740458015267,0.9312977099236641,3.7709923664122136,-0.009033203125,-0.096923828125,-0.5888671875,1.1832
0.0,0.7480916030534351,4.076335877862595,-0.009033203125,-0.091552734375,-0.59326171875,1.1848999999999998
-0.015267175572519083,0.7175572519083969,4.213740458015267,-0.00390625,-0.0908203125,-0.59814453125,1.1865999999999999
0.549618320610687,0.4122137404580153,4.6106870229007635,-0.005126953125,-0.089599609375,-0.584716796875,1.1883
0.2900763358778626,0.3969465648854962,4.67175572519084,-0.001708984375,-0.100830078125,-0.59375,1.19
0.12213740458015267,0.2595419847328244,4.67175572519084,-0.007080078125,-0.095947265625,-0.601318359375,1.1917
0.2595419847328244,0.10687022900763359,4.931297709923665,-0.00634765625,-0.099365234375,-0.584716796875,1.1934
0.3511450381679389,0.2595419847328244,5.038167938931298,-0.003173828125,-0.0966796875,-0.60546875,1.1950999999999998
0.4580152671755725,0.1984732824427481,5.236641221374046,-0.0009765625,-0.093017578125,-0.60205078125,1.1967999999999999
0.5343511450381679,0.2595419847328244,5.358778625954199,-0.00537109375,-0.0927734375,-0.59423828125,1.1985
0.32061068702290074,-0.12213740458015267,5.3893129770992365,-0.00439453125,-0.09716796875,-0.602783203125,1.2002
0.6870229007633588,-0.10687022900763359,5.770992366412214,-0.00048828125,-0.093994140625,-0.59765625,1.2019
0.6870229007633588,-0.07633587786259542,5.740458015267175,-0.004638671875,-0.095947265625,-0.60009765625,1.2036
0.7633587786259542,-0.10687022900763359,5.847328244274809,-0.010986328125,-0.08935546875,-0.6005859375,1.2053
0.8091603053435115,-0.15267175572519084,5.847328244274809,-0.013916015625,-0.095458984375,-0.59912109375,1.2069999999999999
0.6106870229007634,-0.21374045801526717,5.938931297709924,-0.008544921875,-0.092529296875,-0.59619140625,1.2086999999999999
0.3511450381679389,-0.2748091603053435,5.801526717557252,-0.004638671875,-0.098876953125,-0.5927734375,1.2104
0.32061068702290074,-0.183206106870229,6.091603053435114,-0.00537109375,-0.090087890625,-0.597900390625,1.2121
0.42748091603053434,-0.16793893129770993,6.015267175572519,-0.00341796875,-0.087646484375,-0.599609375,1.2138
0.32061068702290074,-0.16793893129770993,6.076335877862595,-0.0087890625,-0.090576171875,-0.595458984375,1.2155
0.22900763358778625,-0.015267175572519083,6.137404580152672,-0.0078125,-0.09228515625,-0.6064453125,1.2171999999999998
0.13740458015267176,0.0,5.984732824427481,-0.00927734375,-0.087890625,-0.6064453125,1.2188999999999999
0.3816793893129771,0.0,6.137404580152672,-0.008056640625,-0.090087890625,-0.592529296875,1.2206
0.4122137404580153,0.2748091603053435,6.091603053435114,-0.00634765625,-0.08642578125,-0.602294921875,1.2223
0.44274809160305345,0.061068702290076333,5.908396946564886,-0.00830078125,-0.082763671875,-0.598876953125,1.224
0.6259541984732825,0.183206106870229,6.0458015267175576,-0.010009765625,-0.080810546875,-0.597900390625,1.2257
0.8549618320610687,0.15267175572519084,6.198473282442748,-0.007080078125,-0.07958984375,-0.59326171875,1.2273999999999998
0.9007633587786259,0.33587786259541985,6.0,-0.01123046875,-0.083984375,-0.598388671875,1.2290999999999999
1.0534351145038168,0.42748091603053434,6.106870229007634,-0.008056640625,-0.08056640625,-0.598876953125,1.2308
1.099236641221374,0.22900763358778625,5.938931297709924,-0.00830078125,-0.083251953125,-0.596923828125,1.2325
1.5114503816793894,0.4580152671755725,5.847328244274809,-0.006591796875,-0.08447265625,-0.60009765625,1.2342
1.8473282442748091,0.21374045801526717,5.893129770992366,-0.0068359375,-0.079345703125,-0.60107421875,1.2359
1.9694656488549618,0.2595419847328244,5.923664122137405,-0.004638671875,-0.081787109375,-0.59765625,1.2376
2.015267175572519,0.3511450381679389,5.8320610687022905,-0.0078125,-0.078369140625,-0.5966796875,1.2392999999999998
2.3053435114503817,0.366412213740458,5.8320610687022905,-0.010498046875,-0.07763671875,-0.59326171875,1.2409999999999999
2.5801526717557253,0.0916030534351145,5.877862595419847,-0.00439453125,-0.082763671875,-0.597412109375,1.2427
2.50381679389313,0.2595419847328244,5.816793893129771,-0.007568359375,-0.083251953125,-0.593017578125,1.2444
2.8396946564885495,0.24427480916030533,5.770992366412214,-0.009033203125,-0.0791015625,-0.587890625,1.2461
2.8396946564885495,0.22900763358778625,5.862595419847328,-0.00927734375,-0.08154296875,-0.59423828125,1.2478
3.0381679389312977,0.15267175572519084,5.816793893129771,-0.01220703125,-0.0810546875,-0.59130859375,1.2494999999999998
3.282442748091603,0.13740458015267176,5.923664122137405,-0.0107421875,-0.084716796875,-0.59814453125,1.2511999999999999
3.236641221374046,0.0916030534351145,5.755725190839694,-0.01123046875,-0.08447265625,-0.5908203125,1.2529
3.4656488549618323,-0.13740458015267176,5.679389312977099,-0.009033203125,-0.086181640625,-0.59814453125,1.2546
3.450381679389313,-0.24427480916030533,5.740458015267175,-0.010009765625,-0.090087890625,-0.596923828125,1.2563
3.4198473282442747,-0.07633587786259542,5.923664122137405,-0.009033203125,-0.085693359375,-0.60205078125,1.258
3.435114503816794,-0.16793893129770993,5.740458015267175,-0.012451171875,-0.085205078125,-0.59765625,1.2596999999999998
3.3435114503816794,-0.15267175572519084,6.106870229007634,-0.011474609375,-0.084716796875,-0.598388671875,1.2613999999999999
3.3282442748091605,-0.21374045801526717,6.076335877862595,-0.008544921875,-0.083251953125,-0.60107421875,1.2631
3.3740458015267176,-0.030534351145038167,6.213740458015267,-0.00927734375,-0.08447265625,-0.5986328125,1.2648
3.099236641221374,-0.22900763358778625,6.106870229007634,-0.003662109375,-0.09033203125,-0.60107421875,1.2665
2.6259541984732824,-0.3511450381679389,6.229007633587786,-0.012451171875,-0.093505859375,-0.598876953125,1.2682
2.6412213740458017,-0.3816793893129771,6.229007633587786,-0.01220703125,-0.091552734375,-0.60009765625,1.2699
2.3206106870229006,-0.44274809160305345,6.33587786259542,-0.01123046875,-0.0966796875,-0.604248046875,1.2715999999999998
2.030534351145038,-0.3511450381679389,6.5038167938931295,-0.0087890625,-0.08837890625,-0.602783203125,1.2732999999999999
1.8015267175572518,-0.4580152671755725,6.717557251908397,-0.012451171875,-0.091064453125,-0.60888671875,1.275
1.5267175572519085,-0.4580152671755725,6.351145038167939,-0.01025390625,-0.09375,-0.6025390625,1.2767
1.251908396946565,-0.4580152671755725,6.763358778625954,-0.010986328125,-0.091064453125,-0.58984375,1.2784
1.1145038167938932,-0.5343511450381679,6.564885496183206,-0.012939453125,-0.087646484375,-0.594482421875,1.2801
0.7480916030534351,-0.732824427480916,6.625954198473282,-0.017333984375,-0.089599609375,-0.59912109375,1.2817999999999998
0.5801526717557252,-0.7175572519083969,6.396946564885496,-0.0146484375,-0.093017578125,-0.6015625,1.2834999999999999
0.2595419847328244,-0.732824427480916,6.5038167938931295,-0.015625,-0.08642578125,-0.600341796875,1.2852
-0.22900763358778625,-0.7938931297709924,6.412213740458015,-0.015625,-0.091552734375,-0.604736328125,1.2869
-0.3969465648854962,-0.6564885496183206,6.3816793893129775,-0.017822265625,-0.09033203125,-0.608642578125,1.2886
-0.44274809160305345,-0.7175572519083969,6.213740458015267,-0.015869140625,-0.0927734375,-0.59619140625,1.2903
-0.5801526717557252,-0.7938931297709924,6.213740458015267,-0.01611328125,-0.087646484375,-0.601318359375,1.292
-0.9618320610687023,-0.5954198473282443,6.0458015267175576,-0.0185546875,-0.092041015625,-0.59521484375,1.2936999999999999
-0.9618320610687023,-0.42748091603053434,6.061068702290076,-0.016845703125,-0.088134765625,-0.6083984375,1.2953999999999999
-1.4198473282442747,-0.6106870229007634,5.740458015267175,-0.019775390625,-0.0859375,-0.5966796875,1.2971
-1.5267175572519085,-0.7786259541984732,5.770992366412214,-0.01416015625,-0.0859375,-0.597900390625,1.2988
-1.6488549618320612,-0.6106870229007634,5.465648854961832,-0.022705078125,-0.092529296875,-0.59423828125,1.3005
-1.6793893129770991,-0.6106870229007634,5.66412213740458,-0.01708984375,-0.08740234375,-0.60107421875,1.3022
-1.9236641221374047,-0.7480916030534351,5.480916030534351,-0.017578125,-0.083251953125,-0.60302734375,1.3038999999999998
-1.984732824427481,-0.8091603053435115,5.358778625954199,-0.0185546875,-0.088623046875,-0.6015625,1.3055999999999999
-2.0,-0.6564885496183206,5.175572519083969,-0.022216796875,-0.089111328125,-0.600341796875,1.3073
-2.030534351145038,-0.7633587786259542,5.1603053435114505,-0.024658203125,-0.087646484375,-0.60107421875,1.309
-2.1374045801526718,-0.7938931297709924,4.977099236641221,-0.013671875,-0.08349609375,-0.6005859375,1.3107
-2.2595419847328246,-0.9007633587786259,5.00763358778626,-0.020263671875,-0.0810546875,-0.5947265625,1.3124
-2.1374045801526718,-1.1755725190839694,4.854961832061068,-0.018310546875,-0.0791015625,-0.601318359375,1.3140999999999998
-2.213740458015267,-1.0229007633587786,4.870229007633588,-0.017822265625,-0.081787109375,-0.5986328125,1.3157999999999999
-2.519083969465649,-1.0381679389312977,4.702290076335878,-0.01318359375,-0.08349609375,-0.6025390625,1.3175
-2.4580152671755724,-1.2366412213740459,4.702290076335878,-0.016845703125,-0.0859375,-0.61083984375,1.3192
-2.4732824427480917,-1.5114503816793894,4.549618320610687,-0.01953125,-0.08251953125,-0.61376953125,1.3209
-2.3969465648854964,-1.465648854961832,4.549618320610687,-0.013916015625,-0.080322265625,-0.60888671875,1.3226
-2.4885496183206106,-1.8015267175572518,4.625954198473282,-0.013916015625,-0.08349609375,-0.619873046875,1.3243
-2.519083969465649,-1.9541984732824427,4.702290076335878,-0.016357421875,-0.08935546875,-0.616943359375,1.3259999999999998
-2.6564885496183206,-2.2290076335877864,4.732824427480916,-0.016357421875,-0.082763671875,-0.611083984375,1.3276999999999999
-2.7022900763358777,-2.427480916030534,4.732824427480916,-0.014892578125,-0.083984375,-0.615478515625,1.3294
-2.8702290076335877,-2.549618320610687,4.687022900763359,-0.015869140625,-0.089111328125,-0.616455078125,1.3311
-2.946564885496183,-2.7786259541984735,4.961832061068702,-0.013427734375,-0.0927734375,-0.617431640625,1.3328
-3.3740458015267176,-2.931297709923664,4.732824427480916,-0.018310546875,-0.09033203125,-0.616943359375,1.3345
-3.480916030534351,-3.145038167938931,4.809160305343512,-0.016357421875,-0.09375,-0.61572265625,1.3361999999999998
-3.572519083969466,-3.3282442748091605,5.129770992366412,-0.015380859375,-0.090087890625,-0.62158203125,1.3378999999999999
-4.030534351145038,-3.5419847328244276,5.206106870229007,-0.01708984375,-0.091552734375,-0.625244140625,1.3396
-4.1679389312977095,-3.801526717557252,5.0534351145038165,-0.013427734375,-0.09228515625,-0.61572265625,1.3413
-4.458015267175573,-4.030534351145038,5.251908396946565,-0.01708984375,-0.094970703125,-0.623779296875,1.343
-4.656488549618321,-4.534351145038168,5.343511450381679,-0.018310546875,-0.090576171875,-0.62353515625,1.3447
-4.778625954198473,-4.67175572519084,5.358778625954199,-0.01904296875,-0.09619140625,-0.618896484375,1.3463999999999998
-5.221374045801527,-4.931297709923665,5.221374045801527,-0.017822265625,-0.0927734375,-0.623291015625,1.3480999999999999
-5.511450381679389,-5.068702290076335,5.526717557251908,-0.016357421875,-0.098876953125,-0.621826171875,1.3497999999999999
-5.7251908396946565,-5.282442748091603,5.557251908396947,-0.025634765625,-0.097900390625,-0.626708984375,1.3515
-6.015267175572519,-5.603053435114504,5.587786259541985,-0.02099609375,-0.096435546875,-0.624755859375,1.3532
-6.259541984732825,-5.908396946564886,5.404580152671755,-0.024169921875,-0.099853515625,-0.636474609375,1.3549
-6.412213740458015,-5.908396946564886,5.587786259541985,-0.0244140625,-0.1025390625,-0.6337890625,1.3566
-6.67175572519084,-6.290076335877862,5.7251908396946565,-0.02685546875,-0.10400390625,-0.627197265625,1.3582999999999998
-6.809160305343512,-6.366412213740458,5.862595419847328,-0.021484375,-0.099853515625,-0.62255859375,1.3599999999999999
-6.9465648854961835,-6.488549618320611,5.740458015267175,-0.022705078125,-0.1044921875,-0.639404296875,1.3617
-7.32824427480916,-6.595419847328245,5.786259541984733,-0.029296875,-0.099365234375,-0.623779296875,1.3634
-7.206106870229007,-6.519083969465649,5.679389312977099,-0.027587890625,-0.095703125,-0.6259765625,1.3651
-7.603053435114504,-6.732824427480916,5.801526717557252,-0.02294921875,-0.10400390625,-0.633544921875,1.3668
-7.557251908396947,-6.885496183206107,6.061068702290076,-0.0244140625,-0.099853515625,-0.623291015625,1.3684999999999998
-7.893129770992366,-6.809160305343512,6.0,-0.033203125,-0.104736328125,-0.62890625,1.3701999999999999
-7.938931297709924,-6.854961832061068,5.923664122137405,-0.0322265625,-0.0986328125,-0.62109375,1.3719
-8.16793893129771,-6.885496183206107,5.877862595419847,-0.030517578125,-0.09765625,-0.62890625,1.3736
-8.427480916030534,-6.870229007633588,5.557251908396947,-0.034423828125,-0.09375,-0.627685546875,1.3753
-8.870229007633588,-6.977099236641221,5.740458015267175,-0.035400390625,-0.0947265625,-0.634765625,1.377
-9.17557251908397,-6.99236641221374,5.480916030534351,-0.031494140625,-0.091552734375,-0.620849609375,1.3786999999999998
-9.236641221374045,-6.625954198473282,5.419847328244275,-0.03173828125,-0.089111328125,-0.622314453125,1.3803999999999998
-9.267175572519085,-6.793893129770993,5.297709923664122,-0.037353515625,-0.09033203125,-0.619140625,1.3820999999999999
-9.312977099236642,-6.625954198473282,5.099236641221374,-0.0302734375,-0.08837890625,-0.614501953125,1.3838
-9.84732824427481,-6.595419847328245,5.190839694656488,-0.032958984375,-0.08984375,-0.6201171875,1.3855
-10.106870229007633,-6.687022900763359,4.900763358778626,-0.037353515625,-0.0849609375,-0.616943359375,1.3872
-10.0,-6.595419847328245,4.67175572519084,-0.0341796875,-0.07958984375,-0.61376953125,1.3889
-10.076335877862595,-6.549618320610687,4.473282442748092,-0.037353515625,-0.07958984375,-0.611083984375,1.3905999999999998
-10.198473282442748,-6.3816793893129775,4.137404580152672,-0.035888671875,-0.082763671875,-0.615478515625,1.3922999999999999
-10.030534351145038,-6.137404580152672,4.030534351145038,-0.0390625,-0.072509765625,-0.61474609375,1.394
-9.969465648854962,-6.366412213740458,3.9083969465648853,-0.033935546875,-0.070068359375,-0.613037109375,1.3957
-9.86259541984733,-6.320610687022901,3.6030534351145036,-0.035400390625,-0.071533203125,-0.61083984375,1.3974
-9.664122137404581,-6.244274809160306,3.2977099236641223,-0.03466796875,-0.06591796875,-0.60986328125,1.3991
-9.312977099236642,-6.122137404580153,2.946564885496183,-0.035888671875,-0.065185546875,-0.609375,1.4007999999999998
-9.17557251908397,-6.0,2.900763358778626,-0.036376953125,-0.062255859375,-0.604736328125,1.4024999999999999
-8.732824427480915,-5.9541984732824424,2.5343511450381677,-0.036376953125,-0.06396484375,-0.608154296875,1.4042
-8.335877862595419,-6.0458015267175576,2.1374045801526718,-0.034912109375,-0.064208984375,-0.594970703125,1.4059
-8.305343511450381,-5.908396946564886,1.816793893129771,-0.0341796875,-0.059814453125,-0.6015625,1.4076
-7.938931297709924,-5.633587786259542,1.618320610687023,-0.034912109375,-0.0576171875,-0.60595703125,1.4093
-7.374045801526718,-5.465648854961832,1.3587786259541985,-0.0283203125,-0.056640625,-0.595703125,1.411
-7.114503816793893,-5.419847328244275,0.9312977099236641,-0.031005859375,-0.049072265625,-0.6015625,1.4126999999999998
-6.717557251908397,-5.3893129770992365,0.9007633587786259,-0.031982421875,-0.052978515625,-0.604248046875,1.4143999999999999
-6.305343511450381,-5.175572519083969,0.549618320610687,-0.02685546875,-0.049560546875,-0.60302734375,1.4161
-5.770992366412214,-5.0534351145038165,0.030534351145038167,-0.033447265625,-0.04931640625,-0.600341796875,1.4178
-5.450381679389313,-5.0534351145038165,0.0,-0.02490234375,-0.0517578125,-0.5947265625,1.4195
-4.99236641221374,-4.809160305343512,-0.07633587786259542,-0.0302734375,-0.05126953125,-0.5927734375,1.4212
-4.473282442748092,-4.809160305343512,-0.3969465648854962,-0.02294921875,-0.04736328125,-0.5859375,1.4228999999999998
-4.091603053435114,-4.854961832061068,-0.7633587786259542,-0.027099609375,-0.05224609375,-0.602294921875,1.4245999999999999
-3.8625954198473282,-4.641221374045801,-0.9618320610687023,-0.02490234375,-0.053466796875,-0.59228515625,1.4263
-3.1297709923664123,-4.6106870229007635,-1.0534351145038168,-0.023193359375,-0.049072265625,-0.597412109375,1.428
-2.7480916030534353,-4.549618320610687,-1.1603053435114503,-0.0166015625,-0.0458984375,-0.59423828125,1.4297
-2.4122137404580153,-4.580152671755725,-1.618320610687023,-0.02001953125,-0.04541015625,-0.599609375,1.4314
-2.213740458015267,-4.625954198473282,-1.7251908396946565,-0.018310546875,-0.042236328125,-0.59814453125,1.4330999999999998
-1.7404580152671756,-4.442748091603053,-2.015267175572519,-0.017333984375,-0.052734375,-0.59521484375,1.4347999999999999
-1.3740458015267176,-4.641221374045801,-2.33587786259542,-0.021240234375,-0.04833984375,-0.593017578125,1.4364999999999999
-1.0229007633587786,-4.6106870229007635,-2.4427480916030535,-0.013427734375,-0.04833984375,-0.59814453125,1.4382
-0.9923664122137404,-4.549618320610687,-2.3969465648854964,-0.011962890625,-0.052490234375,-0.6064453125,1.4399
-0.8091603053435115,-4.5038167938931295,-2.50381679389313,-0.01416015625,-0.052001953125,-0.60400390625,1.4416
-0.4580152671755725,-4.763358778625954,-2.687022900763359,-0.004150390625,-0.0498046875,-0.6025390625,1.4433
-0.6106870229007634,-4.793893129770993,-2.8091603053435112,-0.005615234375,-0.052001953125,-0.59619140625,1.4449999999999998
-0.32061068702290074,-4.625954198473282,-2.6106870229007635,-0.00048828125,-0.060302734375,-0.602783203125,1.4466999999999999
-0.2748091603053435,-4.763358778625954,-2.6259541984732824,-0.001953125,-0.054931640625,-0.607421875,1.4484
-0.07633587786259542,-4.885496183206107,-2.519083969465649,-0.003173828125,-0.059326171875,-0.602294921875,1.4501
0.21374045801526717,-5.038167938931298,-2.6412213740458017,-0.0009765625,-0.057861328125,-0.60498046875,1.4518
0.12213740458015267,-5.190839694656488,-2.4580152671755724,-0.00341796875,-0.064453125,-0.610107421875,1.4535
0.0916030534351145,-5.435114503816794,-2.3053435114503817,0.001708984375,-0.058837890625,-0.601806640625,1.4551999999999998
0.3053435114503817,-5.4961832061068705,-2.2290076335877864,0.001220703125,-0.0712890625,-0.6162109375,1.4568999999999999
0.10687022900763359,-5.755725190839694,-2.213740458015267,0.003173828125,-0.07373046875,-0.605224609375,1.4586
0.1984732824427481,-5.679389312977099,-2.0916030534351147,0.002197265625,-0.0673828125,-0.60498046875,1.4603
-0.04580152671755725,-6.030534351145038,-2.015267175572519,-0.001220703125,-0.073486328125,-0.611083984375,1.462
0.015267175572519083,-5.969465648854962,-1.633587786259542,0.000244140625,-0.07177734375,-0.6083984375,1.4637
-0.42748091603053434,-6.015267175572519,-1.465648854961832,0.001953125,-0.078857421875,-0.60595703125,1.4653999999999998
-0.7938931297709924,-6.137404580152672,-1.282442748091603,0.003662109375,-0.081298828125,-0.607177734375,1.4670999999999998
-0.916030534351145,-6.458015267175573,-1.465648854961832,0.000732421875,-0.081298828125,-0.60791015625,1.4687999999999999
-0.9465648854961832,-6.595419847328245,-1.1297709923664123,0.003173828125,-0.079345703125,-0.605712890625,1.4705
-1.4961832061068703,-6.778625954198473,-0.916030534351145,0.005859375,-0.085693359375,-0.604248046875,1.4722
-1.7251908396946565,-6.6106870229007635,-0.732824427480916,-0.000732421875,-0.08544921875,-0.605712890625,1.4739
-2.2595419847328246,-6.748091603053435,-0.5801526717557252,0.0,-0.082763671875,-0.60595703125,1.4756
-2.8244274809160306,-6.702290076335878,-0.4122137404580153,0.00048828125,-0.085693359375,-0.59912109375,1.4772999999999998
-3.1755725190839694,-6.67175572519084,-0.42748091603053434,-0.0029296875,-0.083251953125,-0.610107421875,1.4789999999999999
-3.786259541984733,-6.625954198473282,-0.12213740458015267,-0.00146484375,-0.083984375,-0.607177734375,1.4807
-4.488549618320611,-6.580152671755725,-0.0916030534351145,0.0009765625,-0.081298828125,-0.609619140625,1.4824
-5.00763358778626,-6.427480916030534,0.21374045801526717,-0.00830078125,-0.08984375,-0.609130859375,1.4841
-5.511450381679389,-6.595419847328245,0.13740458015267176,-0.009765625,-0.084228515625,-0.598388671875,1.4858
-6.091603053435114,-6.122137404580153,0.21374045801526717,-0.004150390625,-0.08349609375,-0.6005859375,1.4874999999999998
-6.656488549618321,-6.015267175572519,0.4122137404580153,-0.007568359375,-0.087158203125,-0.604248046875,1.4891999999999999
-7.251908396946565,-5.908396946564886,0.6106870229007634,-0.013671875,-0.082275390625,-0.603271484375,1.4909
-7.7251908396946565,-5.66412213740458,0.44274809160305345,-0.01220703125,-0.085693359375,-0.60205078125,1.4926
-8.061068702290076,-5.557251908396947,0.549618320610687,-0.01416015625,-0.088134765625,-0.59814453125,1.4943
-8.65648854961832,-5.083969465648855,0.6564885496183206,-0.01953125,-0.084716796875,-0.59423828125,1.496
-8.961832061068701,-4.916030534351145,0.7633587786259542,-0.020751953125,-0.085693359375,-0.593017578125,1.4976999999999998
-9.34351145038168,-4.702290076335878,0.7938931297709924,-0.017333984375,-0.0830078125,-0.603515625,1.4993999999999998
-9.709923664122137,-4.351145038167939,0.9770992366412213,-0.01708984375,-0.08544921875,-0.59375,1.5010999999999999
-9.84732824427481,-4.198473282442748,0.916030534351145,-0.019287109375,-0.081298828125,-0.591796875,1.5028
-9.98473282442748,-3.8931297709923665,1.2213740458015268,-0.018310546875,-0.085693359375,-0.58984375,1.5045
-10.259541984732824,-3.801526717557252,1.1755725190839694,-0.025146484375,-0.091064453125,-0.58837890625,1.5062
-10.320610687022901,-3.450381679389313,1.4045801526717556,-0.02685546875,-0.091064453125,-0.593017578125,1.5079
-10.580152671755725,-3.1755725190839694,1.1297709923664123,-0.019775390625,-0.087890625,-0.591552734375,1.5095999999999998
-10.50381679389313,-3.0076335877862594,1.3129770992366412,-0.01953125,-0.083984375,-0.588134765625,1.5112999999999999
-10.580152671755725,-2.8091603053435112,1.450381679389313,-0.01904296875,-0.085693359375,-0.585205078125,1.513
-10.534351145038167,-2.564885496183206,1.5725190839694656,-0.019775390625,-0.088134765625,-0.591796875,1.5147
-10.442748091603054,-2.33587786259542,1.5419847328244274,-0.021240234375,-0.084716796875,-0.59912109375,1.5164
-10.473282442748092,-2.2748091603053435,1.5877862595419847,-0.01806640625,-0.077880859375,-0.59375,1.5181
-10.610687022900763,-1.7709923664122138,1.6946564885496183,-0.0185546875,-0.08154296875,-0.596435546875,1.5197999999999998
-10.320610687022901,-1.786259541984733,1.9541984732824427,-0.0205078125,-0.081298828125,-0.580322265625,1.5214999999999999
-9.84732824427481,-1.5114503816793894,1.8931297709923665,-0.021240234375,-0.07958984375,-0.579345703125,1.5231999999999999
-10.030534351145038,-1.5114503816793894,2.030534351145038,-0.021240234375,-0.085693359375,-0.58251953125,1.5249
-10.01526717557252,-1.1145038167938932,1.9083969465648856,-0.023681640625,-0.0869140625,-0.58251953125,1.5266
-9.694656488549619,-1.083969465648855,2.198473282442748,-0.022216796875,-0.077392578125,-0.58447265625,1.5283
-9.297709923664122,-1.099236641221374,2.2290076335877864,-0.017822265625,-0.080810546875,-0.587158203125,1.5299999999999998
-9.419847328244275,-0.7633587786259542,2.427480916030534,-0.017822265625,-0.0810546875,-0.579833984375,1.5316999999999998
-9.404580152671755,-0.7175572519083969,2.2748091603053435,-0.02099609375,-0.082763671875,-0.58447265625,1.5333999999999999
-8.931297709923664,-0.7786259541984732,2.5801526717557253,-0.019775390625,-0.081298828125,-0.570556640625,1.5351
-8.610687022900763,-0.6717557251908397,2.6564885496183206,-0.019287109375,-0.078125,-0.5751953125,1.5368
-8.320610687022901,-0.7175572519083969,2.732824427480916,-0.019287109375,-0.077392578125,-0.58056640625,1.5385
-7.9541984732824424,-0.6412213740458015,2.717557251908397,-0.02490234375,-0.076904296875,-0.5791015625,1.5402
-7.526717557251908,-0.6412213740458015,2.854961832061069,-0.0234375,-0.077392578125,-0.57421875,1.5418999999999998
-6.778625954198473,-0.4732824427480916,2.687022900763359,-0.02294921875,-0.07470703125,-0.58203125,1.5435999999999999
-6.244274809160306,-0.6870229007633588,2.9770992366412212,-0.02294921875,-0.080322265625,-0.582275390625,1.5453
-5.755725190839694,-0.366412213740458,3.114503816793893,-0.025146484375,-0.07861328125,-0.576904296875,1.547
-5.343511450381679,-0.5190839694656488,3.053435114503817,-0.02099609375,-0.080078125,-0.579833984375,1.5487
-4.687022900763359,-0.32061068702290074,3.0381679389312977,-0.02734375,-0.076416015625,-0.5810546875,1.5504
-4.091603053435114,-0.3816793893129771,3.267175572519084,-0.024658203125,-0.080322265625,-0.5751953125,1.5520999999999998
-3.145038167938931,-0.24427480916030533,2.9770992366412212,-0.0244140625,-0.081787109375,-0.58056640625,1.5537999999999998
-2.687022900763359,-0.21374045801526717,3.114503816793893,-0.03173828125,-0.07763671875,-0.576904296875,1.5554999999999999
-2.2442748091603053,-0.030534351145038167,2.9160305343511452,-0.02734375,-0.078125,-0.573486328125,1.5572
-1.450381679389313,0.04580152671755725,3.068702290076336,-0.03271484375,-0.083984375,-0.57568359375,1.5589
-0.9465648854961832,0.366412213740458,3.1297709923664123,-0.028564453125,-0.081298828125,-0.582275390625,1.5606
-0.2595419847328244,0.6106870229007634,3.1603053435114505,-0.031005859375,-0.083740234375,-0.579833984375,1.5623
0.3511450381679389,0.6412213740458015,3.099236641221374,-0.038330078125,-0.079833984375,-0.586181640625,1.5639999999999998
0.5801526717557252,0.9007633587786259,3.1297709923664123,-0.037841796875,-0.075927734375,-0.58251953125,1.5656999999999999
1.251908396946565,0.9923664122137404,3.099236641221374,-0.036376953125,-0.081298828125,-0.580078125,1.5674
1.8625954198473282,1.5725190839694656,3.1908396946564888,-0.0341796875,-0.08447265625,-0.58056640625,1.5691
2.2748091603053435,1.8015267175572518,3.2061068702290076,-0.038330078125,-0.084716796875,-0.584716796875,1.5708
2.7022900763358777,1.6488549618320612,3.1755725190839694,-0.038330078125,-0.075927734375,-0.57958984375,1.5725
3.0839694656488548,2.0,2.854961832061069,-0.042236328125,-0.076171875,-0.5888671875,1.5741999999999998
3.2213740458015265,2.3969465648854964,2.9923664122137406,-0.041259765625,-0.079345703125,-0.5849609375,1.5758999999999999
4.015267175572519,2.6717557251908395,2.8091603053435112,-0.040283203125,-0.0791015625,-0.580810546875,1.5776
4.0,2.687022900763359,2.854961832061069,-0.036865234375,-0.078125,-0.585693359375,1.5793
4.244274809160306,2.8702290076335877,2.854961832061069,-0.037841796875,-0.08544921875,-0.571044921875,1.581
4.717557251908397,3.0839694656488548,2.8396946564885495,-0.042236328125,-0.082275390625,-0.580810546875,1.5827
4.870229007633588,3.3587786259541983,2.8702290076335877,-0.03857421875,-0.083984375,-0.586669921875,1.5843999999999998
5.145038167938932,3.572519083969466,2.7022900763358777,-0.035888671875,-0.085205078125,-0.583740234375,1.5860999999999998
5.3893129770992365,3.9236641221374047,2.519083969465649,-0.0341796875,-0.088134765625,-0.585205078125,1.5877999999999999
5.572519083969466,4.061068702290076,2.595419847328244,-0.039306640625,-0.08544921875,-0.584228515625,1.5895
5.679389312977099,4.290076335877862,2.717557251908397,-0.03515625,-0.081787109375,-0.584716796875,1.5912
5.816793893129771,4.458015267175573,2.5343511450381677,-0.0322265625,-0.082275390625,-0.585205078125,1.5929
5.816793893129771,4.595419847328245,2.3969465648854964,-0.03271484375,-0.088134765625,-0.58154296875,1.5946
5.66412213740458,4.870229007633588,2.5343511450381677,-0.03515625,-0.0810546875,-0.58740234375,1.5962999999999998
5.694656488549619,5.0534351145038165,2.6412213740458017,-0.037841796875,-0.081787109375,-0.576904296875,1.5979999999999999
5.755725190839694,5.129770992366412,2.3969465648854964,-0.0361328125,-0.0859375,-0.5732421875,1.5997
5.587786259541985,5.175572519083969,2.3969465648854964,-0.031494140625,-0.087158203125,-0.577880859375,1.6014
5.557251908396947,5.541984732824427,2.33587786259542,-0.029052734375,-0.08837890625,-0.5869140625,1.6031
5.679389312977099,5.603053435114504,2.2442748091603053,-0.03271484375,-0.086181640625,-0.58740234375,1.6048
5.740458015267175,5.358778625954199,2.0610687022900764,-0.035400390625,-0.0927734375,-0.5830078125,1.6064999999999998
5.511450381679389,5.679389312977099,2.2900763358778624,-0.03271484375,-0.085205078125,-0.5712890625,1.6081999999999999
5.3893129770992365,5.709923664122138,2.1068702290076335,-0.031005859375,-0.08642578125,-0.58349609375,1.6098999999999999
5.343511450381679,5.770992366412214,2.2290076335877864,-0.026611328125,-0.08544921875,-0.58935546875,1.6116
5.00763358778626,5.877862595419847,2.0763358778625953,-0.02685546875,-0.0849609375,-0.583984375,1.6133
4.916030534351145,5.877862595419847,2.0,-0.02734375,-0.081787109375,-0.573486328125,1.615
4.763358778625954,5.862595419847328,2.16793893129771,-0.028564453125,-0.08935546875,-0.58642578125,1.6166999999999998
4.534351145038168,5.908396946564886,2.045801526717557,-0.025634765625,-0.08935546875,-0.588623046875,1.6183999999999998
4.549618320610687,6.030534351145038,1.9541984732824427,-0.02734375,-0.08447265625,-0.580810546875,1.6200999999999999
4.015267175572519,6.106870229007634,2.0763358778625953,-0.0283203125,-0.087646484375,-0.5830078125,1.6218
3.8931297709923665,6.183206106870229,2.198473282442748,-0.024169921875,-0.089111328125,-0.580810546875,1.6235
3.6793893129770994,6.152671755725191,2.0,-0.0263671875,-0.091064453125,-0.587646484375,1.6252
3.49618320610687,6.320610687022901,1.8931297709923665,-0.0244140625,-0.0908203125,-0.59326171875,1.6269
3.1603053435114505,6.290076335877862,2.16793893129771,-0.024658203125,-0.095703125,-0.579345703125,1.6285999999999998
3.068702290076336,6.3816793893129775,2.015267175572519,-0.023681640625,-0.092041015625,-0.58056640625,1.6302999999999999
2.6564885496183206,6.641221374045801,2.030534351145038,-0.023681640625,-0.089599609375,-0.582275390625,1.632
2.3206106870229006,6.732824427480916,1.9083969465648856,-0.0205078125,-0.093017578125,-0.583984375,1.6337
1.984732824427481,6.916030534351145,2.16793893129771,-0.024169921875,-0.096923828125,-0.5908203125,1.6354
1.633587786259542,6.99236641221374,2.2290076335877864,-0.020751953125,-0.09375,-0.5888671875,1.6371
1.1755725190839694,7.175572519083969,2.16793893129771,-0.019287109375,-0.0947265625,-0.5830078125,1.6387999999999998
1.099236641221374,7.282442748091603,2.2442748091603053,-0.018310546875,-0.09228515625,-0.5927734375,1.6404999999999998
0.7480916030534351,7.3893129770992365,2.3206106870229006,-0.015869140625,-0.085693359375,-0.585693359375,1.6421999999999999
0.549618320610687,7.358778625954199,2.351145038167939,-0.01904296875,-0.093017578125,-0.593505859375,1.6439
0.3053435114503817,7.6183206106870225,2.2900763358778624,-0.01806640625,-0.094482421875,-0.591064453125,1.6456
0.2900763358778626,7.694656488549619,2.4122137404580153,-0.017578125,-0.095703125,-0.5830078125,1.6473
0.3053435114503817,7.816793893129771,2.6259541984732824,-0.014892578125,-0.0966796875,-0.58984375,1.6489999999999998
0.2748091603053435,7.786259541984733,2.519083969465649,-0.015625,-0.089599609375,-0.57958984375,1.6506999999999998
0.366412213740458,7.801526717557252,2.6106870229007635,-0.019287109375,-0.091552734375,-0.59228515625,1.6523999999999999
0.12213740458015267,8.15267175572519,2.732824427480916,-0.01416015625,-0.08544921875,-0.587158203125,1.6541
0.3816793893129771,8.183206106870228,2.8702290076335877,-0.024658203125,-0.08740234375,-0.593994140625,1.6558
0.42748091603053434,8.076335877862595,2.8702290076335877,-0.014404296875,-0.087890625,-0.59033203125,1.6575
0.44274809160305345,8.305343511450381,3.114503816793893,-0.015380859375,-0.083984375,-0.5810546875,1.6592
0.7175572519083969,8.366412213740459,2.9618320610687023,-0.016357421875,-0.089111328125,-0.586669921875,1.6608999999999998
0.7938931297709924,8.610687022900763,3.0076335877862594,-0.01806640625,-0.087158203125,-0.5908203125,1.6625999999999999
0.8244274809160306,8.748091603053435,3.0229007633587788,-0.0185546875,-0.084228515625,-0.582275390625,1.6643
1.099236641221374,8.763358778625955,3.1603053435114505,-0.012451171875,-0.078125,-0.585693359375,1.666
1.3435114503816794,8.854961832061068,2.931297709923664,-0.01611328125,-0.083251953125,-0.58837890625,1.6677
1.251908396946565,9.053435114503817,3.068702290076336,-0.01611328125,-0.076904296875,-0.5888671875,1.6694
1.3435114503816794,8.763358778625955,3.0839694656488548,-0.013916015625,-0.078125,-0.592041015625,1.6710999999999998
1.3893129770992367,8.687022900763358,3.099236641221374,-0.0185546875,-0.078857421875,-0.5966796875,1.6727999999999998
1.6030534351145038,8.854961832061068,3.0076335877862594,-0.01904296875,-0.078125,-0.59716796875,1.6744999999999999
1.4961832061068703,8.977099236641221,3.0381679389312977,-0.01708984375,-0.080078125,-0.59814453125,1.6762
1.8473282442748091,8.732824427480915,3.099236641221374,-0.017822265625,-0.074462890625,-0.59912109375,1.6779
2.2595419847328246,8.641221374045802,3.1755725190839694,-0.017822265625,-0.07958984375,-0.59716796875,1.6796
2.4885496183206106,9.022900763358779,2.885496183206107,-0.0107421875,-0.07861328125,-0.60107421875,1.6813
2.9160305343511452,8.763358778625955,3.0381679389312977,-0.01171875,-0.078369140625,-0.603515625,1.6829999999999998
3.267175572519084,8.732824427480915,2.8244274809160306,-0.019287109375,-0.07666015625,-0.599853515625,1.6846999999999999
3.66412213740458,8.763358778625955,3.1755725190839694,-0.012451171875,-0.08349609375,-0.60498046875,1.6864
3.9236641221374047,8.580152671755725,2.885496183206107,-0.012939453125,-0.07763671875,-0.60595703125,1.6881
4.3816793893129775,8.65648854961832,2.931297709923664,-0.016357421875,-0.08447265625,-0.600341796875,1.6898
4.748091603053435,8.427480916030534,2.595419847328244,-0.015380859375,-0.074462890625,-0.610595703125,1.6915
4.824427480916031,8.305343511450381,2.717557251908397,-0.014404296875,-0.0751953125,-0.612548828125,1.6931999999999998
5.0534351145038165,8.091603053435115,2.4122137404580153,-0.01611328125,-0.0751953125,-0.612060546875,1.6948999999999999
5.343511450381679,8.15267175572519,2.4732824427480917,-0.019775390625,-0.07666015625,-0.61181640625,1.6965999999999999
5.190839694656488,7.877862595419847,2.2748091603053435,-0.01953125,-0.0771484375,-0.612548828125,1.6983
4.99236641221374,7.786259541984733,2.2900763358778624,-0.0205078125,-0.075927734375,-0.610595703125,1.7
5.297709923664122,7.877862595419847,1.9541984732824427,-0.024169921875,-0.075439453125,-0.609375,1.7017
5.435114503816794,7.755725190839694,2.0610687022900764,-0.027587890625,-0.076904296875,-0.613525390625,1.7033999999999998
5.267175572519084,7.66412213740458,2.015267175572519,-0.019287109375,-0.07470703125,-0.61767578125,1.7050999999999998
5.32824427480916,7.465648854961832,1.7557251908396947,-0.023193359375,-0.07666015625,-0.63134765625,1.7067999999999999
4.885496183206107,7.435114503816794,1.6030534351145038,-0.027099609375,-0.073486328125,-0.6162109375,1.7085
4.748091603053435,7.297709923664122,1.7099236641221374,-0.026611328125,-0.078369140625,-0.620361328125,1.7102
4.9465648854961835,6.900763358778626,1.3282442748091603,-0.028076171875,-0.072021484375,-0.623046875,1.7119
4.748091603053435,7.0534351145038165,1.4351145038167938,-0.029296875,-0.070556640625,-0.6162109375,1.7136
4.67175572519084,6.8396946564885495,1.0229007633587786,-0.0283203125,-0.07666015625,-0.62890625,1.7152999999999998
4.534351145038168,6.687022900763359,1.1908396946564885,-0.0302734375,-0.072998046875,-0.6298828125,1.7169999999999999
4.366412213740458,6.3816793893129775,0.9618320610687023,-0.03369140625,-0.077880859375,-0.62451171875,1.7187
4.33587786259542,6.320610687022901,1.0534351145038168,-0.031494140625,-0.07275390625,-0.630126953125,1.7204
4.33587786259542,6.122137404580153,0.6564885496183206,-0.033447265625,-0.070556640625,-0.627685546875,1.7221
4.473282442748092,5.908396946564886,0.6106870229007634,-0.031982421875,-0.0751953125,-0.633544921875,1.7238
4.106870229007634,6.0,0.6259541984732825,-0.035888671875,-0.07470703125,-0.6279296875,1.7254999999999998
3.816793893129771,5.66412213740458,0.6412213740458015,-0.0322265625,-0.074951171875,-0.63232421875,1.7271999999999998
3.7404580152671754,5.374045801526718,0.48854961832061067,-0.0390625,-0.07568359375,-0.6240234375,1.7288999999999999
4.030534351145038,5.099236641221374,0.44274809160305345,-0.036865234375,-0.07568359375,-0.64404296875,1.7306
3.8931297709923665,5.145038167938932,0.3816793893129771,-0.040771484375,-0.07373046875,-0.63671875,1.7323
3.5877862595419847,4.977099236641221,0.5190839694656488,-0.03662109375,-0.076904296875,-0.641357421875,1.734
3.83206106870229,4.748091603053435,0.5190839694656488,-0.034912109375,-0.07568359375,-0.633056640625,1.7356999999999998
3.6946564885496183,4.67175572519084,0.549618320610687,-0.03515625,-0.08056640625,-0.636474609375,1.7373999999999998
3.4198473282442747,4.5038167938931295,0.6717557251908397,-0.0361328125,-0.080078125,-0.64013671875,1.7390999999999999
3.404580152671756,4.229007633587786,0.8702290076335878,-0.039794921875,-0.080322265625,-0.64111328125,1.7408
3.3587786259541983,4.091603053435114,0.8091603053435115,-0.038330078125,-0.082275390625,-0.646728515625,1.7425
3.4198473282442747,4.076335877862595,1.0534351145038168,-0.033203125,-0.080810546875,-0.646728515625,1.7442
3.1755725190839694,3.801526717557252,1.2061068702290076,-0.027587890625,-0.078857421875,-0.642578125,1.7459
2.9923664122137406,3.6793893129770994,1.450381679389313,-0.030029296875,-0.079345703125,-0.638671875,1.7475999999999998
2.8702290076335877,3.618320610687023,1.5114503816793894,-0.032470703125,-0.077880859375,-0.637939453125,1.7492999999999999
3.0076335877862594,3.3282442748091605,1.8625954198473282,-0.031005859375,-0.085205078125,-0.645263671875,1.751
2.3969465648854964,3.145038167938931,2.1526717557251906,-0.0322265625,-0.07958984375,-0.644287109375,1.7527
2.0916030534351147,2.8396946564885495,2.122137404580153,-0.025146484375,-0.086181640625,-0.64453125,1.7544
2.33587786259542,2.6106870229007635,2.5801526717557253,-0.024169921875,-0.085693359375,-0.64404296875,1.7561
1.83206106870229,2.2748091603053435,2.9770992366412212,-0.02734375,-0.0791015625,-0.64599609375,1.7577999999999998
1.3435114503816794,2.0763358778625953,3.3435114503816794,-0.025390625,-0.080078125,-0.6318359375,1.7594999999999998
1.1603053435114503,1.9694656488549618,3.6030534351145036,-0.024169921875,-0.08154296875,-0.634521484375,1.7611999999999999
0.9618320610687023,1.7709923664122138,3.954198473282443,-0.025634765625,-0.0810546875,-0.6328125,1.7629
0.5038167938931297,1.618320610687023,4.137404580152672,-0.017822265625,-0.083251953125,-0.62841796875,1.7646
-0.061068702290076333,1.465648854961832,4.290076335877862,-0.0244140625,-0.080078125,-0.62939453125,1.7663
-0.13740458015267176,0.916030534351145,4.473282442748092,-0.028076171875,-0.074462890625,-0.632568359375,1.7679999999999998
-0.366412213740458,1.0687022900763359,4.625954198473282,-0.021484375,-0.070068359375,-0.630615234375,1.7696999999999998
-0.8702290076335878,0.7786259541984732,4.595419847328245,-0.02099609375,-0.0751953125,-0.622802734375,1.7713999999999999
-1.2671755725190839,0.7175572519083969,4.595419847328245,-0.024169921875,-0.071533203125,-0.633544921875,1.7731
-1.5877862595419847,0.2900763358778626,4.687022900763359,-0.0224609375,-0.064208984375,-0.629150390625,1.7748
-2.213740458015267,0.22900763358778625,4.580152671755725,-0.017578125,-0.055908203125,-0.62890625,1.7765
-2.6106870229007635,0.0916030534351145,4.351145038167939,-0.022216796875,-0.05908203125,-0.629150390625,1.7782
-2.8244274809160306,-0.061068702290076333,4.229007633587786,-0.025146484375,-0.05517578125,-0.62060546875,1.7798999999999998
-2.9618320610687023,-0.32061068702290074,4.213740458015267,-0.01904296875,-0.0576171875,-0.6318359375,1.7815999999999999
-3.450381679389313,-0.5038167938931297,4.091603053435114,-0.017333984375,-0.0546875,-0.626708984375,1.7832999999999999
-3.4656488549618323,-0.5954198473282443,3.618320610687023,-0.0185546875,-0.0546875,-0.61962890625,1.785
-3.5877862595419847,-0.732824427480916,3.5267175572519083,-0.024169921875,-0.04931640625,-0.621826171875,1.7867
-3.480916030534351,-0.7633587786259542,3.480916030534351,-0.021484375,-0.0478515625,-0.622802734375,1.7884
-3.2519083969465647,-0.9923664122137404,3.0229007633587788,-0.01513671875,-0.043701171875,-0.62353515625,1.7900999999999998
-3.1908396946564888,-1.251908396946565,2.7938931297709924,-0.014892578125,-0.041748046875,-0.617431640625,1.7917999999999998
-2.687022900763359,-1.4961832061068703,2.687022900763359,-0.013671875,-0.037109375,-0.6064453125,1.7934999999999999
-2.6412213740458017,-1.5725190839694656,2.2442748091603053,-0.013671875,-0.036376953125,-0.608154296875,1.7952
-2.015267175572519,-1.5877862595419847,1.9694656488549618,-0.012939453125,-0.043701171875,-0.61279296875,1.7969
