gyrox1,gyroy1,gyroz1,accelx1,accely1,accelz1,Time
1.3740458015267176,-1.8931297709923665,-3.49618320610687,-0.440673828125,0.01611328125,-0.2421875,0.0
1.2213740458015268,-2.0,-3.618320610687023,-0.4453125,0.013916015625,-0.24267578125,0.0017
1.0076335877862594,-2.183206106870229,-3.7404580152671754,-0.44482421875,0.01318359375,-0.242431640625,0.0034
0.8091603053435115,-2.381679389312977,-4.122137404580153,-0.4501953125,0.0126953125,-0.2333984375,0.0050999999999999995
0.6106870229007634,-2.50381679389313,-4.122137404580153,-0.446044921875,0.012939453125,-0.243408203125,0.0068
0.366412213740458,-2.3053435114503817,-4.076335877862595,-0.449951171875,0.00927734375,-0.245849609375,0.008499999999999999
0.44274809160305345,-2.2595419847328246,-4.259541984732825,-0.448486328125,0.01220703125,-0.238525390625,0.010199999999999999
0.3053435114503817,-2.351145038167939,-4.396946564885496,-0.44921875,0.01416015625,-0.24169921875,0.011899999999999999
-0.3053435114503817,-2.2900763358778624,-4.2748091603053435,-0.44580078125,0.0078125,-0.236572265625,0.0136
-0.2748091603053435,-2.198473282442748,-4.519083969465649,-0.44580078125,0.01025390625,-0.23876953125,0.0153
-0.3969465648854962,-2.4427480916030535,-4.8396946564885495,-0.4482421875,0.00732421875,-0.23291015625,0.016999999999999998
-0.6106870229007634,-2.16793893129771,-4.9465648854961835,-0.44873046875,0.008544921875,-0.243408203125,0.018699999999999998
-0.9007633587786259,-2.0,-5.114503816793893,-0.44775390625,0.009521484375,-0.248291015625,0.020399999999999998
-1.1603053435114503,-2.1526717557251906,-5.511450381679389,-0.450927734375,0.004150390625,-0.247314453125,0.022099999999999998
-1.3740458015267176,-2.0610687022900764,-5.7251908396946565,-0.451171875,0.005615234375,-0.2373046875,0.023799999999999998
-1.3893129770992367,-2.1068702290076335,-5.893129770992366,-0.45458984375,0.001220703125,-0.24560546875,0.0255
-1.5114503816793894,-2.030534351145038,-6.091603053435114,-0.454833984375,0.0068359375,-0.239990234375,0.0272
-1.816793893129771,-1.816793893129771,-6.305343511450381,-0.456298828125,0.007080078125,-0.2421875,0.0289
-2.381679389312977,-1.8473282442748091,-6.549618320610687,-0.45458984375,0.003173828125,-0.237060546875,0.0306
-2.6564885496183206,-1.9389312977099236,-6.442748091603053,-0.45458984375,0.00341796875,-0.2333984375,0.032299999999999995
-2.687022900763359,-1.7251908396946565,-6.519083969465649,-0.45849609375,0.006103515625,-0.23681640625,0.033999999999999996
-3.2061068702290076,-1.5267175572519085,-6.5038167938931295,-0.459228515625,0.006591796875,-0.23486328125,0.035699999999999996
-3.7709923664122136,-1.4351145038167938,-6.305343511450381,-0.456787109375,0.009521484375,-0.24462890625,0.037399999999999996
-3.8625954198473282,-1.2213740458015268,-6.030534351145038,-0.460693359375,0.010986328125,-0.239990234375,0.039099999999999996
-4.091603053435114,-0.8396946564885496,-5.7251908396946565,-0.46435546875,0.011962890625,-0.240478515625,0.040799999999999996
-4.442748091603053,-0.3816793893129771,-5.129770992366412,-0.4619140625,0.0166015625,-0.24267578125,0.042499999999999996
-4.488549618320611,-0.183206106870229,-4.763358778625954,-0.46044921875,0.010009765625,-0.2392578125,0.044199999999999996
-4.717557251908397,0.22900763358778625,-4.0458015267175576,-0.46240234375,0.015625,-0.24267578125,0.045899999999999996
-4.763358778625954,0.3969465648854962,-3.5267175572519083,-0.46142578125,0.013671875,-0.248291015625,0.047599999999999996
-4.763358778625954,0.4732824427480916,-2.9160305343511452,-0.45849609375,0.01953125,-0.247314453125,0.0493
-4.809160305343512,0.6870229007633588,-2.6259541984732824,-0.461181640625,0.024169921875,-0.24462890625,0.051
-4.9465648854961835,1.0534351145038168,-1.9389312977099236,-0.462158203125,0.0244140625,-0.241455078125,0.0527
-4.3816793893129775,0.9618320610687023,-1.3893129770992367,-0.462890625,0.02587890625,-0.240234375,0.0544
-4.244274809160306,0.9465648854961832,-1.0229007633587786,-0.457763671875,0.029296875,-0.228271484375,0.0561
-3.969465648854962,1.0229007633587786,-1.1450381679389312,-0.459716796875,0.032470703125,-0.241455078125,0.0578
-3.404580152671756,0.9618320610687023,-0.8396946564885496,-0.459228515625,0.030029296875,-0.239013671875,0.0595
-3.282442748091603,0.8244274809160306,-0.9618320610687023,-0.458251953125,0.03662109375,-0.236083984375,0.0612
-2.6717557251908395,0.8549618320610687,-0.7175572519083969,-0.45556640625,0.038818359375,-0.23486328125,0.0629
-2.549618320610687,1.2366412213740459,-0.8244274809160306,-0.455810546875,0.03759765625,-0.239013671875,0.06459999999999999
-2.183206106870229,1.1755725190839694,-1.0687022900763359,-0.456787109375,0.033203125,-0.23388671875,0.0663
-1.633587786259542,1.2366412213740459,-1.5419847328244274,-0.452880859375,0.0341796875,-0.2412109375,0.06799999999999999
-1.3129770992366412,1.4045801526717556,-1.7404580152671756,-0.452880859375,0.032958984375,-0.23681640625,0.0697
-1.1450381679389312,1.786259541984733,-2.1526717557251906,-0.452880859375,0.033935546875,-0.23828125,0.07139999999999999
-1.0381679389312977,1.9541984732824427,-2.2442748091603053,-0.44921875,0.030517578125,-0.238525390625,0.0731
-1.0076335877862594,1.8015267175572518,-2.5801526717557253,-0.44677734375,0.031494140625,-0.24072265625,0.07479999999999999
-0.7786259541984732,1.7709923664122138,-2.900763358778626,-0.4462890625,0.026123046875,-0.23681640625,0.0765
-0.5954198473282443,1.816793893129771,-2.9923664122137406,-0.44970703125,0.02099609375,-0.23583984375,0.07819999999999999
-0.3053435114503817,1.6030534351145038,-3.2061068702290076,-0.449462890625,0.018310546875,-0.23779296875,0.0799
-0.33587786259541985,1.6030534351145038,-3.3893129770992365,-0.448974609375,0.02001953125,-0.23486328125,0.08159999999999999
-0.3816793893129771,1.3893129770992367,-3.5114503816793894,-0.44970703125,0.018310546875,-0.23486328125,0.0833
-0.3969465648854962,1.2366412213740459,-3.648854961832061,-0.45068359375,0.0205078125,-0.2392578125,0.08499999999999999
-0.3969465648854962,1.4961832061068703,-3.3587786259541983,-0.4482421875,0.017822265625,-0.232666015625,0.0867
-0.549618320610687,1.5725190839694656,-3.5419847328244276,-0.453125,0.016357421875,-0.23583984375,0.08839999999999999
-0.33587786259541985,1.8931297709923665,-3.450381679389313,-0.451171875,0.0146484375,-0.23974609375,0.0901
-0.2595419847328244,1.465648854961832,-3.404580152671756,-0.45068359375,0.018310546875,-0.24267578125,0.09179999999999999
-0.42748091603053434,1.4809160305343512,-3.4656488549618323,-0.4501953125,0.02001953125,-0.23828125,0.0935
-0.44274809160305345,1.7404580152671756,-3.0839694656488548,-0.451904296875,0.018310546875,-0.236083984375,0.09519999999999999
-0.4580152671755725,1.6946564885496183,-2.885496183206107,-0.455810546875,0.018310546875,-0.241455078125,0.0969
-0.12213740458015267,2.015267175572519,-2.9618320610687023,-0.44970703125,0.018798828125,-0.24267578125,0.0986
-0.2748091603053435,1.786259541984733,-2.7938931297709924,-0.45068359375,0.02099609375,-0.246337890625,0.1003
-0.21374045801526717,1.9083969465648856,-2.5801526717557253,-0.4482421875,0.019775390625,-0.230224609375,0.102
-0.1984732824427481,2.0916030534351147,-2.4580152671755724,-0.449951171875,0.021728515625,-0.239990234375,0.1037
-0.22900763358778625,2.351145038167939,-2.4885496183206106,-0.4482421875,0.01806640625,-0.23388671875,0.1054
-0.22900763358778625,1.9541984732824427,-1.9083969465648856,-0.447265625,0.022216796875,-0.233154296875,0.1071
-0.2748091603053435,1.8931297709923665,-1.9236641221374047,-0.446044921875,0.021728515625,-0.23779296875,0.1088
-0.2595419847328244,2.045801526717557,-1.7404580152671756,-0.445556640625,0.0185546875,-0.239013671875,0.11049999999999999
-0.16793893129770993,1.8778625954198473,-1.618320610687023,-0.446044921875,0.021240234375,-0.242431640625,0.1122
-0.2900763358778626,1.9236641221374047,-1.1755725190839694,-0.444580078125,0.01220703125,-0.24462890625,0.11389999999999999
-0.07633587786259542,1.633587786259542,-1.083969465648855,-0.447998046875,0.01318359375,-0.24462890625,0.1156
0.030534351145038167,1.5114503816793894,-0.9312977099236641,-0.4423828125,0.0205078125,-0.237060546875,0.11729999999999999
-0.015267175572519083,1.3740458015267176,-0.8854961832061069,-0.447509765625,0.01953125,-0.234619140625,0.119
0.04580152671755725,1.4198473282442747,-0.6870229007633588,-0.4443359375,0.023681640625,-0.239501953125,0.12069999999999999
0.183206106870229,1.282442748091603,-0.6412213740458015,-0.4453125,0.01953125,-0.2392578125,0.1224
0.3969465648854962,1.0687022900763359,-0.6717557251908397,-0.446044921875,0.02001953125,-0.2421875,0.12409999999999999
0.6259541984732825,1.099236641221374,-0.8854961832061069,-0.448486328125,0.023193359375,-0.246826171875,0.1258
0.8091603053435115,0.5648854961832062,-0.7938931297709924,-0.45703125,0.02294921875,-0.247802734375,0.1275
0.6717557251908397,-0.04580152671755725,-1.1450381679389312,-0.46484375,0.02734375,-0.240966796875,0.12919999999999998
0.7938931297709924,-0.9007633587786259,-1.0229007633587786,-0.47412109375,0.025634765625,-0.2333984375,0.1309
1.3740458015267176,-1.0076335877862594,-0.5648854961832062,-0.46728515625,0.02880859375,-0.238037109375,0.1326
1.3893129770992367,0.3969465648854962,0.030534351145038167,-0.468505859375,0.0263671875,-0.23974609375,0.1343
1.083969465648855,2.33587786259542,-0.183206106870229,-0.46630859375,0.0234375,-0.250244140625,0.13599999999999998
0.9618320610687023,4.106870229007634,-0.2748091603053435,-0.466796875,0.01708984375,-0.253173828125,0.1377
1.083969465648855,4.870229007633588,-0.6717557251908397,-0.467529296875,0.012939453125,-0.24169921875,0.1394
1.083969465648855,5.099236641221374,-1.251908396946565,-0.470458984375,0.01171875,-0.23681640625,0.1411
1.0229007633587786,5.572519083969466,-1.8625954198473282,-0.462890625,0.01220703125,-0.23095703125,0.14279999999999998
0.916030534351145,5.786259541984733,-2.1526717557251906,-0.454833984375,0.013916015625,-0.225341796875,0.1445
0.6259541984732825,6.076335877862595,-2.50381679389313,-0.451171875,0.012939453125,-0.238037109375,0.1462
0.32061068702290074,6.091603053435114,-2.3969465648854964,-0.442626953125,0.018310546875,-0.23974609375,0.1479
0.10687022900763359,6.0,-2.381679389312977,-0.437255859375,0.0166015625,-0.240234375,0.14959999999999998
0.0916030534351145,5.6183206106870225,-2.198473282442748,-0.43994140625,0.01171875,-0.23583984375,0.1513
-0.10687022900763359,5.022900763358779,-2.045801526717557,-0.43408203125,0.012451171875,-0.234130859375,0.153
-0.3969465648854962,4.3816793893129775,-1.5267175572519085,-0.433349609375,0.012451171875,-0.23974609375,0.1547
-0.12213740458015267,3.7251908396946565,-1.3893129770992367,-0.4248046875,0.010986328125,-0.24072265625,0.15639999999999998
-0.32061068702290074,3.1603053435114505,-1.1297709923664123,-0.431640625,0.014892578125,-0.24267578125,0.1581
0.04580152671755725,2.2290076335877864,-0.9618320610687023,-0.42626953125,0.012939453125,-0.241943359375,0.1598
0.0,1.3435114503816794,-0.916030534351145,-0.427001953125,0.017578125,-0.245849609375,0.1615
0.22900763358778625,0.6564885496183206,-0.6564885496183206,-0.429443359375,0.023681640625,-0.23876953125,0.16319999999999998
0.2900763358778626,0.07633587786259542,-0.7175572519083969,-0.433349609375,0.02197265625,-0.24072265625,0.1649
0.24427480916030533,-0.21374045801526717,-0.8244274809160306,-0.434814453125,0.02001953125,-0.240234375,0.1666
0.6717557251908397,-0.8244274809160306,-0.8549618320610687,-0.441650390625,0.028076171875,-0.242919921875,0.16829999999999998
0.7022900763358778,-1.1755725190839694,-0.9312977099236641,-0.447021484375,0.02294921875,-0.243408203125,0.16999999999999998
0.9465648854961832,-1.4351145038167938,-0.9465648854961832,-0.44873046875,0.026123046875,-0.25048828125,0.1717
0.8549618320610687,-1.3282442748091603,-0.9618320610687023,-0.44970703125,0.027587890625,-0.2392578125,0.1734
1.1908396946564885,-1.1297709923664123,-0.9923664122137404,-0.452880859375,0.0341796875,-0.252685546875,0.17509999999999998
1.5267175572519085,-1.1755725190839694,-0.9007633587786259,-0.4521484375,0.02587890625,-0.24853515625,0.17679999999999998
1.3435114503816794,-1.1145038167938932,-0.6870229007633588,-0.45703125,0.024169921875,-0.2431640625,0.1785
1.4045801526717556,-0.9312977099236641,-0.8396946564885496,-0.462890625,0.024169921875,-0.243408203125,0.1802
1.83206106870229,-0.4732824427480916,-1.0076335877862594,-0.45849609375,0.025390625,-0.244384765625,0.18189999999999998
1.618320610687023,-0.32061068702290074,-1.1145038167938932,-0.45849609375,0.021484375,-0.238037109375,0.18359999999999999
1.7557251908396947,-0.061068702290076333,-1.251908396946565,-0.4609375,0.01953125,-0.2412109375,0.1853
1.6030534351145038,0.3053435114503817,-1.297709923664122,-0.45654296875,0.02197265625,-0.242431640625,0.187
1.4351145038167938,0.6870229007633588,-1.2366412213740459,-0.460693359375,0.0244140625,-0.23876953125,0.18869999999999998
1.786259541984733,0.9770992366412213,-1.0229007633587786,-0.46240234375,0.02490234375,-0.240234375,0.19039999999999999
1.633587786259542,1.1755725190839694,-1.1755725190839694,-0.45166015625,0.021484375,-0.242431640625,0.1921
1.6641221374045803,1.282442748091603,-1.0076335877862594,-0.453125,0.024169921875,-0.243408203125,0.1938
1.8931297709923665,1.4809160305343512,-0.8549618320610687,-0.451416015625,0.025390625,-0.235595703125,0.19549999999999998
1.786259541984733,1.2061068702290076,-0.8091603053435115,-0.450927734375,0.0166015625,-0.24267578125,0.1972
1.6488549618320612,1.450381679389313,-1.0534351145038168,-0.447998046875,0.01953125,-0.237548828125,0.1989
1.83206106870229,1.3740458015267176,-1.0381679389312977,-0.451171875,0.016845703125,-0.238037109375,0.2006
1.9694656488549618,1.3129770992366412,-0.7786259541984732,-0.45361328125,0.02197265625,-0.2421875,0.20229999999999998
2.015267175572519,0.9618320610687023,-0.732824427480916,-0.453125,0.02001953125,-0.2421875,0.204
2.16793893129771,1.0687022900763359,-0.8396946564885496,-0.4501953125,0.02197265625,-0.236083984375,0.2057
2.045801526717557,0.9312977099236641,-0.6412213740458015,-0.444091796875,0.0234375,-0.23876953125,0.2074
2.16793893129771,0.7022900763358778,-0.8396946564885496,-0.448974609375,0.01806640625,-0.23095703125,0.20909999999999998
2.366412213740458,0.5801526717557252,-0.7938931297709924,-0.44677734375,0.019287109375,-0.23974609375,0.2108
2.213740458015267,0.44274809160305345,-0.8702290076335878,-0.45166015625,0.02001953125,-0.237060546875,0.2125
2.1374045801526718,0.549618320610687,-0.7633587786259542,-0.447998046875,0.020263671875,-0.236083984375,0.2142
2.381679389312977,0.549618320610687,-1.2671755725190839,-0.445556640625,0.021484375,-0.239013671875,0.21589999999999998
2.5801526717557253,0.6259541984732825,-1.0076335877862594,-0.448486328125,0.019287109375,-0.2392578125,0.2176
2.183206106870229,0.549618320610687,-1.1145038167938932,-0.452880859375,0.0234375,-0.241943359375,0.2193
2.6412213740458017,0.33587786259541985,-1.099236641221374,-0.451171875,0.021728515625,-0.239990234375,0.22099999999999997
2.427480916030534,0.4732824427480916,-1.2213740458015268,-0.448974609375,0.017578125,-0.244140625,0.22269999999999998
2.549618320610687,0.366412213740458,-1.1603053435114503,-0.449951171875,0.021240234375,-0.232177734375,0.2244
2.381679389312977,0.549618320610687,-1.1755725190839694,-0.451904296875,0.02099609375,-0.234375,0.2261
2.5801526717557253,0.7480916030534351,-1.251908396946565,-0.449951171875,0.027587890625,-0.233642578125,0.22779999999999997
2.427480916030534,0.9007633587786259,-1.4809160305343512,-0.4541015625,0.021728515625,-0.2470703125,0.22949999999999998
2.4885496183206106,0.9618320610687023,-1.083969465648855,-0.4423828125,0.019775390625,-0.242431640625,0.2312
2.564885496183206,0.7480916030534351,-1.3282442748091603,-0.446044921875,0.0205078125,-0.243408203125,0.2329
2.732824427480916,0.5038167938931297,-1.3129770992366412,-0.448974609375,0.018310546875,-0.2421875,0.23459999999999998
2.381679389312977,0.7786259541984732,-1.5267175572519085,-0.448486328125,0.0205078125,-0.241943359375,0.23629999999999998
2.4885496183206106,0.7480916030534351,-1.6793893129770991,-0.445068359375,0.0234375,-0.24169921875,0.238
2.4427480916030535,0.8854961832061069,-1.786259541984733,-0.444580078125,0.0146484375,-0.2333984375,0.2397
2.2900763358778624,0.916030534351145,-1.6488549618320612,-0.441650390625,0.017333984375,-0.236083984375,0.24139999999999998
2.213740458015267,0.9465648854961832,-1.816793893129771,-0.44384765625,0.021728515625,-0.239013671875,0.24309999999999998
2.16793893129771,0.732824427480916,-1.618320610687023,-0.447265625,0.018798828125,-0.23681640625,0.2448
2.198473282442748,1.1297709923664123,-1.786259541984733,-0.447509765625,0.018310546875,-0.23876953125,0.2465
2.015267175572519,1.0229007633587786,-1.7251908396946565,-0.44384765625,0.01513671875,-0.23974609375,0.24819999999999998
1.7709923664122138,0.9923664122137404,-1.5877862595419847,-0.449462890625,0.01904296875,-0.235595703125,0.24989999999999998
1.8625954198473282,1.1755725190839694,-1.282442748091603,-0.447021484375,0.014892578125,-0.24560546875,0.2516
1.6641221374045803,1.4961832061068703,-1.1450381679389312,-0.44921875,0.023193359375,-0.243896484375,0.25329999999999997
1.7099236641221374,1.3740458015267176,-0.9007633587786259,-0.45263671875,0.02294921875,-0.238525390625,0.255
1.7251908396946565,0.9923664122137404,-0.6564885496183206,-0.4482421875,0.018310546875,-0.242431640625,0.2567
1.8015267175572518,0.732824427480916,-0.8549618320610687,-0.447509765625,0.01513671875,-0.238525390625,0.25839999999999996
1.633587786259542,0.7938931297709924,-1.2213740458015268,-0.4521484375,0.013671875,-0.244140625,0.2601
1.7099236641221374,0.7175572519083969,-1.3129770992366412,-0.447265625,0.021728515625,-0.23779296875,0.2618
1.6793893129770991,0.9465648854961832,-1.5725190839694656,-0.450439453125,0.020751953125,-0.241455078125,0.2635
1.6793893129770991,0.8244274809160306,-1.3129770992366412,-0.45068359375,0.018798828125,-0.24072265625,0.2652
1.6030534351145038,1.099236641221374,-1.618320610687023,-0.44970703125,0.0234375,-0.2294921875,0.26689999999999997
1.3282442748091603,1.1908396946564885,-1.633587786259542,-0.45166015625,0.020751953125,-0.232666015625,0.2686
1.251908396946565,1.3435114503816794,-1.8015267175572518,-0.44970703125,0.01318359375,-0.240234375,0.2703
1.3740458015267176,1.465648854961832,-1.5572519083969465,-0.453369140625,0.015869140625,-0.24072265625,0.27199999999999996
1.0381679389312977,1.4351145038167938,-1.9541984732824427,-0.449951171875,0.017578125,-0.25,0.2737
0.8396946564885496,1.5267175572519085,-1.8931297709923665,-0.456298828125,0.012939453125,-0.24951171875,0.2754
0.5801526717557252,1.5267175572519085,-1.5877862595419847,-0.453857421875,0.01171875,-0.24169921875,0.27709999999999996
0.5648854961832062,1.7099236641221374,-1.3435114503816794,-0.4482421875,0.010986328125,-0.2412109375,0.2788
0.42748091603053434,1.7404580152671756,-1.5572519083969465,-0.4521484375,0.01220703125,-0.24169921875,0.28049999999999997
0.4122137404580153,1.5572519083969465,-1.2366412213740459,-0.451904296875,0.01708984375,-0.24560546875,0.2822
0.1984732824427481,1.8015267175572518,-1.2366412213740459,-0.450439453125,0.012451171875,-0.24169921875,0.2839
0.0916030534351145,1.9083969465648856,-1.1755725190839694,-0.452392578125,0.01611328125,-0.239990234375,0.28559999999999997
0.0916030534351145,1.984732824427481,-1.099236641221374,-0.454345703125,0.01953125,-0.23876953125,0.2873
0.04580152671755725,2.0763358778625953,-0.9465648854961832,-0.450927734375,0.015380859375,-0.240966796875,0.289
0.030534351145038167,2.1068702290076335,-1.0229007633587786,-0.451904296875,0.017333984375,-0.240478515625,0.29069999999999996
-0.2748091603053435,2.0916030534351147,-1.083969465648855,-0.45263671875,0.01708984375,-0.23388671875,0.2924
-0.22900763358778625,2.030534351145038,-1.2366412213740459,-0.4560546875,0.0146484375,-0.23828125,0.2941
0.04580152671755725,2.2442748091603053,-1.1450381679389312,-0.452880859375,0.017822265625,-0.241455078125,0.2958
-0.1984732824427481,2.183206106870229,-1.1145038167938932,-0.450927734375,0.022216796875,-0.24072265625,0.2975
-0.1984732824427481,2.2595419847328246,-1.0229007633587786,-0.450927734375,0.020263671875,-0.241455078125,0.29919999999999997
0.12213740458015267,2.0916030534351147,-0.9618320610687023,-0.45068359375,0.02294921875,-0.2431640625,0.3009
-0.1984732824427481,2.1526717557251906,-0.8702290076335878,-0.449462890625,0.0205078125,-0.23388671875,0.3026
-0.0916030534351145,2.183206106870229,-1.0534351145038168,-0.448486328125,0.02197265625,-0.237060546875,0.30429999999999996
-0.030534351145038167,2.0610687022900764,-0.9007633587786259,-0.44970703125,0.02294921875,-0.23974609375,0.306
-0.07633587786259542,2.0916030534351147,-0.21374045801526717,-0.45458984375,0.027099609375,-0.23828125,0.3077
-0.030534351145038167,2.183206106870229,-0.33587786259541985,-0.447021484375,0.021240234375,-0.247314453125,0.3094
0.12213740458015267,2.1068702290076335,-0.3816793893129771,-0.44873046875,0.02587890625,-0.23974609375,0.3111
0.2748091603053435,2.2290076335877864,-0.2595419847328244,-0.453369140625,0.021728515625,-0.24853515625,0.31279999999999997
0.2595419847328244,2.4427480916030535,-0.732824427480916,-0.45263671875,0.017822265625,-0.23876953125,0.3145
0.16793893129770993,2.4580152671755724,-1.099236641221374,-0.4560546875,0.024169921875,-0.24951171875,0.3162
0.22900763358778625,2.519083969465649,-0.9923664122137404,-0.445068359375,0.025634765625,-0.244140625,0.31789999999999996
-0.015267175572519083,2.687022900763359,-1.0381679389312977,-0.44775390625,0.021240234375,-0.2470703125,0.3196
0.3969465648854962,2.6717557251908395,-1.0229007633587786,-0.45263671875,0.01806640625,-0.24072265625,0.3213
0.3816793893129771,2.7938931297709924,-1.251908396946565,-0.451904296875,0.02001953125,-0.23876953125,0.323
0.2900763358778626,2.7480916030534353,-1.3435114503816794,-0.450439453125,0.0205078125,-0.240966796875,0.3247
0.1984732824427481,2.4580152671755724,-1.282442748091603,-0.44921875,0.01220703125,-0.238037109375,0.32639999999999997
0.2900763358778626,2.6412213740458017,-1.3435114503816794,-0.447265625,0.010009765625,-0.237060546875,0.3281
0.22900763358778625,2.3969465648854964,-1.4809160305343512,-0.453369140625,0.017333984375,-0.235595703125,0.3298
0.10687022900763359,2.1068702290076335,-1.3740458015267176,-0.448974609375,0.0166015625,-0.240234375,0.33149999999999996
0.061068702290076333,2.2595419847328246,-1.4045801526717556,-0.4453125,0.0166015625,-0.24072265625,0.3332
0.061068702290076333,2.351145038167939,-1.3435114503816794,-0.445068359375,0.0126953125,-0.237548828125,0.3349
0.030534351145038167,2.3053435114503817,-1.5419847328244274,-0.444091796875,0.011474609375,-0.237548828125,0.33659999999999995
-0.2900763358778626,2.2595419847328246,-1.618320610687023,-0.44580078125,0.01171875,-0.2392578125,0.3383
-0.2900763358778626,2.1374045801526718,-1.5572519083969465,-0.448486328125,0.017578125,-0.239990234375,0.33999999999999997
-0.16793893129770993,2.0610687022900764,-1.4961832061068703,-0.447021484375,0.013916015625,-0.235107421875,0.3417
-0.48854961832061067,1.7709923664122138,-1.5725190839694656,-0.43994140625,0.01611328125,-0.237548828125,0.3434
-0.732824427480916,1.3740458015267176,-1.2671755725190839,-0.4443359375,0.018310546875,-0.2431640625,0.34509999999999996
-0.5648854961832062,1.297709923664122,-0.7938931297709924,-0.439453125,0.01904296875,-0.235595703125,0.3468
-0.48854961832061067,1.3129770992366412,-0.5954198473282443,-0.4423828125,0.017578125,-0.25,0.3485
-0.6412213740458015,1.2213740458015268,-0.8549618320610687,-0.443115234375,0.016357421875,-0.24560546875,0.35019999999999996
-0.5343511450381679,0.9007633587786259,-0.5343511450381679,-0.445068359375,0.017333984375,-0.23828125,0.3519
-0.3511450381679389,0.7175572519083969,-1.1297709923664123,-0.441162109375,0.01611328125,-0.248779296875,0.35359999999999997
-0.366412213740458,0.5343511450381679,-1.1450381679389312,-0.443115234375,0.020263671875,-0.2451171875,0.3553
-0.2900763358778626,0.5190839694656488,-1.4351145038167938,-0.45068359375,0.0126953125,-0.24755859375,0.357
-0.44274809160305345,0.32061068702290074,-1.465648854961832,-0.44775390625,0.016357421875,-0.23974609375,0.35869999999999996
-0.5343511450381679,0.12213740458015267,-1.7099236641221374,-0.44677734375,0.019775390625,-0.24462890625,0.3604
-0.6106870229007634,-0.07633587786259542,-1.6641221374045803,-0.44677734375,0.022216796875,-0.239013671875,0.3621
-0.549618320610687,-0.061068702290076333,-1.5725190839694656,-0.4443359375,0.01953125,-0.243896484375,0.36379999999999996
-0.5038167938931297,0.32061068702290074,-1.7251908396946565,-0.448486328125,0.016357421875,-0.24609375,0.3655
-0.4122137404580153,-0.030534351145038167,-1.5419847328244274,-0.45361328125,0.0244140625,-0.241943359375,0.36719999999999997
-0.6564885496183206,-0.13740458015267176,-1.1450381679389312,-0.45361328125,0.021484375,-0.232421875,0.3689
-0.9007633587786259,-0.10687022900763359,-0.9465648854961832,-0.449462890625,0.016845703125,-0.24072265625,0.3706
-0.549618320610687,-0.12213740458015267,-0.9007633587786259,-0.452392578125,0.012939453125,-0.239501953125,0.37229999999999996
-0.44274809160305345,0.030534351145038167,-0.7938931297709924,-0.451904296875,0.0166015625,-0.239501953125,0.374
-0.4580152671755725,0.04580152671755725,-0.7633587786259542,-0.447998046875,0.018310546875,-0.232666015625,0.3757
-0.44274809160305345,-0.030534351145038167,-1.2366412213740459,-0.44873046875,0.016845703125,-0.240478515625,0.37739999999999996
-0.42748091603053434,0.2748091603053435,-1.3129770992366412,-0.448974609375,0.01708984375,-0.235595703125,0.3791
-0.3053435114503817,0.0916030534351145,-1.8015267175572518,-0.44921875,0.0166015625,-0.238525390625,0.38079999999999997
-0.3816793893129771,0.22900763358778625,-1.984732824427481,-0.45068359375,0.016357421875,-0.23974609375,0.38249999999999995
-0.5954198473282443,0.030534351145038167,-2.213740458015267,-0.45068359375,0.01611328125,-0.2314453125,0.3842
-0.6717557251908397,0.0,-2.0610687022900764,-0.449462890625,0.020751953125,-0.239990234375,0.38589999999999997
-0.5954198473282443,-0.04580152671755725,-2.366412213740458,-0.44677734375,0.015625,-0.243408203125,0.3876
-0.6106870229007634,-0.3511450381679389,-2.381679389312977,-0.450439453125,0.014892578125,-0.240234375,0.3893
-0.8396946564885496,-0.1984732824427481,-2.2442748091603053,-0.450439453125,0.012451171875,-0.238525390625,0.39099999999999996
-0.6564885496183206,-0.1984732824427481,-2.0,-0.450927734375,0.012939453125,-0.2275390625,0.3927
-0.5954198473282443,-0.10687022900763359,-2.0610687022900764,-0.449462890625,0.017578125,-0.23876953125,0.3944
-0.8854961832061069,-0.07633587786259542,-1.7404580152671756,-0.447998046875,0.017578125,-0.241455078125,0.39609999999999995
-0.7938931297709924,-0.2748091603053435,-1.7557251908396947,-0.45263671875,0.018798828125,-0.22802734375,0.3978
-0.5954198473282443,-0.061068702290076333,-1.3740458015267176,-0.4501953125,0.019775390625,-0.23291015625,0.39949999999999997
-0.5801526717557252,-0.015267175572519083,-1.083969465648855,-0.45458984375,0.02587890625,-0.23876953125,0.4012
-0.732824427480916,0.3816793893129771,-1.1145038167938932,-0.449462890625,0.021484375,-0.241943359375,0.4029
-0.7022900763358778,0.2748091603053435,-1.083969465648855,-0.450439453125,0.0283203125,-0.248779296875,0.40459999999999996
-0.549618320610687,0.2748091603053435,-0.916030534351145,-0.457275390625,0.026611328125,-0.238037109375,0.4063
-0.6259541984732825,0.2900763358778626,-0.7786259541984732,-0.453857421875,0.022216796875,-0.234375,0.408
-0.5038167938931297,0.4122137404580153,-1.0229007633587786,-0.451171875,0.024658203125,-0.234619140625,0.40969999999999995
-0.3816793893129771,0.1984732824427481,-1.083969465648855,-0.449462890625,0.025390625,-0.23486328125,0.4114
-0.22900763358778625,0.3511450381679389,-1.0534351145038168,-0.453125,0.023193359375,-0.231201171875,0.41309999999999997
-0.10687022900763359,0.33587786259541985,-1.1145038167938932,-0.455322265625,0.02783203125,-0.228515625,0.4148
0.061068702290076333,0.061068702290076333,-1.1603053435114503,-0.450927734375,0.02392578125,-0.231201171875,0.4165
0.0916030534351145,0.1984732824427481,-1.1755725190839694,-0.449462890625,0.01953125,-0.236083984375,0.41819999999999996
-0.13740458015267176,0.22900763358778625,-1.1755725190839694,-0.44873046875,0.022705078125,-0.23046875,0.4199
-0.0916030534351145,0.2900763358778626,-1.3129770992366412,-0.4541015625,0.02685546875,-0.2392578125,0.4216
0.24427480916030533,0.16793893129770993,-1.1145038167938932,-0.45654296875,0.023193359375,-0.23486328125,0.42329999999999995
0.22900763358778625,0.2900763358778626,-1.2671755725190839,-0.451171875,0.0205078125,-0.246826171875,0.425
0.2595419847328244,0.2595419847328244,-1.1145038167938932,-0.450439453125,0.0244140625,-0.2412109375,0.42669999999999997
0.366412213740458,0.3816793893129771,-1.251908396946565,-0.44921875,0.02294921875,-0.2333984375,0.4284
0.32061068702290074,0.4580152671755725,-1.297709923664122,-0.452880859375,0.02099609375,-0.24072265625,0.4301
0.549618320610687,0.7480916030534351,-1.1145038167938932,-0.454833984375,0.015625,-0.23876953125,0.43179999999999996
0.48854961832061067,0.5190839694656488,-1.0687022900763359,-0.45556640625,0.0205078125,-0.236083984375,0.4335
0.3816793893129771,0.7938931297709924,-1.3893129770992367,-0.451416015625,0.0244140625,-0.23876953125,0.4352
0.2900763358778626,0.8702290076335878,-1.1603053435114503,-0.45361328125,0.02490234375,-0.23583984375,0.43689999999999996
0.6564885496183206,0.916030534351145,-1.1603053435114503,-0.4501953125,0.024658203125,-0.23486328125,0.4386
0.5343511450381679,0.9312977099236641,-1.2213740458015268,-0.446533203125,0.023193359375,-0.226318359375,0.44029999999999997
0.4122137404580153,1.0381679389312977,-1.1145038167938932,-0.44921875,0.025146484375,-0.23583984375,0.44199999999999995
0.732824427480916,0.9465648854961832,-1.1908396946564885,-0.452392578125,0.023681640625,-0.231689453125,0.4437
0.7633587786259542,1.1450381679389312,-1.1450381679389312,-0.452392578125,0.0234375,-0.24365234375,0.44539999999999996
0.8091603053435115,1.0534351145038168,-1.083969465648855,-0.450927734375,0.02392578125,-0.24072265625,0.4471
0.8396946564885496,1.1603053435114503,-1.0076335877862594,-0.451904296875,0.0234375,-0.238525390625,0.4488
1.1908396946564885,0.916030534351145,-1.083969465648855,-0.45263671875,0.0224609375,-0.235107421875,0.45049999999999996
0.8854961832061069,0.9007633587786259,-0.9923664122137404,-0.447265625,0.028076171875,-0.236572265625,0.4522
1.1908396946564885,0.7786259541984732,-1.0229007633587786,-0.450439453125,0.023681640625,-0.244140625,0.45389999999999997
1.1755725190839694,0.8244274809160306,-0.7938931297709924,-0.453125,0.02783203125,-0.24169921875,0.45559999999999995
1.3129770992366412,0.9770992366412213,-0.9618320610687023,-0.455322265625,0.0244140625,-0.228515625,0.4573
1.465648854961832,0.9312977099236641,-0.6106870229007634,-0.452392578125,0.024658203125,-0.23974609375,0.45899999999999996
1.1450381679389312,0.9465648854961832,-0.6106870229007634,-0.456787109375,0.018310546875,-0.24072265625,0.4607
1.1297709923664123,1.0076335877862594,-0.7480916030534351,-0.454345703125,0.02001953125,-0.233154296875,0.4624
1.465648854961832,1.0229007633587786,-0.8091603053435115,-0.455322265625,0.02001953125,-0.234130859375,0.46409999999999996
1.3282442748091603,1.0229007633587786,-0.8549618320610687,-0.460205078125,0.019775390625,-0.236328125,0.4658
1.1603053435114503,1.1908396946564885,-0.7938931297709924,-0.458984375,0.015625,-0.239501953125,0.46749999999999997
1.2061068702290076,1.4045801526717556,-0.5343511450381679,-0.453857421875,0.01953125,-0.239501953125,0.46919999999999995
1.4809160305343512,1.5114503816793894,-0.44274809160305345,-0.45263671875,0.025390625,-0.235107421875,0.4709
1.4809160305343512,1.450381679389313,-0.6412213740458015,-0.452880859375,0.023193359375,-0.24267578125,0.47259999999999996
1.6030534351145038,1.3893129770992367,-0.8091603053435115,-0.451171875,0.021484375,-0.2314453125,0.4743
1.6793893129770991,1.5572519083969465,-0.732824427480916,-0.450439453125,0.020751953125,-0.240234375,0.476
1.450381679389313,1.8015267175572518,-0.7480916030534351,-0.44970703125,0.02001953125,-0.2431640625,0.47769999999999996
1.3129770992366412,1.5267175572519085,-0.6412213740458015,-0.450927734375,0.022705078125,-0.24609375,0.4794
1.4198473282442747,1.5114503816793894,-0.8854961832061069,-0.449462890625,0.020751953125,-0.23388671875,0.48109999999999997
1.4351145038167938,1.3282442748091603,-0.7786259541984732,-0.453369140625,0.015869140625,-0.234375,0.48279999999999995
1.2213740458015268,1.4045801526717556,-0.6564885496183206,-0.45068359375,0.014892578125,-0.239501953125,0.4845
1.2671755725190839,1.450381679389313,-0.732824427480916,-0.450927734375,0.017333984375,-0.2392578125,0.48619999999999997
1.3587786259541985,1.450381679389313,-0.732824427480916,-0.45361328125,0.017822265625,-0.235107421875,0.4879
1.1908396946564885,1.618320610687023,-0.6106870229007634,-0.452392578125,0.017333984375,-0.247314453125,0.4896
1.0381679389312977,1.9389312977099236,-0.5801526717557252,-0.453125,0.021484375,-0.242919921875,0.49129999999999996
1.0381679389312977,1.7404580152671756,-0.2748091603053435,-0.450439453125,0.018798828125,-0.237548828125,0.493
0.9312977099236641,1.984732824427481,-0.4732824427480916,-0.45263671875,0.016357421875,-0.2421875,0.4947
1.0534351145038168,2.045801526717557,-0.4122137404580153,-0.451904296875,0.016357421875,-0.2412109375,0.49639999999999995
1.0687022900763359,2.030534351145038,-0.48854961832061067,-0.4521484375,0.01904296875,-0.2431640625,0.4981
1.0381679389312977,2.030534351145038,-0.3969465648854962,-0.448486328125,0.02001953125,-0.239990234375,0.49979999999999997
0.9312977099236641,2.213740458015267,-0.4580152671755725,-0.45458984375,0.020751953125,-0.242919921875,0.5015
1.0534351145038168,2.2900763358778624,-0.2748091603053435,-0.45263671875,0.0234375,-0.24658203125,0.5032
0.8702290076335878,2.2900763358778624,-0.5343511450381679,-0.45361328125,0.019775390625,-0.238525390625,0.5049
1.1145038167938932,2.381679389312977,-0.4580152671755725,-0.447998046875,0.019775390625,-0.23974609375,0.5065999999999999
0.916030534351145,2.5801526717557253,-0.6106870229007634,-0.453369140625,0.01611328125,-0.239013671875,0.5083
0.9465648854961832,2.6106870229007635,-0.6259541984732825,-0.44873046875,0.0244140625,-0.22900390625,0.51
0.6564885496183206,2.9160305343511452,-0.44274809160305345,-0.45068359375,0.026611328125,-0.23876953125,0.5116999999999999
0.6412213740458015,2.7022900763358777,-0.3511450381679389,-0.448974609375,0.01806640625,-0.239501953125,0.5134
0.7786259541984732,2.717557251908397,-0.48854961832061067,-0.453125,0.021484375,-0.23779296875,0.5151
0.8702290076335878,2.854961832061069,-0.5343511450381679,-0.45166015625,0.0234375,-0.24462890625,0.5167999999999999
0.8549618320610687,2.931297709923664,-0.4732824427480916,-0.452880859375,0.025146484375,-0.24853515625,0.5185
0.4122137404580153,2.6412213740458017,-0.3816793893129771,-0.444580078125,0.0234375,-0.236572265625,0.5202
0.7938931297709924,2.7938931297709924,-0.48854961832061067,-0.4501953125,0.022705078125,-0.2451171875,0.5218999999999999
0.8854961832061069,2.687022900763359,-0.5648854961832062,-0.446044921875,0.022216796875,-0.2431640625,0.5236
0.6564885496183206,2.717557251908397,-0.6717557251908397,-0.44580078125,0.014404296875,-0.22900390625,0.5253
0.7786259541984732,2.4122137404580153,-0.6564885496183206,-0.44677734375,0.0224609375,-0.237060546875,0.527
0.732824427480916,2.4580152671755724,-0.8091603053435115,-0.4453125,0.01953125,-0.24609375,0.5287
0.5038167938931297,2.3969465648854964,-0.7786259541984732,-0.4462890625,0.0224609375,-0.239501953125,0.5304
0.6259541984732825,2.2900763358778624,-0.9770992366412213,-0.449951171875,0.024169921875,-0.243896484375,0.5321
0.7633587786259542,2.045801526717557,-0.916030534351145,-0.45263671875,0.0234375,-0.248046875,0.5337999999999999
0.7786259541984732,2.1068702290076335,-0.9007633587786259,-0.445556640625,0.022216796875,-0.23779296875,0.5355
0.916030534351145,2.183206106870229,-1.0534351145038168,-0.446533203125,0.0205078125,-0.240966796875,0.5372
0.9618320610687023,2.0763358778625953,-1.2061068702290076,-0.447021484375,0.023193359375,-0.236083984375,0.5388999999999999
0.8396946564885496,1.6946564885496183,-1.1908396946564885,-0.444580078125,0.021484375,-0.251220703125,0.5406
0.6259541984732825,2.0,-1.2366412213740459,-0.450439453125,0.023193359375,-0.2294921875,0.5423
0.7175572519083969,1.7557251908396947,-1.3435114503816794,-0.44091796875,0.020751953125,-0.236328125,0.5439999999999999
0.8396946564885496,1.7709923664122138,-1.450381679389313,-0.444091796875,0.0263671875,-0.24267578125,0.5457
0.7938931297709924,1.8015267175572518,-1.251908396946565,-0.451904296875,0.023681640625,-0.240234375,0.5474
0.6564885496183206,1.7557251908396947,-1.3893129770992367,-0.447265625,0.0205078125,-0.237060546875,0.5490999999999999
0.6259541984732825,1.7404580152671756,-1.2213740458015268,-0.450927734375,0.0185546875,-0.24462890625,0.5508
0.6717557251908397,1.6030534351145038,-1.1908396946564885,-0.4521484375,0.024658203125,-0.241943359375,0.5525
0.7022900763358778,2.1374045801526718,-1.5877862595419847,-0.448486328125,0.013916015625,-0.236083984375,0.5541999999999999
0.9007633587786259,2.931297709923664,-2.030534351145038,-0.44677734375,0.01611328125,-0.256103515625,0.5559
0.42748091603053434,2.381679389312977,-1.6946564885496183,-0.448974609375,0.02099609375,-0.25439453125,0.5576
-0.04580152671755725,1.4045801526717556,-1.9389312977099236,-0.447021484375,0.02099609375,-0.246826171875,0.5593
0.3969465648854962,1.1908396946564885,-1.3893129770992367,-0.4482421875,0.0166015625,-0.234130859375,0.5609999999999999
0.48854961832061067,1.4198473282442747,-1.1145038167938932,-0.447998046875,0.0185546875,-0.235595703125,0.5627
0.4122137404580153,1.4961832061068703,-1.2061068702290076,-0.44970703125,0.02392578125,-0.2421875,0.5644
0.3053435114503817,1.5419847328244274,-1.099236641221374,-0.445556640625,0.015625,-0.252685546875,0.5660999999999999
0.32061068702290074,1.618320610687023,-0.8091603053435115,-0.44775390625,0.01806640625,-0.244384765625,0.5678
0.15267175572519084,1.7557251908396947,-0.6564885496183206,-0.447021484375,0.024169921875,-0.23974609375,0.5695
0.32061068702290074,1.9389312977099236,-0.366412213740458,-0.451904296875,0.02880859375,-0.243408203125,0.5711999999999999
0.48854961832061067,1.8015267175572518,-0.3969465648854962,-0.453857421875,0.028564453125,-0.234130859375,0.5729
0.4122137404580153,1.83206106870229,-0.3511450381679389,-0.452392578125,0.024658203125,-0.237548828125,0.5746
0.5343511450381679,2.2442748091603053,-0.030534351145038167,-0.451904296875,0.02783203125,-0.236572265625,0.5762999999999999
0.8091603053435115,2.198473282442748,-0.15267175572519084,-0.451416015625,0.02490234375,-0.244873046875,0.578
0.6870229007633588,2.183206106870229,-0.3511450381679389,-0.45263671875,0.02783203125,-0.2451171875,0.5797
0.8854961832061069,2.0763358778625953,-0.10687022900763359,-0.458740234375,0.0263671875,-0.23974609375,0.5813999999999999
0.9312977099236641,2.3053435114503817,-0.2748091603053435,-0.45068359375,0.02880859375,-0.24267578125,0.5831
1.2366412213740459,2.2900763358778624,-0.183206106870229,-0.450439453125,0.026611328125,-0.244384765625,0.5848
1.3282442748091603,2.4580152671755724,-0.1984732824427481,-0.455078125,0.026123046875,-0.24462890625,0.5865
1.450381679389313,2.2595419847328246,-0.2900763358778626,-0.445556640625,0.026611328125,-0.2392578125,0.5882
1.5114503816793894,2.3053435114503817,-0.32061068702290074,-0.447265625,0.02392578125,-0.234619140625,0.5899
1.6030534351145038,2.2900763358778624,-0.2595419847328244,-0.44580078125,0.023193359375,-0.24267578125,0.5916
1.6641221374045803,2.0610687022900764,-0.12213740458015267,-0.446044921875,0.02392578125,-0.235595703125,0.5932999999999999
1.5572519083969465,2.0,-0.44274809160305345,-0.447998046875,0.02490234375,-0.240966796875,0.595
1.6030534351145038,2.1526717557251906,-0.366412213740458,-0.44384765625,0.0185546875,-0.234130859375,0.5967
1.6030534351145038,2.0610687022900764,-0.6717557251908397,-0.447265625,0.0244140625,-0.237060546875,0.5983999999999999
1.7557251908396947,1.8625954198473282,-0.3511450381679389,-0.447021484375,0.026123046875,-0.2470703125,0.6001
1.8015267175572518,1.7709923664122138,-0.33587786259541985,-0.448486328125,0.0234375,-0.241943359375,0.6018
1.9236641221374047,1.8625954198473282,-0.4122137404580153,-0.44482421875,0.023193359375,-0.233642578125,0.6034999999999999
1.9541984732824427,1.6641221374045803,-0.7022900763358778,-0.450927734375,0.019287109375,-0.237060546875,0.6052
1.9083969465648856,1.450381679389313,-0.732824427480916,-0.44873046875,0.019775390625,-0.23974609375,0.6069
2.0763358778625953,1.4809160305343512,-0.7022900763358778,-0.445556640625,0.01904296875,-0.24609375,0.6085999999999999
2.198473282442748,1.5267175572519085,-0.42748091603053434,-0.4443359375,0.024169921875,-0.243408203125,0.6103
2.0,1.282442748091603,-0.6259541984732825,-0.44775390625,0.022705078125,-0.24658203125,0.612
2.351145038167939,1.3740458015267176,-0.33587786259541985,-0.449462890625,0.021728515625,-0.24365234375,0.6136999999999999
2.2442748091603053,1.297709923664122,-0.2900763358778626,-0.446044921875,0.025634765625,-0.25048828125,0.6154
2.122137404580153,1.4809160305343512,-0.366412213740458,-0.4501953125,0.02294921875,-0.244873046875,0.6171
2.427480916030534,1.4961832061068703,-0.2595419847328244,-0.450439453125,0.022216796875,-0.244873046875,0.6188
2.2290076335877864,1.3282442748091603,-0.2595419847328244,-0.447998046875,0.024169921875,-0.246826171875,0.6204999999999999
2.1374045801526718,1.5114503816793894,-0.48854961832061067,-0.454345703125,0.025146484375,-0.236328125,0.6222
2.427480916030534,1.633587786259542,-0.15267175572519084,-0.448974609375,0.025634765625,-0.241943359375,0.6239
2.1526717557251906,1.6641221374045803,-0.0916030534351145,-0.451416015625,0.0234375,-0.24951171875,0.6255999999999999
2.16793893129771,1.6793893129770991,-0.366412213740458,-0.450439453125,0.02587890625,-0.249267578125,0.6273
2.2748091603053435,1.7404580152671756,-0.2748091603053435,-0.44921875,0.023193359375,-0.2529296875,0.629
2.122137404580153,1.7557251908396947,-0.3053435114503817,-0.44775390625,0.022216796875,-0.23876953125,0.6306999999999999
2.2595419847328246,1.6946564885496183,-0.3053435114503817,-0.443603515625,0.0263671875,-0.245849609375,0.6324
2.2595419847328246,1.7404580152671756,-0.3816793893129771,-0.4443359375,0.02392578125,-0.24560546875,0.6341
2.1374045801526718,1.6946564885496183,-0.3053435114503817,-0.4443359375,0.0166015625,-0.2451171875,0.6357999999999999
2.33587786259542,1.5267175572519085,-0.13740458015267176,-0.449462890625,0.022216796875,-0.241455078125,0.6375
2.0916030534351147,1.3282442748091603,-0.21374045801526717,-0.4462890625,0.02490234375,-0.238037109375,0.6392
2.33587786259542,1.1755725190839694,-0.5190839694656488,-0.447265625,0.024658203125,-0.2431640625,0.6408999999999999
2.3969465648854964,1.1603053435114503,-0.3969465648854962,-0.44677734375,0.0234375,-0.242431640625,0.6426
2.1526717557251906,1.1297709923664123,-0.24427480916030533,-0.443603515625,0.026611328125,-0.236328125,0.6443
2.549618320610687,1.4045801526717556,-0.1984732824427481,-0.448486328125,0.022705078125,-0.2421875,0.646
2.427480916030534,1.0381679389312977,-0.42748091603053434,-0.445068359375,0.02392578125,-0.2373046875,0.6476999999999999
2.2748091603053435,1.1755725190839694,-0.6870229007633588,-0.4482421875,0.026123046875,-0.2431640625,0.6494
2.183206106870229,1.251908396946565,-0.6412213740458015,-0.450927734375,0.0224609375,-0.241943359375,0.6511
2.2748091603053435,1.3740458015267176,-0.8396946564885496,-0.4482421875,0.0244140625,-0.24169921875,0.6527999999999999
2.1526717557251906,1.3587786259541985,-0.4732824427480916,-0.45068359375,0.022216796875,-0.23828125,0.6545
2.198473282442748,1.2061068702290076,-0.6106870229007634,-0.449462890625,0.016357421875,-0.23388671875,0.6562
2.381679389312977,1.2671755725190839,-0.6717557251908397,-0.4462890625,0.021240234375,-0.24462890625,0.6578999999999999
2.2442748091603053,1.282442748091603,-0.7633587786259542,-0.45361328125,0.021728515625,-0.23828125,0.6596
2.2442748091603053,1.2061068702290076,-0.8396946564885496,-0.4521484375,0.01904296875,-0.239501953125,0.6613
2.1068702290076335,1.4809160305343512,-1.1145038167938932,-0.4521484375,0.02294921875,-0.236083984375,0.6629999999999999
2.351145038167939,1.4809160305343512,-0.7938931297709924,-0.4521484375,0.0244140625,-0.241943359375,0.6647
2.2748091603053435,1.4809160305343512,-0.9770992366412213,-0.447265625,0.0224609375,-0.235595703125,0.6664
2.2748091603053435,1.450381679389313,-0.7633587786259542,-0.4521484375,0.01904296875,-0.236572265625,0.6680999999999999
2.213740458015267,1.5419847328244274,-0.8091603053435115,-0.448486328125,0.02001953125,-0.247314453125,0.6698
2.33587786259542,1.5267175572519085,-0.8091603053435115,-0.4453125,0.02294921875,-0.2373046875,0.6715
1.984732824427481,1.4351145038167938,-1.0381679389312977,-0.451171875,0.013427734375,-0.237060546875,0.6731999999999999
1.8015267175572518,1.4809160305343512,-1.1145038167938932,-0.448974609375,0.021484375,-0.2353515625,0.6748999999999999
2.0916030534351147,1.6793893129770991,-0.9465648854961832,-0.449951171875,0.021728515625,-0.242919921875,0.6766
1.8931297709923665,1.3282442748091603,-1.1297709923664123,-0.45361328125,0.01953125,-0.252685546875,0.6783
2.0916030534351147,1.2366412213740459,-1.1297709923664123,-0.452880859375,0.02099609375,-0.242431640625,0.6799999999999999
1.9694656488549618,1.3129770992366412,-1.2366412213740459,-0.451416015625,0.021484375,-0.235595703125,0.6817
1.8473282442748091,1.5725190839694656,-1.3282442748091603,-0.446533203125,0.01904296875,-0.243896484375,0.6834
1.6946564885496183,1.450381679389313,-1.450381679389313,-0.44677734375,0.02001953125,-0.243408203125,0.6850999999999999
1.7404580152671756,1.5572519083969465,-1.6793893129770991,-0.447998046875,0.019287109375,-0.243896484375,0.6868
1.8778625954198473,1.4961832061068703,-1.6488549618320612,-0.4501953125,0.015380859375,-0.244873046875,0.6885
1.7404580152671756,1.633587786259542,-1.6641221374045803,-0.4482421875,0.01025390625,-0.2421875,0.6901999999999999
1.7557251908396947,1.786259541984733,-2.015267175572519,-0.4521484375,0.015380859375,-0.25048828125,0.6919
1.8778625954198473,1.6488549618320612,-2.6106870229007635,-0.44873046875,0.005126953125,-0.248779296875,0.6936
1.816793893129771,1.4351145038167938,-3.1297709923664123,-0.4482421875,0.000732421875,-0.246337890625,0.6952999999999999
1.4198473282442747,1.5725190839694656,-3.8625954198473282,-0.45263671875,0.009521484375,-0.24072265625,0.697
1.282442748091603,1.8931297709923665,-3.49618320610687,-0.449951171875,0.016845703125,-0.249267578125,0.6987
0.5648854961832062,2.549618320610687,-2.6564885496183206,-0.447509765625,0.024169921875,-0.25439453125,0.7003999999999999
-0.1984732824427481,2.7022900763358777,-1.282442748091603,-0.45361328125,0.03076171875,-0.2470703125,0.7021
-0.5801526717557252,2.2748091603053435,-0.24427480916030533,-0.44970703125,0.019287109375,-0.24853515625,0.7038
-0.15267175572519084,1.984732824427481,0.15267175572519084,-0.4501953125,0.01611328125,-0.238525390625,0.7055
0.2900763358778626,1.9236641221374047,0.3511450381679389,-0.44921875,0.01171875,-0.239013671875,0.7071999999999999
0.5343511450381679,1.465648854961832,0.4122137404580153,-0.447021484375,0.01904296875,-0.2392578125,0.7089
0.6259541984732825,1.1297709923664123,0.42748091603053434,-0.4443359375,0.024658203125,-0.2578125,0.7106
0.7480916030534351,1.3740458015267176,0.5190839694656488,-0.43994140625,0.024169921875,-0.24267578125,0.7122999999999999
0.8091603053435115,1.2061068702290076,0.4580152671755725,-0.44384765625,0.031982421875,-0.24658203125,0.714
0.9465648854961832,1.1603053435114503,-0.07633587786259542,-0.441650390625,0.026123046875,-0.24169921875,0.7157
1.2366412213740459,1.1450381679389312,-0.9770992366412213,-0.446044921875,0.03173828125,-0.23876953125,0.7173999999999999
1.3282442748091603,1.1603053435114503,-1.5725190839694656,-0.446044921875,0.029052734375,-0.237060546875,0.7191
1.5114503816793894,1.2061068702290076,-2.1374045801526718,-0.439697265625,0.024169921875,-0.23388671875,0.7208
1.6946564885496183,1.2671755725190839,-2.183206106870229,-0.452392578125,0.025146484375,-0.2470703125,0.7224999999999999
1.6946564885496183,1.3435114503816794,-2.030534351145038,-0.443603515625,0.023193359375,-0.2509765625,0.7242
1.5114503816793894,1.5114503816793894,-2.045801526717557,-0.44482421875,0.024658203125,-0.239013671875,0.7259
1.6030534351145038,1.5114503816793894,-1.7099236641221374,-0.4501953125,0.017333984375,-0.234375,0.7275999999999999
1.4809160305343512,1.099236641221374,-1.9236641221374047,-0.44873046875,0.017822265625,-0.2470703125,0.7293
1.3435114503816794,0.9923664122137404,-2.183206106870229,-0.44677734375,0.00634765625,-0.237548828125,0.731
1.4045801526717556,0.9770992366412213,-2.16793893129771,-0.451904296875,0.01708984375,-0.23486328125,0.7326999999999999
1.4351145038167938,0.9770992366412213,-2.183206106870229,-0.454345703125,0.01611328125,-0.2421875,0.7343999999999999
1.0229007633587786,1.0381679389312977,-2.2595419847328246,-0.4453125,0.02001953125,-0.244873046875,0.7361
1.083969465648855,1.0381679389312977,-2.1526717557251906,-0.45068359375,0.01318359375,-0.24853515625,0.7378
0.8549618320610687,0.9923664122137404,-2.0916030534351147,-0.45068359375,0.014892578125,-0.23876953125,0.7394999999999999
0.732824427480916,1.2213740458015268,-1.9083969465648856,-0.44921875,0.018310546875,-0.245849609375,0.7412
0.9007633587786259,1.1603053435114503,-1.984732824427481,-0.44873046875,0.01513671875,-0.24072265625,0.7429
0.6106870229007634,1.282442748091603,-1.8778625954198473,-0.4482421875,0.021728515625,-0.2412109375,0.7445999999999999
0.4732824427480916,1.2366412213740459,-1.83206106870229,-0.445068359375,0.014404296875,-0.245849609375,0.7463
0.6564885496183206,0.9770992366412213,-1.83206106870229,-0.447509765625,0.01611328125,-0.242919921875,0.748
0.6259541984732825,0.6870229007633588,-2.1526717557251906,-0.44970703125,0.01513671875,-0.244384765625,0.7496999999999999
0.4580152671755725,0.33587786259541985,-2.213740458015267,-0.44921875,0.0087890625,-0.243408203125,0.7514
0.7175572519083969,0.16793893129770993,-2.8396946564885495,-0.4521484375,0.0087890625,-0.230224609375,0.7531
0.6106870229007634,0.4580152671755725,-3.0381679389312977,-0.447021484375,0.01611328125,-0.241943359375,0.7547999999999999
0.10687022900763359,0.9923664122137404,-3.2519083969465647,-0.45166015625,0.017333984375,-0.24267578125,0.7565
-0.4122137404580153,1.6946564885496183,-3.1908396946564888,-0.44970703125,0.011474609375,-0.24267578125,0.7582
-0.6412213740458015,2.2595419847328246,-3.0229007633587788,-0.44970703125,0.016845703125,-0.246337890625,0.7598999999999999
-0.8244274809160306,2.0,-3.1297709923664123,-0.451904296875,0.011474609375,-0.244873046875,0.7615999999999999
-1.1145038167938932,2.0,-2.9770992366412212,-0.452880859375,0.010986328125,-0.244140625,0.7633
-1.450381679389313,1.8778625954198473,-2.900763358778626,-0.45068359375,0.0,-0.2431640625,0.7649999999999999
-1.8015267175572518,1.7557251908396947,-2.9160305343511452,-0.4462890625,0.002197265625,-0.239013671875,0.7666999999999999
-1.6641221374045803,1.4961832061068703,-2.7938931297709924,-0.442626953125,0.00439453125,-0.248291015625,0.7684
-1.8015267175572518,1.450381679389313,-2.7022900763358777,-0.4453125,0.013427734375,-0.238037109375,0.7701
-2.0,1.1145038167938932,-2.519083969465649,-0.447265625,0.01171875,-0.2470703125,0.7717999999999999
-2.2442748091603053,0.8091603053435115,-2.33587786259542,-0.4443359375,0.011474609375,-0.248779296875,0.7735
-2.3969465648854964,0.42748091603053434,-1.8625954198473282,-0.451171875,0.01953125,-0.247314453125,0.7752
-2.50381679389313,-0.2595419847328244,-1.6030534351145038,-0.453125,0.0283203125,-0.240234375,0.7768999999999999
-2.3053435114503817,-0.7022900763358778,-0.9770992366412213,-0.457763671875,0.0283203125,-0.2373046875,0.7786
-1.83206106870229,-0.7022900763358778,-0.21374045801526717,-0.46435546875,0.03125,-0.23974609375,0.7803
-1.5725190839694656,-0.4732824427480916,0.7480916030534351,-0.46337890625,0.03125,-0.240478515625,0.7819999999999999
-1.0687022900763359,0.0916030534351145,1.3740458015267176,-0.47314453125,0.0380859375,-0.243896484375,0.7837
-0.9007633587786259,0.6717557251908397,2.1374045801526718,-0.47802734375,0.044189453125,-0.243408203125,0.7854
-0.3816793893129771,1.2213740458015268,2.6259541984732824,-0.47705078125,0.039794921875,-0.237060546875,0.7870999999999999
0.07633587786259542,2.3969465648854964,2.9618320610687023,-0.47607421875,0.048095703125,-0.246337890625,0.7888
0.32061068702290074,3.2213740458015265,2.9770992366412212,-0.474365234375,0.0537109375,-0.2392578125,0.7905
0.916030534351145,4.442748091603053,3.312977099236641,-0.47412109375,0.052978515625,-0.23876953125,0.7921999999999999
0.9312977099236641,5.32824427480916,3.053435114503817,-0.4716796875,0.047607421875,-0.23486328125,0.7938999999999999
1.465648854961832,6.152671755725191,2.8091603053435112,-0.466552734375,0.045166015625,-0.236572265625,0.7956
1.83206106870229,6.885496183206107,2.6564885496183206,-0.4609375,0.044677734375,-0.226318359375,0.7973
2.213740458015267,7.358778625954199,2.687022900763359,-0.4619140625,0.047607421875,-0.227294921875,0.7989999999999999
2.5801526717557253,7.969465648854962,2.4122137404580153,-0.451904296875,0.042724609375,-0.23828125,0.8007
2.717557251908397,8.213740458015268,2.1526717557251906,-0.44970703125,0.0380859375,-0.232421875,0.8024
3.1755725190839694,8.335877862595419,1.8931297709923665,-0.437255859375,0.03466796875,-0.236328125,0.8040999999999999
3.2519083969465647,8.290076335877863,1.5572519083969465,-0.434814453125,0.03173828125,-0.2373046875,0.8058
3.404580152671756,8.122137404580153,1.0687022900763359,-0.429443359375,0.026611328125,-0.23388671875,0.8075
3.4656488549618323,7.603053435114504,0.7938931297709924,-0.419921875,0.02099609375,-0.2392578125,0.8091999999999999
3.66412213740458,6.778625954198473,0.12213740458015267,-0.4150390625,0.0263671875,-0.23681640625,0.8109
3.9389312977099236,6.0458015267175576,-0.1984732824427481,-0.4140625,0.0224609375,-0.240478515625,0.8126
3.786259541984733,4.793893129770993,-0.7175572519083969,-0.408203125,0.019287109375,-0.23974609375,0.8142999999999999
3.8625954198473282,3.7251908396946565,-1.2366412213740459,-0.4091796875,0.02099609375,-0.248046875,0.816
4.244274809160306,2.366412213740458,-1.5114503816793894,-0.41162109375,0.01806640625,-0.2431640625,0.8177
4.122137404580153,1.0687022900763359,-1.9083969465648856,-0.41064453125,0.016357421875,-0.240234375,0.8193999999999999
3.877862595419847,-0.21374045801526717,-2.33587786259542,-0.41015625,0.022705078125,-0.24365234375,0.8210999999999999
4.106870229007634,-1.4961832061068703,-2.4885496183206106,-0.417236328125,0.020263671875,-0.238525390625,0.8228
3.9236641221374047,-2.3969465648854964,-2.687022900763359,-0.41552734375,0.022216796875,-0.2451171875,0.8244999999999999
3.8473282442748094,-3.236641221374046,-2.8091603053435112,-0.425048828125,0.01611328125,-0.24560546875,0.8261999999999999
4.106870229007634,-4.0458015267175576,-2.854961832061069,-0.43310546875,0.022216796875,-0.24365234375,0.8279
3.8931297709923665,-4.259541984732825,-2.7938931297709924,-0.434326171875,0.01904296875,-0.242431640625,0.8296
3.6030534351145036,-4.580152671755725,-2.7938931297709924,-0.440185546875,0.020263671875,-0.244873046875,0.8312999999999999
3.6030534351145036,-4.656488549618321,-2.7022900763358777,-0.44775390625,0.022705078125,-0.2431640625,0.833
3.7099236641221376,-4.366412213740458,-2.4122137404580153,-0.45166015625,0.022216796875,-0.248291015625,0.8347
3.5114503816793894,-4.366412213740458,-2.4427480916030535,-0.455322265625,0.020751953125,-0.244140625,0.8363999999999999
3.2977099236641223,-3.9389312977099236,-2.3206106870229006,-0.4609375,0.0234375,-0.242431640625,0.8381
3.1908396946564888,-3.435114503816794,-2.213740458015267,-0.460693359375,0.020751953125,-0.2509765625,0.8398
2.946564885496183,-3.0229007633587788,-2.2442748091603053,-0.461181640625,0.02197265625,-0.239990234375,0.8414999999999999
2.549618320610687,-2.2748091603053435,-2.0763358778625953,-0.458984375,0.018310546875,-0.233154296875,0.8432
2.6564885496183206,-1.618320610687023,-1.7099236641221374,-0.466552734375,0.01953125,-0.240234375,0.8449
2.183206106870229,-1.0534351145038168,-1.9541984732824427,-0.468017578125,0.021240234375,-0.24072265625,0.8465999999999999
1.9694656488549618,-0.6106870229007634,-1.7557251908396947,-0.459716796875,0.01904296875,-0.241943359375,0.8482999999999999
1.9694656488549618,-0.5343511450381679,-1.7251908396946565,-0.46435546875,0.017578125,-0.252197265625,0.85
1.6946564885496183,0.183206106870229,-1.8778625954198473,-0.460205078125,0.0146484375,-0.2431640625,0.8516999999999999
1.450381679389313,0.4580152671755725,-1.8778625954198473,-0.45458984375,0.022705078125,-0.2412109375,0.8533999999999999
1.3435114503816794,0.5190839694656488,-1.8778625954198473,-0.45751953125,0.017822265625,-0.244384765625,0.8551
1.3740458015267176,0.6106870229007634,-1.83206106870229,-0.452880859375,0.015869140625,-0.2470703125,0.8568
1.1603053435114503,0.6564885496183206,-2.0,-0.453369140625,0.010986328125,-0.24169921875,0.8584999999999999
1.1603053435114503,0.3511450381679389,-2.183206106870229,-0.45263671875,0.0166015625,-0.24462890625,0.8602
1.2061068702290076,0.4580152671755725,-1.9694656488549618,-0.44482421875,0.021728515625,-0.24072265625,0.8619
0.8244274809160306,0.3969465648854962,-2.2442748091603053,-0.444091796875,0.024169921875,-0.242919921875,0.8635999999999999
0.8702290076335878,0.12213740458015267,-2.2748091603053435,-0.447021484375,0.0185546875,-0.241943359375,0.8653
1.083969465648855,0.2595419847328244,-2.4122137404580153,-0.446044921875,0.015380859375,-0.248291015625,0.867
0.8396946564885496,0.0916030534351145,-2.381679389312977,-0.44970703125,0.02099609375,-0.245849609375,0.8686999999999999
0.5343511450381679,-0.04580152671755725,-2.427480916030534,-0.4521484375,0.02197265625,-0.24658203125,0.8704
0.7938931297709924,0.015267175572519083,-2.33587786259542,-0.45068359375,0.02197265625,-0.244140625,0.8721
0.9007633587786259,0.04580152671755725,-2.2900763358778624,-0.450439453125,0.02392578125,-0.243408203125,0.8737999999999999
0.9923664122137404,-0.015267175572519083,-2.4122137404580153,-0.449462890625,0.025634765625,-0.234619140625,0.8755
1.1297709923664123,0.21374045801526717,-2.6106870229007635,-0.45068359375,0.025390625,-0.24365234375,0.8772
1.0076335877862594,0.44274809160305345,-2.33587786259542,-0.451416015625,0.026123046875,-0.24072265625,0.8788999999999999
0.8854961832061069,0.8549618320610687,-2.4427480916030535,-0.44921875,0.02685546875,-0.23779296875,0.8805999999999999
0.9007633587786259,1.1145038167938932,-2.6412213740458017,-0.4541015625,0.023193359375,-0.243896484375,0.8823
1.0076335877862594,1.465648854961832,-2.6564885496183206,-0.45166015625,0.023193359375,-0.239990234375,0.8839999999999999
1.0381679389312977,1.3893129770992367,-2.564885496183206,-0.44677734375,0.021728515625,-0.245361328125,0.8856999999999999
0.9618320610687023,1.618320610687023,-2.564885496183206,-0.450439453125,0.01806640625,-0.243896484375,0.8874
0.8549618320610687,1.786259541984733,-2.549618320610687,-0.4462890625,0.014892578125,-0.245361328125,0.8891
1.0687022900763359,1.5419847328244274,-2.6564885496183206,-0.446533203125,0.017333984375,-0.239501953125,0.8907999999999999
1.0381679389312977,1.6030534351145038,-2.4885496183206106,-0.447265625,0.022216796875,-0.24169921875,0.8925
0.7175572519083969,1.099236641221374,-2.6717557251908395,-0.437744140625,0.0224609375,-0.24853515625,0.8942
0.7786259541984732,0.6870229007633588,-2.687022900763359,-0.44189453125,0.02197265625,-0.247802734375,0.8958999999999999
0.8396946564885496,0.6717557251908397,-2.8244274809160306,-0.443603515625,0.0185546875,-0.2451171875,0.8976
0.7175572519083969,0.13740458015267176,-2.564885496183206,-0.44091796875,0.024169921875,-0.2431640625,0.8993
0.9618320610687023,-0.4580152671755725,-3.0381679389312977,-0.439453125,0.0166015625,-0.24462890625,0.9009999999999999
1.099236641221374,-0.7938931297709924,-2.717557251908397,-0.441650390625,0.021484375,-0.24169921875,0.9027
1.0076335877862594,-1.099236641221374,-2.7022900763358777,-0.441162109375,0.02685546875,-0.242431640625,0.9044
1.1297709923664123,-1.4351145038167938,-2.7480916030534353,-0.441162109375,0.023681640625,-0.25048828125,0.9060999999999999
0.9618320610687023,-1.5572519083969465,-3.0076335877862594,-0.44287109375,0.02294921875,-0.242431640625,0.9077999999999999
1.1908396946564885,-1.5877862595419847,-2.7938931297709924,-0.4443359375,0.01708984375,-0.241943359375,0.9095
1.1450381679389312,-1.7557251908396947,-2.8244274809160306,-0.447998046875,0.0166015625,-0.24169921875,0.9111999999999999
1.1297709923664123,-1.786259541984733,-2.8396946564885495,-0.447998046875,0.01708984375,-0.241455078125,0.9128999999999999
1.2671755725190839,-1.6488549618320612,-3.0076335877862594,-0.45458984375,0.0205078125,-0.23876953125,0.9146
1.2061068702290076,-1.7099236641221374,-2.763358778625954,-0.4521484375,0.019287109375,-0.244384765625,0.9163
1.450381679389313,-1.6793893129770991,-2.8244274809160306,-0.454833984375,0.022216796875,-0.239990234375,0.9179999999999999
1.450381679389313,-1.4961832061068703,-2.6412213740458017,-0.45458984375,0.023193359375,-0.2431640625,0.9197
1.1603053435114503,-1.3893129770992367,-2.7022900763358777,-0.457763671875,0.023193359375,-0.2490234375,0.9214
1.297709923664122,-1.2213740458015268,-2.4885496183206106,-0.4541015625,0.022705078125,-0.234130859375,0.9230999999999999
1.282442748091603,-1.0076335877862594,-2.564885496183206,-0.452880859375,0.02197265625,-0.24267578125,0.9248
1.3740458015267176,-0.9007633587786259,-2.564885496183206,-0.45849609375,0.019287109375,-0.2412109375,0.9265
1.4351145038167938,-0.7480916030534351,-2.549618320610687,-0.4560546875,0.021484375,-0.234130859375,0.9281999999999999
1.2061068702290076,-0.549618320610687,-2.198473282442748,-0.45947265625,0.023193359375,-0.233642578125,0.9299
1.450381679389313,-0.6564885496183206,-2.351145038167939,-0.45458984375,0.01806640625,-0.238525390625,0.9316
1.4045801526717556,-0.5038167938931297,-2.2748091603053435,-0.46044921875,0.022705078125,-0.24755859375,0.9332999999999999
1.1145038167938932,-0.1984732824427481,-2.2595419847328246,-0.45166015625,0.02099609375,-0.236572265625,0.9349999999999999
1.1908396946564885,-0.4732824427480916,-2.0,-0.44970703125,0.020751953125,-0.240234375,0.9367
1.3740458015267176,-0.33587786259541985,-1.984732824427481,-0.450927734375,0.016357421875,-0.25048828125,0.9383999999999999
1.3282442748091603,0.0,-1.8015267175572518,-0.45458984375,0.017578125,-0.249755859375,0.9400999999999999
1.3282442748091603,-0.0916030534351145,-1.9236641221374047,-0.455810546875,0.02197265625,-0.2421875,0.9418
1.083969465648855,0.22900763358778625,-1.5877862595419847,-0.4521484375,0.015380859375,-0.24072265625,0.9434999999999999
1.0381679389312977,0.07633587786259542,-1.7099236641221374,-0.45556640625,0.026123046875,-0.239990234375,0.9451999999999999
1.2671755725190839,0.22900763358778625,-1.5114503816793894,-0.44921875,0.017578125,-0.240234375,0.9469
1.2061068702290076,0.48854961832061067,-1.5114503816793894,-0.45068359375,0.026123046875,-0.244873046875,0.9486
1.1755725190839694,0.4580152671755725,-1.5267175572519085,-0.451171875,0.019287109375,-0.23583984375,0.9502999999999999
1.1603053435114503,0.42748091603053434,-1.5419847328244274,-0.454833984375,0.01953125,-0.234375,0.952
1.0076335877862594,0.44274809160305345,-1.3893129770992367,-0.45556640625,0.018310546875,-0.2421875,0.9537
1.2366412213740459,0.3511450381679389,-1.3587786259541985,-0.45068359375,0.017822265625,-0.2451171875,0.9553999999999999
1.1603053435114503,0.3511450381679389,-1.3129770992366412,-0.45263671875,0.016845703125,-0.244873046875,0.9571
1.1908396946564885,0.5038167938931297,-1.3435114503816794,-0.456787109375,0.016357421875,-0.2373046875,0.9588
1.297709923664122,0.5038167938931297,-1.3893129770992367,-0.449462890625,0.0185546875,-0.240234375,0.9604999999999999
1.1603053435114503,0.5648854961832062,-1.1908396946564885,-0.44921875,0.02392578125,-0.230712890625,0.9621999999999999
1.1603053435114503,0.8091603053435115,-1.1755725190839694,-0.455322265625,0.015380859375,-0.236572265625,0.9639
1.0381679389312977,0.8091603053435115,-1.1908396946564885,-0.454833984375,0.0224609375,-0.237548828125,0.9655999999999999
1.1603053435114503,0.8702290076335878,-1.2213740458015268,-0.453369140625,0.014404296875,-0.2373046875,0.9672999999999999
0.8854961832061069,1.1145038167938932,-1.2213740458015268,-0.4560546875,0.018310546875,-0.23046875,0.969
1.1908396946564885,1.1450381679389312,-1.1145038167938932,-0.449951171875,0.015625,-0.24462890625,0.9706999999999999
0.8702290076335878,1.1908396946564885,-1.2366412213740459,-0.45361328125,0.018798828125,-0.240234375,0.9723999999999999
0.8702290076335878,1.1603053435114503,-1.1145038167938932,-0.456787109375,0.02294921875,-0.234130859375,0.9741
0.8702290076335878,1.3587786259541985,-1.0381679389312977,-0.456787109375,0.01953125,-0.239990234375,0.9758
0.9923664122137404,1.2671755725190839,-1.099236641221374,-0.4541015625,0.024658203125,-0.238525390625,0.9774999999999999
0.8091603053435115,1.3587786259541985,-1.099236641221374,-0.453369140625,0.018310546875,-0.24169921875,0.9792
0.8396946564885496,1.450381679389313,-0.9312977099236641,-0.44873046875,0.019287109375,-0.23876953125,0.9809
1.083969465648855,1.5267175572519085,-1.0076335877862594,-0.4521484375,0.017578125,-0.23974609375,0.9825999999999999
0.6717557251908397,1.7404580152671756,-1.0381679389312977,-0.45556640625,0.023193359375,-0.2373046875,0.9843
0.5648854961832062,1.7557251908396947,-1.0687022900763359,-0.451904296875,0.019775390625,-0.244384765625,0.986
0.8244274809160306,1.8473282442748091,-1.1755725190839694,-0.451904296875,0.018798828125,-0.248291015625,0.9876999999999999
0.6259541984732825,1.8473282442748091,-1.083969465648855,-0.45166015625,0.02001953125,-0.24365234375,0.9894
0.8244274809160306,1.8778625954198473,-1.0381679389312977,-0.45703125,0.0146484375,-0.240478515625,0.9911
0.5648854961832062,1.8015267175572518,-1.0534351145038168,-0.45849609375,0.01708984375,-0.244384765625,0.9927999999999999
0.6106870229007634,1.8778625954198473,-0.9007633587786259,-0.454833984375,0.01953125,-0.23193359375,0.9944999999999999
0.5801526717557252,1.9694656488549618,-0.7786259541984732,-0.452880859375,0.017822265625,-0.23291015625,0.9962
0.44274809160305345,1.9541984732824427,-1.0534351145038168,-0.447265625,0.0224609375,-0.241943359375,0.9978999999999999
0.4732824427480916,2.045801526717557,-0.8854961832061069,-0.45263671875,0.021484375,-0.240234375,0.9995999999999999
0.16793893129770993,2.1526717557251906,-1.0229007633587786,-0.45263671875,0.01708984375,-0.244140625,1.0012999999999999
0.4732824427480916,2.198473282442748,-0.732824427480916,-0.4501953125,0.0224609375,-0.238525390625,1.003
0.4580152671755725,2.2442748091603053,-1.1145038167938932,-0.451416015625,0.028076171875,-0.235595703125,1.0047
0.4732824427480916,2.2442748091603053,-1.2671755725190839,-0.44873046875,0.013671875,-0.24609375,1.0064
0.44274809160305345,2.122137404580153,-0.9007633587786259,-0.449951171875,0.02392578125,-0.248046875,1.0081
0.3511450381679389,1.8931297709923665,-1.282442748091603,-0.44921875,0.02734375,-0.241455078125,1.0098
0.6717557251908397,2.0,-1.3435114503816794,-0.44482421875,0.022216796875,-0.24560546875,1.0114999999999998
0.48854961832061067,1.9694656488549618,-1.465648854961832,-0.4462890625,0.023193359375,-0.240966796875,1.0131999999999999
0.12213740458015267,1.7557251908396947,-1.5725190839694656,-0.447998046875,0.023193359375,-0.236083984375,1.0149
0.44274809160305345,1.8015267175572518,-1.5572519083969465,-0.44921875,0.02294921875,-0.2353515625,1.0166
0.8244274809160306,1.9083969465648856,-1.618320610687023,-0.45166015625,0.015625,-0.24365234375,1.0183
0.7480916030534351,2.030534351145038,-1.5877862595419847,-0.452880859375,0.019775390625,-0.243896484375,1.02
0.5801526717557252,1.9236641221374047,-1.465648854961832,-0.451416015625,0.0185546875,-0.243408203125,1.0217
0.48854961832061067,1.786259541984733,-1.5877862595419847,-0.454833984375,0.023681640625,-0.239501953125,1.0233999999999999
0.7175572519083969,2.1068702290076335,-1.7404580152671756,-0.454833984375,0.022216796875,-0.2451171875,1.0251
0.7175572519083969,2.213740458015267,-1.251908396946565,-0.4541015625,0.021484375,-0.24365234375,1.0268
0.3816793893129771,2.2442748091603053,-1.3587786259541985,-0.45263671875,0.02294921875,-0.23486328125,1.0285
0.732824427480916,2.3053435114503817,-1.4961832061068703,-0.450439453125,0.020263671875,-0.244140625,1.0302
0.7938931297709924,2.366412213740458,-1.450381679389313,-0.4482421875,0.022216796875,-0.24560546875,1.0319
0.5954198473282443,2.4580152671755724,-1.3129770992366412,-0.4453125,0.02294921875,-0.250244140625,1.0335999999999999
0.6870229007633588,2.381679389312977,-1.4198473282442747,-0.448974609375,0.02099609375,-0.240234375,1.0352999999999999
0.7480916030534351,2.2442748091603053,-1.3282442748091603,-0.446044921875,0.02880859375,-0.240234375,1.037
0.7786259541984732,2.2900763358778624,-1.282442748091603,-0.44384765625,0.02880859375,-0.237548828125,1.0387
0.7480916030534351,2.2442748091603053,-1.2213740458015268,-0.45166015625,0.0244140625,-0.236328125,1.0404
0.7633587786259542,2.1068702290076335,-1.251908396946565,-0.44970703125,0.0244140625,-0.2412109375,1.0421
1.0687022900763359,2.0610687022900764,-1.1603053435114503,-0.451171875,0.02099609375,-0.239013671875,1.0437999999999998
1.282442748091603,1.8931297709923665,-1.282442748091603,-0.445068359375,0.0224609375,-0.241455078125,1.0454999999999999
1.3129770992366412,1.8015267175572518,-1.3435114503816794,-0.445556640625,0.020751953125,-0.23779296875,1.0472
1.251908396946565,1.83206106870229,-1.251908396946565,-0.45263671875,0.025390625,-0.239013671875,1.0489
1.3740458015267176,1.633587786259542,-1.2213740458015268,-0.44873046875,0.025634765625,-0.24267578125,1.0506
1.5267175572519085,1.6641221374045803,-1.2366412213740459,-0.44384765625,0.026123046875,-0.245849609375,1.0523
1.618320610687023,1.786259541984733,-1.2213740458015268,-0.447509765625,0.026611328125,-0.234375,1.054
1.6488549618320612,1.3893129770992367,-1.3893129770992367,-0.447998046875,0.0185546875,-0.238037109375,1.0556999999999999
1.5877862595419847,1.1755725190839694,-1.3587786259541985,-0.44384765625,0.025146484375,-0.2431640625,1.0574
1.9236641221374047,1.1755725190839694,-1.3435114503816794,-0.442138671875,0.0283203125,-0.236572265625,1.0591
1.8625954198473282,1.2061068702290076,-1.3282442748091603,-0.4453125,0.026611328125,-0.23828125,1.0608
1.8931297709923665,1.297709923664122,-1.450381679389313,-0.447509765625,0.027099609375,-0.244384765625,1.0625
1.8931297709923665,0.8854961832061069,-1.6946564885496183,-0.44580078125,0.0244140625,-0.23388671875,1.0642
1.9236641221374047,0.8549618320610687,-1.9236641221374047,-0.444580078125,0.025390625,-0.24365234375,1.0658999999999998
1.984732824427481,0.8549618320610687,-2.0763358778625953,-0.444091796875,0.021484375,-0.240234375,1.0675999999999999
2.2290076335877864,1.0229007633587786,-1.9083969465648856,-0.4443359375,0.021728515625,-0.23974609375,1.0693
2.030534351145038,0.7633587786259542,-2.1068702290076335,-0.444580078125,0.022216796875,-0.24365234375,1.071
2.015267175572519,0.5648854961832062,-2.213740458015267,-0.446044921875,0.021484375,-0.243408203125,1.0727
2.045801526717557,0.7786259541984732,-2.2442748091603053,-0.444580078125,0.019775390625,-0.233642578125,1.0744
1.9694656488549618,0.5801526717557252,-2.351145038167939,-0.444580078125,0.019775390625,-0.236328125,1.0760999999999998
2.213740458015267,0.4122137404580153,-2.213740458015267,-0.4453125,0.0244140625,-0.244140625,1.0777999999999999
1.9236641221374047,0.3511450381679389,-2.3206106870229006,-0.446044921875,0.014892578125,-0.237060546875,1.0795
2.1374045801526718,-0.061068702290076333,-2.4122137404580153,-0.44482421875,0.01611328125,-0.24365234375,1.0812
1.8473282442748091,-0.21374045801526717,-2.595419847328244,-0.448974609375,0.02001953125,-0.234130859375,1.0829
1.9083969465648856,-0.3816793893129771,-2.4732824427480917,-0.447021484375,0.016845703125,-0.2392578125,1.0846
2.0,-0.6259541984732825,-2.3969465648854964,-0.44677734375,0.017822265625,-0.241943359375,1.0863
1.984732824427481,-0.8244274809160306,-2.6259541984732824,-0.44189453125,0.019775390625,-0.245361328125,1.0879999999999999
1.8473282442748091,-0.8396946564885496,-2.6717557251908395,-0.4462890625,0.020263671875,-0.2470703125,1.0897
1.7709923664122138,-0.9465648854961832,-2.4885496183206106,-0.44921875,0.019287109375,-0.248291015625,1.0914
1.9389312977099236,-1.1603053435114503,-2.4427480916030535,-0.447998046875,0.024658203125,-0.243896484375,1.0931
1.7557251908396947,-0.916030534351145,-2.4885496183206106,-0.452880859375,0.017578125,-0.2373046875,1.0948
1.6488549618320612,-0.9007633587786259,-2.366412213740458,-0.457275390625,0.0185546875,-0.23486328125,1.0965
1.9083969465648856,-0.9618320610687023,-2.381679389312977,-0.45361328125,0.017822265625,-0.236572265625,1.0981999999999998
1.8931297709923665,-0.6564885496183206,-2.4732824427480917,-0.4580078125,0.023193359375,-0.239501953125,1.0998999999999999
1.633587786259542,-0.6259541984732825,-2.4122137404580153,-0.457763671875,0.01708984375,-0.2353515625,1.1016
1.6641221374045803,-0.5038167938931297,-2.4885496183206106,-0.458251953125,0.0185546875,-0.241943359375,1.1033
1.8473282442748091,-0.366412213740458,-2.351145038167939,-0.457763671875,0.01708984375,-0.238525390625,1.105
1.6793893129770991,-0.183206106870229,-2.198473282442748,-0.459716796875,0.016357421875,-0.23583984375,1.1067
1.633587786259542,0.13740458015267176,-2.16793893129771,-0.454345703125,0.021728515625,-0.243896484375,1.1083999999999998
1.5419847328244274,0.3969465648854962,-2.33587786259542,-0.45068359375,0.019775390625,-0.24267578125,1.1100999999999999
1.5572519083969465,0.9618320610687023,-2.427480916030534,-0.451904296875,0.0185546875,-0.230224609375,1.1118
1.4809160305343512,1.297709923664122,-2.4580152671755724,-0.447021484375,0.01318359375,-0.23828125,1.1135
1.4809160305343512,1.297709923664122,-2.3053435114503817,-0.451416015625,0.017333984375,-0.23681640625,1.1152
1.2366412213740459,1.0534351145038168,-2.4732824427480917,-0.4443359375,0.018798828125,-0.24365234375,1.1169
1.2671755725190839,0.732824427480916,-2.5801526717557253,-0.442138671875,0.01318359375,-0.236083984375,1.1186
1.083969465648855,0.2900763358778626,-2.6564885496183206,-0.4423828125,0.01171875,-0.237060546875,1.1202999999999999
1.2671755725190839,-0.1984732824427481,-3.0839694656488548,-0.4365234375,0.0185546875,-0.236083984375,1.1219999999999999
1.1755725190839694,-0.6106870229007634,-3.053435114503817,-0.439697265625,0.016845703125,-0.236572265625,1.1237
0.9465648854961832,-0.9770992366412213,-2.9618320610687023,-0.44189453125,0.012451171875,-0.24169921875,1.1254
0.9312977099236641,-1.297709923664122,-2.946564885496183,-0.445068359375,0.014892578125,-0.2314453125,1.1271
1.1450381679389312,-1.9389312977099236,-2.732824427480916,-0.44189453125,0.013427734375,-0.246826171875,1.1288
0.6564885496183206,-2.213740458015267,-2.549618320610687,-0.442626953125,0.01611328125,-0.239013671875,1.1304999999999998
0.8549618320610687,-2.2595419847328246,-2.6412213740458017,-0.44677734375,0.016845703125,-0.238037109375,1.1321999999999999
0.8854961832061069,-2.2595419847328246,-2.213740458015267,-0.447021484375,0.01611328125,-0.2373046875,1.1339
0.9923664122137404,-2.2900763358778624,-1.9389312977099236,-0.452392578125,0.01708984375,-0.234130859375,1.1356
0.8244274809160306,-2.351145038167939,-1.5877862595419847,-0.452392578125,0.01513671875,-0.236083984375,1.1373
0.8091603053435115,-2.0763358778625953,-1.4961832061068703,-0.44970703125,0.019775390625,-0.23779296875,1.139
0.8244274809160306,-1.8931297709923665,-1.2061068702290076,-0.4541015625,0.0205078125,-0.23779296875,1.1407
1.0076335877862594,-1.5725190839694656,-1.282442748091603,-0.451904296875,0.0185546875,-0.236328125,1.1423999999999999
1.0534351145038168,-1.4809160305343512,-1.1297709923664123,-0.45361328125,0.029052734375,-0.227783203125,1.1441
1.2213740458015268,-1.1908396946564885,-1.1450381679389312,-0.4501953125,0.02783203125,-0.23291015625,1.1458
0.9312977099236641,-1.2366412213740459,-1.1450381679389312,-0.445068359375,0.023681640625,-0.240234375,1.1475
1.0076335877862594,-1.1755725190839694,-1.1603053435114503,-0.448486328125,0.02294921875,-0.238037109375,1.1492
1.4351145038167938,-1.2366412213740459,-1.3282442748091603,-0.4501953125,0.022216796875,-0.238525390625,1.1509
1.3435114503816794,-0.9618320610687023,-1.2671755725190839,-0.446533203125,0.0224609375,-0.2421875,1.1525999999999998
1.8015267175572518,-1.1145038167938932,-1.1755725190839694,-0.4501953125,0.02490234375,-0.2353515625,1.1542999999999999
1.6641221374045803,-1.450381679389313,-1.083969465648855,-0.44482421875,0.02197265625,-0.23291015625,1.156
1.8931297709923665,-1.3740458015267176,-1.0381679389312977,-0.44287109375,0.021728515625,-0.2373046875,1.1577
2.213740458015267,-1.633587786259542,-1.0687022900763359,-0.44140625,0.0224609375,-0.238037109375,1.1594
2.33587786259542,-1.9083969465648856,-1.1145038167938932,-0.4384765625,0.02880859375,-0.23388671875,1.1611
2.381679389312977,-2.122137404580153,-1.099236641221374,-0.4443359375,0.02392578125,-0.24560546875,1.1627999999999998
2.3969465648854964,-2.564885496183206,-1.1755725190839694,-0.44775390625,0.02392578125,-0.234619140625,1.1644999999999999
2.427480916030534,-2.4580152671755724,-1.1145038167938932,-0.451416015625,0.02197265625,-0.234130859375,1.1662
2.9160305343511452,-2.4732824427480917,-1.282442748091603,-0.450927734375,0.02099609375,-0.247314453125,1.1679
2.885496183206107,-2.564885496183206,-1.3129770992366412,-0.451904296875,0.023193359375,-0.23388671875,1.1696
2.6717557251908395,-2.4732824427480917,-1.3129770992366412,-0.446044921875,0.025390625,-0.235107421875,1.1713
2.885496183206107,-2.4732824427480917,-1.4045801526717556,-0.4521484375,0.024169921875,-0.239013671875,1.173
3.099236641221374,-2.381679389312977,-1.1297709923664123,-0.45361328125,0.021240234375,-0.235595703125,1.1746999999999999
3.0229007633587788,-2.3206106870229006,-1.3893129770992367,-0.45263671875,0.020751953125,-0.23779296875,1.1764
3.0381679389312977,-2.2748091603053435,-1.1145038167938932,-0.455322265625,0.02099609375,-0.24072265625,1.1781
2.9618320610687023,-2.1068702290076335,-1.0687022900763359,-0.453369140625,0.02099609375,-0.239013671875,1.1798
3.068702290076336,-2.0763358778625953,-1.2213740458015268,-0.46044921875,0.022216796875,-0.240478515625,1.1815
3.1297709923664123,-1.7557251908396947,-1.3435114503816794,-0.457275390625,0.018310546875,-0.230224609375,1.1832
3.068702290076336,-1.4045801526717556,-1.3435114503816794,-0.4619140625,0.019287109375,-0.23779296875,1.1848999999999998
2.900763358778626,-1.1297709923664123,-1.786259541984733,-0.46044921875,0.017578125,-0.23388671875,1.1865999999999999
2.854961832061069,-0.916030534351145,-1.7251908396946565,-0.45556640625,0.0185546875,-0.230224609375,1.1883
2.687022900763359,-0.6564885496183206,-1.9694656488549618,-0.45556640625,0.01904296875,-0.24267578125,1.19
2.3969465648854964,-0.4732824427480916,-1.7709923664122138,-0.451416015625,0.017578125,-0.23779296875,1.1917
2.564885496183206,-0.4580152671755725,-1.9541984732824427,-0.4501953125,0.01708984375,-0.2353515625,1.1934
2.4122137404580153,-0.183206106870229,-1.8931297709923665,-0.453857421875,0.021240234375,-0.244140625,1.1950999999999998
2.3206106870229006,-0.4732824427480916,-2.1526717557251906,-0.4462890625,0.01220703125,-0.23046875,1.1967999999999999
2.16793893129771,-0.7175572519083969,-2.366412213740458,-0.447509765625,0.0126953125,-0.22607421875,1.1985
2.0,-0.5190839694656488,-2.33587786259542,-0.44970703125,0.013671875,-0.23388671875,1.2002
1.8778625954198473,-0.6106870229007634,-2.213740458015267,-0.448486328125,0.013427734375,-0.236083984375,1.2019
1.5877862595419847,-0.5648854961832062,-2.4122137404580153,-0.44482421875,0.013916015625,-0.233154296875,1.2036
1.5725190839694656,-0.7022900763358778,-2.2595419847328246,-0.4404296875,0.014404296875,-0.23046875,1.2053
1.450381679389313,-0.8549618320610687,-2.549618320610687,-0.44775390625,0.014892578125,-0.239990234375,1.2069999999999999
1.1145038167938932,-0.8854961832061069,-2.427480916030534,-0.447021484375,0.0107421875,-0.23291015625,1.2086999999999999
0.9618320610687023,-1.1450381679389312,-2.3969465648854964,-0.447509765625,0.010986328125,-0.224365234375,1.2104
1.0534351145038168,-1.1145038167938932,-2.381679389312977,-0.446533203125,0.015625,-0.239501953125,1.2121
0.7480916030534351,-1.2366412213740459,-2.2900763358778624,-0.4501953125,0.016357421875,-0.238525390625,1.2138
0.3511450381679389,-1.2671755725190839,-2.4580152671755724,-0.453125,0.0146484375,-0.239990234375,1.2155
0.07633587786259542,-0.9312977099236641,-2.351145038167939,-0.449462890625,0.01513671875,-0.2373046875,1.2171999999999998
0.0916030534351145,-1.297709923664122,-2.213740458015267,-0.454833984375,0.011962890625,-0.23583984375,1.2188999999999999
0.10687022900763359,-1.0381679389312977,-2.2442748091603053,-0.448486328125,0.01318359375,-0.2353515625,1.2206
-0.04580152671755725,-0.6717557251908397,-1.9694656488549618,-0.45458984375,0.014892578125,-0.236328125,1.2223
-0.07633587786259542,-0.6564885496183206,-1.9694656488549618,-0.45263671875,0.01611328125,-0.235595703125,1.224
-0.21374045801526717,-0.42748091603053434,-1.7709923664122138,-0.454833984375,0.01611328125,-0.238037109375,1.2257
-0.22900763358778625,-0.24427480916030533,-1.9083969465648856,-0.455078125,0.018798828125,-0.2529296875,1.2273999999999998
-0.2748091603053435,-0.6564885496183206,-1.7251908396946565,-0.469482421875,0.02099609375,-0.248291015625,1.2290999999999999
-0.183206106870229,-1.7404580152671756,-1.7251908396946565,-0.47900390625,0.02978515625,-0.241943359375,1.2308
0.3816793893129771,-2.687022900763359,-1.465648854961832,-0.482177734375,0.025634765625,-0.228271484375,1.2325
0.7022900763358778,-2.7022900763358777,-1.083969465648855,-0.48046875,0.020751953125,-0.22607421875,1.2342
0.6412213740458015,-0.9770992366412213,-0.916030534351145,-0.47900390625,0.02587890625,-0.2373046875,1.2359
0.3816793893129771,1.2213740458015268,-0.7786259541984732,-0.47509765625,0.023193359375,-0.241943359375,1.2376
-0.1984732824427481,3.877862595419847,-0.366412213740458,-0.470947265625,0.022216796875,-0.23828125,1.2392999999999998
-0.3816793893129771,5.740458015267175,-0.549618320610687,-0.470703125,0.018310546875,-0.23095703125,1.2409999999999999
-0.5801526717557252,7.3893129770992365,-0.4122137404580153,-0.46875,0.024169921875,-0.236328125,1.2427
-0.7633587786259542,7.969465648854962,-0.5801526717557252,-0.470703125,0.021728515625,-0.23779296875,1.2444
-0.7175572519083969,7.709923664122138,-0.9770992366412213,-0.4560546875,0.017578125,-0.23486328125,1.2461
-0.42748091603053434,7.419847328244275,-1.2671755725190839,-0.447998046875,0.01806640625,-0.231201171875,1.2478
-0.48854961832061067,7.190839694656488,-1.6030534351145038,-0.44189453125,0.01708984375,-0.236083984375,1.2494999999999998
-0.5954198473282443,7.114503816793893,-1.9541984732824427,-0.431640625,0.016845703125,-0.23876953125,1.2511999999999999
-0.5648854961832062,6.778625954198473,-2.0610687022900764,-0.428955078125,0.0146484375,-0.23583984375,1.2529
-0.5801526717557252,6.152671755725191,-2.0610687022900764,-0.42529296875,0.01611328125,-0.236083984375,1.2546
-0.5648854961832062,5.557251908396947,-2.183206106870229,-0.418212890625,0.013427734375,-0.244140625,1.2563
-0.732824427480916,4.458015267175573,-1.8931297709923665,-0.419189453125,0.02294921875,-0.243408203125,1.258
-0.7938931297709924,2.931297709923664,-1.8015267175572518,-0.417236328125,0.01611328125,-0.241943359375,1.2596999999999998
-0.5343511450381679,1.7404580152671756,-1.83206106870229,-0.414306640625,0.01708984375,-0.23583984375,1.2613999999999999
-0.183206106870229,0.6870229007633588,-1.9541984732824427,-0.41650390625,0.015625,-0.24169921875,1.2631
-0.2748091603053435,-0.4732824427480916,-1.83206106870229,-0.415283203125,0.019775390625,-0.237548828125,1.2648
0.15267175572519084,-1.8015267175572518,-1.9389312977099236,-0.41748046875,0.01806640625,-0.24609375,1.2665
0.3053435114503817,-2.854961832061069,-2.16793893129771,-0.427001953125,0.015380859375,-0.245849609375,1.2682
0.5343511450381679,-3.5267175572519083,-2.8396946564885495,-0.432373046875,0.022216796875,-0.23974609375,1.2699
1.0381679389312977,-4.33587786259542,-3.282442748091603,-0.43408203125,0.023681640625,-0.243408203125,1.2715999999999998
1.2671755725190839,-4.396946564885496,-3.6793893129770994,-0.436279296875,0.021484375,-0.2373046875,1.2732999999999999
1.1145038167938932,-4.534351145038168,-3.7709923664122136,-0.448974609375,0.02783203125,-0.243408203125,1.275
0.9618320610687023,-4.2748091603053435,-4.259541984732825,-0.4501953125,0.0244140625,-0.24072265625,1.2767
1.0076335877862594,-3.7557251908396947,-4.015267175572519,-0.4560546875,0.0244140625,-0.23974609375,1.2784
1.0076335877862594,-3.2977099236641223,-3.954198473282443,-0.458984375,0.01513671875,-0.248291015625,1.2801
0.6412213740458015,-2.6564885496183206,-3.6946564885496183,-0.46142578125,0.015869140625,-0.231201171875,1.2817999999999998
0.366412213740458,-2.1068702290076335,-3.5419847328244276,-0.46435546875,0.013427734375,-0.23388671875,1.2834999999999999
0.3816793893129771,-1.5877862595419847,-3.1603053435114505,-0.463623046875,0.013916015625,-0.245361328125,1.2852
0.21374045801526717,-1.0076335877862594,-2.946564885496183,-0.46435546875,0.013671875,-0.244140625,1.2869
0.061068702290076333,-0.7175572519083969,-2.4580152671755724,-0.4619140625,0.013427734375,-0.237548828125,1.2886
-0.12213740458015267,-0.3969465648854962,-2.3206106870229006,-0.454345703125,0.015869140625,-0.241455078125,1.2903
-0.13740458015267176,-0.32061068702290074,-1.7251908396946565,-0.460205078125,0.017822265625,-0.237548828125,1.292
-0.12213740458015267,-0.21374045801526717,-1.7404580152671756,-0.454345703125,0.0224609375,-0.23876953125,1.2936999999999999
-0.0916030534351145,-0.24427480916030533,-1.5419847328244274,-0.453857421875,0.020751953125,-0.24462890625,1.2953999999999999
0.183206106870229,-0.33587786259541985,-1.5419847328244274,-0.448486328125,0.02587890625,-0.236572265625,1.2971
0.48854961832061067,-0.7022900763358778,-1.450381679389313,-0.448486328125,0.02685546875,-0.23681640625,1.2988
0.4122137404580153,-0.8702290076335878,-1.4809160305343512,-0.4462890625,0.027099609375,-0.2431640625,1.3005
0.5038167938931297,-0.916030534351145,-1.3740458015267176,-0.44091796875,0.020751953125,-0.23828125,1.3022
0.4580152671755725,-1.1297709923664123,-1.6488549618320612,-0.44140625,0.017578125,-0.237060546875,1.3038999999999998
0.7480916030534351,-1.2366412213740459,-1.7404580152671756,-0.438232421875,0.022216796875,-0.24365234375,1.3055999999999999
0.7022900763358778,-1.1603053435114503,-2.030534351145038,-0.437255859375,0.0166015625,-0.24658203125,1.3073
0.8091603053435115,-1.1450381679389312,-2.015267175572519,-0.44091796875,0.01904296875,-0.25048828125,1.309
0.916030534351145,-1.1908396946564885,-2.3206106870229006,-0.447021484375,0.01611328125,-0.2548828125,1.3107
0.6870229007633588,-2.4122137404580153,-2.50381679389313,-0.45068359375,0.022705078125,-0.24365234375,1.3124
0.7633587786259542,-4.152671755725191,-2.4122137404580153,-0.453857421875,0.020751953125,-0.23193359375,1.3140999999999998
1.3129770992366412,-4.687022900763359,-2.015267175572519,-0.456298828125,0.025634765625,-0.233154296875,1.3157999999999999
1.4961832061068703,-3.9083969465648853,-2.0763358778625953,-0.456298828125,0.021728515625,-0.24072265625,1.3175
1.2213740458015268,-3.2061068702290076,-1.7404580152671756,-0.456298828125,0.021728515625,-0.2412109375,1.3192
1.1297709923664123,-2.33587786259542,-1.4809160305343512,-0.46337890625,0.026123046875,-0.237060546875,1.3209
0.6870229007633588,-1.5114503816793894,-1.0229007633587786,-0.4658203125,0.02783203125,-0.24755859375,1.3226
0.9312977099236641,-0.6564885496183206,-1.1145038167938932,-0.46630859375,0.02783203125,-0.24462890625,1.3243
0.8091603053435115,-0.04580152671755725,-0.7786259541984732,-0.46484375,0.02490234375,-0.2392578125,1.3259999999999998
0.8702290076335878,0.12213740458015267,-0.7786259541984732,-0.467529296875,0.024658203125,-0.24072265625,1.3276999999999999
1.0229007633587786,0.8396946564885496,-0.5801526717557252,-0.46728515625,0.025146484375,-0.2333984375,1.3294
1.0381679389312977,1.465648854961832,-0.8244274809160306,-0.457763671875,0.019287109375,-0.236083984375,1.3311
1.083969465648855,1.6488549618320612,-0.7022900763358778,-0.45654296875,0.0205078125,-0.246337890625,1.3328
0.916030534351145,2.015267175572519,-0.6412213740458015,-0.44921875,0.02294921875,-0.243408203125,1.3345
1.1908396946564885,2.1068702290076335,-0.8396946564885496,-0.454833984375,0.026611328125,-0.2421875,1.3361999999999998
1.3129770992366412,2.0916030534351147,-0.9770992366412213,-0.447998046875,0.024169921875,-0.24169921875,1.3378999999999999
1.282442748091603,2.16793893129771,-0.7786259541984732,-0.44921875,0.02587890625,-0.2412109375,1.3396
1.3129770992366412,1.9236641221374047,-0.8854961832061069,-0.44189453125,0.02197265625,-0.23974609375,1.3413
1.633587786259542,1.8015267175572518,-0.8854961832061069,-0.447265625,0.017333984375,-0.23974609375,1.343
1.6030534351145038,1.633587786259542,-1.1297709923664123,-0.43994140625,0.02001953125,-0.240234375,1.3447
1.4351145038167938,1.1450381679389312,-1.1755725190839694,-0.44091796875,0.019287109375,-0.24072265625,1.3463999999999998
1.1755725190839694,0.9007633587786259,-1.3740458015267176,-0.44580078125,0.015380859375,-0.24560546875,1.3480999999999999
1.251908396946565,0.6412213740458015,-1.5114503816793894,-0.442138671875,0.019287109375,-0.23974609375,1.3497999999999999
1.4809160305343512,0.15267175572519084,-1.618320610687023,-0.44140625,0.018310546875,-0.23974609375,1.3515
1.1603053435114503,0.07633587786259542,-1.786259541984733,-0.44482421875,0.02294921875,-0.2353515625,1.3532
1.2213740458015268,-0.2595419847328244,-1.9694656488549618,-0.437744140625,0.019775390625,-0.238037109375,1.3549
1.2671755725190839,-0.2595419847328244,-2.045801526717557,-0.4443359375,0.019287109375,-0.239013671875,1.3566
1.1908396946564885,-0.366412213740458,-2.2442748091603053,-0.442138671875,0.015380859375,-0.240234375,1.3582999999999998
1.2671755725190839,-0.3969465648854962,-2.33587786259542,-0.44384765625,0.0224609375,-0.243408203125,1.3599999999999999
1.4045801526717556,-0.5648854961832062,-2.4580152671755724,-0.4443359375,0.030029296875,-0.239501953125,1.3617
1.4809160305343512,-0.6564885496183206,-2.3053435114503817,-0.442138671875,0.025390625,-0.23828125,1.3634
1.5725190839694656,-0.7022900763358778,-2.2748091603053435,-0.44140625,0.02001953125,-0.240234375,1.3651
1.816793893129771,-0.5343511450381679,-2.045801526717557,-0.444580078125,0.02490234375,-0.23974609375,1.3668
1.5877862595419847,-0.48854961832061067,-1.9083969465648856,-0.448486328125,0.02587890625,-0.24072265625,1.3684999999999998
1.5877862595419847,-0.6106870229007634,-2.030534351145038,-0.447998046875,0.026611328125,-0.2275390625,1.3701999999999999
1.8625954198473282,-0.9465648854961832,-2.0763358778625953,-0.446533203125,0.026611328125,-0.2265625,1.3719
1.786259541984733,-1.1755725190839694,-1.83206106870229,-0.446044921875,0.024169921875,-0.2431640625,1.3736
1.8778625954198473,-1.2213740458015268,-1.9236641221374047,-0.44580078125,0.019287109375,-0.23583984375,1.3753
1.786259541984733,-1.1145038167938932,-2.0916030534351147,-0.4482421875,0.0205078125,-0.236328125,1.377
1.5267175572519085,-1.282442748091603,-2.0763358778625953,-0.453857421875,0.019775390625,-0.23974609375,1.3786999999999998
1.786259541984733,-1.251908396946565,-1.8473282442748091,-0.447509765625,0.02197265625,-0.225341796875,1.3803999999999998
2.015267175572519,-1.4809160305343512,-1.7099236641221374,-0.4482421875,0.02587890625,-0.225830078125,1.3820999999999999
1.6946564885496183,-1.5572519083969465,-2.015267175572519,-0.44921875,0.019775390625,-0.230712890625,1.3838
1.8015267175572518,-1.5572519083969465,-2.1374045801526718,-0.444580078125,0.02197265625,-0.234375,1.3855
1.7251908396946565,-1.297709923664122,-1.816793893129771,-0.44384765625,0.0146484375,-0.232421875,1.3872
1.5572519083969465,-1.4045801526717556,-1.8778625954198473,-0.4443359375,0.017822265625,-0.234375,1.3889
1.83206106870229,-1.3893129770992367,-2.198473282442748,-0.4453125,0.019287109375,-0.23828125,1.3905999999999998
1.9694656488549618,-1.984732824427481,-2.366412213740458,-0.45068359375,0.02001953125,-0.2353515625,1.3922999999999999
1.7404580152671756,-2.2748091603053435,-2.4885496183206106,-0.449462890625,0.020751953125,-0.2373046875,1.394
1.9083969465648856,-2.366412213740458,-2.6259541984732824,-0.44921875,0.01953125,-0.24169921875,1.3957
1.6793893129770991,-2.564885496183206,-2.6717557251908395,-0.453125,0.020751953125,-0.238037109375,1.3974
1.7709923664122138,-2.5801526717557253,-2.427480916030534,-0.449462890625,0.01708984375,-0.239990234375,1.3991
1.5419847328244274,-2.2748091603053435,-2.5343511450381677,-0.45556640625,0.013427734375,-0.245361328125,1.4007999999999998
1.633587786259542,-1.816793893129771,-2.3969465648854964,-0.460205078125,0.0234375,-0.233642578125,1.4024999999999999
1.3893129770992367,-1.5725190839694656,-2.4885496183206106,-0.456298828125,0.019775390625,-0.23828125,1.4042
1.3282442748091603,-1.3282442748091603,-2.4732824427480917,-0.4599609375,0.01611328125,-0.2431640625,1.4059
1.1603053435114503,-1.0381679389312977,-2.4122137404580153,-0.457275390625,0.020263671875,-0.24365234375,1.4076
1.1603053435114503,-0.8244274809160306,-2.2900763358778624,-0.465087890625,0.022216796875,-0.237060546875,1.4093
1.0534351145038168,-0.7022900763358778,-2.351145038167939,-0.459716796875,0.014892578125,-0.23681640625,1.411
0.9007633587786259,-0.549618320610687,-2.1526717557251906,-0.454833984375,0.019287109375,-0.236328125,1.4126999999999998
0.916030534351145,-0.42748091603053434,-2.122137404580153,-0.4521484375,0.015625,-0.23388671875,1.4143999999999999
0.8702290076335878,-0.42748091603053434,-2.0916030534351147,-0.4560546875,0.014892578125,-0.23779296875,1.4161
0.9923664122137404,-0.22900763358778625,-2.015267175572519,-0.449951171875,0.02001953125,-0.233642578125,1.4178
0.8549618320610687,-0.13740458015267176,-2.0610687022900764,-0.454345703125,0.021728515625,-0.23046875,1.4195
0.7022900763358778,-0.4122137404580153,-1.9694656488549618,-0.45068359375,0.02001953125,-0.24072265625,1.4212
0.7633587786259542,-0.2748091603053435,-1.8778625954198473,-0.447021484375,0.02099609375,-0.2314453125,1.4228999999999998
0.6259541984732825,-0.24427480916030533,-2.1526717557251906,-0.4453125,0.021484375,-0.2431640625,1.4245999999999999
0.8244274809160306,-0.5343511450381679,-2.2290076335877864,-0.4453125,0.01953125,-0.2392578125,1.4263
0.6717557251908397,-0.5801526717557252,-2.2748091603053435,-0.448486328125,0.01708984375,-0.24072265625,1.428
0.7633587786259542,-0.4580152671755725,-2.2290076335877864,-0.45166015625,0.017578125,-0.236328125,1.4297
0.8549618320610687,-0.6412213740458015,-2.2290076335877864,-0.444580078125,0.0224609375,-0.23974609375,1.4314
0.7633587786259542,-0.6412213740458015,-2.030534351145038,-0.448486328125,0.022216796875,-0.231689453125,1.4330999999999998
0.9312977099236641,-0.9312977099236641,-2.1526717557251906,-0.446533203125,0.021728515625,-0.2314453125,1.4347999999999999
0.8091603053435115,-0.9465648854961832,-2.1374045801526718,-0.44970703125,0.017822265625,-0.22705078125,1.4364999999999999
0.7633587786259542,-0.8549618320610687,-2.2442748091603053,-0.4541015625,0.017333984375,-0.23974609375,1.4382
0.7786259541984732,-0.8091603053435115,-2.2748091603053435,-0.45703125,0.01171875,-0.2451171875,1.4399
0.6870229007633588,-0.8549618320610687,-2.427480916030534,-0.44677734375,0.023193359375,-0.235595703125,1.4416
0.8396946564885496,-0.7938931297709924,-2.3206106870229006,-0.452880859375,0.025634765625,-0.237060546875,1.4433
0.8091603053435115,-0.6106870229007634,-2.1526717557251906,-0.4482421875,0.02099609375,-0.23828125,1.4449999999999998
0.5038167938931297,-0.3816793893129771,-2.183206106870229,-0.457275390625,0.024658203125,-0.235107421875,1.4466999999999999
0.6717557251908397,-0.5038167938931297,-2.198473282442748,-0.451416015625,0.01953125,-0.240478515625,1.4484
0.8702290076335878,-0.6717557251908397,-2.0763358778625953,-0.450927734375,0.020263671875,-0.245361328125,1.4501
0.6564885496183206,-0.5190839694656488,-2.366412213740458,-0.44482421875,0.02099609375,-0.2333984375,1.4518
0.6870229007633588,-0.366412213740458,-2.1374045801526718,-0.4521484375,0.020751953125,-0.230712890625,1.4535
0.7175572519083969,-0.3053435114503817,-2.2900763358778624,-0.447998046875,0.021728515625,-0.22705078125,1.4551999999999998
0.9007633587786259,-0.5190839694656488,-2.0763358778625953,-0.452880859375,0.01611328125,-0.239013671875,1.4568999999999999
0.6412213740458015,-0.5038167938931297,-2.213740458015267,-0.455322265625,0.021728515625,-0.23486328125,1.4586
0.6717557251908397,-0.5038167938931297,-2.0916030534351147,-0.448974609375,0.016845703125,-0.234619140625,1.4603
0.916030534351145,-0.5801526717557252,-2.2748091603053435,-0.44970703125,0.01318359375,-0.232177734375,1.462
0.7633587786259542,-0.6870229007633588,-2.030534351145038,-0.456298828125,0.016357421875,-0.232421875,1.4637
0.9007633587786259,-0.5954198473282443,-2.366412213740458,-0.448486328125,0.020263671875,-0.232666015625,1.4653999999999998
1.1450381679389312,-0.7022900763358778,-2.1068702290076335,-0.447509765625,0.01904296875,-0.220703125,1.4670999999999998
0.9618320610687023,-0.8091603053435115,-2.3053435114503817,-0.449462890625,0.017822265625,-0.2431640625,1.4687999999999999
1.0076335877862594,-0.7938931297709924,-2.030534351145038,-0.454345703125,0.0166015625,-0.23876953125,1.4705
1.0687022900763359,-0.6717557251908397,-2.2900763358778624,-0.457763671875,0.02001953125,-0.23388671875,1.4722
0.9312977099236641,-0.8244274809160306,-2.045801526717557,-0.4521484375,0.018798828125,-0.232421875,1.4739
0.9312977099236641,-0.7786259541984732,-2.0610687022900764,-0.453857421875,0.015625,-0.224853515625,1.4756
0.8702290076335878,-0.7175572519083969,-2.1374045801526718,-0.456298828125,0.01806640625,-0.2294921875,1.4772999999999998
0.8549618320610687,-0.5190839694656488,-2.198473282442748,-0.459716796875,0.017578125,-0.2333984375,1.4789999999999999
0.7938931297709924,-0.7175572519083969,-2.0610687022900764,-0.453369140625,0.015380859375,-0.22998046875,1.4807
0.8702290076335878,-0.5954198473282443,-2.198473282442748,-0.45751953125,0.018798828125,-0.228515625,1.4824
0.8702290076335878,-0.44274809160305345,-2.0763358778625953,-0.450927734375,0.019287109375,-0.22119140625,1.4841
0.8244274809160306,-0.5648854961832062,-2.0916030534351147,-0.45068359375,0.01953125,-0.22314453125,1.4858
0.8549618320610687,-0.6106870229007634,-2.045801526717557,-0.45361328125,0.01953125,-0.235595703125,1.4874999999999998
0.9770992366412213,-0.4122137404580153,-2.1068702290076335,-0.453369140625,0.019775390625,-0.234619140625,1.4891999999999999
0.8702290076335878,-0.6717557251908397,-1.9236641221374047,-0.457275390625,0.0185546875,-0.2314453125,1.4909
1.0534351145038168,-0.4732824427480916,-1.9694656488549618,-0.453369140625,0.01611328125,-0.228759765625,1.4926
0.732824427480916,-0.44274809160305345,-1.83206106870229,-0.450439453125,0.014892578125,-0.2275390625,1.4943
0.7938931297709924,-0.5801526717557252,-2.045801526717557,-0.451904296875,0.0205078125,-0.235595703125,1.496
0.6717557251908397,-0.4580152671755725,-2.030534351145038,-0.45361328125,0.0234375,-0.229248046875,1.4976999999999998
0.7938931297709924,-0.42748091603053434,-2.1374045801526718,-0.449462890625,0.01611328125,-0.236572265625,1.4993999999999998
1.0687022900763359,-0.6259541984732825,-1.7099236641221374,-0.44677734375,0.01806640625,-0.23486328125,1.5010999999999999
0.732824427480916,-0.732824427480916,-1.786259541984733,-0.44873046875,0.018798828125,-0.227783203125,1.5028
0.8702290076335878,-0.7480916030534351,-2.183206106870229,-0.446533203125,0.018798828125,-0.227783203125,1.5045
0.732824427480916,-0.9465648854961832,-2.015267175572519,-0.45361328125,0.014892578125,-0.220947265625,1.5062
0.8396946564885496,-0.7022900763358778,-1.984732824427481,-0.453125,0.01904296875,-0.229736328125,1.5079
0.8702290076335878,-0.7786259541984732,-2.015267175572519,-0.450439453125,0.013671875,-0.232177734375,1.5095999999999998
0.9465648854961832,-0.9312977099236641,-2.0,-0.448486328125,0.01513671875,-0.2392578125,1.5112999999999999
0.9007633587786259,-0.9312977099236641,-1.9083969465648856,-0.448974609375,0.01953125,-0.2333984375,1.513
0.7786259541984732,-0.8854961832061069,-1.7099236641221374,-0.4521484375,0.010498046875,-0.23193359375,1.5147
0.9618320610687023,-1.0229007633587786,-1.9541984732824427,-0.44873046875,0.0166015625,-0.230712890625,1.5164
0.8244274809160306,-1.1145038167938932,-1.8778625954198473,-0.451416015625,0.013427734375,-0.22900390625,1.5181
0.8091603053435115,-1.1145038167938932,-1.816793893129771,-0.449462890625,0.014892578125,-0.227294921875,1.5197999999999998
0.8396946564885496,-0.8854961832061069,-2.030534351145038,-0.452880859375,0.015869140625,-0.240478515625,1.5214999999999999
0.6412213740458015,-0.8702290076335878,-1.8473282442748091,-0.451904296875,0.0166015625,-0.239013671875,1.5231999999999999
1.0076335877862594,-0.7938931297709924,-2.0610687022900764,-0.4501953125,0.0146484375,-0.22802734375,1.5249
1.2213740458015268,-0.7022900763358778,-1.984732824427481,-0.45361328125,0.017578125,-0.232421875,1.5266
0.9312977099236641,-0.8854961832061069,-1.8778625954198473,-0.453369140625,0.01953125,-0.2353515625,1.5283
0.8702290076335878,-0.916030534351145,-1.7251908396946565,-0.453857421875,0.019775390625,-0.225830078125,1.5299999999999998
1.083969465648855,-0.5190839694656488,-1.7709923664122138,-0.4580078125,0.017578125,-0.237548828125,1.5316999999999998
0.8091603053435115,-0.5190839694656488,-1.8473282442748091,-0.45556640625,0.019287109375,-0.23876953125,1.5333999999999999
0.7786259541984732,-0.5343511450381679,-1.83206106870229,-0.457763671875,0.019287109375,-0.238525390625,1.5351
1.0076335877862594,-0.33587786259541985,-1.786259541984733,-0.452392578125,0.021728515625,-0.22802734375,1.5368
0.9618320610687023,-0.2595419847328244,-1.7404580152671756,-0.4560546875,0.019775390625,-0.22900390625,1.5385
1.1145038167938932,-0.16793893129770993,-1.6946564885496183,-0.459716796875,0.02099609375,-0.236083984375,1.5402
0.9770992366412213,-0.1984732824427481,-1.6641221374045803,-0.45654296875,0.019287109375,-0.229736328125,1.5418999999999998
1.0534351145038168,0.0,-1.618320610687023,-0.45947265625,0.01708984375,-0.232177734375,1.5435999999999999
1.0381679389312977,0.3816793893129771,-1.6793893129770991,-0.456787109375,0.01904296875,-0.23291015625,1.5453
0.8396946564885496,0.3969465648854962,-1.8015267175572518,-0.45947265625,0.009033203125,-0.23388671875,1.547
1.1603053435114503,0.2900763358778626,-1.8015267175572518,-0.451171875,0.01513671875,-0.224609375,1.5487
1.099236641221374,0.366412213740458,-1.5725190839694656,-0.45654296875,0.012939453125,-0.22216796875,1.5504
0.8702290076335878,0.5343511450381679,-1.5572519083969465,-0.44970703125,0.017578125,-0.23291015625,1.5520999999999998
1.0229007633587786,0.44274809160305345,-1.5114503816793894,-0.456787109375,0.016845703125,-0.237548828125,1.5537999999999998
0.8091603053435115,0.549618320610687,-1.6793893129770991,-0.4580078125,0.02197265625,-0.236328125,1.5554999999999999
1.0687022900763359,0.6259541984732825,-1.633587786259542,-0.458984375,0.0224609375,-0.23779296875,1.5572
0.8549618320610687,0.732824427480916,-1.5267175572519085,-0.454345703125,0.0205078125,-0.232177734375,1.5589
1.0229007633587786,0.7022900763358778,-1.618320610687023,-0.456787109375,0.01416015625,-0.23486328125,1.5606
0.8396946564885496,0.9465648854961832,-1.7404580152671756,-0.457763671875,0.01708984375,-0.235107421875,1.5623
0.7480916030534351,1.0687022900763359,-1.618320610687023,-0.451171875,0.01513671875,-0.2353515625,1.5639999999999998
1.0229007633587786,1.0076335877862594,-1.5725190839694656,-0.454833984375,0.01953125,-0.22607421875,1.5656999999999999
0.8244274809160306,1.1450381679389312,-1.4351145038167938,-0.454833984375,0.0185546875,-0.2197265625,1.5674
0.8702290076335878,1.1297709923664123,-1.5267175572519085,-0.453857421875,0.01904296875,-0.226806640625,1.5691
0.9923664122137404,1.2366412213740459,-1.5419847328244274,-0.453125,0.016845703125,-0.233154296875,1.5708
0.8854961832061069,1.1297709923664123,-1.7557251908396947,-0.454833984375,0.02197265625,-0.23388671875,1.5725
1.0687022900763359,1.0076335877862594,-1.3893129770992367,-0.4521484375,0.019775390625,-0.228515625,1.5741999999999998
0.916030534351145,1.1297709923664123,-1.3129770992366412,-0.452880859375,0.013916015625,-0.22705078125,1.5758999999999999
0.9618320610687023,1.251908396946565,-1.4351145038167938,-0.45849609375,0.0166015625,-0.2275390625,1.5776
1.0229007633587786,1.3282442748091603,-1.5267175572519085,-0.4580078125,0.018310546875,-0.223876953125,1.5793
0.8396946564885496,1.1908396946564885,-1.2671755725190839,-0.454833984375,0.023193359375,-0.219482421875,1.581
0.8549618320610687,1.5267175572519085,-1.3587786259541985,-0.457275390625,0.019287109375,-0.228515625,1.5827
1.1450381679389312,1.4961832061068703,-1.3129770992366412,-0.453369140625,0.015625,-0.228515625,1.5843999999999998
0.9618320610687023,1.5267175572519085,-1.2671755725190839,-0.450927734375,0.0205078125,-0.22998046875,1.5860999999999998
1.0076335877862594,1.6488549618320612,-1.2061068702290076,-0.45703125,0.018798828125,-0.235595703125,1.5877999999999999
0.9007633587786259,1.7709923664122138,-1.3740458015267176,-0.4521484375,0.02001953125,-0.2353515625,1.5895
0.9770992366412213,1.7709923664122138,-1.2671755725190839,-0.451416015625,0.021484375,-0.228759765625,1.5912
0.8549618320610687,1.7557251908396947,-1.282442748091603,-0.4541015625,0.017333984375,-0.232177734375,1.5929
1.0076335877862594,1.6793893129770991,-1.1297709923664123,-0.458984375,0.021484375,-0.236328125,1.5946
1.1450381679389312,1.9236641221374047,-1.2366412213740459,-0.454833984375,0.021240234375,-0.237548828125,1.5962999999999998
0.9312977099236641,1.7251908396946565,-1.2366412213740459,-0.454833984375,0.01611328125,-0.234130859375,1.5979999999999999
0.8091603053435115,1.8473282442748091,-1.3435114503816794,-0.4580078125,0.019775390625,-0.230712890625,1.5997
1.0381679389312977,1.8625954198473282,-1.3893129770992367,-0.455078125,0.019287109375,-0.233154296875,1.6014
0.9923664122137404,1.8625954198473282,-1.3129770992366412,-0.453857421875,0.01806640625,-0.230712890625,1.6031
0.8854961832061069,1.8015267175572518,-1.1908396946564885,-0.446044921875,0.020751953125,-0.224365234375,1.6048
1.0687022900763359,1.6946564885496183,-1.3129770992366412,-0.451416015625,0.015625,-0.23046875,1.6064999999999998
1.0687022900763359,1.8625954198473282,-1.1145038167938932,-0.446044921875,0.014892578125,-0.23291015625,1.6081999999999999
0.8244274809160306,1.8015267175572518,-1.2061068702290076,-0.453857421875,0.013671875,-0.222900390625,1.6098999999999999
0.7786259541984732,1.9541984732824427,-1.1145038167938932,-0.451416015625,0.017822265625,-0.228515625,1.6116
0.8854961832061069,1.9694656488549618,-1.1603053435114503,-0.454345703125,0.01806640625,-0.23388671875,1.6133
0.7633587786259542,1.816793893129771,-0.9312977099236641,-0.447998046875,0.02001953125,-0.232666015625,1.615
0.8396946564885496,1.786259541984733,-1.0534351145038168,-0.453125,0.019287109375,-0.23828125,1.6166999999999998
0.9770992366412213,1.9236641221374047,-1.0687022900763359,-0.453857421875,0.021240234375,-0.237060546875,1.6183999999999998
0.8854961832061069,2.045801526717557,-1.0076335877862594,-0.45166015625,0.015869140625,-0.2275390625,1.6200999999999999
0.8854961832061069,2.015267175572519,-0.9770992366412213,-0.456787109375,0.015380859375,-0.228271484375,1.6218
0.916030534351145,1.9083969465648856,-1.083969465648855,-0.452392578125,0.015380859375,-0.2333984375,1.6235
0.7786259541984732,1.9541984732824427,-0.7480916030534351,-0.44775390625,0.013916015625,-0.2236328125,1.6252
0.7022900763358778,2.1526717557251906,-0.9465648854961832,-0.453369140625,0.02001953125,-0.234130859375,1.6269
0.6870229007633588,2.1374045801526718,-0.7633587786259542,-0.45361328125,0.01611328125,-0.2333984375,1.6285999999999998
0.8702290076335878,1.9541984732824427,-0.8244274809160306,-0.455322265625,0.015625,-0.232177734375,1.6302999999999999
0.7938931297709924,2.045801526717557,-0.7480916030534351,-0.454345703125,0.018798828125,-0.241455078125,1.632
0.7633587786259542,2.2900763358778624,-0.8396946564885496,-0.456787109375,0.013916015625,-0.234130859375,1.6337
0.7786259541984732,2.1526717557251906,-0.7938931297709924,-0.45263671875,0.02294921875,-0.2314453125,1.6354
0.6717557251908397,2.213740458015267,-0.7480916030534351,-0.453857421875,0.02001953125,-0.237060546875,1.6371
0.7938931297709924,2.2442748091603053,-0.6259541984732825,-0.4541015625,0.014892578125,-0.232421875,1.6387999999999998
0.8244274809160306,2.183206106870229,-0.6412213740458015,-0.45751953125,0.014892578125,-0.2294921875,1.6404999999999998
0.732824427480916,2.3969465648854964,-0.48854961832061067,-0.452880859375,0.013916015625,-0.23974609375,1.6421999999999999
1.099236641221374,2.3969465648854964,-0.3969465648854962,-0.44921875,0.01708984375,-0.23046875,1.6439
0.8549618320610687,2.427480916030534,-0.5190839694656488,-0.4501953125,0.016845703125,-0.22802734375,1.6456
1.0229007633587786,2.16793893129771,-0.5648854961832062,-0.44677734375,0.02197265625,-0.229248046875,1.6473
0.8702290076335878,2.213740458015267,-0.366412213740458,-0.454833984375,0.018798828125,-0.23681640625,1.6489999999999998
0.7633587786259542,2.1526717557251906,-0.33587786259541985,-0.44921875,0.015625,-0.231689453125,1.6506999999999998
0.916030534351145,2.122137404580153,-0.24427480916030533,-0.450439453125,0.01416015625,-0.234619140625,1.6523999999999999
0.7633587786259542,1.8625954198473282,-0.22900763358778625,-0.453369140625,0.019287109375,-0.2265625,1.6541
0.9770992366412213,1.9236641221374047,-0.2595419847328244,-0.45068359375,0.01708984375,-0.23681640625,1.6558
0.8549618320610687,1.9694656488549618,-0.1984732824427481,-0.450439453125,0.018310546875,-0.22998046875,1.6575
0.8244274809160306,2.0610687022900764,-0.2748091603053435,-0.447509765625,0.01611328125,-0.237548828125,1.6592
0.916030534351145,1.7404580152671756,-0.061068702290076333,-0.45458984375,0.014404296875,-0.23974609375,1.6608999999999998
0.9618320610687023,2.045801526717557,-0.07633587786259542,-0.455322265625,0.013427734375,-0.2392578125,1.6625999999999999
0.9465648854961832,1.8931297709923665,-0.015267175572519083,-0.453369140625,0.019775390625,-0.233154296875,1.6643
0.8091603053435115,2.030534351145038,-0.12213740458015267,-0.455322265625,0.01318359375,-0.231689453125,1.666
0.9465648854961832,1.9694656488549618,0.07633587786259542,-0.450927734375,0.017578125,-0.231689453125,1.6677
0.9618320610687023,1.9389312977099236,0.32061068702290074,-0.45556640625,0.019287109375,-0.235595703125,1.6694
0.9007633587786259,2.1374045801526718,0.2748091603053435,-0.451904296875,0.016845703125,-0.227783203125,1.6710999999999998
0.8396946564885496,2.122137404580153,0.183206106870229,-0.453125,0.02294921875,-0.229248046875,1.6727999999999998
0.916030534351145,2.045801526717557,0.061068702290076333,-0.453369140625,0.019287109375,-0.23681640625,1.6744999999999999
0.7938931297709924,2.3206106870229006,-0.13740458015267176,-0.45263671875,0.0185546875,-0.23681640625,1.6762
0.732824427480916,2.1374045801526718,0.21374045801526717,-0.451416015625,0.015625,-0.229248046875,1.6779
0.7022900763358778,2.2290076335877864,-0.07633587786259542,-0.4521484375,0.01611328125,-0.2294921875,1.6796
0.5343511450381679,2.366412213740458,0.2595419847328244,-0.453857421875,0.0166015625,-0.2294921875,1.6813
0.6412213740458015,2.4122137404580153,0.21374045801526717,-0.448974609375,0.018798828125,-0.229248046875,1.6829999999999998
0.6106870229007634,2.519083969465649,0.2595419847328244,-0.44921875,0.018798828125,-0.23291015625,1.6846999999999999
0.6259541984732825,2.6412213740458017,0.21374045801526717,-0.450927734375,0.01953125,-0.23974609375,1.6864
0.7175572519083969,2.564885496183206,0.04580152671755725,-0.454345703125,0.017333984375,-0.228515625,1.6881
0.4580152671755725,2.2595419847328246,0.0916030534351145,-0.4521484375,0.02197265625,-0.228271484375,1.6898
0.5648854961832062,2.2595419847328246,0.32061068702290074,-0.451171875,0.02197265625,-0.23681640625,1.6915
0.8244274809160306,2.4732824427480917,0.061068702290076333,-0.4462890625,0.01806640625,-0.229248046875,1.6931999999999998
0.5648854961832062,2.2595419847328246,0.13740458015267176,-0.44873046875,0.021728515625,-0.234130859375,1.6948999999999999
0.48854961832061067,2.183206106870229,-0.16793893129770993,-0.451171875,0.025390625,-0.2353515625,1.6965999999999999
0.7938931297709924,2.1374045801526718,-0.16793893129770993,-0.4453125,0.017578125,-0.224853515625,1.6983
0.549618320610687,2.030534351145038,-0.061068702290076333,-0.449462890625,0.016357421875,-0.234375,1.7
0.549618320610687,1.9541984732824427,-0.015267175572519083,-0.456787109375,0.01611328125,-0.23486328125,1.7017
0.5648854961832062,1.9541984732824427,-0.16793893129770993,-0.45068359375,0.023193359375,-0.23583984375,1.7033999999999998
0.6106870229007634,1.9541984732824427,-0.13740458015267176,-0.453369140625,0.016845703125,-0.236083984375,1.7050999999999998
0.7175572519083969,2.030534351145038,-0.3053435114503817,-0.453857421875,0.017333984375,-0.23828125,1.7067999999999999
0.6717557251908397,1.9389312977099236,-0.12213740458015267,-0.45556640625,0.02099609375,-0.236328125,1.7085
0.4122137404580153,1.8473282442748091,-0.22900763358778625,-0.4541015625,0.025634765625,-0.23486328125,1.7102
0.48854961832061067,2.0610687022900764,-0.1984732824427481,-0.456298828125,0.020751953125,-0.236328125,1.7119
0.5038167938931297,2.183206106870229,-0.22900763358778625,-0.455810546875,0.017822265625,-0.22900390625,1.7136
0.3816793893129771,2.16793893129771,0.04580152671755725,-0.44873046875,0.02001953125,-0.2294921875,1.7152999999999998
0.15267175572519084,2.2748091603053435,-0.015267175572519083,-0.453369140625,0.021484375,-0.236083984375,1.7169999999999999
0.366412213740458,2.6412213740458017,-0.07633587786259542,-0.455078125,0.020263671875,-0.241943359375,1.7187
0.42748091603053434,2.5801526717557253,-0.2748091603053435,-0.455078125,0.023681640625,-0.238037109375,1.7204
0.44274809160305345,2.4732824427480917,0.030534351145038167,-0.45458984375,0.018798828125,-0.225341796875,1.7221
0.22900763358778625,2.5343511450381677,-0.3816793893129771,-0.456787109375,0.025390625,-0.233642578125,1.7238
0.4122137404580153,2.549618320610687,-0.10687022900763359,-0.453857421875,0.023193359375,-0.22802734375,1.7254999999999998
0.3053435114503817,2.6717557251908395,-0.366412213740458,-0.45703125,0.0205078125,-0.236572265625,1.7271999999999998
0.4732824427480916,2.7022900763358777,-0.3053435114503817,-0.4521484375,0.021240234375,-0.233642578125,1.7288999999999999
0.44274809160305345,2.6717557251908395,-0.5954198473282443,-0.44970703125,0.0205078125,-0.23291015625,1.7306
0.32061068702290074,2.8091603053435112,-0.4732824427480916,-0.4482421875,0.024169921875,-0.22900390625,1.7323
0.3511450381679389,2.4122137404580153,-0.549618320610687,-0.4462890625,0.022216796875,-0.2275390625,1.734
0.22900763358778625,2.50381679389313,-0.6870229007633588,-0.44677734375,0.023681640625,-0.224365234375,1.7356999999999998
0.549618320610687,2.6717557251908395,-0.8854961832061069,-0.448486328125,0.021240234375,-0.237548828125,1.7373999999999998
0.5648854961832062,2.8396946564885495,-0.8854961832061069,-0.447021484375,0.019287109375,-0.239990234375,1.7390999999999999
0.04580152671755725,2.7022900763358777,-0.8702290076335878,-0.449951171875,0.01904296875,-0.242431640625,1.7408
0.42748091603053434,2.381679389312977,-1.0381679389312977,-0.451904296875,0.019287109375,-0.2333984375,1.7425
0.4732824427480916,1.8625954198473282,-1.282442748091603,-0.4501953125,0.020263671875,-0.231689453125,1.7442
0.366412213740458,1.8778625954198473,-1.1755725190839694,-0.447265625,0.022216796875,-0.235595703125,1.7459
0.33587786259541985,1.9694656488549618,-1.3129770992366412,-0.451171875,0.02197265625,-0.234619140625,1.7475999999999998
0.1984732824427481,1.816793893129771,-1.3282442748091603,-0.44775390625,0.01513671875,-0.238037109375,1.7492999999999999
0.16793893129770993,1.9083969465648856,-1.2061068702290076,-0.448486328125,0.019775390625,-0.2255859375,1.751
0.22900763358778625,1.8778625954198473,-1.2061068702290076,-0.4482421875,0.023193359375,-0.23779296875,1.7527
0.3511450381679389,1.9541984732824427,-1.297709923664122,-0.45556640625,0.02294921875,-0.239501953125,1.7544
0.21374045801526717,2.0,-1.1603053435114503,-0.45166015625,0.0185546875,-0.23828125,1.7561
0.16793893129770993,2.0916030534351147,-1.1908396946564885,-0.44677734375,0.025146484375,-0.2392578125,1.7577999999999998
0.13740458015267176,2.2442748091603053,-1.3893129770992367,-0.45751953125,0.01953125,-0.241943359375,1.7594999999999998
0.2595419847328244,2.2290076335877864,-1.4809160305343512,-0.448486328125,0.0205078125,-0.241943359375,1.7611999999999999
0.2748091603053435,2.2595419847328246,-1.1908396946564885,-0.453125,0.022705078125,-0.245361328125,1.7629
0.0916030534351145,2.4580152671755724,-1.1908396946564885,-0.45751953125,0.02734375,-0.234375,1.7646
0.2900763358778626,2.3969465648854964,-1.2366412213740459,-0.451416015625,0.022705078125,-0.24560546875,1.7663
0.3816793893129771,2.3053435114503817,-1.251908396946565,-0.44970703125,0.02001953125,-0.243408203125,1.7679999999999998
0.4732824427480916,2.519083969465649,-1.099236641221374,-0.453369140625,0.024658203125,-0.24853515625,1.7696999999999998
0.5190839694656488,2.5801526717557253,-0.9465648854961832,-0.44970703125,0.0205078125,-0.24267578125,1.7713999999999999
0.5038167938931297,2.4885496183206106,-0.9770992366412213,-0.454833984375,0.024169921875,-0.240478515625,1.7731
0.4122137404580153,2.351145038167939,-0.8396946564885496,-0.450927734375,0.019775390625,-0.239990234375,1.7748
0.6106870229007634,2.33587786259542,-1.3282442748091603,-0.447509765625,0.02490234375,-0.2275390625,1.7765
0.5954198473282443,2.351145038167939,-1.2366412213740459,-0.448486328125,0.021484375,-0.242431640625,1.7782
0.42748091603053434,2.2748091603053435,-1.2061068702290076,-0.44921875,0.02197265625,-0.23486328125,1.7798999999999998
0.7480916030534351,2.0916030534351147,-1.3282442748091603,-0.44921875,0.023193359375,-0.24462890625,1.7815999999999999
0.9618320610687023,2.122137404580153,-1.5725190839694656,-0.44580078125,0.019287109375,-0.231689453125,1.7832999999999999
0.9007633587786259,2.0610687022900764,-1.450381679389313,-0.444580078125,0.021240234375,-0.239013671875,1.785
1.083969465648855,1.8473282442748091,-1.5114503816793894,-0.445068359375,0.02099609375,-0.2314453125,1.7867
0.7633587786259542,1.8015267175572518,-1.816793893129771,-0.447509765625,0.019287109375,-0.23291015625,1.7884
0.9312977099236641,1.633587786259542,-1.7709923664122138,-0.4453125,0.028076171875,-0.235595703125,1.7900999999999998
1.282442748091603,1.6946564885496183,-1.6641221374045803,-0.446533203125,0.0205078125,-0.230712890625,1.7917999999999998
0.8854961832061069,1.2671755725190839,-1.816793893129771,-0.45263671875,0.01806640625,-0.234619140625,1.7934999999999999
0.8854961832061069,1.3587786259541985,-1.7557251908396947,-0.4501953125,0.0234375,-0.238037109375,1.7952
0.8854961832061069,1.3282442748091603,-2.0,-0.445068359375,0.021728515625,-0.22998046875,1.7969
1.099236641221374,1.1908396946564885,-1.8931297709923665,-0.448486328125,0.01953125,-0.23583984375,1.7986
