gyrox1,gyroy1,gyroz1,accelx1,accely1,accelz1,Time
0.10687022900763359,2.045801526717557,-2.687022900763359,-0.46728515625,-0.0126953125,-0.1796875,0.0
-0.33587786259541985,2.4427480916030535,-2.7480916030534353,-0.46435546875,-0.01318359375,-0.19140625,0.0017
-0.366412213740458,2.351145038167939,-2.9160305343511452,-0.46875,-0.012939453125,-0.1845703125,0.0034
-0.6412213740458015,2.366412213740458,-2.854961832061069,-0.4716796875,-0.015380859375,-0.177734375,0.0050999999999999995
-0.6564885496183206,2.33587786259542,-3.0229007633587788,-0.46484375,-0.0107421875,-0.181396484375,0.0068
-0.7175572519083969,2.33587786259542,-3.1297709923664123,-0.46826171875,-0.015380859375,-0.17431640625,0.008499999999999999
-1.1145038167938932,2.198473282442748,-2.9618320610687023,-0.466064453125,-0.01318359375,-0.17919921875,0.010199999999999999
-1.3893129770992367,2.2290076335877864,-3.1908396946564888,-0.4658203125,-0.016845703125,-0.1767578125,0.011899999999999999
-1.3587786259541985,2.030534351145038,-3.1297709923664123,-0.46142578125,-0.01904296875,-0.18701171875,0.0136
-1.7557251908396947,1.5572519083969465,-2.9770992366412212,-0.46337890625,-0.0166015625,-0.194580078125,0.0153
-1.9236641221374047,1.465648854961832,-3.0839694656488548,-0.46337890625,-0.011962890625,-0.1767578125,0.016999999999999998
-2.0763358778625953,1.297709923664122,-2.931297709923664,-0.466796875,-0.015625,-0.1865234375,0.018699999999999998
-2.0763358778625953,1.1755725190839694,-2.8396946564885495,-0.462646484375,-0.00830078125,-0.185302734375,0.020399999999999998
-2.1526717557251906,1.0687022900763359,-2.9160305343511452,-0.466552734375,-0.006591796875,-0.177490234375,0.022099999999999998
-2.213740458015267,0.8549618320610687,-2.6564885496183206,-0.465087890625,-0.012451171875,-0.1787109375,0.023799999999999998
-2.3053435114503817,0.732824427480916,-2.549618320610687,-0.463623046875,-0.007080078125,-0.177001953125,0.0255
-2.1526717557251906,0.5038167938931297,-2.6412213740458017,-0.46728515625,-0.008544921875,-0.181396484375,0.0272
-1.984732824427481,0.44274809160305345,-2.2748091603053435,-0.46435546875,-0.007080078125,-0.185546875,0.0289
-1.9236641221374047,0.4732824427480916,-2.6259541984732824,-0.46435546875,-0.0107421875,-0.179443359375,0.0306
-1.618320610687023,0.42748091603053434,-2.1068702290076335,-0.4677734375,-0.009033203125,-0.1826171875,0.032299999999999995
-1.4809160305343512,0.32061068702290074,-2.351145038167939,-0.462890625,-0.00537109375,-0.1826171875,0.033999999999999996
-1.2671755725190839,0.5648854961832062,-2.3053435114503817,-0.468017578125,-0.00537109375,-0.181396484375,0.035699999999999996
-1.0076335877862594,0.6717557251908397,-2.33587786259542,-0.47119140625,-0.00537109375,-0.173828125,0.037399999999999996
-0.5038167938931297,0.5648854961832062,-2.183206106870229,-0.471435546875,-0.00390625,-0.177490234375,0.039099999999999996
-0.24427480916030533,0.9312977099236641,-2.015267175572519,-0.47265625,0.0009765625,-0.184814453125,0.040799999999999996
-0.015267175572519083,1.2213740458015268,-2.0610687022900764,-0.4697265625,0.000732421875,-0.182373046875,0.042499999999999996
0.5190839694656488,1.251908396946565,-2.2442748091603053,-0.46484375,0.001708984375,-0.179443359375,0.044199999999999996
0.7938931297709924,1.3129770992366412,-2.0,-0.46484375,0.001708984375,-0.180419921875,0.045899999999999996
1.4045801526717556,1.4045801526717556,-2.1526717557251906,-0.46240234375,-0.001220703125,-0.188720703125,0.047599999999999996
1.618320610687023,1.5267175572519085,-2.015267175572519,-0.464599609375,0.00146484375,-0.176513671875,0.0493
2.0,1.7557251908396947,-1.8931297709923665,-0.46435546875,0.0,-0.18115234375,0.051
2.213740458015267,1.633587786259542,-1.6488549618320612,-0.46484375,-0.00048828125,-0.18505859375,0.0527
2.427480916030534,1.8015267175572518,-1.984732824427481,-0.466064453125,-0.000732421875,-0.19091796875,0.0544
2.8702290076335877,2.045801526717557,-1.633587786259542,-0.466064453125,0.00244140625,-0.18310546875,0.0561
3.1755725190839694,2.2595419847328246,-1.618320610687023,-0.458251953125,0.0,-0.187255859375,0.0578
3.1755725190839694,2.2900763358778624,-1.3587786259541985,-0.459716796875,-0.00146484375,-0.1796875,0.0595
3.450381679389313,2.6106870229007635,-1.633587786259542,-0.4619140625,-0.0048828125,-0.18212890625,0.0612
3.5267175572519083,2.6717557251908395,-1.5114503816793894,-0.463134765625,-0.006591796875,-0.180908203125,0.0629
3.648854961832061,2.6717557251908395,-1.6641221374045803,-0.458740234375,-0.00537109375,-0.17529296875,0.06459999999999999
3.5267175572519083,2.8244274809160306,-1.6488549618320612,-0.4560546875,-0.005615234375,-0.185791015625,0.0663
3.2061068702290076,2.8702290076335877,-1.5114503816793894,-0.455810546875,-0.006103515625,-0.183837890625,0.06799999999999999
3.4198473282442747,3.0076335877862594,-1.3435114503816794,-0.4560546875,-0.007080078125,-0.19091796875,0.0697
3.3893129770992365,2.9618320610687023,-1.633587786259542,-0.459716796875,-0.004638671875,-0.189697265625,0.07139999999999999
3.3282442748091605,2.8244274809160306,-1.5877862595419847,-0.45458984375,-0.00634765625,-0.181884765625,0.0731
2.9770992366412212,2.595419847328244,-1.5725190839694656,-0.458984375,-0.009521484375,-0.17919921875,0.07479999999999999
2.8091603053435112,2.6412213740458017,-1.6641221374045803,-0.46337890625,-0.010009765625,-0.1767578125,0.0765
2.717557251908397,2.5343511450381677,-1.9236641221374047,-0.453125,-0.00927734375,-0.181640625,0.07819999999999999
2.6717557251908395,2.2595419847328246,-1.8931297709923665,-0.454345703125,-0.01123046875,-0.18017578125,0.0799
2.763358778625954,2.4885496183206106,-2.1068702290076335,-0.453857421875,-0.012451171875,-0.181640625,0.08159999999999999
2.717557251908397,2.3969465648854964,-1.9083969465648856,-0.458740234375,-0.011474609375,-0.17529296875,0.0833
2.198473282442748,2.3053435114503817,-2.16793893129771,-0.458740234375,-0.015380859375,-0.183837890625,0.08499999999999999
2.2595419847328246,2.198473282442748,-2.0916030534351147,-0.453125,-0.01611328125,-0.18408203125,0.0867
2.3969465648854964,2.015267175572519,-2.1068702290076335,-0.45361328125,-0.013916015625,-0.18701171875,0.08839999999999999
2.0763358778625953,2.0610687022900764,-2.0,-0.455322265625,-0.013427734375,-0.193603515625,0.0901
1.83206106870229,1.9694656488549618,-2.1374045801526718,-0.457275390625,-0.01513671875,-0.18603515625,0.09179999999999999
1.5267175572519085,1.8473282442748091,-2.1374045801526718,-0.45361328125,-0.015380859375,-0.181884765625,0.0935
1.5267175572519085,1.9083969465648856,-2.2442748091603053,-0.46240234375,-0.018798828125,-0.1787109375,0.09519999999999999
0.9312977099236641,1.7404580152671756,-2.33587786259542,-0.455078125,-0.013671875,-0.18115234375,0.0969
0.732824427480916,1.6488549618320612,-2.366412213740458,-0.459716796875,-0.014404296875,-0.183349609375,0.0986
0.549618320610687,1.5877862595419847,-2.183206106870229,-0.458984375,-0.01025390625,-0.18017578125,0.1003
0.24427480916030533,1.5114503816793894,-2.015267175572519,-0.45703125,-0.01318359375,-0.187744140625,0.102
0.22900763358778625,1.3893129770992367,-2.122137404580153,-0.4619140625,-0.01318359375,-0.181884765625,0.1037
-0.015267175572519083,1.4809160305343512,-2.198473282442748,-0.458740234375,-0.008056640625,-0.179443359375,0.1054
-0.13740458015267176,1.1755725190839694,-1.9541984732824427,-0.4619140625,-0.01025390625,-0.173828125,0.1071
-0.3511450381679389,1.2061068702290076,-1.9389312977099236,-0.46533203125,-0.017578125,-0.189208984375,0.1088
-0.1984732824427481,1.1450381679389312,-1.9389312977099236,-0.463134765625,-0.01025390625,-0.1845703125,0.11049999999999999
-0.2900763358778626,1.282442748091603,-2.0763358778625953,-0.462158203125,-0.01220703125,-0.181396484375,0.1122
-0.3053435114503817,1.4351145038167938,-2.030534351145038,-0.462158203125,-0.013671875,-0.173095703125,0.11389999999999999
-0.4732824427480916,1.2061068702290076,-2.015267175572519,-0.4599609375,-0.01318359375,-0.1767578125,0.1156
-0.3053435114503817,1.3587786259541985,-1.7404580152671756,-0.461181640625,-0.0107421875,-0.174560546875,0.11729999999999999
-0.21374045801526717,1.4809160305343512,-1.7404580152671756,-0.4619140625,-0.012939453125,-0.174072265625,0.119
0.0916030534351145,1.282442748091603,-1.8473282442748091,-0.462890625,-0.00927734375,-0.173828125,0.12069999999999999
0.3053435114503817,1.4198473282442747,-1.8473282442748091,-0.458251953125,-0.012939453125,-0.17138671875,0.1224
0.12213740458015267,1.4809160305343512,-1.6641221374045803,-0.460205078125,-0.015869140625,-0.180908203125,0.12409999999999999
0.3511450381679389,1.618320610687023,-1.5419847328244274,-0.464599609375,-0.0126953125,-0.17822265625,0.1258
0.5038167938931297,1.816793893129771,-1.297709923664122,-0.459716796875,-0.0078125,-0.183349609375,0.1275
0.549618320610687,1.816793893129771,-1.251908396946565,-0.462646484375,-0.007568359375,-0.184814453125,0.12919999999999998
0.6717557251908397,1.6946564885496183,-1.3587786259541985,-0.463134765625,-0.01171875,-0.1767578125,0.1309
0.8549618320610687,1.9541984732824427,-1.0534351145038168,-0.462890625,-0.0078125,-0.1787109375,0.1326
0.916030534351145,1.7099236641221374,-1.0534351145038168,-0.46044921875,-0.0107421875,-0.182861328125,0.1343
0.9465648854961832,1.9389312977099236,-1.2061068702290076,-0.462158203125,-0.0107421875,-0.17919921875,0.13599999999999998
0.8091603053435115,2.1374045801526718,-1.0229007633587786,-0.45556640625,-0.011474609375,-0.18115234375,0.1377
0.9007633587786259,2.045801526717557,-1.0381679389312977,-0.45947265625,-0.005859375,-0.186279296875,0.1394
1.1450381679389312,2.2595419847328246,-1.0687022900763359,-0.461181640625,-0.00341796875,-0.180419921875,0.1411
1.4045801526717556,2.2290076335877864,-1.0229007633587786,-0.456787109375,-0.006591796875,-0.183349609375,0.14279999999999998
1.633587786259542,2.381679389312977,-1.2061068702290076,-0.456298828125,-0.002197265625,-0.17822265625,0.1445
1.5725190839694656,2.381679389312977,-1.2671755725190839,-0.45654296875,-0.00732421875,-0.18408203125,0.1462
1.5419847328244274,2.6412213740458017,-1.0534351145038168,-0.462158203125,-0.005615234375,-0.185546875,0.1479
1.6488549618320612,2.717557251908397,-0.9618320610687023,-0.459228515625,-0.00439453125,-0.18505859375,0.14959999999999998
1.6030534351145038,2.687022900763359,-1.1145038167938932,-0.4541015625,-0.0048828125,-0.178466796875,0.1513
1.8473282442748091,2.687022900763359,-0.9770992366412213,-0.4580078125,-0.009521484375,-0.183837890625,0.153
1.9083969465648856,2.854961832061069,-1.0687022900763359,-0.456787109375,-0.008056640625,-0.185546875,0.1547
2.0610687022900764,3.2213740458015265,-1.1297709923664123,-0.453125,-0.0078125,-0.1904296875,0.15639999999999998
2.015267175572519,3.3587786259541983,-0.9465648854961832,-0.45654296875,-0.004638671875,-0.1826171875,0.1581
2.381679389312977,3.2061068702290076,-0.9465648854961832,-0.4541015625,-0.006103515625,-0.189453125,0.1598
2.2442748091603053,3.1755725190839694,-0.8702290076335878,-0.45458984375,-0.00244140625,-0.1865234375,0.1615
2.1526717557251906,3.3435114503816794,-0.7022900763358778,-0.454833984375,-0.0048828125,-0.189208984375,0.16319999999999998
2.4580152671755724,3.1297709923664123,-0.9007633587786259,-0.455810546875,-0.00390625,-0.1904296875,0.1649
2.6259541984732824,3.0839694656488548,-0.6259541984732825,-0.454833984375,-0.00341796875,-0.195068359375,0.1666
2.4122137404580153,3.1603053435114505,-0.3816793893129771,-0.4521484375,-0.005859375,-0.189697265625,0.16829999999999998
2.4427480916030535,3.099236641221374,-0.366412213740458,-0.454345703125,-0.0068359375,-0.182373046875,0.16999999999999998
2.7938931297709924,2.900763358778626,-0.44274809160305345,-0.4501953125,-0.010009765625,-0.178955078125,0.1717
2.732824427480916,2.8244274809160306,-0.3969465648854962,-0.454833984375,-0.004150390625,-0.19091796875,0.1734
2.9160305343511452,2.6259541984732824,-0.22900763358778625,-0.448974609375,-0.013916015625,-0.182373046875,0.17509999999999998
2.7786259541984735,2.427480916030534,-0.030534351145038167,-0.460205078125,-0.01123046875,-0.185791015625,0.17679999999999998
2.7938931297709924,2.366412213740458,0.030534351145038167,-0.45654296875,-0.009765625,-0.18505859375,0.1785
2.732824427480916,1.984732824427481,-0.0916030534351145,-0.454833984375,-0.01416015625,-0.179443359375,0.1802
2.4427480916030535,1.984732824427481,-0.1984732824427481,-0.457275390625,-0.007568359375,-0.182861328125,0.18189999999999998
2.3969465648854964,2.0,-0.183206106870229,-0.4609375,-0.010009765625,-0.18701171875,0.18359999999999999
1.9389312977099236,1.8778625954198473,-0.3969465648854962,-0.458984375,-0.01025390625,-0.178466796875,0.1853
1.5725190839694656,2.1068702290076335,-0.4580152671755725,-0.460205078125,-0.017578125,-0.1875,0.187
1.1908396946564885,2.50381679389313,-0.6259541984732825,-0.46142578125,-0.01171875,-0.184326171875,0.18869999999999998
1.0381679389312977,2.381679389312977,-0.6564885496183206,-0.4599609375,-0.016357421875,-0.1767578125,0.19039999999999999
0.8244274809160306,2.5801526717557253,-0.916030534351145,-0.4619140625,-0.015380859375,-0.181396484375,0.1921
0.3511450381679389,2.5343511450381677,-0.7175572519083969,-0.462158203125,-0.01611328125,-0.177490234375,0.1938
-0.0916030534351145,2.687022900763359,-0.8244274809160306,-0.45849609375,-0.018798828125,-0.173583984375,0.19549999999999998
-0.4122137404580153,2.6564885496183206,-0.6259541984732825,-0.463623046875,-0.010986328125,-0.181396484375,0.1972
-0.7938931297709924,2.549618320610687,-0.6870229007633588,-0.461181640625,-0.013427734375,-0.17138671875,0.1989
-1.2213740458015268,2.50381679389313,-0.6259541984732825,-0.459716796875,-0.016357421875,-0.1708984375,0.2006
-1.4045801526717556,2.6412213740458017,-0.6564885496183206,-0.45458984375,-0.020751953125,-0.176513671875,0.20229999999999998
-1.5572519083969465,2.2900763358778624,-0.48854961832061067,-0.45556640625,-0.0146484375,-0.17236328125,0.204
-1.8625954198473282,2.1374045801526718,-0.6259541984732825,-0.45556640625,-0.009033203125,-0.182373046875,0.2057
-2.015267175572519,1.984732824427481,-0.44274809160305345,-0.458740234375,-0.011962890625,-0.1767578125,0.2074
-2.015267175572519,1.8778625954198473,-0.5343511450381679,-0.453369140625,-0.013916015625,-0.171142578125,0.20909999999999998
-2.16793893129771,1.5267175572519085,-0.4122137404580153,-0.460205078125,-0.012451171875,-0.16845703125,0.2108
-2.213740458015267,1.5725190839694656,-0.5954198473282443,-0.455810546875,-0.012939453125,-0.175537109375,0.2125
-2.2442748091603053,1.633587786259542,-0.5190839694656488,-0.457275390625,-0.01220703125,-0.17431640625,0.2142
-2.198473282442748,1.297709923664122,-0.6717557251908397,-0.457275390625,-0.003173828125,-0.17724609375,0.21589999999999998
-2.198473282442748,1.3129770992366412,-0.6106870229007634,-0.458251953125,-0.004150390625,-0.176513671875,0.2176
-2.16793893129771,1.450381679389313,-0.7175572519083969,-0.460693359375,-0.003662109375,-0.18212890625,0.2193
-1.9083969465648856,1.083969465648855,-0.5648854961832062,-0.4599609375,-0.009765625,-0.170166015625,0.22099999999999997
-1.9083969465648856,1.0534351145038168,-0.7022900763358778,-0.45849609375,-0.005126953125,-0.172607421875,0.22269999999999998
-1.3587786259541985,1.2213740458015268,-0.7175572519083969,-0.46533203125,-0.009765625,-0.178466796875,0.2244
-1.618320610687023,1.251908396946565,-0.9312977099236641,-0.46337890625,-0.0029296875,-0.1796875,0.2261
-1.3893129770992367,1.3893129770992367,-0.8702290076335878,-0.458251953125,-0.001953125,-0.1796875,0.22779999999999997
-1.2061068702290076,1.5267175572519085,-0.9770992366412213,-0.459716796875,-0.002685546875,-0.177734375,0.22949999999999998
-0.9618320610687023,1.6793893129770991,-0.9923664122137404,-0.458740234375,0.000732421875,-0.18408203125,0.2312
-0.9465648854961832,1.8778625954198473,-0.7938931297709924,-0.4580078125,-0.001953125,-0.189208984375,0.2329
-0.6106870229007634,1.8625954198473282,-0.9618320610687023,-0.454345703125,-0.004150390625,-0.17822265625,0.23459999999999998
-0.4732824427480916,1.9083969465648856,-0.8549618320610687,-0.460205078125,0.0,-0.18212890625,0.23629999999999998
-0.5648854961832062,1.8931297709923665,-0.8549618320610687,-0.46142578125,-0.0029296875,-0.183349609375,0.238
-0.6412213740458015,1.8931297709923665,-1.099236641221374,-0.4638671875,-0.000732421875,-0.181396484375,0.2397
-0.3053435114503817,2.045801526717557,-0.8854961832061069,-0.45556640625,0.00439453125,-0.182861328125,0.24139999999999998
-0.22900763358778625,2.16793893129771,-1.0534351145038168,-0.46240234375,-0.007568359375,-0.175537109375,0.24309999999999998
-0.15267175572519084,2.1068702290076335,-1.2366412213740459,-0.458740234375,-0.008056640625,-0.174560546875,0.2448
0.015267175572519083,2.351145038167939,-1.1450381679389312,-0.457763671875,-0.007080078125,-0.181884765625,0.2465
0.04580152671755725,2.6412213740458017,-1.1450381679389312,-0.46142578125,-0.00439453125,-0.184326171875,0.24819999999999998
0.33587786259541985,2.6412213740458017,-1.3282442748091603,-0.4609375,-0.008056640625,-0.18212890625,0.24989999999999998
0.5038167938931297,2.687022900763359,-1.2366412213740459,-0.46044921875,-0.0009765625,-0.18115234375,0.2516
0.7633587786259542,2.7022900763358777,-1.3587786259541985,-0.4609375,0.002197265625,-0.192138671875,0.25329999999999997
0.7175572519083969,2.8091603053435112,-1.2213740458015268,-0.461669921875,-0.006591796875,-0.177978515625,0.255
0.8854961832061069,3.1908396946564888,-1.3129770992366412,-0.46435546875,-0.00341796875,-0.18994140625,0.2567
0.6259541984732825,3.3282442748091605,-1.297709923664122,-0.461181640625,0.002685546875,-0.187255859375,0.25839999999999996
0.916030534351145,3.2061068702290076,-0.9770992366412213,-0.461181640625,-0.00146484375,-0.1904296875,0.2601
0.8549618320610687,3.0381679389312977,-1.083969465648855,-0.46435546875,0.0009765625,-0.19384765625,0.2618
1.0229007633587786,3.114503816793893,-1.2213740458015268,-0.455810546875,-0.004638671875,-0.186767578125,0.2635
1.0229007633587786,3.068702290076336,-1.1145038167938932,-0.4599609375,-0.000732421875,-0.194091796875,0.2652
1.0229007633587786,3.1755725190839694,-1.099236641221374,-0.458740234375,-0.005859375,-0.1923828125,0.26689999999999997
1.297709923664122,3.145038167938931,-1.1908396946564885,-0.454345703125,0.0009765625,-0.19140625,0.2686
1.1297709923664123,3.145038167938931,-1.0076335877862594,-0.4609375,0.0009765625,-0.192138671875,0.2703
1.1297709923664123,3.1755725190839694,-1.1145038167938932,-0.460205078125,0.001708984375,-0.19091796875,0.27199999999999996
1.2061068702290076,3.0076335877862594,-1.083969465648855,-0.460693359375,-0.002197265625,-0.193359375,0.2737
1.297709923664122,3.1297709923664123,-1.1450381679389312,-0.4609375,-0.002685546875,-0.186279296875,0.2754
1.3129770992366412,2.763358778625954,-1.083969465648855,-0.457275390625,0.002197265625,-0.191650390625,0.27709999999999996
1.465648854961832,2.8396946564885495,-1.1297709923664123,-0.4609375,-0.00537109375,-0.1923828125,0.2788
1.4809160305343512,2.732824427480916,-1.0534351145038168,-0.45947265625,-0.010498046875,-0.191162109375,0.28049999999999997
1.6641221374045803,2.519083969465649,-0.8854961832061069,-0.464599609375,-0.006103515625,-0.193603515625,0.2822
2.0,2.427480916030534,-0.8396946564885496,-0.463623046875,-0.00390625,-0.18896484375,0.2839
1.8931297709923665,2.50381679389313,-0.8702290076335878,-0.46337890625,-0.002685546875,-0.19091796875,0.28559999999999997
2.198473282442748,2.4732824427480917,-0.9312977099236641,-0.46533203125,-0.004638671875,-0.17724609375,0.2873
2.427480916030534,2.1526717557251906,-0.9007633587786259,-0.462158203125,-0.0068359375,-0.189208984375,0.289
2.6412213740458017,2.2290076335877864,-0.8702290076335878,-0.462890625,-0.005615234375,-0.19189453125,0.29069999999999996
2.8396946564885495,2.0,-0.8244274809160306,-0.460693359375,-0.010986328125,-0.181396484375,0.2924
2.8702290076335877,1.786259541984733,-0.8244274809160306,-0.459716796875,-0.010009765625,-0.187255859375,0.2941
2.8244274809160306,1.816793893129771,-1.251908396946565,-0.463134765625,-0.00830078125,-0.18701171875,0.2958
2.7938931297709924,1.4351145038167938,-1.1297709923664123,-0.4599609375,-0.009765625,-0.171630859375,0.2975
2.183206106870229,1.251908396946565,-1.2671755725190839,-0.459228515625,-0.008056640625,-0.176025390625,0.29919999999999997
2.0916030534351147,1.2213740458015268,-1.3129770992366412,-0.461669921875,-0.002685546875,-0.177978515625,0.3009
1.633587786259542,1.2366412213740459,-1.4809160305343512,-0.461181640625,-0.005615234375,-0.1826171875,0.3026
0.9618320610687023,1.2061068702290076,-1.450381679389313,-0.466064453125,-0.00732421875,-0.18359375,0.30429999999999996
0.5038167938931297,1.1603053435114503,-1.4809160305343512,-0.465087890625,-0.00732421875,-0.18017578125,0.306
0.0916030534351145,1.3129770992366412,-1.7557251908396947,-0.461181640625,-0.003662109375,-0.18505859375,0.3077
-0.33587786259541985,1.450381679389313,-1.6488549618320612,-0.4599609375,-0.009521484375,-0.182861328125,0.3094
-0.7022900763358778,1.5267175572519085,-1.8473282442748091,-0.45849609375,-0.0078125,-0.179443359375,0.3111
-1.3129770992366412,1.3740458015267176,-1.9236641221374047,-0.45751953125,-0.00830078125,-0.175048828125,0.31279999999999997
-1.4198473282442747,1.282442748091603,-1.7709923664122138,-0.45751953125,-0.0048828125,-0.18017578125,0.3145
-1.7709923664122138,1.297709923664122,-2.030534351145038,-0.457275390625,-0.012939453125,-0.185546875,0.3162
-1.7709923664122138,1.465648854961832,-1.9236641221374047,-0.459716796875,-0.010009765625,-0.179443359375,0.31789999999999996
-1.9083969465648856,1.1603053435114503,-2.1068702290076335,-0.45361328125,-0.00634765625,-0.1826171875,0.3196
-1.7251908396946565,1.251908396946565,-2.2442748091603053,-0.460693359375,-0.010498046875,-0.179443359375,0.3213
-2.015267175572519,0.8854961832061069,-2.2748091603053435,-0.4619140625,-0.006591796875,-0.17236328125,0.323
-1.9694656488549618,1.0076335877862594,-2.1374045801526718,-0.45751953125,-0.005615234375,-0.171142578125,0.3247
-1.9083969465648856,0.9465648854961832,-2.4580152671755724,-0.45703125,-0.00732421875,-0.17724609375,0.32639999999999997
-1.5267175572519085,0.6870229007633588,-2.3969465648854964,-0.45556640625,-0.00634765625,-0.1806640625,0.3281
-1.3435114503816794,0.5648854961832062,-2.9618320610687023,-0.45361328125,-0.00830078125,-0.177490234375,0.3298
-1.251908396946565,0.8244274809160306,-2.763358778625954,-0.45458984375,-0.00537109375,-0.17626953125,0.33149999999999996
-1.083969465648855,0.5801526717557252,-2.946564885496183,-0.453125,-0.00048828125,-0.179443359375,0.3332
-0.8091603053435115,0.3511450381679389,-2.900763358778626,-0.458251953125,-0.00244140625,-0.178466796875,0.3349
-1.0381679389312977,0.5648854961832062,-2.946564885496183,-0.45361328125,-0.00048828125,-0.1787109375,0.33659999999999995
-0.8396946564885496,0.4122137404580153,-2.8702290076335877,-0.45751953125,-0.000244140625,-0.175048828125,0.3383
-0.5343511450381679,0.3969465648854962,-2.9618320610687023,-0.45458984375,0.00390625,-0.179443359375,0.33999999999999997
-0.366412213740458,0.4732824427480916,-3.0229007633587788,-0.4609375,0.005126953125,-0.17724609375,0.3417
-0.1984732824427481,0.6564885496183206,-3.2061068702290076,-0.454345703125,0.003662109375,-0.173095703125,0.3434
0.32061068702290074,0.5190839694656488,-2.9923664122137406,-0.452880859375,0.00634765625,-0.1796875,0.34509999999999996
0.3511450381679389,0.6564885496183206,-2.9923664122137406,-0.452880859375,0.00439453125,-0.17919921875,0.3468
0.48854961832061067,0.8702290076335878,-2.9618320610687023,-0.455322265625,0.009765625,-0.176025390625,0.3485
0.8091603053435115,1.083969465648855,-3.099236641221374,-0.45556640625,0.009033203125,-0.17919921875,0.35019999999999996
0.8396946564885496,1.083969465648855,-2.7480916030534353,-0.452880859375,0.004150390625,-0.179443359375,0.3519
1.4045801526717556,1.3740458015267176,-2.931297709923664,-0.457763671875,0.001220703125,-0.184814453125,0.35359999999999997
1.5419847328244274,1.5725190839694656,-2.8091603053435112,-0.455810546875,0.01025390625,-0.181640625,0.3553
1.5114503816793894,1.5725190839694656,-2.7786259541984735,-0.458251953125,0.0029296875,-0.188720703125,0.357
1.8625954198473282,1.816793893129771,-2.8702290076335877,-0.454345703125,0.005126953125,-0.1826171875,0.35869999999999996
2.030534351145038,1.8015267175572518,-2.854961832061069,-0.4560546875,0.006591796875,-0.184814453125,0.3604
2.2900763358778624,1.633587786259542,-2.7786259541984735,-0.45263671875,0.00146484375,-0.181396484375,0.3621
2.3969465648854964,1.9541984732824427,-2.7480916030534353,-0.4521484375,0.001220703125,-0.19091796875,0.36379999999999996
2.5801526717557253,1.8473282442748091,-2.7022900763358777,-0.4521484375,0.00048828125,-0.1884765625,0.3655
2.595419847328244,1.8015267175572518,-2.885496183206107,-0.456298828125,0.0078125,-0.18798828125,0.36719999999999997
2.717557251908397,1.8473282442748091,-2.7938931297709924,-0.45263671875,-0.001708984375,-0.197509765625,0.3689
2.900763358778626,1.6793893129770991,-2.854961832061069,-0.458740234375,-0.0009765625,-0.1826171875,0.3706
3.0839694656488548,1.8015267175572518,-2.687022900763359,-0.455322265625,-0.001953125,-0.183349609375,0.37229999999999996
3.1297709923664123,1.8015267175572518,-2.763358778625954,-0.460693359375,-0.005859375,-0.192626953125,0.374
3.5114503816793894,1.8931297709923665,-2.8396946564885495,-0.455078125,-0.001953125,-0.189453125,0.3757
3.4656488549618323,2.0763358778625953,-2.854961832061069,-0.456298828125,-0.00341796875,-0.188720703125,0.37739999999999996
3.236641221374046,1.8931297709923665,-2.7786259541984735,-0.4580078125,-0.003173828125,-0.189697265625,0.3791
3.5114503816793894,2.122137404580153,-2.7480916030534353,-0.460693359375,-0.0078125,-0.1904296875,0.38079999999999997
3.2977099236641223,2.1068702290076335,-2.8396946564885495,-0.452392578125,-0.012451171875,-0.191162109375,0.38249999999999995
3.2213740458015265,2.2900763358778624,-3.053435114503817,-0.454833984375,-0.009765625,-0.19482421875,0.3842
3.0381679389312977,2.381679389312977,-3.0229007633587788,-0.451416015625,-0.008056640625,-0.188232421875,0.38589999999999997
2.687022900763359,2.351145038167939,-3.2213740458015265,-0.459228515625,-0.007568359375,-0.185302734375,0.3876
2.3206106870229006,2.351145038167939,-3.145038167938931,-0.453125,-0.0068359375,-0.185546875,0.3893
2.015267175572519,2.381679389312977,-3.282442748091603,-0.454345703125,-0.007568359375,-0.185302734375,0.39099999999999996
1.8015267175572518,2.2290076335877864,-3.2519083969465647,-0.454833984375,-0.006103515625,-0.18701171875,0.3927
1.282442748091603,1.9541984732824427,-3.312977099236641,-0.455322265625,-0.008544921875,-0.1865234375,0.3944
0.8854961832061069,2.0610687022900764,-3.3435114503816794,-0.45654296875,-0.009765625,-0.1875,0.39609999999999995
0.8702290076335878,1.6946564885496183,-3.450381679389313,-0.45849609375,-0.0078125,-0.183349609375,0.3978
0.4580152671755725,1.3740458015267176,-3.282442748091603,-0.457275390625,-0.001953125,-0.186279296875,0.39949999999999997
0.2900763358778626,1.4198473282442747,-3.2213740458015265,-0.462158203125,-0.0009765625,-0.185302734375,0.4012
0.12213740458015267,1.3129770992366412,-3.145038167938931,-0.45947265625,-0.008544921875,-0.184814453125,0.4029
-0.13740458015267176,1.1297709923664123,-3.0381679389312977,-0.4580078125,-0.01318359375,-0.1865234375,0.40459999999999996
-0.24427480916030533,1.0381679389312977,-3.053435114503817,-0.461669921875,-0.00927734375,-0.18603515625,0.4063
-0.32061068702290074,1.083969465648855,-3.1603053435114505,-0.4580078125,-0.015380859375,-0.18896484375,0.408
-0.32061068702290074,0.8549618320610687,-3.3587786259541983,-0.457763671875,-0.00634765625,-0.174072265625,0.40969999999999995
-0.33587786259541985,0.6564885496183206,-3.236641221374046,-0.457275390625,-0.00634765625,-0.17919921875,0.4114
-0.4732824427480916,0.3969465648854962,-3.404580152671756,-0.455078125,-0.00146484375,-0.1796875,0.41309999999999997
-0.5038167938931297,0.5343511450381679,-3.3587786259541983,-0.456298828125,-0.0029296875,-0.180908203125,0.4148
-0.4122137404580153,0.4580152671755725,-3.435114503816794,-0.455810546875,-0.005615234375,-0.1826171875,0.4165
-0.6412213740458015,0.5190839694656488,-3.4656488549618323,-0.4580078125,-0.007568359375,-0.18212890625,0.41819999999999996
-0.7175572519083969,0.8396946564885496,-3.5877862595419847,-0.45361328125,-0.001953125,-0.193603515625,0.4199
-0.5343511450381679,0.8244274809160306,-3.49618320610687,-0.457275390625,-0.001220703125,-0.180419921875,0.4216
-0.9770992366412213,0.9312977099236641,-3.5572519083969465,-0.458984375,0.0009765625,-0.1796875,0.42329999999999995
-0.7022900763358778,1.0381679389312977,-3.3740458015267176,-0.4580078125,-0.0009765625,-0.181640625,0.425
-0.7786259541984732,1.1603053435114503,-3.49618320610687,-0.45751953125,-0.003662109375,-0.184814453125,0.42669999999999997
-0.9007633587786259,1.2671755725190839,-3.3282442748091605,-0.45703125,-0.002197265625,-0.177978515625,0.4284
-0.9618320610687023,1.3893129770992367,-3.267175572519084,-0.4580078125,-0.00244140625,-0.180908203125,0.4301
-1.0687022900763359,1.251908396946565,-3.1908396946564888,-0.455810546875,-0.00146484375,-0.182373046875,0.43179999999999996
-0.916030534351145,1.5267175572519085,-3.2213740458015265,-0.453125,-0.0048828125,-0.177734375,0.4335
-0.8854961832061069,1.8625954198473282,-3.267175572519084,-0.45703125,-0.002685546875,-0.173828125,0.4352
-1.0381679389312977,1.3435114503816794,-3.450381679389313,-0.45166015625,-0.001953125,-0.180908203125,0.43689999999999996
-1.083969465648855,1.251908396946565,-3.1755725190839694,-0.459716796875,-0.00537109375,-0.178466796875,0.4386
-1.4198473282442747,1.1450381679389312,-3.5267175572519083,-0.453857421875,-0.00537109375,-0.178955078125,0.44029999999999997
-1.2061068702290076,1.1145038167938932,-3.2977099236641223,-0.4521484375,-0.00634765625,-0.166259765625,0.44199999999999995
-1.2671755725190839,1.0229007633587786,-3.3893129770992365,-0.451416015625,-0.00732421875,-0.1796875,0.4437
-1.4351145038167938,0.9770992366412213,-3.236641221374046,-0.443603515625,-0.004638671875,-0.177734375,0.44539999999999996
-1.4198473282442747,0.7633587786259542,-3.404580152671756,-0.451416015625,-0.008544921875,-0.189697265625,0.4471
-1.3893129770992367,0.8244274809160306,-3.404580152671756,-0.4541015625,-0.01318359375,-0.18310546875,0.4488
-1.5572519083969465,0.8244274809160306,-3.5572519083969465,-0.44970703125,-0.012939453125,-0.17333984375,0.45049999999999996
-1.5419847328244274,0.7480916030534351,-3.5877862595419847,-0.450439453125,-0.0107421875,-0.173095703125,0.4522
-1.3587786259541985,0.8244274809160306,-3.5572519083969465,-0.452392578125,-0.006103515625,-0.1787109375,0.45389999999999997
-1.4045801526717556,0.6259541984732825,-3.3740458015267176,-0.45703125,-0.01171875,-0.17919921875,0.45559999999999995
-1.4198473282442747,0.5801526717557252,-3.83206106870229,-0.457275390625,-0.009521484375,-0.17822265625,0.4573
-1.5725190839694656,0.8854961832061069,-3.4656488549618323,-0.447021484375,-0.00927734375,-0.18701171875,0.45899999999999996
-1.465648854961832,0.8091603053435115,-3.7404580152671754,-0.4501953125,-0.01025390625,-0.17724609375,0.4607
-1.7099236641221374,0.7175572519083969,-3.4656488549618323,-0.45751953125,-0.012451171875,-0.176025390625,0.4624
-1.8931297709923665,0.7175572519083969,-3.648854961832061,-0.4560546875,-0.008056640625,-0.180908203125,0.46409999999999996
-1.816793893129771,0.5954198473282443,-3.6793893129770994,-0.4501953125,-0.0078125,-0.177001953125,0.4658
-1.6946564885496183,0.6870229007633588,-3.6946564885496183,-0.45654296875,-0.010986328125,-0.17822265625,0.46749999999999997
-1.5877862595419847,0.7175572519083969,-3.572519083969466,-0.44775390625,-0.009765625,-0.185546875,0.46919999999999995
-1.8015267175572518,0.4580152671755725,-3.8473282442748094,-0.44921875,-0.01123046875,-0.182861328125,0.4709
-1.7099236641221374,0.3053435114503817,-3.7099236641221376,-0.455078125,-0.008056640625,-0.1806640625,0.47259999999999996
-1.7557251908396947,0.48854961832061067,-3.801526717557252,-0.452392578125,-0.008544921875,-0.1787109375,0.4743
-1.6030534351145038,0.48854961832061067,-3.7251908396946565,-0.454345703125,-0.011962890625,-0.186279296875,0.476
-1.8778625954198473,0.6564885496183206,-3.633587786259542,-0.455810546875,-0.007568359375,-0.18310546875,0.47769999999999996
-1.6030534351145038,0.42748091603053434,-3.633587786259542,-0.454345703125,-0.00537109375,-0.189453125,0.4794
-1.7404580152671756,0.366412213740458,-3.801526717557252,-0.456787109375,-0.00537109375,-0.191650390625,0.48109999999999997
-1.4809160305343512,0.3969465648854962,-3.5572519083969465,-0.44921875,-0.00537109375,-0.1865234375,0.48279999999999995
-1.5114503816793894,0.5038167938931297,-3.450381679389313,-0.451904296875,-0.008544921875,-0.1865234375,0.4845
-1.6030534351145038,0.6259541984732825,-3.4198473282442747,-0.454833984375,-0.008544921875,-0.19091796875,0.48619999999999997
-1.6946564885496183,0.6564885496183206,-3.49618320610687,-0.457275390625,-0.005615234375,-0.18017578125,0.4879
-1.5114503816793894,0.6564885496183206,-3.435114503816794,-0.452880859375,-0.007568359375,-0.178466796875,0.4896
-1.5114503816793894,0.7175572519083969,-3.1755725190839694,-0.452880859375,-0.008056640625,-0.19140625,0.49129999999999996
-1.5877862595419847,0.7480916030534351,-3.0229007633587788,-0.454833984375,-0.0107421875,-0.18896484375,0.493
-1.618320610687023,0.9312977099236641,-3.1603053435114505,-0.455810546875,-0.006591796875,-0.187255859375,0.4947
-1.4198473282442747,0.9770992366412213,-2.8244274809160306,-0.449951171875,-0.0029296875,-0.181396484375,0.49639999999999995
-1.4961832061068703,1.2061068702290076,-2.8702290076335877,-0.457763671875,-0.01123046875,-0.1865234375,0.4981
-1.6030534351145038,1.1297709923664123,-2.7480916030534353,-0.455810546875,-0.00537109375,-0.184814453125,0.49979999999999997
-1.3587786259541985,1.2366412213740459,-2.7786259541984735,-0.460205078125,-0.0029296875,-0.191650390625,0.5015
-1.4198473282442747,1.4045801526717556,-2.4885496183206106,-0.462646484375,-0.008544921875,-0.1904296875,0.5032
-1.1908396946564885,1.1908396946564885,-2.50381679389313,-0.46240234375,-0.010498046875,-0.187255859375,0.5049
-1.2061068702290076,1.0076335877862594,-2.3969465648854964,-0.457275390625,-0.00634765625,-0.189208984375,0.5065999999999999
-1.0381679389312977,1.1297709923664123,-2.366412213740458,-0.4580078125,-0.006591796875,-0.188720703125,0.5083
-1.2366412213740459,1.2671755725190839,-2.030534351145038,-0.460205078125,-0.0107421875,-0.190673828125,0.51
-1.4198473282442747,1.1450381679389312,-1.786259541984733,-0.464111328125,-0.00634765625,-0.191650390625,0.5116999999999999
-1.1450381679389312,1.0229007633587786,-1.8931297709923665,-0.46630859375,-0.008056640625,-0.193115234375,0.5134
-1.2366412213740459,1.1145038167938932,-1.9541984732824427,-0.46484375,-0.00927734375,-0.192626953125,0.5151
-1.282442748091603,1.0381679389312977,-1.6488549618320612,-0.459228515625,-0.0107421875,-0.192138671875,0.5167999999999999
-1.251908396946565,1.099236641221374,-1.5572519083969465,-0.45947265625,-0.013427734375,-0.18798828125,0.5185
-1.465648854961832,1.1450381679389312,-1.3435114503816794,-0.4609375,-0.01513671875,-0.19091796875,0.5202
-1.4961832061068703,1.1755725190839694,-1.6488549618320612,-0.462646484375,-0.012451171875,-0.190185546875,0.5218999999999999
-1.4351145038167938,1.3282442748091603,-1.450381679389313,-0.462646484375,-0.0126953125,-0.19189453125,0.5236
-1.2671755725190839,1.3435114503816794,-1.5114503816793894,-0.462158203125,-0.01318359375,-0.189453125,0.5253
-1.633587786259542,1.099236641221374,-1.4045801526717556,-0.4619140625,-0.00927734375,-0.184326171875,0.527
-1.6946564885496183,1.2061068702290076,-1.4961832061068703,-0.4560546875,-0.0107421875,-0.192626953125,0.5287
-1.6946564885496183,1.1297709923664123,-1.297709923664122,-0.461669921875,-0.01123046875,-0.186279296875,0.5304
-2.0,0.9923664122137404,-1.2671755725190839,-0.464599609375,-0.010498046875,-0.182373046875,0.5321
-1.8931297709923665,1.0229007633587786,-1.3435114503816794,-0.46240234375,-0.01025390625,-0.189208984375,0.5337999999999999
-2.1374045801526718,0.9618320610687023,-1.4809160305343512,-0.46728515625,-0.00927734375,-0.1806640625,0.5355
-2.351145038167939,1.0229007633587786,-1.450381679389313,-0.462646484375,-0.01513671875,-0.187744140625,0.5372
-2.4732824427480917,0.8244274809160306,-1.2671755725190839,-0.46044921875,-0.009765625,-0.178466796875,0.5388999999999999
-2.9160305343511452,0.8854961832061069,-1.4045801526717556,-0.462158203125,-0.016845703125,-0.174560546875,0.5406
-3.145038167938931,1.0381679389312977,-1.3587786259541985,-0.458740234375,-0.016357421875,-0.177978515625,0.5423
-3.3740458015267176,0.9312977099236641,-1.3435114503816794,-0.458740234375,-0.012451171875,-0.1904296875,0.5439999999999999
-3.312977099236641,1.0076335877862594,-1.4961832061068703,-0.461181640625,-0.01904296875,-0.188232421875,0.5457
-3.6030534351145036,1.4045801526717556,-1.6793893129770991,-0.46142578125,-0.016357421875,-0.179443359375,0.5474
-3.984732824427481,1.2366412213740459,-1.5114503816793894,-0.46142578125,-0.016845703125,-0.176513671875,0.5490999999999999
-4.030534351145038,1.1908396946564885,-1.5725190839694656,-0.462890625,-0.016845703125,-0.180908203125,0.5508
-4.091603053435114,1.251908396946565,-1.6488549618320612,-0.45751953125,-0.01806640625,-0.177001953125,0.5525
-4.061068702290076,1.1145038167938932,-1.6488549618320612,-0.462158203125,-0.019775390625,-0.176025390625,0.5541999999999999
-4.076335877862595,1.1450381679389312,-1.4809160305343512,-0.460693359375,-0.021484375,-0.178955078125,0.5559
-4.0,0.9770992366412213,-1.7557251908396947,-0.458984375,-0.02099609375,-0.171142578125,0.5576
-4.229007633587786,0.916030534351145,-1.7251908396946565,-0.46337890625,-0.016845703125,-0.17333984375,0.5593
-4.473282442748092,0.8549618320610687,-1.6946564885496183,-0.4580078125,-0.015380859375,-0.17822265625,0.5609999999999999
-4.137404580152672,0.44274809160305345,-1.8473282442748091,-0.46337890625,-0.015380859375,-0.174560546875,0.5627
-4.061068702290076,0.3969465648854962,-1.9389312977099236,-0.457763671875,-0.015380859375,-0.169677734375,0.5644
-4.030534351145038,0.2595419847328244,-1.7557251908396947,-0.460693359375,-0.011962890625,-0.166748046875,0.5660999999999999
-4.076335877862595,0.07633587786259542,-1.8778625954198473,-0.459716796875,-0.014892578125,-0.17431640625,0.5678
-3.984732824427481,0.2900763358778626,-2.122137404580153,-0.461669921875,-0.018798828125,-0.18701171875,0.5695
-3.801526717557252,-0.15267175572519084,-2.33587786259542,-0.461181640625,-0.013427734375,-0.179931640625,0.5711999999999999
-3.816793893129771,-0.22900763358778625,-2.1526717557251906,-0.459716796875,-0.017333984375,-0.178466796875,0.5729
-3.8625954198473282,-0.07633587786259542,-2.2748091603053435,-0.457275390625,-0.014404296875,-0.18115234375,0.5746
-3.480916030534351,-0.3816793893129771,-2.2748091603053435,-0.461669921875,-0.016357421875,-0.18359375,0.5762999999999999
-3.3740458015267176,-0.24427480916030533,-2.366412213740458,-0.46240234375,-0.01953125,-0.17724609375,0.578
-3.267175572519084,-0.15267175572519084,-2.2900763358778624,-0.46630859375,-0.011474609375,-0.18212890625,0.5797
-3.0839694656488548,-0.015267175572519083,-2.519083969465649,-0.4697265625,-0.01025390625,-0.176025390625,0.5813999999999999
-3.1603053435114505,0.0,-2.5801526717557253,-0.46728515625,-0.0087890625,-0.189697265625,0.5831
-2.946564885496183,0.22900763358778625,-2.4122137404580153,-0.46435546875,-0.009033203125,-0.1923828125,0.5848
-2.8702290076335877,0.13740458015267176,-2.3206106870229006,-0.46923828125,-0.011962890625,-0.190185546875,0.5865
-2.8396946564885495,0.1984732824427481,-2.4885496183206106,-0.466552734375,-0.008544921875,-0.18994140625,0.5882
-2.885496183206107,0.5343511450381679,-2.2290076335877864,-0.4716796875,-0.004150390625,-0.19287109375,0.5899
-2.5343511450381677,0.7175572519083969,-2.366412213740458,-0.470703125,-0.01171875,-0.1806640625,0.5916
-2.7022900763358777,0.5801526717557252,-2.198473282442748,-0.46923828125,-0.009765625,-0.193115234375,0.5932999999999999
-2.687022900763359,0.5801526717557252,-2.198473282442748,-0.46630859375,0.0,-0.191650390625,0.595
-2.6412213740458017,0.6717557251908397,-2.2900763358778624,-0.46923828125,-0.003173828125,-0.19384765625,0.5967
-2.549618320610687,0.9465648854961832,-2.2900763358778624,-0.467041015625,-0.009521484375,-0.195068359375,0.5983999999999999
-2.50381679389313,0.7175572519083969,-2.122137404580153,-0.463134765625,-0.012939453125,-0.1806640625,0.6001
-2.5801526717557253,0.5648854961832062,-2.4122137404580153,-0.470947265625,-0.008544921875,-0.18408203125,0.6018
-2.3206106870229006,0.8091603053435115,-2.1526717557251906,-0.46923828125,-0.009033203125,-0.181884765625,0.6034999999999999
-2.4122137404580153,0.7022900763358778,-2.0916030534351147,-0.464111328125,-0.009033203125,-0.19140625,0.6052
-2.4122137404580153,0.42748091603053434,-2.122137404580153,-0.46923828125,-0.01123046875,-0.187744140625,0.6069
-2.1374045801526718,0.5038167938931297,-2.0,-0.4736328125,-0.0068359375,-0.18603515625,0.6085999999999999
-1.8625954198473282,0.5038167938931297,-1.8473282442748091,-0.470947265625,-0.012939453125,-0.18212890625,0.6103
-2.015267175572519,0.6106870229007634,-2.213740458015267,-0.4716796875,-0.002685546875,-0.190673828125,0.612
-2.015267175572519,0.549618320610687,-2.030534351145038,-0.468994140625,-0.00634765625,-0.185546875,0.6136999999999999
-1.8931297709923665,0.6564885496183206,-1.9083969465648856,-0.469482421875,-0.007568359375,-0.18896484375,0.6154
-1.8625954198473282,0.7633587786259542,-1.6641221374045803,-0.47119140625,0.001708984375,-0.1845703125,0.6171
-1.9083969465648856,0.732824427480916,-1.4809160305343512,-0.468505859375,-0.004150390625,-0.189208984375,0.6188
-2.045801526717557,0.8244274809160306,-1.4045801526717556,-0.4658203125,0.00146484375,-0.189453125,0.6204999999999999
-2.030534351145038,1.2671755725190839,-1.3893129770992367,-0.47509765625,-0.00244140625,-0.1982421875,0.6222
-2.015267175572519,1.251908396946565,-1.2366412213740459,-0.470703125,-0.001953125,-0.189697265625,0.6239
-2.015267175572519,1.6488549618320612,-0.8549618320610687,-0.46826171875,-0.0107421875,-0.194091796875,0.6255999999999999
-2.183206106870229,1.8778625954198473,-0.8091603053435115,-0.4658203125,-0.005615234375,-0.192138671875,0.6273
-2.015267175572519,1.9236641221374047,-0.9770992366412213,-0.466796875,-0.00634765625,-0.182373046875,0.629
-2.030534351145038,2.045801526717557,-0.5648854961832062,-0.464111328125,-0.009765625,-0.19775390625,0.6306999999999999
-1.9541984732824427,2.33587786259542,-0.5343511450381679,-0.464111328125,-0.006591796875,-0.18701171875,0.6324
-2.33587786259542,2.549618320610687,-0.6412213740458015,-0.4658203125,-0.003662109375,-0.187255859375,0.6341
-2.4580152671755724,2.4427480916030535,-0.48854961832061067,-0.465087890625,-0.003662109375,-0.187744140625,0.6357999999999999
-2.33587786259542,2.3053435114503817,-0.44274809160305345,-0.463623046875,-0.0087890625,-0.1953125,0.6375
-2.2290076335877864,2.2442748091603053,-0.5648854961832062,-0.4638671875,-0.007080078125,-0.19384765625,0.6392
-2.16793893129771,2.213740458015267,-0.5190839694656488,-0.466552734375,-0.00732421875,-0.18017578125,0.6408999999999999
-2.4122137404580153,2.122137404580153,-0.21374045801526717,-0.460205078125,-0.006591796875,-0.18408203125,0.6426
-2.6259541984732824,2.030534351145038,-0.21374045801526717,-0.463623046875,-0.013916015625,-0.181396484375,0.6443
-2.4580152671755724,2.045801526717557,-0.3969465648854962,-0.462158203125,-0.013671875,-0.183349609375,0.646
-2.549618320610687,2.366412213740458,-0.42748091603053434,-0.459716796875,-0.01416015625,-0.18115234375,0.6476999999999999
-2.5343511450381677,2.33587786259542,-0.5648854961832062,-0.46044921875,-0.011474609375,-0.18310546875,0.6494
-2.7480916030534353,2.3053435114503817,-0.7175572519083969,-0.45849609375,-0.0146484375,-0.1787109375,0.6511
-2.8091603053435112,2.183206106870229,-0.5038167938931297,-0.456787109375,-0.013916015625,-0.17529296875,0.6527999999999999
-2.7938931297709924,2.2748091603053435,-0.366412213740458,-0.459228515625,-0.01513671875,-0.185302734375,0.6545
-3.0076335877862594,2.2900763358778624,-0.5954198473282443,-0.45947265625,-0.010986328125,-0.173583984375,0.6562
-3.0839694656488548,2.030534351145038,-0.6870229007633588,-0.455810546875,-0.01220703125,-0.175537109375,0.6578999999999999
-3.2977099236641223,1.9694656488549618,-0.549618320610687,-0.459716796875,-0.00927734375,-0.1767578125,0.6596
-3.648854961832061,2.0610687022900764,-0.6412213740458015,-0.46142578125,-0.013671875,-0.1806640625,0.6613
-3.7709923664122136,2.015267175572519,-0.8396946564885496,-0.455810546875,-0.017578125,-0.1767578125,0.6629999999999999
-4.0458015267175576,2.0610687022900764,-0.8244274809160306,-0.460693359375,-0.01416015625,-0.179443359375,0.6647
-4.366412213740458,1.8625954198473282,-0.9770992366412213,-0.45263671875,-0.01318359375,-0.179931640625,0.6664
-4.564885496183206,1.8015267175572518,-1.0381679389312977,-0.454833984375,-0.016357421875,-0.175537109375,0.6680999999999999
-4.473282442748092,1.8625954198473282,-1.099236641221374,-0.458251953125,-0.01416015625,-0.175537109375,0.6698
-4.656488549618321,1.9083969465648856,-1.3740458015267176,-0.454345703125,-0.016357421875,-0.17333984375,0.6715
-4.854961832061068,2.0,-1.450381679389313,-0.456787109375,-0.009033203125,-0.179443359375,0.6731999999999999
-4.870229007633588,1.9694656488549618,-1.4961832061068703,-0.45751953125,-0.017333984375,-0.177001953125,0.6748999999999999
-4.931297709923665,2.213740458015267,-1.786259541984733,-0.451416015625,-0.008544921875,-0.173828125,0.6766
-5.038167938931298,1.9389312977099236,-2.0,-0.458984375,-0.011962890625,-0.186767578125,0.6783
-4.870229007633588,1.984732824427481,-2.030534351145038,-0.45361328125,-0.0078125,-0.17919921875,0.6799999999999999
-5.190839694656488,1.816793893129771,-2.0763358778625953,-0.457763671875,-0.009765625,-0.171142578125,0.6817
-5.068702290076335,1.8931297709923665,-2.015267175572519,-0.46142578125,-0.0078125,-0.182861328125,0.6834
-4.854961832061068,1.816793893129771,-2.366412213740458,-0.453125,-0.006103515625,-0.170654296875,0.6850999999999999
-4.885496183206107,1.83206106870229,-2.366412213740458,-0.4521484375,-0.002685546875,-0.177490234375,0.6868
-4.824427480916031,1.6946564885496183,-2.519083969465649,-0.46044921875,-0.001953125,-0.1728515625,0.6885
-4.793893129770993,1.6641221374045803,-2.6106870229007635,-0.4560546875,-0.0087890625,-0.17138671875,0.6901999999999999
-4.595419847328245,1.816793893129771,-2.5801526717557253,-0.4580078125,-0.00830078125,-0.17236328125,0.6919
-4.351145038167939,1.7709923664122138,-2.7022900763358777,-0.46337890625,-0.0029296875,-0.17431640625,0.6936
-4.2748091603053435,1.9541984732824427,-3.053435114503817,-0.46484375,0.0029296875,-0.16796875,0.6952999999999999
-3.877862595419847,1.7099236641221374,-3.0076335877862594,-0.4677734375,-0.00341796875,-0.169921875,0.697
-3.8625954198473282,1.7251908396946565,-3.053435114503817,-0.460693359375,-0.001953125,-0.182373046875,0.6987
-3.7099236641221376,1.8015267175572518,-3.1297709923664123,-0.4619140625,-0.001953125,-0.193115234375,0.7003999999999999
-3.2519083969465647,1.6030534351145038,-3.282442748091603,-0.45556640625,-0.002685546875,-0.189208984375,0.7021
-3.099236641221374,1.6793893129770991,-3.267175572519084,-0.459228515625,-0.005615234375,-0.179931640625,0.7038
-2.9770992366412212,1.83206106870229,-3.404580152671756,-0.464111328125,-0.002685546875,-0.17333984375,0.7055
-2.519083969465649,1.816793893129771,-3.404580152671756,-0.463623046875,0.0,-0.1826171875,0.7071999999999999
-2.1374045801526718,1.8625954198473282,-3.4656488549618323,-0.46337890625,-0.003173828125,-0.1767578125,0.7089
-2.030534351145038,1.9236641221374047,-3.5114503816793894,-0.4609375,-0.002197265625,-0.17578125,0.7106
-1.816793893129771,1.786259541984733,-3.5572519083969465,-0.46142578125,-0.00146484375,-0.174072265625,0.7122999999999999
-1.6030534351145038,1.6793893129770991,-3.66412213740458,-0.4638671875,-0.00146484375,-0.18310546875,0.714
-1.1297709923664123,1.6641221374045803,-3.5267175572519083,-0.468017578125,-0.0029296875,-0.173583984375,0.7157
-1.1908396946564885,1.7251908396946565,-3.4656488549618323,-0.4677734375,-0.002197265625,-0.167236328125,0.7173999999999999
-1.0229007633587786,1.8015267175572518,-3.816793893129771,-0.4638671875,-0.001953125,-0.17724609375,0.7191
-0.8702290076335878,1.633587786259542,-3.633587786259542,-0.4658203125,-0.007568359375,-0.179443359375,0.7208
-0.6106870229007634,1.5267175572519085,-3.6030534351145036,-0.468994140625,-0.00244140625,-0.179443359375,0.7224999999999999
-0.366412213740458,1.6030534351145038,-3.66412213740458,-0.465576171875,-0.001953125,-0.1865234375,0.7242
-0.44274809160305345,1.618320610687023,-3.7709923664122136,-0.463134765625,-0.001220703125,-0.18017578125,0.7259
-0.21374045801526717,1.5725190839694656,-3.404580152671756,-0.46435546875,-0.004638671875,-0.1796875,0.7275999999999999
-0.2748091603053435,1.6946564885496183,-3.4656488549618323,-0.460693359375,-0.00244140625,-0.180908203125,0.7293
-0.183206106870229,1.5572519083969465,-3.435114503816794,-0.462890625,0.004150390625,-0.181884765625,0.731
-0.22900763358778625,1.5725190839694656,-3.4198473282442747,-0.4677734375,-0.0078125,-0.18994140625,0.7326999999999999
-0.3816793893129771,1.7404580152671756,-3.3587786259541983,-0.468017578125,-0.0009765625,-0.183349609375,0.7343999999999999
-0.07633587786259542,1.8625954198473282,-3.3893129770992365,-0.4697265625,-0.001953125,-0.183349609375,0.7361
-0.2900763358778626,1.6946564885496183,-3.312977099236641,-0.461181640625,-0.004150390625,-0.176513671875,0.7378
-0.2595419847328244,1.984732824427481,-3.236641221374046,-0.4677734375,-0.005615234375,-0.185791015625,0.7394999999999999
-0.07633587786259542,2.0763358778625953,-3.114503816793893,-0.468505859375,-0.003173828125,-0.18505859375,0.7412
-0.030534351145038167,2.0610687022900764,-3.282442748091603,-0.465576171875,-0.00244140625,-0.18408203125,0.7429
-0.061068702290076333,2.1526717557251906,-3.145038167938931,-0.461181640625,-0.007568359375,-0.186767578125,0.7445999999999999
0.24427480916030533,2.16793893129771,-3.3587786259541983,-0.46875,-0.005126953125,-0.17822265625,0.7463
0.5190839694656488,2.351145038167939,-3.404580152671756,-0.46875,-0.005615234375,-0.183349609375,0.748
0.5190839694656488,2.4122137404580153,-3.3435114503816794,-0.46337890625,-0.0068359375,-0.178955078125,0.7496999999999999
0.42748091603053434,2.6106870229007635,-3.114503816793893,-0.464111328125,-0.007080078125,-0.183837890625,0.7514
0.3053435114503817,2.564885496183206,-3.312977099236641,-0.466552734375,-0.003662109375,-0.192626953125,0.7531
0.33587786259541985,2.7480916030534353,-3.114503816793893,-0.465087890625,-0.009765625,-0.18212890625,0.7547999999999999
0.7480916030534351,2.732824427480916,-3.3282442748091605,-0.4638671875,-0.007568359375,-0.19140625,0.7565
0.8396946564885496,2.7938931297709924,-3.1908396946564888,-0.462890625,-0.009033203125,-0.189208984375,0.7582
0.7786259541984732,2.854961832061069,-3.1755725190839694,-0.463623046875,-0.001953125,-0.19189453125,0.7598999999999999
0.8396946564885496,2.9160305343511452,-2.9618320610687023,-0.46630859375,-0.007080078125,-0.193359375,0.7615999999999999
0.7786259541984732,2.8091603053435112,-3.0839694656488548,-0.462646484375,-0.0078125,-0.194580078125,0.7633
0.8702290076335878,3.053435114503817,-2.931297709923664,-0.464111328125,-0.006591796875,-0.189697265625,0.7649999999999999
0.9770992366412213,3.114503816793893,-2.8702290076335877,-0.462646484375,-0.00537109375,-0.1875,0.7666999999999999
0.9923664122137404,3.053435114503817,-2.9618320610687023,-0.4638671875,-0.01123046875,-0.189208984375,0.7684
0.6259541984732825,3.0229007633587788,-2.854961832061069,-0.46826171875,-0.00390625,-0.194091796875,0.7701
0.8854961832061069,2.7938931297709924,-2.717557251908397,-0.464111328125,-0.003662109375,-0.193603515625,0.7717999999999999
1.0381679389312977,2.854961832061069,-2.732824427480916,-0.4638671875,-0.003662109375,-0.185791015625,0.7735
1.0687022900763359,2.8396946564885495,-2.687022900763359,-0.465576171875,-0.003662109375,-0.1875,0.7752
0.916030534351145,2.885496183206107,-2.6564885496183206,-0.466552734375,-0.010009765625,-0.18408203125,0.7768999999999999
0.7938931297709924,3.099236641221374,-2.6717557251908395,-0.45654296875,-0.006103515625,-0.193603515625,0.7786
1.0229007633587786,3.1908396946564888,-2.885496183206107,-0.464111328125,-0.00927734375,-0.188720703125,0.7803
0.8854961832061069,3.1603053435114505,-2.946564885496183,-0.46533203125,-0.016357421875,-0.185546875,0.7819999999999999
0.8549618320610687,3.0381679389312977,-3.0229007633587788,-0.462158203125,-0.007080078125,-0.185302734375,0.7837
0.8244274809160306,3.1908396946564888,-2.8396946564885495,-0.45556640625,-0.0146484375,-0.1845703125,0.7854
0.7175572519083969,3.1755725190839694,-2.9770992366412212,-0.455078125,-0.016845703125,-0.18408203125,0.7870999999999999
0.7938931297709924,2.8091603053435112,-3.145038167938931,-0.46435546875,-0.021484375,-0.181396484375,0.7888
0.8396946564885496,2.854961832061069,-2.885496183206107,-0.46435546875,-0.02001953125,-0.19091796875,0.7905
0.48854961832061067,2.931297709923664,-3.114503816793893,-0.466064453125,-0.015869140625,-0.190673828125,0.7921999999999999
0.3816793893129771,2.7938931297709924,-2.9160305343511452,-0.46044921875,-0.01806640625,-0.18017578125,0.7938999999999999
0.07633587786259542,2.3969465648854964,-3.053435114503817,-0.462158203125,-0.021240234375,-0.181396484375,0.7956
-0.16793893129770993,2.6106870229007635,-3.099236641221374,-0.462646484375,-0.018798828125,-0.17822265625,0.7973
-0.33587786259541985,2.4427480916030535,-3.114503816793893,-0.465087890625,-0.019287109375,-0.17724609375,0.7989999999999999
-0.6106870229007634,2.198473282442748,-2.9160305343511452,-0.462890625,-0.01904296875,-0.186279296875,0.8007
-0.9312977099236641,2.1068702290076335,-2.900763358778626,-0.462890625,-0.0244140625,-0.173095703125,0.8024
-1.3587786259541985,2.0916030534351147,-2.9618320610687023,-0.46435546875,-0.0205078125,-0.17822265625,0.8040999999999999
-1.4809160305343512,2.1526717557251906,-2.854961832061069,-0.462158203125,-0.020263671875,-0.18017578125,0.8058
-1.9694656488549618,2.0763358778625953,-2.9923664122137406,-0.46142578125,-0.020263671875,-0.18115234375,0.8075
-2.1374045801526718,1.7557251908396947,-2.9923664122137406,-0.46142578125,-0.017822265625,-0.18017578125,0.8091999999999999
-2.33587786259542,1.786259541984733,-3.099236641221374,-0.46435546875,-0.01904296875,-0.174560546875,0.8109
-2.213740458015267,1.6946564885496183,-3.068702290076336,-0.45947265625,-0.028564453125,-0.187744140625,0.8126
-2.4122137404580153,1.7251908396946565,-3.2977099236641223,-0.464111328125,-0.02490234375,-0.189208984375,0.8142999999999999
-2.6412213740458017,1.6946564885496183,-3.3587786259541983,-0.457275390625,-0.019775390625,-0.1728515625,0.816
-2.50381679389313,1.465648854961832,-3.2519083969465647,-0.4599609375,-0.0224609375,-0.1767578125,0.8177
-2.8091603053435112,1.3129770992366412,-3.3740458015267176,-0.458251953125,-0.0234375,-0.1748046875,0.8193999999999999
-3.0076335877862594,1.3893129770992367,-3.1603053435114505,-0.46142578125,-0.019775390625,-0.17822265625,0.8210999999999999
-3.2213740458015265,1.2671755725190839,-3.450381679389313,-0.465087890625,-0.019775390625,-0.181396484375,0.8228
-3.0381679389312977,1.1450381679389312,-3.1603053435114505,-0.457763671875,-0.0224609375,-0.18212890625,0.8244999999999999
-3.0839694656488548,1.282442748091603,-3.312977099236641,-0.4580078125,-0.021240234375,-0.181396484375,0.8261999999999999
-3.236641221374046,1.1145038167938932,-3.145038167938931,-0.464111328125,-0.013916015625,-0.173828125,0.8279
-3.2213740458015265,0.8854961832061069,-3.114503816793893,-0.46044921875,-0.01318359375,-0.1875,0.8296
-3.3587786259541983,0.7633587786259542,-3.1297709923664123,-0.46240234375,-0.013671875,-0.180419921875,0.8312999999999999
-3.1297709923664123,1.0229007633587786,-3.0229007633587788,-0.45361328125,-0.01806640625,-0.178466796875,0.833
-3.2519083969465647,0.9618320610687023,-2.8091603053435112,-0.4560546875,-0.016845703125,-0.18896484375,0.8347
-3.236641221374046,0.9007633587786259,-3.1908396946564888,-0.4521484375,-0.01171875,-0.181396484375,0.8363999999999999
-3.0381679389312977,0.8244274809160306,-2.931297709923664,-0.45751953125,-0.013916015625,-0.187255859375,0.8381
-2.8702290076335877,0.7786259541984732,-2.8702290076335877,-0.459228515625,-0.013671875,-0.18408203125,0.8398
-2.9618320610687023,0.8244274809160306,-2.427480916030534,-0.461669921875,-0.013671875,-0.189208984375,0.8414999999999999
-2.6412213740458017,0.8396946564885496,-2.6412213740458017,-0.460693359375,-0.013671875,-0.19384765625,0.8432
-2.595419847328244,1.0229007633587786,-2.519083969465649,-0.4580078125,-0.01025390625,-0.185302734375,0.8449
-2.2442748091603053,0.9770992366412213,-2.4885496183206106,-0.45947265625,-0.012939453125,-0.187255859375,0.8465999999999999
-1.8778625954198473,0.9465648854961832,-2.3969465648854964,-0.459228515625,-0.0126953125,-0.181396484375,0.8482999999999999
-1.6793893129770991,0.8244274809160306,-2.4732824427480917,-0.4619140625,-0.0126953125,-0.189208984375,0.85
-1.6488549618320612,0.6106870229007634,-2.213740458015267,-0.451416015625,-0.011962890625,-0.18896484375,0.8516999999999999
-1.297709923664122,0.8396946564885496,-2.4427480916030535,-0.458740234375,-0.0107421875,-0.1787109375,0.8533999999999999
-1.0534351145038168,0.9465648854961832,-2.366412213740458,-0.456787109375,-0.012939453125,-0.188720703125,0.8551
-0.8854961832061069,0.9618320610687023,-2.366412213740458,-0.461181640625,-0.011474609375,-0.195068359375,0.8568
-0.7633587786259542,0.9770992366412213,-2.2290076335877864,-0.45703125,-0.008056640625,-0.1923828125,0.8584999999999999
-0.4122137404580153,1.1908396946564885,-2.427480916030534,-0.45703125,-0.010009765625,-0.19091796875,0.8602
-0.15267175572519084,1.0381679389312977,-2.2748091603053435,-0.457763671875,-0.011474609375,-0.19091796875,0.8619
0.07633587786259542,1.2213740458015268,-2.122137404580153,-0.46142578125,-0.01416015625,-0.1845703125,0.8635999999999999
0.015267175572519083,1.3893129770992367,-2.0610687022900764,-0.458251953125,-0.012451171875,-0.189697265625,0.8653
0.24427480916030533,1.4351145038167938,-2.1374045801526718,-0.462646484375,-0.013427734375,-0.186767578125,0.867
0.33587786259541985,1.465648854961832,-2.122137404580153,-0.4560546875,-0.01171875,-0.1923828125,0.8686999999999999
0.2748091603053435,1.5114503816793894,-2.183206106870229,-0.455322265625,-0.01220703125,-0.1875,0.8704
0.3816793893129771,1.6030534351145038,-1.9083969465648856,-0.461181640625,-0.012939453125,-0.18408203125,0.8721
0.5648854961832062,1.4045801526717556,-1.8778625954198473,-0.460693359375,-0.0068359375,-0.1845703125,0.8737999999999999
0.4732824427480916,1.3740458015267176,-1.83206106870229,-0.458984375,-0.0048828125,-0.1865234375,0.8755
0.4580152671755725,1.5877862595419847,-1.9541984732824427,-0.462890625,-0.00927734375,-0.176513671875,0.8772
0.3511450381679389,1.297709923664122,-1.816793893129771,-0.462158203125,-0.01025390625,-0.18798828125,0.8788999999999999
0.0916030534351145,1.1908396946564885,-2.045801526717557,-0.46142578125,-0.010009765625,-0.181640625,0.8805999999999999
0.3816793893129771,1.0534351145038168,-1.9694656488549618,-0.45849609375,-0.011474609375,-0.1787109375,0.8823
0.366412213740458,1.083969465648855,-1.816793893129771,-0.466064453125,-0.011474609375,-0.177001953125,0.8839999999999999
0.4122137404580153,1.0687022900763359,-1.7404580152671756,-0.4599609375,-0.012451171875,-0.180908203125,0.8856999999999999
0.7022900763358778,0.8702290076335878,-1.9083969465648856,-0.462158203125,-0.01171875,-0.18505859375,0.8874
0.5801526717557252,0.7633587786259542,-1.9694656488549618,-0.461181640625,-0.01318359375,-0.18701171875,0.8891
0.7022900763358778,0.6564885496183206,-1.8778625954198473,-0.46484375,-0.022705078125,-0.184326171875,0.8907999999999999
0.7938931297709924,0.8854961832061069,-1.8778625954198473,-0.46630859375,-0.021240234375,-0.178955078125,0.8925
0.6717557251908397,0.8549618320610687,-1.816793893129771,-0.464599609375,-0.015625,-0.184326171875,0.8942
0.48854961832061067,0.8702290076335878,-1.6793893129770991,-0.46337890625,-0.016357421875,-0.18603515625,0.8958999999999999
0.030534351145038167,0.8549618320610687,-1.9389312977099236,-0.4638671875,-0.015380859375,-0.181396484375,0.8976
0.07633587786259542,0.8244274809160306,-1.5725190839694656,-0.458984375,-0.017822265625,-0.185546875,0.8993
-0.04580152671755725,1.0687022900763359,-1.83206106870229,-0.462646484375,-0.0166015625,-0.18017578125,0.9009999999999999
-0.366412213740458,1.1755725190839694,-1.5877862595419847,-0.464599609375,-0.017333984375,-0.188232421875,0.9027
-0.6412213740458015,1.0687022900763359,-1.4961832061068703,-0.463623046875,-0.01416015625,-0.182373046875,0.9044
-0.8854961832061069,0.8549618320610687,-1.4198473282442747,-0.4560546875,-0.019287109375,-0.182373046875,0.9060999999999999
-0.9770992366412213,0.916030534351145,-1.6641221374045803,-0.458984375,-0.015625,-0.184326171875,0.9077999999999999
-1.099236641221374,1.1450381679389312,-1.4351145038167938,-0.459716796875,-0.013671875,-0.17724609375,0.9095
-1.3129770992366412,0.9923664122137404,-1.5725190839694656,-0.461181640625,-0.0146484375,-0.18408203125,0.9111999999999999
-1.3435114503816794,0.9465648854961832,-1.6488549618320612,-0.4609375,-0.01611328125,-0.177490234375,0.9128999999999999
-1.5267175572519085,1.099236641221374,-1.618320610687023,-0.461181640625,-0.01416015625,-0.18408203125,0.9146
-1.4961832061068703,1.099236641221374,-1.5877862595419847,-0.456298828125,-0.0068359375,-0.17138671875,0.9163
-1.9083969465648856,0.8854961832061069,-1.4045801526717556,-0.45849609375,-0.01123046875,-0.193115234375,0.9179999999999999
-1.5725190839694656,0.9465648854961832,-1.5114503816793894,-0.4609375,-0.013671875,-0.177978515625,0.9197
-1.618320610687023,0.916030534351145,-1.6641221374045803,-0.462646484375,-0.015380859375,-0.17578125,0.9214
-1.633587786259542,0.8091603053435115,-1.450381679389313,-0.458984375,-0.008056640625,-0.174072265625,0.9230999999999999
-1.6030534351145038,0.8244274809160306,-1.4961832061068703,-0.465087890625,-0.015380859375,-0.177734375,0.9248
-1.5725190839694656,0.6564885496183206,-1.297709923664122,-0.465576171875,-0.010009765625,-0.178955078125,0.9265
-1.6030534351145038,0.6870229007633588,-1.3282442748091603,-0.4619140625,-0.012451171875,-0.18359375,0.9281999999999999
-1.5877862595419847,0.7175572519083969,-1.2061068702290076,-0.462158203125,-0.010986328125,-0.185302734375,0.9299
-1.5267175572519085,0.44274809160305345,-1.297709923664122,-0.458984375,-0.01318359375,-0.18115234375,0.9316
-1.6488549618320612,0.22900763358778625,-1.1908396946564885,-0.458740234375,-0.007080078125,-0.178955078125,0.9332999999999999
-1.5267175572519085,0.07633587786259542,-1.1755725190839694,-0.45947265625,-0.0107421875,-0.18310546875,0.9349999999999999
-1.618320610687023,-0.061068702290076333,-1.1297709923664123,-0.46337890625,-0.005859375,-0.184326171875,0.9367
-1.282442748091603,-0.015267175572519083,-1.1297709923664123,-0.4638671875,-0.009521484375,-0.171630859375,0.9383999999999999
-1.3282442748091603,-0.030534351145038167,-1.2366412213740459,-0.4658203125,-0.009765625,-0.17529296875,0.9400999999999999
-1.1145038167938932,-0.12213740458015267,-1.282442748091603,-0.459716796875,-0.01318359375,-0.1806640625,0.9418
-1.1297709923664123,0.015267175572519083,-1.083969465648855,-0.457275390625,-0.009521484375,-0.180419921875,0.9434999999999999
-0.9618320610687023,0.0,-1.1603053435114503,-0.45947265625,-0.00634765625,-0.17529296875,0.9451999999999999
-0.7480916030534351,0.015267175572519083,-1.3893129770992367,-0.4580078125,-0.0087890625,-0.187255859375,0.9469
-0.6717557251908397,0.183206106870229,-1.297709923664122,-0.457763671875,-0.006103515625,-0.18701171875,0.9486
-0.5801526717557252,0.2900763358778626,-1.3129770992366412,-0.465576171875,-0.00439453125,-0.1826171875,0.9502999999999999
-0.48854961832061067,0.6259541984732825,-1.3587786259541985,-0.457275390625,-0.005615234375,-0.189208984375,0.952
-0.48854961832061067,0.5801526717557252,-1.4961832061068703,-0.456298828125,-0.010498046875,-0.1806640625,0.9537
-0.5801526717557252,0.3969465648854962,-1.5877862595419847,-0.460693359375,-0.0068359375,-0.17724609375,0.9553999999999999
-0.7633587786259542,0.44274809160305345,-1.633587786259542,-0.457763671875,-0.007080078125,-0.185546875,0.9571
-0.48854961832061067,0.44274809160305345,-1.3129770992366412,-0.45703125,-0.005126953125,-0.18603515625,0.9588
-0.4580152671755725,0.48854961832061067,-1.786259541984733,-0.45556640625,-0.0078125,-0.1875,0.9604999999999999
-0.4732824427480916,0.5801526717557252,-1.8931297709923665,-0.459228515625,-0.008544921875,-0.194091796875,0.9621999999999999
-0.8396946564885496,0.6412213740458015,-1.816793893129771,-0.4609375,-0.006591796875,-0.186279296875,0.9639
-0.9007633587786259,0.6259541984732825,-1.8931297709923665,-0.46533203125,-0.00439453125,-0.187744140625,0.9655999999999999
-0.6259541984732825,0.5648854961832062,-1.786259541984733,-0.4609375,-0.007568359375,-0.19580078125,0.9672999999999999
-0.6259541984732825,0.5648854961832062,-1.8015267175572518,-0.45556640625,-0.007568359375,-0.182861328125,0.969
-0.22900763358778625,0.549618320610687,-1.9541984732824427,-0.463134765625,-0.0068359375,-0.181396484375,0.9706999999999999
-0.12213740458015267,0.5190839694656488,-1.984732824427481,-0.4560546875,-0.0107421875,-0.17724609375,0.9723999999999999
0.0,0.48854961832061067,-2.2290076335877864,-0.454833984375,-0.003173828125,-0.1865234375,0.9741
0.1984732824427481,0.24427480916030533,-1.984732824427481,-0.458984375,-0.003173828125,-0.18603515625,0.9758
0.33587786259541985,0.24427480916030533,-2.213740458015267,-0.45654296875,-0.00732421875,-0.18310546875,0.9774999999999999
0.24427480916030533,0.12213740458015267,-2.0610687022900764,-0.462646484375,-0.0078125,-0.1962890625,0.9792
0.5190839694656488,0.13740458015267176,-2.0763358778625953,-0.460205078125,-0.006103515625,-0.181640625,0.9809
0.7938931297709924,0.183206106870229,-2.045801526717557,-0.46728515625,-0.0078125,-0.181884765625,0.9825999999999999
0.8854961832061069,0.3511450381679389,-2.198473282442748,-0.462890625,-0.0078125,-0.182861328125,0.9843
1.1297709923664123,0.42748091603053434,-2.1374045801526718,-0.45947265625,-0.007568359375,-0.187744140625,0.986
1.2366412213740459,0.24427480916030533,-2.3053435114503817,-0.454833984375,-0.007568359375,-0.189453125,0.9876999999999999
1.3587786259541985,0.3053435114503817,-2.2900763358778624,-0.460205078125,-0.005859375,-0.1884765625,0.9894
1.2366412213740459,0.5801526717557252,-2.2290076335877864,-0.45458984375,-0.004150390625,-0.1806640625,0.9911
1.297709923664122,0.8091603053435115,-2.2442748091603053,-0.462646484375,-0.007080078125,-0.182373046875,0.9927999999999999
1.297709923664122,0.7022900763358778,-2.5801526717557253,-0.460693359375,-0.00390625,-0.188232421875,0.9944999999999999
1.0381679389312977,0.6717557251908397,-2.427480916030534,-0.45947265625,-0.001220703125,-0.18017578125,0.9962
0.9770992366412213,0.7786259541984732,-2.5343511450381677,-0.460205078125,-0.002197265625,-0.177734375,0.9978999999999999
1.1908396946564885,0.6717557251908397,-2.2900763358778624,-0.458984375,-0.0029296875,-0.176025390625,0.9995999999999999
1.0381679389312977,0.5038167938931297,-2.3053435114503817,-0.46240234375,-0.000244140625,-0.181884765625,1.0012999999999999
1.0534351145038168,0.32061068702290074,-2.4122137404580153,-0.462158203125,-0.000244140625,-0.179931640625,1.003
1.297709923664122,0.061068702290076333,-2.519083969465649,-0.45751953125,0.005126953125,-0.17919921875,1.0047
1.1450381679389312,0.3511450381679389,-2.519083969465649,-0.46435546875,-0.00244140625,-0.18115234375,1.0064
1.4198473282442747,0.2595419847328244,-2.519083969465649,-0.463623046875,0.005615234375,-0.182861328125,1.0081
1.3740458015267176,0.2595419847328244,-2.3206106870229006,-0.460693359375,-0.001220703125,-0.183349609375,1.0098
1.282442748091603,0.24427480916030533,-2.595419847328244,-0.45947265625,-0.00048828125,-0.184814453125,1.0114999999999998
1.4045801526717556,0.549618320610687,-2.3206106870229006,-0.456787109375,0.004150390625,-0.18359375,1.0131999999999999
1.7404580152671756,0.5954198473282443,-2.3206106870229006,-0.457275390625,0.00244140625,-0.17431640625,1.0149
1.7404580152671756,0.6717557251908397,-2.427480916030534,-0.461669921875,0.001220703125,-0.17822265625,1.0166
1.6793893129770991,0.8244274809160306,-2.33587786259542,-0.468505859375,0.000732421875,-0.184814453125,1.0183
1.83206106870229,0.916030534351145,-2.3206106870229006,-0.462890625,0.0,-0.1826171875,1.02
1.8931297709923665,0.7938931297709924,-2.6259541984732824,-0.462890625,-0.00341796875,-0.177001953125,1.0217
1.8625954198473282,0.7175572519083969,-2.6106870229007635,-0.463623046875,0.0029296875,-0.18115234375,1.0233999999999999
1.83206106870229,0.732824427480916,-2.564885496183206,-0.45751953125,0.00634765625,-0.18896484375,1.0251
1.7709923664122138,0.732824427480916,-2.3969465648854964,-0.46435546875,-0.000244140625,-0.18115234375,1.0268
1.8473282442748091,0.9923664122137404,-2.351145038167939,-0.467529296875,-0.0029296875,-0.177734375,1.0285
1.9541984732824427,0.6259541984732825,-2.4427480916030535,-0.462158203125,0.00146484375,-0.181884765625,1.0302
1.8625954198473282,0.42748091603053434,-2.6717557251908395,-0.45947265625,-0.001953125,-0.18359375,1.0319
1.786259541984733,0.7938931297709924,-2.7786259541984735,-0.46044921875,-0.004150390625,-0.185791015625,1.0335999999999999
1.786259541984733,0.7022900763358778,-2.717557251908397,-0.4658203125,-0.00439453125,-0.183837890625,1.0352999999999999
1.8931297709923665,0.8244274809160306,-3.0229007633587788,-0.46142578125,-0.003662109375,-0.182861328125,1.037
2.045801526717557,0.6412213740458015,-3.1297709923664123,-0.462890625,-0.007080078125,-0.179443359375,1.0387
2.0763358778625953,0.6564885496183206,-3.0381679389312977,-0.46142578125,-0.01220703125,-0.181396484375,1.0404
2.2442748091603053,0.6717557251908397,-3.145038167938931,-0.463623046875,-0.00927734375,-0.177490234375,1.0421
1.984732824427481,0.48854961832061067,-3.3282442748091605,-0.4609375,-0.004150390625,-0.182861328125,1.0437999999999998
2.1526717557251906,0.2900763358778626,-3.0381679389312977,-0.463134765625,-0.00927734375,-0.186279296875,1.0454999999999999
2.3053435114503817,0.15267175572519084,-3.2061068702290076,-0.461181640625,-0.014404296875,-0.183349609375,1.0472
2.030534351145038,-0.015267175572519083,-3.2519083969465647,-0.4638671875,-0.015380859375,-0.177490234375,1.0489
2.4427480916030535,-0.1984732824427481,-3.3893129770992365,-0.45849609375,-0.010986328125,-0.179931640625,1.0506
2.549618320610687,-0.44274809160305345,-3.3740458015267176,-0.458740234375,-0.0048828125,-0.1796875,1.0523
2.351145038167939,-0.5954198473282443,-3.0839694656488548,-0.464599609375,-0.01416015625,-0.178466796875,1.054
2.6564885496183206,-0.732824427480916,-3.1603053435114505,-0.464111328125,-0.010986328125,-0.17919921875,1.0556999999999999
2.7022900763358777,-0.7022900763358778,-3.2977099236641223,-0.466064453125,-0.010986328125,-0.187255859375,1.0574
2.9160305343511452,-0.5648854961832062,-3.3587786259541983,-0.465087890625,-0.014404296875,-0.18603515625,1.0591
2.8396946564885495,-0.4732824427480916,-3.4656488549618323,-0.46630859375,-0.012451171875,-0.181640625,1.0608
3.099236641221374,-0.24427480916030533,-3.267175572519084,-0.46484375,-0.011962890625,-0.176513671875,1.0625
3.114503816793893,-0.1984732824427481,-3.572519083969466,-0.46923828125,-0.013916015625,-0.1748046875,1.0642
3.2977099236641223,0.10687022900763359,-3.2213740458015265,-0.470703125,-0.0185546875,-0.184326171875,1.0658999999999998
3.1755725190839694,-0.061068702290076333,-3.49618320610687,-0.46923828125,-0.017333984375,-0.18798828125,1.0675999999999999
3.1908396946564888,0.22900763358778625,-3.6946564885496183,-0.467529296875,-0.013427734375,-0.187255859375,1.0693
2.8244274809160306,0.33587786259541985,-3.4198473282442747,-0.467041015625,-0.012939453125,-0.193359375,1.071
2.931297709923664,0.4732824427480916,-3.450381679389313,-0.46826171875,-0.013427734375,-0.18359375,1.0727
2.351145038167939,0.5038167938931297,-3.5572519083969465,-0.470458984375,-0.01806640625,-0.18310546875,1.0744
2.2900763358778624,0.5343511450381679,-3.4656488549618323,-0.46923828125,-0.01513671875,-0.18359375,1.0760999999999998
1.7251908396946565,0.8396946564885496,-3.5267175572519083,-0.466064453125,-0.010986328125,-0.182373046875,1.0777999999999999
1.6641221374045803,0.6870229007633588,-3.312977099236641,-0.46728515625,-0.013427734375,-0.18505859375,1.0795
1.5114503816793894,0.44274809160305345,-3.1908396946564888,-0.46923828125,-0.01708984375,-0.184814453125,1.0812
1.1297709923664123,0.6564885496183206,-2.9618320610687023,-0.4658203125,-0.01708984375,-0.18115234375,1.0829
1.3435114503816794,0.7786259541984732,-2.8244274809160306,-0.468017578125,-0.01416015625,-0.180419921875,1.0846
1.282442748091603,0.5648854961832062,-2.885496183206107,-0.466552734375,-0.016357421875,-0.1767578125,1.0863
1.1297709923664123,0.549618320610687,-2.885496183206107,-0.46533203125,-0.015869140625,-0.1875,1.0879999999999999
1.0229007633587786,0.4580152671755725,-2.7938931297709924,-0.46044921875,-0.011474609375,-0.19091796875,1.0897
1.1145038167938932,0.6259541984732825,-2.8396946564885495,-0.47216796875,-0.01806640625,-0.1806640625,1.0914
0.8702290076335878,0.5343511450381679,-2.687022900763359,-0.4677734375,-0.017578125,-0.18408203125,1.0931
0.9465648854961832,0.3053435114503817,-2.7022900763358777,-0.471923828125,-0.0146484375,-0.182861328125,1.0948
0.9312977099236641,0.44274809160305345,-2.595419847328244,-0.46435546875,-0.015869140625,-0.1884765625,1.0965
0.7480916030534351,0.33587786259541985,-2.519083969465649,-0.462890625,-0.018310546875,-0.188720703125,1.0981999999999998
0.6412213740458015,0.24427480916030533,-2.6106870229007635,-0.46337890625,-0.0166015625,-0.19189453125,1.0998999999999999
0.6106870229007634,0.2748091603053435,-2.4580152671755724,-0.463134765625,-0.017578125,-0.1845703125,1.1016
0.0916030534351145,0.16793893129770993,-2.2442748091603053,-0.464599609375,-0.009033203125,-0.185302734375,1.1033
0.15267175572519084,0.22900763358778625,-2.16793893129771,-0.463623046875,-0.01171875,-0.188232421875,1.105
-0.030534351145038167,0.16793893129770993,-2.1526717557251906,-0.46728515625,-0.012451171875,-0.185546875,1.1067
-0.2748091603053435,0.2595419847328244,-2.0916030534351147,-0.464111328125,-0.01171875,-0.181884765625,1.1083999999999998
-0.6259541984732825,0.15267175572519084,-1.984732824427481,-0.46142578125,-0.017333984375,-0.18505859375,1.1100999999999999
-0.8549618320610687,0.030534351145038167,-1.9083969465648856,-0.461669921875,-0.010986328125,-0.181640625,1.1118
-1.1450381679389312,0.366412213740458,-1.8778625954198473,-0.466064453125,-0.0146484375,-0.1826171875,1.1135
-1.4198473282442747,0.32061068702290074,-2.198473282442748,-0.46728515625,-0.012939453125,-0.185546875,1.1152
-1.5114503816793894,0.0916030534351145,-1.786259541984733,-0.4677734375,-0.013427734375,-0.181396484375,1.1169
-1.7099236641221374,0.183206106870229,-1.786259541984733,-0.46533203125,-0.014404296875,-0.1806640625,1.1186
-1.633587786259542,-0.015267175572519083,-1.7557251908396947,-0.4658203125,-0.015380859375,-0.17919921875,1.1202999999999999
-1.3740458015267176,-0.04580152671755725,-1.6793893129770991,-0.4619140625,-0.01513671875,-0.182861328125,1.1219999999999999
-1.6030534351145038,0.030534351145038167,-1.633587786259542,-0.465087890625,-0.01513671875,-0.18505859375,1.1237
-1.6488549618320612,0.0916030534351145,-1.6641221374045803,-0.457763671875,-0.0146484375,-0.1787109375,1.1254
-1.5114503816793894,-0.15267175572519084,-1.618320610687023,-0.456787109375,-0.013671875,-0.182861328125,1.1271
-1.4961832061068703,-0.15267175572519084,-1.5267175572519085,-0.461181640625,-0.009521484375,-0.181396484375,1.1288
-1.3587786259541985,-0.13740458015267176,-1.5267175572519085,-0.45751953125,-0.008544921875,-0.1845703125,1.1304999999999998
-1.2213740458015268,-0.32061068702290074,-1.6793893129770991,-0.461669921875,-0.011474609375,-0.18359375,1.1321999999999999
-1.2671755725190839,-0.13740458015267176,-1.6030534351145038,-0.459716796875,-0.010009765625,-0.184326171875,1.1339
-1.5114503816793894,-0.0916030534351145,-1.5572519083969465,-0.459228515625,-0.014404296875,-0.18603515625,1.1356
-1.0381679389312977,-0.2748091603053435,-1.3587786259541985,-0.464111328125,-0.0048828125,-0.180908203125,1.1373
-1.1603053435114503,-0.366412213740458,-1.5419847328244274,-0.464111328125,-0.009033203125,-0.188720703125,1.139
-1.3587786259541985,-0.4732824427480916,-1.450381679389313,-0.459716796875,-0.007568359375,-0.18359375,1.1407
-1.4351145038167938,-0.3511450381679389,-1.3129770992366412,-0.462890625,-0.008056640625,-0.181396484375,1.1423999999999999
-1.3740458015267176,-0.42748091603053434,-1.4198473282442747,-0.460205078125,-0.01025390625,-0.182861328125,1.1441
-1.3893129770992367,-0.7022900763358778,-1.5419847328244274,-0.464599609375,-0.006103515625,-0.185546875,1.1458
-1.5114503816793894,-0.4122137404580153,-1.2061068702290076,-0.4599609375,-0.007080078125,-0.185302734375,1.1475
-1.3435114503816794,-0.6870229007633588,-1.3129770992366412,-0.460693359375,-0.006103515625,-0.18505859375,1.1492
-0.8091603053435115,-0.5801526717557252,-1.297709923664122,-0.467529296875,-0.010009765625,-0.18798828125,1.1509
-0.6412213740458015,-0.3511450381679389,-1.3435114503816794,-0.463134765625,-0.015869140625,-0.180908203125,1.1525999999999998
-0.42748091603053434,-0.2900763358778626,-1.4351145038167938,-0.471923828125,-0.010009765625,-0.182861328125,1.1542999999999999
0.030534351145038167,-0.2900763358778626,-1.3435114503816794,-0.464599609375,-0.012451171875,-0.189697265625,1.156
0.07633587786259542,-0.1984732824427481,-1.297709923664122,-0.464111328125,-0.015380859375,-0.181884765625,1.1577
0.5038167938931297,-0.24427480916030533,-1.1755725190839694,-0.46826171875,-0.008056640625,-0.179931640625,1.1594
0.7938931297709924,-0.04580152671755725,-1.282442748091603,-0.46630859375,-0.00634765625,-0.18310546875,1.1611
1.1450381679389312,0.030534351145038167,-1.3740458015267176,-0.46923828125,-0.01416015625,-0.176025390625,1.1627999999999998
1.1603053435114503,0.030534351145038167,-1.1145038167938932,-0.462890625,-0.011962890625,-0.181884765625,1.1644999999999999
1.251908396946565,-0.13740458015267176,-1.1908396946564885,-0.462158203125,-0.010009765625,-0.184814453125,1.1662
1.4198473282442747,0.04580152671755725,-1.3893129770992367,-0.461181640625,-0.0087890625,-0.180419921875,1.1679
1.6946564885496183,0.061068702290076333,-1.4045801526717556,-0.459228515625,-0.006103515625,-0.180419921875,1.1696
2.030534351145038,-0.030534351145038167,-1.0381679389312977,-0.462646484375,-0.017822265625,-0.178466796875,1.1713
2.351145038167939,-0.07633587786259542,-1.1603053435114503,-0.46435546875,-0.015869140625,-0.1787109375,1.173
2.6259541984732824,-0.183206106870229,-1.2366412213740459,-0.462646484375,-0.011962890625,-0.1767578125,1.1746999999999999
2.7022900763358777,-0.10687022900763359,-1.2671755725190839,-0.464111328125,-0.01513671875,-0.1826171875,1.1764
2.6106870229007635,0.07633587786259542,-1.4198473282442747,-0.469482421875,-0.018798828125,-0.17578125,1.1781
2.687022900763359,0.061068702290076333,-1.0076335877862594,-0.463623046875,-0.01123046875,-0.1767578125,1.1798
3.145038167938931,-0.10687022900763359,-1.1603053435114503,-0.463623046875,-0.0126953125,-0.1845703125,1.1815
3.114503816793893,0.04580152671755725,-1.0381679389312977,-0.46630859375,-0.010986328125,-0.1787109375,1.1832
3.0076335877862594,0.12213740458015267,-1.0381679389312977,-0.4677734375,-0.01611328125,-0.182861328125,1.1848999999999998
2.8091603053435112,0.24427480916030533,-1.2061068702290076,-0.464599609375,-0.012939453125,-0.18212890625,1.1865999999999999
2.9160305343511452,0.3816793893129771,-1.083969465648855,-0.460693359375,-0.009765625,-0.181396484375,1.1883
2.7938931297709924,0.5954198473282443,-1.0076335877862594,-0.4658203125,-0.015869140625,-0.184326171875,1.19
2.9618320610687023,0.6259541984732825,-0.8854961832061069,-0.466552734375,-0.016845703125,-0.176513671875,1.1917
2.7938931297709924,0.6412213740458015,-0.916030534351145,-0.4658203125,-0.009033203125,-0.179931640625,1.1934
2.5801526717557253,0.5954198473282443,-0.8702290076335878,-0.46630859375,-0.0166015625,-0.18212890625,1.1950999999999998
2.4122137404580153,0.6717557251908397,-0.5648854961832062,-0.465576171875,-0.014404296875,-0.187255859375,1.1967999999999999
2.3206106870229006,0.7938931297709924,-0.6106870229007634,-0.467041015625,-0.01123046875,-0.189697265625,1.1985
2.351145038167939,0.8854961832061069,-0.549618320610687,-0.46435546875,-0.0166015625,-0.19140625,1.2002
2.0763358778625953,1.0687022900763359,-0.3053435114503817,-0.46630859375,-0.016357421875,-0.182373046875,1.2019
1.9389312977099236,0.7786259541984732,-0.2748091603053435,-0.46826171875,-0.01220703125,-0.19189453125,1.2036
1.8473282442748091,1.0534351145038168,-0.16793893129770993,-0.46875,-0.009765625,-0.18896484375,1.2053
1.7099236641221374,1.083969465648855,-0.22900763358778625,-0.464111328125,-0.02197265625,-0.184326171875,1.2069999999999999
1.4351145038167938,1.0076335877862594,-0.21374045801526717,-0.46533203125,-0.016845703125,-0.18359375,1.2086999999999999
1.4961832061068703,1.1450381679389312,0.15267175572519084,-0.468994140625,-0.015625,-0.185546875,1.2104
1.282442748091603,1.1297709923664123,0.2748091603053435,-0.4658203125,-0.019775390625,-0.1904296875,1.2121
1.3129770992366412,1.1145038167938932,0.6106870229007634,-0.461669921875,-0.019775390625,-0.18896484375,1.2138
0.9007633587786259,1.1603053435114503,0.44274809160305345,-0.46435546875,-0.015869140625,-0.184326171875,1.2155
0.9770992366412213,0.9618320610687023,0.42748091603053434,-0.460693359375,-0.019287109375,-0.18359375,1.2171999999999998
0.7175572519083969,1.1145038167938932,0.4122137404580153,-0.46240234375,-0.01904296875,-0.186279296875,1.2188999999999999
0.6106870229007634,1.0534351145038168,0.6564885496183206,-0.470458984375,-0.02197265625,-0.191162109375,1.2206
0.16793893129770993,1.0229007633587786,0.4580152671755725,-0.470703125,-0.015625,-0.195068359375,1.2223
0.24427480916030533,0.9618320610687023,0.5954198473282443,-0.4619140625,-0.01953125,-0.18115234375,1.224
0.10687022900763359,0.8854961832061069,0.732824427480916,-0.46435546875,-0.0146484375,-0.185791015625,1.2257
-0.13740458015267176,0.8549618320610687,0.6870229007633588,-0.457275390625,-0.01953125,-0.180419921875,1.2273999999999998
-0.5648854961832062,1.0687022900763359,0.549618320610687,-0.461181640625,-0.017333984375,-0.18310546875,1.2290999999999999
-0.8244274809160306,0.732824427480916,0.8854961832061069,-0.46875,-0.0185546875,-0.18212890625,1.2308
-0.9923664122137404,0.9465648854961832,0.8244274809160306,-0.4599609375,-0.021484375,-0.188720703125,1.2325
-1.083969465648855,0.9618320610687023,0.7633587786259542,-0.45703125,-0.01123046875,-0.18603515625,1.2342
-1.1297709923664123,0.9618320610687023,0.6106870229007634,-0.46240234375,-0.01318359375,-0.181396484375,1.2359
-1.3740458015267176,0.9007633587786259,0.9923664122137404,-0.45947265625,-0.011474609375,-0.173828125,1.2376
-1.3740458015267176,0.8244274809160306,0.6259541984732825,-0.461181640625,-0.012451171875,-0.17724609375,1.2392999999999998
-1.4809160305343512,0.9007633587786259,0.8549618320610687,-0.4580078125,-0.016845703125,-0.183349609375,1.2409999999999999
-1.7404580152671756,0.7480916030534351,0.8702290076335878,-0.4580078125,-0.01171875,-0.173095703125,1.2427
-1.7251908396946565,0.8702290076335878,0.8091603053435115,-0.455810546875,-0.011474609375,-0.18017578125,1.2444
-1.6641221374045803,0.7175572519083969,0.4732824427480916,-0.457763671875,-0.0087890625,-0.17041015625,1.2461
-1.7709923664122138,0.6870229007633588,0.8854961832061069,-0.455078125,-0.01611328125,-0.18701171875,1.2478
-2.0,0.7175572519083969,0.5190839694656488,-0.460205078125,-0.010009765625,-0.181640625,1.2494999999999998
-2.030534351145038,0.6717557251908397,0.6870229007633588,-0.45458984375,-0.009765625,-0.1806640625,1.2511999999999999
-1.816793893129771,0.6564885496183206,0.5190839694656488,-0.453857421875,-0.0146484375,-0.1708984375,1.2529
-1.816793893129771,0.5954198473282443,0.549618320610687,-0.460205078125,-0.009521484375,-0.177490234375,1.2546
-1.9694656488549618,0.7022900763358778,0.16793893129770993,-0.4638671875,-0.0107421875,-0.17333984375,1.2563
-1.9236641221374047,0.7938931297709924,0.13740458015267176,-0.45556640625,-0.009765625,-0.1767578125,1.258
-2.030534351145038,0.9312977099236641,0.183206106870229,-0.4599609375,-0.0048828125,-0.173828125,1.2596999999999998
-1.8473282442748091,0.8396946564885496,0.33587786259541985,-0.4580078125,-0.007080078125,-0.17724609375,1.2613999999999999
-1.7557251908396947,0.7480916030534351,0.21374045801526717,-0.4599609375,-0.01416015625,-0.17431640625,1.2631
-1.3129770992366412,0.9312977099236641,0.22900763358778625,-0.45703125,-0.012451171875,-0.1806640625,1.2648
-1.282442748091603,0.7633587786259542,0.061068702290076333,-0.456787109375,-0.014404296875,-0.186767578125,1.2665
-0.9312977099236641,0.6717557251908397,0.13740458015267176,-0.460693359375,-0.0068359375,-0.1748046875,1.2682
-0.9007633587786259,0.6259541984732825,0.0916030534351145,-0.45751953125,-0.00634765625,-0.176513671875,1.2699
-0.7480916030534351,0.7175572519083969,0.13740458015267176,-0.456298828125,-0.008056640625,-0.1767578125,1.2715999999999998
-0.6106870229007634,0.5038167938931297,0.12213740458015267,-0.455078125,-0.01416015625,-0.17333984375,1.2732999999999999
-0.13740458015267176,0.44274809160305345,0.24427480916030533,-0.45947265625,-0.0087890625,-0.175048828125,1.275
0.24427480916030533,0.5648854961832062,0.030534351145038167,-0.46484375,-0.011474609375,-0.1708984375,1.2767
0.2900763358778626,0.3969465648854962,0.10687022900763359,-0.46484375,-0.006591796875,-0.171630859375,1.2784
0.366412213740458,0.3969465648854962,0.24427480916030533,-0.46533203125,-0.00341796875,-0.17041015625,1.2801
1.0076335877862594,0.5801526717557252,0.366412213740458,-0.465576171875,-0.009765625,-0.178466796875,1.2817999999999998
1.1908396946564885,0.6717557251908397,0.12213740458015267,-0.471435546875,-0.010986328125,-0.17822265625,1.2834999999999999
1.3740458015267176,0.7175572519083969,0.16793893129770993,-0.460693359375,-0.005859375,-0.177734375,1.2852
1.5267175572519085,0.7633587786259542,0.0,-0.4619140625,-0.01025390625,-0.181396484375,1.2869
1.7709923664122138,0.8854961832061069,0.07633587786259542,-0.466064453125,-0.005615234375,-0.184814453125,1.2886
1.7404580152671756,1.0229007633587786,0.07633587786259542,-0.45947265625,-0.003173828125,-0.1826171875,1.2903
1.8473282442748091,1.3282442748091603,0.22900763358778625,-0.45849609375,-0.00927734375,-0.175048828125,1.292
2.030534351145038,1.4198473282442747,-0.10687022900763359,-0.46484375,-0.0107421875,-0.179443359375,1.2936999999999999
2.1374045801526718,1.450381679389313,-0.10687022900763359,-0.46240234375,-0.006103515625,-0.177490234375,1.2953999999999999
2.1068702290076335,1.4809160305343512,-0.15267175572519084,-0.463623046875,-0.009521484375,-0.184326171875,1.2971
2.0610687022900764,1.7099236641221374,-0.24427480916030533,-0.45947265625,-0.0087890625,-0.17822265625,1.2988
2.4580152671755724,1.4198473282442747,-0.12213740458015267,-0.4658203125,-0.01171875,-0.1728515625,1.3005
2.564885496183206,1.4809160305343512,-0.07633587786259542,-0.461669921875,-0.01025390625,-0.1787109375,1.3022
2.4427480916030535,1.7709923664122138,-0.07633587786259542,-0.469970703125,-0.010986328125,-0.179931640625,1.3038999999999998
2.5343511450381677,1.4961832061068703,-0.2595419847328244,-0.463623046875,-0.0078125,-0.185546875,1.3055999999999999
2.717557251908397,1.282442748091603,-0.15267175572519084,-0.463623046875,-0.01123046875,-0.178466796875,1.3073
2.8702290076335877,1.2061068702290076,-0.12213740458015267,-0.46240234375,-0.0048828125,-0.181884765625,1.309
3.0381679389312977,1.282442748091603,0.0,-0.466552734375,-0.01025390625,-0.1796875,1.3107
3.099236641221374,1.4045801526717556,-0.21374045801526717,-0.46728515625,-0.01123046875,-0.175048828125,1.3124
3.3435114503816794,1.1297709923664123,-0.13740458015267176,-0.462158203125,-0.0126953125,-0.18017578125,1.3140999999999998
3.4198473282442747,1.0687022900763359,-0.10687022900763359,-0.461181640625,-0.0087890625,-0.1748046875,1.3157999999999999
3.1603053435114505,0.8244274809160306,0.13740458015267176,-0.464599609375,-0.011474609375,-0.1728515625,1.3175
3.435114503816794,0.9770992366412213,0.2595419847328244,-0.468017578125,-0.009521484375,-0.169921875,1.3192
3.5114503816793894,0.9465648854961832,0.16793893129770993,-0.467041015625,-0.00634765625,-0.18359375,1.3209
3.450381679389313,1.099236641221374,0.030534351145038167,-0.46923828125,-0.009033203125,-0.184326171875,1.3226
3.5572519083969465,1.4045801526717556,0.015267175572519083,-0.468017578125,-0.014892578125,-0.18310546875,1.3243
3.480916030534351,1.2213740458015268,-0.061068702290076333,-0.463623046875,-0.0107421875,-0.1806640625,1.3259999999999998
3.282442748091603,1.5114503816793894,-0.0916030534351145,-0.46142578125,-0.01220703125,-0.181396484375,1.3276999999999999
3.0839694656488548,1.7099236641221374,0.015267175572519083,-0.466064453125,-0.008056640625,-0.174560546875,1.3294
3.0381679389312977,1.633587786259542,0.3053435114503817,-0.46142578125,-0.015869140625,-0.186767578125,1.3311
2.8396946564885495,1.6946564885496183,-0.16793893129770993,-0.46435546875,-0.01123046875,-0.1787109375,1.3328
2.931297709923664,1.6488549618320612,-0.061068702290076333,-0.460693359375,-0.0107421875,-0.18212890625,1.3345
2.854961832061069,1.5725190839694656,-0.030534351145038167,-0.4638671875,-0.00830078125,-0.18408203125,1.3361999999999998
2.50381679389313,1.7099236641221374,0.0,-0.463134765625,-0.0185546875,-0.174072265625,1.3378999999999999
2.717557251908397,1.3740458015267176,-0.015267175572519083,-0.463134765625,-0.011474609375,-0.176025390625,1.3396
2.3969465648854964,1.0076335877862594,0.04580152671755725,-0.46337890625,-0.012451171875,-0.183349609375,1.3413
2.0916030534351147,1.0534351145038168,0.10687022900763359,-0.462646484375,-0.01416015625,-0.188720703125,1.343
2.1374045801526718,1.0534351145038168,0.366412213740458,-0.46240234375,-0.01025390625,-0.1787109375,1.3447
2.183206106870229,1.0534351145038168,0.24427480916030533,-0.46484375,-0.006103515625,-0.17919921875,1.3463999999999998
1.9083969465648856,1.083969465648855,0.2595419847328244,-0.4560546875,-0.013427734375,-0.177490234375,1.3480999999999999
1.9389312977099236,0.8854961832061069,0.4580152671755725,-0.457763671875,-0.009521484375,-0.181396484375,1.3497999999999999
2.0,0.7786259541984732,0.6564885496183206,-0.464111328125,-0.006591796875,-0.177978515625,1.3515
1.8015267175572518,0.8854961832061069,0.32061068702290074,-0.458251953125,-0.0087890625,-0.17919921875,1.3532
1.5725190839694656,0.7633587786259542,0.6412213740458015,-0.4580078125,-0.0068359375,-0.18017578125,1.3549
1.450381679389313,0.6106870229007634,0.5343511450381679,-0.45654296875,-0.005615234375,-0.181884765625,1.3566
1.6488549618320612,0.5801526717557252,0.4580152671755725,-0.458740234375,-0.001953125,-0.1787109375,1.3582999999999998
1.450381679389313,0.44274809160305345,0.44274809160305345,-0.46240234375,-0.0107421875,-0.177734375,1.3599999999999999
1.3282442748091603,0.5801526717557252,0.7633587786259542,-0.45703125,-0.00732421875,-0.174560546875,1.3617
1.297709923664122,0.6106870229007634,0.6870229007633588,-0.462646484375,-0.01513671875,-0.182861328125,1.3634
1.1755725190839694,0.5954198473282443,0.732824427480916,-0.462646484375,-0.008544921875,-0.173095703125,1.3651
1.4809160305343512,0.5038167938931297,0.6412213740458015,-0.461669921875,-0.00830078125,-0.178955078125,1.3668
1.4351145038167938,0.6870229007633588,0.5801526717557252,-0.460693359375,-0.00634765625,-0.18115234375,1.3684999999999998
1.3129770992366412,0.7480916030534351,0.3969465648854962,-0.455078125,-0.0068359375,-0.18212890625,1.3701999999999999
1.2366412213740459,0.7786259541984732,0.4580152671755725,-0.4580078125,-0.0068359375,-0.1806640625,1.3719
1.3740458015267176,0.7175572519083969,0.3511450381679389,-0.460693359375,-0.00244140625,-0.17822265625,1.3736
1.450381679389313,0.6870229007633588,0.366412213740458,-0.46337890625,-0.005126953125,-0.175537109375,1.3753
1.1755725190839694,0.7022900763358778,0.2748091603053435,-0.458251953125,-0.01025390625,-0.17578125,1.377
1.282442748091603,0.7938931297709924,0.3053435114503817,-0.453857421875,-0.010009765625,-0.176025390625,1.3786999999999998
1.6946564885496183,0.7175572519083969,0.3816793893129771,-0.457275390625,-0.00732421875,-0.183349609375,1.3803999999999998
1.3129770992366412,0.6412213740458015,0.42748091603053434,-0.46142578125,0.00048828125,-0.179931640625,1.3820999999999999
1.5114503816793894,0.6106870229007634,0.21374045801526717,-0.46484375,-0.006591796875,-0.168701171875,1.3838
1.9389312977099236,0.5190839694656488,0.32061068702290074,-0.4619140625,-0.005126953125,-0.17724609375,1.3855
1.8931297709923665,0.48854961832061067,0.24427480916030533,-0.458740234375,-0.005126953125,-0.176025390625,1.3872
1.8778625954198473,0.44274809160305345,0.3969465648854962,-0.4580078125,-0.004150390625,-0.169921875,1.3889
2.16793893129771,0.3511450381679389,0.33587786259541985,-0.460693359375,-0.00732421875,-0.173828125,1.3905999999999998
2.6412213740458017,0.1984732824427481,0.5343511450381679,-0.4638671875,-0.00341796875,-0.1728515625,1.3922999999999999
3.0839694656488548,0.3816793893129771,0.24427480916030533,-0.4619140625,-0.005859375,-0.17822265625,1.394
3.3435114503816794,0.44274809160305345,0.4580152671755725,-0.4609375,0.00244140625,-0.180908203125,1.3957
3.5572519083969465,0.32061068702290074,0.2900763358778626,-0.46142578125,-0.00537109375,-0.173583984375,1.3974
3.5572519083969465,0.3816793893129771,0.2900763358778626,-0.4599609375,-0.001953125,-0.177734375,1.3991
3.8931297709923665,0.3053435114503817,0.16793893129770993,-0.459716796875,-0.0029296875,-0.18310546875,1.4007999999999998
3.9389312977099236,0.6717557251908397,0.48854961832061067,-0.4638671875,-0.003173828125,-0.17431640625,1.4024999999999999
4.229007633587786,0.5343511450381679,0.183206106870229,-0.465087890625,-0.00439453125,-0.1728515625,1.4042
4.351145038167939,0.7175572519083969,0.22900763358778625,-0.467529296875,-0.0048828125,-0.183349609375,1.4059
4.3816793893129775,0.916030534351145,0.42748091603053434,-0.46240234375,-0.005859375,-0.17724609375,1.4076
4.854961832061068,1.251908396946565,0.183206106870229,-0.462158203125,-0.009765625,-0.176025390625,1.4093
4.916030534351145,1.3435114503816794,0.12213740458015267,-0.462158203125,-0.0087890625,-0.1767578125,1.411
5.32824427480916,1.618320610687023,0.183206106870229,-0.4609375,-0.012939453125,-0.177001953125,1.4126999999999998
5.465648854961832,1.5114503816793894,-0.2595419847328244,-0.4580078125,-0.017333984375,-0.181884765625,1.4143999999999999
5.648854961832061,1.7251908396946565,-0.16793893129770993,-0.457763671875,-0.014404296875,-0.190673828125,1.4161
5.969465648854962,1.6793893129770991,-0.1984732824427481,-0.456787109375,-0.013671875,-0.18408203125,1.4178
5.9541984732824424,1.4961832061068703,-0.4122137404580153,-0.4609375,-0.015869140625,-0.18115234375,1.4195
5.847328244274809,1.5877862595419847,-0.6106870229007634,-0.464599609375,-0.015625,-0.178466796875,1.4212
5.541984732824427,1.2061068702290076,-0.5954198473282443,-0.464111328125,-0.01708984375,-0.178955078125,1.4228999999999998
5.374045801526718,1.0534351145038168,-0.7938931297709924,-0.458984375,-0.011474609375,-0.1748046875,1.4245999999999999
4.931297709923665,0.916030534351145,-0.8244274809160306,-0.461181640625,-0.015625,-0.18359375,1.4263
4.641221374045801,0.9465648854961832,-0.9312977099236641,-0.464111328125,-0.0166015625,-0.188720703125,1.428
4.442748091603053,0.8244274809160306,-0.9465648854961832,-0.463623046875,-0.012451171875,-0.181640625,1.4297
4.259541984732825,0.6870229007633588,-0.7633587786259542,-0.462646484375,-0.014892578125,-0.176513671875,1.4314
4.076335877862595,0.732824427480916,-0.6870229007633588,-0.46142578125,-0.013671875,-0.18017578125,1.4330999999999998
3.801526717557252,0.7786259541984732,-0.7786259541984732,-0.4638671875,-0.015869140625,-0.182373046875,1.4347999999999999
3.786259541984733,0.6564885496183206,-0.6412213740458015,-0.466064453125,-0.011962890625,-0.171630859375,1.4364999999999999
3.633587786259542,0.33587786259541985,-0.5343511450381679,-0.4638671875,-0.007080078125,-0.1806640625,1.4382
3.5572519083969465,0.3511450381679389,-0.4580152671755725,-0.4609375,-0.00927734375,-0.176513671875,1.4399
3.2977099236641223,0.24427480916030533,-0.32061068702290074,-0.4599609375,-0.0107421875,-0.1806640625,1.4416
3.3587786259541983,-0.015267175572519083,-0.3969465648854962,-0.462158203125,-0.01318359375,-0.18603515625,1.4433
3.1603053435114505,-0.2900763358778626,-0.15267175572519084,-0.461181640625,-0.00830078125,-0.186767578125,1.4449999999999998
3.053435114503817,-0.2748091603053435,-0.2900763358778626,-0.458251953125,-0.00634765625,-0.185302734375,1.4466999999999999
3.099236641221374,-0.15267175572519084,-0.3511450381679389,-0.462158203125,-0.0146484375,-0.187744140625,1.4484
2.732824427480916,-0.10687022900763359,-0.2595419847328244,-0.46484375,-0.013671875,-0.1796875,1.4501
2.6412213740458017,-0.10687022900763359,-0.15267175572519084,-0.463623046875,-0.002197265625,-0.1796875,1.4518
2.4122137404580153,-0.2595419847328244,-0.24427480916030533,-0.462158203125,-0.010009765625,-0.190185546875,1.4535
2.4732824427480917,-0.2900763358778626,-0.15267175572519084,-0.46533203125,-0.014404296875,-0.182373046875,1.4551999999999998
2.1068702290076335,0.015267175572519083,-0.07633587786259542,-0.46533203125,-0.013427734375,-0.18359375,1.4568999999999999
1.8625954198473282,0.1984732824427481,-0.13740458015267176,-0.463134765625,-0.00634765625,-0.181640625,1.4586
1.8473282442748091,-0.04580152671755725,-0.2595419847328244,-0.47021484375,-0.007080078125,-0.18505859375,1.4603
1.8015267175572518,0.24427480916030533,-0.12213740458015267,-0.466552734375,-0.010009765625,-0.18603515625,1.462
1.9694656488549618,0.4580152671755725,-0.030534351145038167,-0.462646484375,-0.008056640625,-0.191650390625,1.4637
2.2595419847328246,0.366412213740458,0.015267175572519083,-0.467529296875,-0.00634765625,-0.1826171875,1.4653999999999998
2.198473282442748,0.5190839694656488,0.0916030534351145,-0.465087890625,-0.003662109375,-0.193603515625,1.4670999999999998
1.9694656488549618,0.5648854961832062,0.1984732824427481,-0.46826171875,-0.004150390625,-0.194091796875,1.4687999999999999
2.122137404580153,0.4122137404580153,0.13740458015267176,-0.472900390625,-0.009033203125,-0.1845703125,1.4705
2.198473282442748,0.3969465648854962,0.3816793893129771,-0.467529296875,-0.005859375,-0.180419921875,1.4722
2.3969465648854964,0.6412213740458015,0.6259541984732825,-0.470703125,-0.006103515625,-0.173828125,1.4739
2.183206106870229,0.48854961832061067,0.6870229007633588,-0.468505859375,-0.005615234375,-0.184326171875,1.4756
2.2290076335877864,0.8396946564885496,0.549618320610687,-0.465576171875,-0.008056640625,-0.184326171875,1.4772999999999998
2.183206106870229,0.9312977099236641,0.48854961832061067,-0.459716796875,-0.01025390625,-0.1845703125,1.4789999999999999
1.9389312977099236,1.0381679389312977,0.5954198473282443,-0.461669921875,-0.01025390625,-0.18212890625,1.4807
1.6030534351145038,1.0534351145038168,0.7633587786259542,-0.464599609375,-0.01171875,-0.176025390625,1.4824
1.5419847328244274,0.8854961832061069,0.7633587786259542,-0.47021484375,-0.0107421875,-0.182373046875,1.4841
1.2366412213740459,1.0534351145038168,0.9770992366412213,-0.466552734375,-0.014892578125,-0.18408203125,1.4858
1.0534351145038168,1.0534351145038168,0.6259541984732825,-0.461669921875,-0.006591796875,-0.187255859375,1.4874999999999998
0.916030534351145,1.2213740458015268,1.0687022900763359,-0.4580078125,-0.00927734375,-0.1796875,1.4891999999999999
0.732824427480916,1.282442748091603,0.9923664122137404,-0.461181640625,-0.010986328125,-0.178466796875,1.4909
0.7938931297709924,1.1603053435114503,0.9312977099236641,-0.460205078125,-0.014404296875,-0.1845703125,1.4926
0.7022900763358778,1.1450381679389312,0.8244274809160306,-0.46240234375,-0.013671875,-0.17822265625,1.4943
0.5343511450381679,0.8854961832061069,0.9465648854961832,-0.461669921875,-0.01171875,-0.181640625,1.496
0.5648854961832062,0.7633587786259542,0.7480916030534351,-0.4609375,-0.01416015625,-0.18505859375,1.4976999999999998
0.7633587786259542,0.5648854961832062,0.6717557251908397,-0.4609375,-0.015869140625,-0.1767578125,1.4993999999999998
0.7786259541984732,0.33587786259541985,0.732824427480916,-0.458251953125,-0.01318359375,-0.17822265625,1.5010999999999999
0.5343511450381679,0.12213740458015267,0.7175572519083969,-0.460693359375,-0.01220703125,-0.183349609375,1.5028
0.2748091603053435,-0.07633587786259542,0.5954198473282443,-0.458251953125,-0.009765625,-0.1787109375,1.5045
0.3511450381679389,-0.5343511450381679,0.8702290076335878,-0.45703125,-0.0068359375,-0.176025390625,1.5062
0.030534351145038167,-0.6870229007633588,0.6870229007633588,-0.45361328125,-0.01025390625,-0.177490234375,1.5079
-0.07633587786259542,-0.5190839694656488,0.6412213740458015,-0.459716796875,-0.00244140625,-0.179931640625,1.5095999999999998
-0.183206106870229,-0.4732824427480916,0.6564885496183206,-0.46484375,-0.004638671875,-0.181884765625,1.5112999999999999
-0.549618320610687,-0.549618320610687,0.6564885496183206,-0.4619140625,-0.00439453125,-0.18115234375,1.513
-0.4580152671755725,-0.3816793893129771,0.7022900763358778,-0.46142578125,-0.005126953125,-0.18408203125,1.5147
-0.732824427480916,-0.24427480916030533,0.9312977099236641,-0.458740234375,-0.009765625,-0.17333984375,1.5164
-0.6870229007633588,-0.21374045801526717,0.7786259541984732,-0.461181640625,-0.0087890625,-0.1826171875,1.5181
-0.5954198473282443,0.16793893129770993,1.0381679389312977,-0.458984375,-0.005615234375,-0.178466796875,1.5197999999999998
-0.4122137404580153,0.12213740458015267,0.9007633587786259,-0.462646484375,-0.002197265625,-0.184814453125,1.5214999999999999
-0.2748091603053435,0.04580152671755725,1.099236641221374,-0.45947265625,-0.00732421875,-0.18017578125,1.5231999999999999
-0.2595419847328244,0.10687022900763359,1.297709923664122,-0.459716796875,-0.00439453125,-0.18359375,1.5249
-0.24427480916030533,0.061068702290076333,1.083969465648855,-0.4619140625,-0.007568359375,-0.17041015625,1.5266
-0.15267175572519084,0.13740458015267176,1.0076335877862594,-0.45703125,-0.00439453125,-0.170166015625,1.5283
0.0,-0.04580152671755725,1.1755725190839694,-0.457763671875,-0.01171875,-0.171142578125,1.5299999999999998
0.04580152671755725,-0.24427480916030533,0.9923664122137404,-0.45751953125,-0.009765625,-0.172607421875,1.5316999999999998
0.0,-0.12213740458015267,1.099236641221374,-0.463623046875,-0.004150390625,-0.174560546875,1.5333999999999999
0.15267175572519084,-0.4122137404580153,0.9923664122137404,-0.460205078125,-0.001708984375,-0.17431640625,1.5351
0.3053435114503817,-0.3816793893129771,0.9312977099236641,-0.4609375,-0.005126953125,-0.1748046875,1.5368
0.16793893129770993,-0.16793893129770993,1.083969465648855,-0.466796875,0.00146484375,-0.174072265625,1.5385
0.48854961832061067,-0.32061068702290074,1.2366412213740459,-0.461181640625,0.00048828125,-0.174072265625,1.5402
0.5038167938931297,-0.5038167938931297,1.1145038167938932,-0.45703125,-0.00390625,-0.17333984375,1.5418999999999998
0.5343511450381679,-0.6106870229007634,1.0229007633587786,-0.462646484375,-0.00341796875,-0.17822265625,1.5435999999999999
0.7022900763358778,-0.5190839694656488,1.2671755725190839,-0.458984375,0.0009765625,-0.16796875,1.5453
0.7480916030534351,-0.4732824427480916,1.1603053435114503,-0.4580078125,-0.00146484375,-0.177001953125,1.547
0.9618320610687023,-0.5343511450381679,1.1297709923664123,-0.46435546875,-0.00146484375,-0.177978515625,1.5487
1.251908396946565,-0.42748091603053434,0.9923664122137404,-0.46240234375,-0.000732421875,-0.1767578125,1.5504
1.3282442748091603,-0.5801526717557252,0.8854961832061069,-0.463134765625,0.00048828125,-0.177978515625,1.5520999999999998
1.3893129770992367,-0.4732824427480916,1.2061068702290076,-0.463623046875,0.0068359375,-0.1728515625,1.5537999999999998
1.450381679389313,-0.3511450381679389,1.2213740458015268,-0.464111328125,0.001220703125,-0.170654296875,1.5554999999999999
1.6488549618320612,-0.366412213740458,1.1145038167938932,-0.45947265625,0.003662109375,-0.166748046875,1.5572
1.6793893129770991,-0.15267175572519084,1.251908396946565,-0.46337890625,-0.000244140625,-0.17578125,1.5589
2.0,-0.21374045801526717,1.3740458015267176,-0.466064453125,0.004638671875,-0.18017578125,1.5606
1.984732824427481,-0.21374045801526717,1.1450381679389312,-0.467041015625,0.0029296875,-0.178955078125,1.5623
2.213740458015267,-0.3053435114503817,1.3587786259541985,-0.46435546875,-0.000244140625,-0.1787109375,1.5639999999999998
2.0763358778625953,0.030534351145038167,1.2671755725190839,-0.4677734375,0.000244140625,-0.1787109375,1.5656999999999999
2.519083969465649,-0.030534351145038167,1.0687022900763359,-0.466796875,0.005126953125,-0.185546875,1.5674
2.8702290076335877,0.10687022900763359,1.3435114503816794,-0.469970703125,0.0009765625,-0.179931640625,1.5691
2.8396946564885495,0.32061068702290074,1.251908396946565,-0.466796875,0.002685546875,-0.185791015625,1.5708
2.9770992366412212,0.5038167938931297,1.282442748091603,-0.467529296875,0.000732421875,-0.194091796875,1.5725
3.2519083969465647,0.6412213740458015,1.297709923664122,-0.4638671875,0.00390625,-0.189208984375,1.5741999999999998
3.236641221374046,0.9312977099236641,1.1908396946564885,-0.465087890625,0.00146484375,-0.1767578125,1.5758999999999999
3.312977099236641,0.9312977099236641,1.465648854961832,-0.459228515625,-0.00390625,-0.192626953125,1.5776
3.66412213740458,1.083969465648855,1.5725190839694656,-0.468505859375,0.000244140625,-0.1865234375,1.5793
3.648854961832061,1.2213740458015268,1.3740458015267176,-0.4658203125,-0.004150390625,-0.183349609375,1.581
3.969465648854962,1.3587786259541985,1.297709923664122,-0.463623046875,-0.0068359375,-0.183349609375,1.5827
4.061068702290076,1.3893129770992367,1.0534351145038168,-0.462890625,-0.01513671875,-0.176513671875,1.5843999999999998
3.9236641221374047,1.0229007633587786,1.2366412213740459,-0.463134765625,-0.011474609375,-0.176025390625,1.5860999999999998
4.076335877862595,1.1908396946564885,1.1603053435114503,-0.46484375,-0.01416015625,-0.1796875,1.5877999999999999
3.8625954198473282,1.1603053435114503,0.9465648854961832,-0.4580078125,-0.01220703125,-0.1796875,1.5895
3.7557251908396947,0.9770992366412213,0.7786259541984732,-0.458251953125,-0.012939453125,-0.1875,1.5912
3.83206106870229,0.7938931297709924,0.6870229007633588,-0.456298828125,-0.016845703125,-0.188232421875,1.5929
3.49618320610687,0.7786259541984732,0.6106870229007634,-0.451416015625,-0.010986328125,-0.182861328125,1.5946
3.5114503816793894,0.5954198473282443,0.5648854961832062,-0.4541015625,-0.015380859375,-0.184814453125,1.5962999999999998
3.0839694656488548,0.44274809160305345,0.5038167938931297,-0.458740234375,-0.02099609375,-0.183837890625,1.5979999999999999
3.099236641221374,0.3511450381679389,0.5648854961832062,-0.460693359375,-0.017822265625,-0.176025390625,1.5997
2.7480916030534353,0.030534351145038167,0.3969465648854962,-0.459716796875,-0.02197265625,-0.182861328125,1.6014
2.381679389312977,0.061068702290076333,0.3053435114503817,-0.463623046875,-0.0224609375,-0.1787109375,1.6031
2.2595419847328246,-0.2595419847328244,0.15267175572519084,-0.46044921875,-0.018798828125,-0.17626953125,1.6048
1.7251908396946565,-0.3053435114503817,0.0916030534351145,-0.45361328125,-0.014404296875,-0.176513671875,1.6064999999999998
1.5114503816793894,-0.48854961832061067,-0.10687022900763359,-0.45849609375,-0.014892578125,-0.173828125,1.6081999999999999
0.9465648854961832,-0.3816793893129771,-0.030534351145038167,-0.45556640625,-0.018798828125,-0.175537109375,1.6098999999999999
0.7938931297709924,-0.6870229007633588,-0.13740458015267176,-0.46240234375,-0.015380859375,-0.171142578125,1.6116
0.22900763358778625,-0.6259541984732825,-0.015267175572519083,-0.459716796875,-0.02001953125,-0.173095703125,1.6133
-0.0916030534351145,-0.6564885496183206,-0.24427480916030533,-0.464599609375,-0.017578125,-0.171142578125,1.615
-0.3816793893129771,-0.6564885496183206,-0.32061068702290074,-0.461669921875,-0.01904296875,-0.174072265625,1.6166999999999998
-0.3511450381679389,-0.4580152671755725,-0.2748091603053435,-0.458984375,-0.02099609375,-0.183349609375,1.6183999999999998
-0.5343511450381679,-0.44274809160305345,-0.1984732824427481,-0.46484375,-0.01513671875,-0.182373046875,1.6200999999999999
-0.5801526717557252,-0.42748091603053434,-0.183206106870229,-0.45947265625,-0.015625,-0.185791015625,1.6218
-0.4732824427480916,-0.0916030534351145,-0.12213740458015267,-0.464111328125,-0.00830078125,-0.177734375,1.6235
-0.5954198473282443,0.04580152671755725,-0.4732824427480916,-0.456787109375,-0.007080078125,-0.177490234375,1.6252
-0.5648854961832062,0.0916030534351145,-0.22900763358778625,-0.458740234375,-0.008056640625,-0.181884765625,1.6269
-0.5801526717557252,0.015267175572519083,-0.10687022900763359,-0.458740234375,-0.0087890625,-0.17431640625,1.6285999999999998
-0.2595419847328244,0.10687022900763359,-0.32061068702290074,-0.459716796875,-0.011474609375,-0.180908203125,1.6302999999999999
-0.04580152671755725,0.0916030534351145,-0.15267175572519084,-0.458251953125,-0.009521484375,-0.169677734375,1.632
-0.16793893129770993,0.0,-0.10687022900763359,-0.465087890625,-0.01220703125,-0.1826171875,1.6337
0.10687022900763359,-0.10687022900763359,-0.4580152671755725,-0.45947265625,-0.01220703125,-0.174560546875,1.6354
-0.015267175572519083,-0.13740458015267176,-0.3969465648854962,-0.45654296875,-0.00390625,-0.180908203125,1.6371
0.2900763358778626,-0.0916030534351145,-0.366412213740458,-0.4609375,-0.0048828125,-0.179443359375,1.6387999999999998
0.549618320610687,-0.2900763358778626,-0.22900763358778625,-0.45556640625,-0.009765625,-0.189697265625,1.6404999999999998
0.5801526717557252,-0.4580152671755725,-0.2748091603053435,-0.459228515625,-0.00439453125,-0.179931640625,1.6421999999999999
0.2748091603053435,-0.3816793893129771,-0.04580152671755725,-0.458251953125,-0.003662109375,-0.181640625,1.6439
0.3511450381679389,-0.4732824427480916,-0.10687022900763359,-0.457275390625,-0.0068359375,-0.184814453125,1.6456
0.5038167938931297,-0.24427480916030533,-0.16793893129770993,-0.46240234375,-0.00634765625,-0.1865234375,1.6473
0.42748091603053434,-0.183206106870229,-0.3053435114503817,-0.4619140625,-0.0068359375,-0.177734375,1.6489999999999998
0.549618320610687,-0.0916030534351145,-0.0916030534351145,-0.46630859375,-0.00390625,-0.188232421875,1.6506999999999998
0.33587786259541985,0.22900763358778625,-0.2900763358778626,-0.45947265625,-0.001953125,-0.190185546875,1.6523999999999999
0.7022900763358778,0.366412213740458,-0.10687022900763359,-0.4658203125,-0.0078125,-0.179931640625,1.6541
0.4580152671755725,0.5954198473282443,0.07633587786259542,-0.460205078125,0.0029296875,-0.187744140625,1.6558
0.5038167938931297,0.8549618320610687,0.04580152671755725,-0.467041015625,-0.002197265625,-0.187744140625,1.6575
0.5801526717557252,0.916030534351145,-0.0916030534351145,-0.467529296875,-0.002685546875,-0.186279296875,1.6592
0.8396946564885496,1.0076335877862594,0.030534351145038167,-0.4677734375,0.0009765625,-0.19140625,1.6608999999999998
0.7022900763358778,1.0534351145038168,0.12213740458015267,-0.4697265625,-0.001953125,-0.1845703125,1.6625999999999999
0.8396946564885496,1.1755725190839694,0.2595419847328244,-0.46875,0.000732421875,-0.183349609375,1.6643
1.1145038167938932,1.2366412213740459,0.16793893129770993,-0.46533203125,-0.00146484375,-0.192138671875,1.666
1.2671755725190839,1.3435114503816794,0.2900763358778626,-0.466064453125,-0.003662109375,-0.190185546875,1.6677
1.0229007633587786,1.3740458015267176,0.3053435114503817,-0.4677734375,-0.004150390625,-0.1865234375,1.6694
1.465648854961832,1.3282442748091603,0.6106870229007634,-0.46435546875,-0.007080078125,-0.183837890625,1.6710999999999998
1.4198473282442747,1.099236641221374,0.2900763358778626,-0.4658203125,-0.004150390625,-0.185791015625,1.6727999999999998
1.7251908396946565,1.0687022900763359,0.366412213740458,-0.464599609375,-0.001220703125,-0.19140625,1.6744999999999999
2.1068702290076335,1.1297709923664123,0.3969465648854962,-0.455322265625,-0.00927734375,-0.177001953125,1.6762
2.351145038167939,0.9923664122137404,0.5190839694656488,-0.46484375,-0.010009765625,-0.186279296875,1.6779
2.4732824427480917,0.9312977099236641,0.44274809160305345,-0.46240234375,-0.00830078125,-0.1796875,1.6796
2.519083969465649,0.8854961832061069,0.32061068702290074,-0.46044921875,-0.008544921875,-0.181884765625,1.6813
2.4580152671755724,0.8854961832061069,0.16793893129770993,-0.4560546875,-0.0068359375,-0.175537109375,1.6829999999999998
2.4427480916030535,0.732824427480916,0.32061068702290074,-0.4560546875,-0.014404296875,-0.18115234375,1.6846999999999999
2.381679389312977,0.6870229007633588,0.2595419847328244,-0.460205078125,-0.0126953125,-0.179931640625,1.6864
2.1526717557251906,0.8396946564885496,0.13740458015267176,-0.46142578125,-0.011474609375,-0.1796875,1.6881
2.3206106870229006,0.916030534351145,0.2748091603053435,-0.459716796875,-0.014404296875,-0.18505859375,1.6898
2.2748091603053435,0.916030534351145,0.2900763358778626,-0.461181640625,-0.016845703125,-0.181640625,1.6915
2.0,1.0687022900763359,0.10687022900763359,-0.462158203125,-0.01953125,-0.176513671875,1.6931999999999998
1.9389312977099236,1.0229007633587786,0.04580152671755725,-0.456298828125,-0.01611328125,-0.173828125,1.6948999999999999
1.8778625954198473,1.1450381679389312,0.07633587786259542,-0.460205078125,-0.012451171875,-0.18115234375,1.6965999999999999
1.4351145038167938,1.2061068702290076,-0.183206106870229,-0.460693359375,-0.016845703125,-0.178955078125,1.6983
1.2213740458015268,0.9770992366412213,-0.061068702290076333,-0.458984375,-0.02197265625,-0.174560546875,1.7
0.6259541984732825,1.1145038167938932,-0.10687022900763359,-0.46240234375,-0.01806640625,-0.181884765625,1.7017
0.2595419847328244,1.1908396946564885,-0.07633587786259542,-0.462890625,-0.017578125,-0.17822265625,1.7033999999999998
0.2595419847328244,0.916030534351145,-0.42748091603053434,-0.455078125,-0.015380859375,-0.172119140625,1.7050999999999998
-0.07633587786259542,0.916030534351145,-0.366412213740458,-0.45458984375,-0.015869140625,-0.17822265625,1.7067999999999999
-0.6564885496183206,0.7786259541984732,-0.4122137404580153,-0.46044921875,-0.01904296875,-0.177490234375,1.7085
-0.7633587786259542,0.9007633587786259,-0.13740458015267176,-0.459228515625,-0.01318359375,-0.1845703125,1.7102
-0.8091603053435115,0.8702290076335878,-0.10687022900763359,-0.461669921875,-0.02197265625,-0.1748046875,1.7119
-1.083969465648855,0.8396946564885496,-0.366412213740458,-0.461669921875,-0.02001953125,-0.1845703125,1.7136
-1.3740458015267176,0.9007633587786259,-0.5801526717557252,-0.4619140625,-0.01611328125,-0.18896484375,1.7152999999999998
-1.450381679389313,1.0687022900763359,-0.4732824427480916,-0.461181640625,-0.015380859375,-0.17333984375,1.7169999999999999
-1.297709923664122,0.9618320610687023,-0.366412213740458,-0.45703125,-0.015869140625,-0.176513671875,1.7187
-1.7099236641221374,0.9312977099236641,-0.3969465648854962,-0.459228515625,-0.009033203125,-0.177734375,1.7204
-1.618320610687023,0.916030534351145,-0.5648854961832062,-0.46142578125,-0.0107421875,-0.1787109375,1.7221
-1.6793893129770991,1.099236641221374,-0.3511450381679389,-0.458984375,-0.01416015625,-0.17724609375,1.7238
-1.6793893129770991,1.0687022900763359,-0.5801526717557252,-0.46142578125,-0.008056640625,-0.177734375,1.7254999999999998
-1.5114503816793894,1.1145038167938932,-0.6259541984732825,-0.4580078125,-0.01025390625,-0.181396484375,1.7271999999999998
-1.3587786259541985,1.1908396946564885,-0.32061068702290074,-0.459716796875,-0.006591796875,-0.165283203125,1.7288999999999999
-1.450381679389313,1.1297709923664123,-0.3969465648854962,-0.45947265625,-0.00927734375,-0.16748046875,1.7306
-1.4198473282442747,1.1755725190839694,-0.6106870229007634,-0.460205078125,-0.0146484375,-0.1884765625,1.7323
-1.4809160305343512,1.3282442748091603,-0.5343511450381679,-0.4599609375,-0.007568359375,-0.17236328125,1.734
-1.0076335877862594,1.2366412213740459,-0.6106870229007634,-0.462890625,-0.009033203125,-0.171875,1.7356999999999998
-1.251908396946565,1.282442748091603,-0.5954198473282443,-0.4609375,-0.007568359375,-0.17529296875,1.7373999999999998
-1.1908396946564885,1.1450381679389312,-0.6870229007633588,-0.457763671875,-0.0087890625,-0.169921875,1.7390999999999999
-0.8854961832061069,1.1297709923664123,-0.5343511450381679,-0.46142578125,-0.003173828125,-0.179931640625,1.7408
-0.9923664122137404,1.0687022900763359,-0.4732824427480916,-0.460205078125,-0.005126953125,-0.181396484375,1.7425
-0.8702290076335878,1.1450381679389312,-0.4732824427480916,-0.46240234375,-0.009033203125,-0.178955078125,1.7442
-0.5648854961832062,1.0687022900763359,-0.6412213740458015,-0.464111328125,-0.00732421875,-0.190185546875,1.7459
-0.5343511450381679,1.1908396946564885,-0.48854961832061067,-0.461669921875,-0.0078125,-0.189453125,1.7475999999999998
-0.7938931297709924,1.1450381679389312,-0.6870229007633588,-0.45751953125,-0.0107421875,-0.183837890625,1.7492999999999999
-0.5648854961832062,0.9007633587786259,-0.7175572519083969,-0.462646484375,-0.005615234375,-0.18896484375,1.751
-0.5954198473282443,1.1145038167938932,-0.7480916030534351,-0.463623046875,-0.011474609375,-0.188232421875,1.7527
-0.5038167938931297,1.083969465648855,-0.7786259541984732,-0.46533203125,0.0,-0.1806640625,1.7544
-0.5190839694656488,0.7938931297709924,-1.0687022900763359,-0.46630859375,-0.004150390625,-0.1796875,1.7561
-0.366412213740458,0.8244274809160306,-0.8854961832061069,-0.47021484375,0.00048828125,-0.18115234375,1.7577999999999998
-0.21374045801526717,0.6870229007633588,-1.0229007633587786,-0.466796875,-0.0029296875,-0.183349609375,1.7594999999999998
-0.2748091603053435,0.8854961832061069,-0.9465648854961832,-0.46240234375,-0.00634765625,-0.1806640625,1.7611999999999999
-0.5190839694656488,0.7480916030534351,-1.083969465648855,-0.469970703125,-0.005859375,-0.18603515625,1.7629
-0.5343511450381679,0.7633587786259542,-0.9618320610687023,-0.466552734375,-0.0078125,-0.1767578125,1.7646
-0.3511450381679389,0.9007633587786259,-0.9923664122137404,-0.46435546875,-0.01025390625,-0.18603515625,1.7663
-0.4732824427480916,0.8702290076335878,-0.916030534351145,-0.465576171875,-0.003662109375,-0.183349609375,1.7679999999999998
-0.5648854961832062,0.9618320610687023,-1.083969465648855,-0.468505859375,-0.005126953125,-0.189208984375,1.7696999999999998
-0.7786259541984732,1.0076335877862594,-0.8396946564885496,-0.46630859375,0.000732421875,-0.190185546875,1.7713999999999999
-0.9465648854961832,1.1755725190839694,-1.1450381679389312,-0.468017578125,-0.001708984375,-0.185546875,1.7731
-0.9312977099236641,1.1145038167938932,-0.7786259541984732,-0.468017578125,-0.00341796875,-0.181884765625,1.7748
-0.9007633587786259,1.083969465648855,-0.9770992366412213,-0.464111328125,-0.010009765625,-0.18701171875,1.7765
-0.7786259541984732,0.9770992366412213,-0.9465648854961832,-0.46142578125,-0.0029296875,-0.1865234375,1.7782
-0.8396946564885496,1.099236641221374,-0.9465648854961832,-0.467529296875,-0.003662109375,-0.175048828125,1.7798999999999998
-0.8549618320610687,1.1450381679389312,-0.8244274809160306,-0.4560546875,-0.00146484375,-0.18115234375,1.7815999999999999
-0.7022900763358778,1.450381679389313,-1.0381679389312977,-0.4599609375,-0.002685546875,-0.183837890625,1.7832999999999999
-0.5190839694656488,1.618320610687023,-1.1755725190839694,-0.460205078125,-0.003662109375,-0.1767578125,1.785
