gyrox1,gyroy1,gyroz1,accelx1,accely1,accelz1,Time
1.450381679389313,1.1450381679389312,-0.7480916030534351,-0.443115234375,-0.093017578125,-0.208251953125,0.0
1.2671755725190839,0.8854961832061069,-0.5801526717557252,-0.44189453125,-0.09619140625,-0.209716796875,0.0017
1.3435114503816794,0.8244274809160306,-0.916030534351145,-0.446533203125,-0.09228515625,-0.223388671875,0.0034
1.297709923664122,0.7786259541984732,-0.5954198473282443,-0.442626953125,-0.094482421875,-0.213134765625,0.0050999999999999995
1.0229007633587786,0.9923664122137404,-0.5190839694656488,-0.439697265625,-0.09521484375,-0.211669921875,0.0068
1.1297709923664123,0.7480916030534351,-0.6412213740458015,-0.447265625,-0.096923828125,-0.2099609375,0.008499999999999999
1.3129770992366412,0.7633587786259542,-0.6717557251908397,-0.4453125,-0.092041015625,-0.20849609375,0.010199999999999999
0.9007633587786259,1.0687022900763359,-0.6106870229007634,-0.44287109375,-0.092041015625,-0.21240234375,0.011899999999999999
0.8396946564885496,0.9007633587786259,-0.7480916030534351,-0.44287109375,-0.090087890625,-0.206787109375,0.0136
0.9312977099236641,0.7938931297709924,-0.6564885496183206,-0.445556640625,-0.09521484375,-0.211181640625,0.0153
0.9618320610687023,0.9007633587786259,-0.6412213740458015,-0.44287109375,-0.0908203125,-0.20458984375,0.016999999999999998
1.1145038167938932,1.0534351145038168,-0.5343511450381679,-0.4443359375,-0.0947265625,-0.213134765625,0.018699999999999998
0.6564885496183206,1.2061068702290076,-0.8091603053435115,-0.444091796875,-0.09521484375,-0.20654296875,0.020399999999999998
0.8854961832061069,1.0381679389312977,-0.6259541984732825,-0.444580078125,-0.09765625,-0.21337890625,0.022099999999999998
1.1603053435114503,1.1603053435114503,-0.7022900763358778,-0.439453125,-0.094970703125,-0.212890625,0.023799999999999998
1.099236641221374,1.2061068702290076,-0.8091603053435115,-0.443115234375,-0.0986328125,-0.212158203125,0.0255
1.1450381679389312,1.0381679389312977,-0.8244274809160306,-0.44287109375,-0.09814453125,-0.216796875,0.0272
1.2366412213740459,1.2366412213740459,-0.916030534351145,-0.44384765625,-0.09765625,-0.211669921875,0.0289
1.3740458015267176,1.1450381679389312,-1.0076335877862594,-0.444580078125,-0.095947265625,-0.218505859375,0.0306
1.2366412213740459,1.4045801526717556,-0.6717557251908397,-0.447265625,-0.0986328125,-0.214111328125,0.032299999999999995
1.297709923664122,1.450381679389313,-0.7938931297709924,-0.44921875,-0.099365234375,-0.218505859375,0.033999999999999996
1.282442748091603,1.5114503816793894,-0.916030534351145,-0.4453125,-0.09423828125,-0.21533203125,0.035699999999999996
1.3587786259541985,1.6030534351145038,-0.8091603053435115,-0.447509765625,-0.09130859375,-0.218505859375,0.037399999999999996
1.3740458015267176,1.6641221374045803,-0.732824427480916,-0.44091796875,-0.09423828125,-0.216796875,0.039099999999999996
1.465648854961832,1.6641221374045803,-0.9923664122137404,-0.44287109375,-0.100341796875,-0.21728515625,0.040799999999999996
1.4198473282442747,1.83206106870229,-0.9618320610687023,-0.445556640625,-0.09716796875,-0.212158203125,0.042499999999999996
1.450381679389313,1.83206106870229,-0.8091603053435115,-0.447021484375,-0.0986328125,-0.219482421875,0.044199999999999996
1.5572519083969465,1.9236641221374047,-0.8549618320610687,-0.44921875,-0.097900390625,-0.21142578125,0.045899999999999996
1.5877862595419847,1.7099236641221374,-1.1297709923664123,-0.440185546875,-0.10107421875,-0.213134765625,0.047599999999999996
1.6946564885496183,2.015267175572519,-0.7633587786259542,-0.44384765625,-0.09716796875,-0.213623046875,0.0493
1.6488549618320612,1.7557251908396947,-1.083969465648855,-0.44384765625,-0.095703125,-0.20068359375,0.051
1.450381679389313,1.8015267175572518,-0.916030534351145,-0.44580078125,-0.10009765625,-0.20751953125,0.0527
1.3129770992366412,1.816793893129771,-0.916030534351145,-0.447021484375,-0.10205078125,-0.206298828125,0.0544
1.3435114503816794,1.6946564885496183,-0.9465648854961832,-0.446533203125,-0.1015625,-0.208251953125,0.0561
1.2671755725190839,1.6488549618320612,-1.2061068702290076,-0.444580078125,-0.10107421875,-0.2099609375,0.0578
1.2061068702290076,1.7251908396946565,-1.2366412213740459,-0.44580078125,-0.10302734375,-0.205078125,0.0595
1.3893129770992367,1.633587786259542,-1.083969465648855,-0.455322265625,-0.100341796875,-0.2080078125,0.0612
0.9618320610687023,1.7251908396946565,-1.0229007633587786,-0.4482421875,-0.1005859375,-0.208984375,0.0629
1.3893129770992367,1.7404580152671756,-1.282442748091603,-0.44677734375,-0.099609375,-0.202880859375,0.06459999999999999
1.1603053435114503,1.8473282442748091,-1.2213740458015268,-0.447509765625,-0.099609375,-0.20751953125,0.0663
1.2366412213740459,1.7099236641221374,-1.1450381679389312,-0.445556640625,-0.09619140625,-0.19970703125,0.06799999999999999
1.0076335877862594,1.7099236641221374,-1.3740458015267176,-0.44580078125,-0.100341796875,-0.21630859375,0.0697
0.9618320610687023,1.6793893129770991,-1.3893129770992367,-0.447265625,-0.09716796875,-0.215087890625,0.07139999999999999
1.0687022900763359,1.8625954198473282,-1.3893129770992367,-0.4482421875,-0.099609375,-0.2041015625,0.0731
1.1145038167938932,1.7709923664122138,-1.4809160305343512,-0.44677734375,-0.098876953125,-0.209228515625,0.07479999999999999
0.9465648854961832,1.8015267175572518,-1.450381679389313,-0.451171875,-0.102294921875,-0.206787109375,0.0765
1.0534351145038168,1.7709923664122138,-1.6030534351145038,-0.448974609375,-0.10302734375,-0.211181640625,0.07819999999999999
1.099236641221374,1.7557251908396947,-1.618320610687023,-0.4482421875,-0.09326171875,-0.21484375,0.0799
1.1603053435114503,1.786259541984733,-1.6030534351145038,-0.449462890625,-0.100341796875,-0.21044921875,0.08159999999999999
1.0381679389312977,1.8778625954198473,-1.6030534351145038,-0.4501953125,-0.0947265625,-0.208740234375,0.0833
0.9618320610687023,1.633587786259542,-1.7404580152671756,-0.447021484375,-0.099365234375,-0.215087890625,0.08499999999999999
1.1908396946564885,1.3435114503816794,-1.618320610687023,-0.448974609375,-0.096923828125,-0.2109375,0.0867
1.0229007633587786,1.6793893129770991,-1.5877862595419847,-0.450439453125,-0.097412109375,-0.208251953125,0.08839999999999999
0.8854961832061069,1.6488549618320612,-1.3893129770992367,-0.452392578125,-0.0966796875,-0.21630859375,0.0901
0.9312977099236641,1.4809160305343512,-1.5267175572519085,-0.452392578125,-0.09375,-0.213134765625,0.09179999999999999
0.9618320610687023,1.5877862595419847,-1.5725190839694656,-0.4521484375,-0.099365234375,-0.212890625,0.0935
1.1450381679389312,1.5267175572519085,-1.450381679389313,-0.453125,-0.09765625,-0.2099609375,0.09519999999999999
0.7633587786259542,1.618320610687023,-1.3893129770992367,-0.455810546875,-0.0966796875,-0.2158203125,0.0969
0.6259541984732825,1.5572519083969465,-1.4961832061068703,-0.448974609375,-0.10302734375,-0.21923828125,0.0986
0.7938931297709924,1.7099236641221374,-1.3740458015267176,-0.45068359375,-0.09716796875,-0.218017578125,0.1003
0.8244274809160306,1.8931297709923665,-1.465648854961832,-0.447998046875,-0.0927734375,-0.205810546875,0.102
0.8549618320610687,2.045801526717557,-1.3282442748091603,-0.450927734375,-0.100341796875,-0.21142578125,0.1037
0.9312977099236641,2.1068702290076335,-1.3587786259541985,-0.4482421875,-0.096923828125,-0.207275390625,0.1054
1.0687022900763359,1.984732824427481,-1.3740458015267176,-0.4482421875,-0.098876953125,-0.207275390625,0.1071
0.8244274809160306,1.618320610687023,-1.4351145038167938,-0.4462890625,-0.097412109375,-0.211181640625,0.1088
0.8702290076335878,1.7251908396946565,-1.282442748091603,-0.447998046875,-0.096435546875,-0.212158203125,0.11049999999999999
1.0687022900763359,1.7099236641221374,-1.5572519083969465,-0.447021484375,-0.09814453125,-0.213134765625,0.1122
1.0687022900763359,1.6030534351145038,-1.6793893129770991,-0.452392578125,-0.09716796875,-0.219482421875,0.11389999999999999
0.8549618320610687,1.9236641221374047,-1.4809160305343512,-0.4521484375,-0.1015625,-0.218994140625,0.1156
0.8091603053435115,1.6793893129770991,-1.4809160305343512,-0.4541015625,-0.10107421875,-0.211669921875,0.11729999999999999
0.9465648854961832,1.6793893129770991,-1.6488549618320612,-0.453125,-0.103515625,-0.201904296875,0.119
1.0687022900763359,1.7251908396946565,-1.5267175572519085,-0.450927734375,-0.095947265625,-0.20849609375,0.12069999999999999
0.9923664122137404,1.7709923664122138,-1.5419847328244274,-0.451171875,-0.095947265625,-0.208984375,0.1224
0.9465648854961832,1.8473282442748091,-1.633587786259542,-0.448974609375,-0.102294921875,-0.211181640625,0.12409999999999999
1.251908396946565,1.9083969465648856,-1.83206106870229,-0.450439453125,-0.100830078125,-0.208984375,0.1258
1.0381679389312977,1.7251908396946565,-1.5419847328244274,-0.44970703125,-0.10400390625,-0.20947265625,0.1275
1.2213740458015268,1.7404580152671756,-1.4045801526717556,-0.447998046875,-0.0966796875,-0.205078125,0.12919999999999998
1.1297709923664123,1.9236641221374047,-1.5419847328244274,-0.44970703125,-0.095458984375,-0.20263671875,0.1309
1.0076335877862594,2.2748091603053435,-1.618320610687023,-0.44775390625,-0.09765625,-0.19677734375,0.1326
1.2213740458015268,1.9694656488549618,-1.5877862595419847,-0.452392578125,-0.0986328125,-0.2041015625,0.1343
1.4351145038167938,2.0763358778625953,-1.465648854961832,-0.448974609375,-0.097412109375,-0.2099609375,0.13599999999999998
1.3435114503816794,2.1068702290076335,-1.5419847328244274,-0.447998046875,-0.092041015625,-0.205810546875,0.1377
1.2671755725190839,2.1526717557251906,-1.5114503816793894,-0.451904296875,-0.098876953125,-0.211181640625,0.1394
1.282442748091603,2.2442748091603053,-1.5419847328244274,-0.450439453125,-0.09375,-0.20849609375,0.1411
1.2061068702290076,2.2442748091603053,-1.5419847328244274,-0.45361328125,-0.093505859375,-0.207275390625,0.14279999999999998
1.297709923664122,2.030534351145038,-1.4351145038167938,-0.450927734375,-0.09716796875,-0.207275390625,0.1445
1.0534351145038168,2.2748091603053435,-1.633587786259542,-0.453125,-0.0927734375,-0.210693359375,0.1462
1.1603053435114503,2.381679389312977,-1.6793893129770991,-0.4462890625,-0.09326171875,-0.2041015625,0.1479
1.099236641221374,2.2290076335877864,-1.633587786259542,-0.449462890625,-0.095458984375,-0.20947265625,0.14959999999999998
1.0076335877862594,2.2595419847328246,-1.633587786259542,-0.44921875,-0.100830078125,-0.20556640625,0.1513
1.2061068702290076,2.4885496183206106,-1.282442748091603,-0.44873046875,-0.09130859375,-0.210693359375,0.153
1.099236641221374,2.50381679389313,-1.6030534351145038,-0.4521484375,-0.095947265625,-0.20849609375,0.1547
1.3893129770992367,2.4580152671755724,-1.618320610687023,-0.44775390625,-0.09521484375,-0.205078125,0.15639999999999998
1.1603053435114503,2.427480916030534,-1.633587786259542,-0.4501953125,-0.09521484375,-0.20751953125,0.1581
1.1908396946564885,2.213740458015267,-1.6030534351145038,-0.4521484375,-0.09814453125,-0.207275390625,0.1598
1.282442748091603,2.2900763358778624,-1.6641221374045803,-0.448974609375,-0.100341796875,-0.20654296875,0.1615
1.3893129770992367,2.198473282442748,-1.6030534351145038,-0.447021484375,-0.094970703125,-0.209228515625,0.16319999999999998
1.099236641221374,2.1374045801526718,-1.6793893129770991,-0.448974609375,-0.09326171875,-0.21435546875,0.1649
1.099236641221374,2.2900763358778624,-1.5725190839694656,-0.45068359375,-0.091796875,-0.201904296875,0.1666
1.1908396946564885,1.9694656488549618,-1.6641221374045803,-0.450927734375,-0.096923828125,-0.202880859375,0.16829999999999998
1.0534351145038168,2.1068702290076335,-1.5267175572519085,-0.447998046875,-0.09521484375,-0.20361328125,0.16999999999999998
0.8702290076335878,2.2442748091603053,-1.5877862595419847,-0.44482421875,-0.08935546875,-0.20458984375,0.1717
0.8549618320610687,2.381679389312977,-1.6488549618320612,-0.445556640625,-0.091552734375,-0.2158203125,0.1734
1.0687022900763359,2.351145038167939,-1.5877862595419847,-0.4501953125,-0.093505859375,-0.209228515625,0.17509999999999998
0.9618320610687023,2.4122137404580153,-1.4198473282442747,-0.443359375,-0.099853515625,-0.20263671875,0.17679999999999998
1.099236641221374,2.1374045801526718,-1.6488549618320612,-0.447998046875,-0.0986328125,-0.208984375,0.1785
0.8396946564885496,2.198473282442748,-1.5419847328244274,-0.4453125,-0.0966796875,-0.208984375,0.1802
0.8702290076335878,2.0763358778625953,-1.6030534351145038,-0.44287109375,-0.08740234375,-0.205810546875,0.18189999999999998
0.9312977099236641,2.0,-1.5877862595419847,-0.443603515625,-0.09423828125,-0.208251953125,0.18359999999999999
0.9618320610687023,2.1374045801526718,-1.5572519083969465,-0.446044921875,-0.095947265625,-0.215087890625,0.1853
1.0076335877862594,1.9694656488549618,-1.7404580152671756,-0.44384765625,-0.093994140625,-0.206787109375,0.187
1.0229007633587786,1.7557251908396947,-1.6946564885496183,-0.450927734375,-0.102783203125,-0.212158203125,0.18869999999999998
1.0381679389312977,1.6793893129770991,-1.4961832061068703,-0.447021484375,-0.09423828125,-0.20556640625,0.19039999999999999
1.1145038167938932,1.7557251908396947,-1.7709923664122138,-0.4462890625,-0.100830078125,-0.2021484375,0.1921
1.297709923664122,1.9541984732824427,-1.816793893129771,-0.44873046875,-0.09716796875,-0.208984375,0.1938
1.1297709923664123,1.6030534351145038,-1.7404580152671756,-0.447509765625,-0.0947265625,-0.2099609375,0.19549999999999998
1.1755725190839694,1.83206106870229,-2.045801526717557,-0.44970703125,-0.095458984375,-0.215087890625,0.1972
1.1297709923664123,1.786259541984733,-2.015267175572519,-0.44287109375,-0.09375,-0.217041015625,0.1989
1.2061068702290076,1.8015267175572518,-1.6946564885496183,-0.4453125,-0.100830078125,-0.208251953125,0.2006
1.3587786259541985,2.0,-1.9083969465648856,-0.449951171875,-0.104736328125,-0.218017578125,0.20229999999999998
1.251908396946565,2.183206106870229,-1.8931297709923665,-0.444091796875,-0.09716796875,-0.209228515625,0.204
1.2671755725190839,2.213740458015267,-2.030534351145038,-0.43798828125,-0.1015625,-0.2080078125,0.2057
1.297709923664122,2.2595419847328246,-1.9541984732824427,-0.44970703125,-0.1015625,-0.213623046875,0.2074
1.4198473282442747,2.549618320610687,-2.1374045801526718,-0.449462890625,-0.097900390625,-0.21826171875,0.20909999999999998
1.4961832061068703,2.6106870229007635,-1.9541984732824427,-0.447021484375,-0.10107421875,-0.2099609375,0.2108
1.3893129770992367,2.6717557251908395,-2.1374045801526718,-0.450439453125,-0.101318359375,-0.214599609375,0.2125
1.5114503816793894,2.9618320610687023,-2.16793893129771,-0.446533203125,-0.099609375,-0.2041015625,0.2142
1.5114503816793894,2.854961832061069,-2.1068702290076335,-0.443115234375,-0.105224609375,-0.21533203125,0.21589999999999998
1.5572519083969465,2.946564885496183,-2.1526717557251906,-0.45263671875,-0.103271484375,-0.216796875,0.2176
1.7709923664122138,3.1297709923664123,-2.1526717557251906,-0.44873046875,-0.104736328125,-0.21533203125,0.2193
1.8473282442748091,3.282442748091603,-2.1068702290076335,-0.44775390625,-0.0986328125,-0.2138671875,0.22099999999999997
1.8931297709923665,3.1755725190839694,-2.3053435114503817,-0.4482421875,-0.095703125,-0.207275390625,0.22269999999999998
1.7251908396946565,2.9770992366412212,-2.1374045801526718,-0.451171875,-0.103271484375,-0.211669921875,0.2244
1.9541984732824427,2.8702290076335877,-2.2595419847328246,-0.447509765625,-0.097412109375,-0.209716796875,0.2261
2.1374045801526718,2.7938931297709924,-2.045801526717557,-0.444580078125,-0.1005859375,-0.214111328125,0.22779999999999997
1.9694656488549618,2.8702290076335877,-2.030534351145038,-0.44775390625,-0.097412109375,-0.21044921875,0.22949999999999998
1.6946564885496183,2.8396946564885495,-2.045801526717557,-0.447021484375,-0.091552734375,-0.212646484375,0.2312
1.8015267175572518,2.8244274809160306,-2.030534351145038,-0.451416015625,-0.098388671875,-0.209228515625,0.2329
2.0916030534351147,2.900763358778626,-1.7404580152671756,-0.447509765625,-0.098388671875,-0.21435546875,0.23459999999999998
2.0610687022900764,2.900763358778626,-2.1068702290076335,-0.451904296875,-0.09765625,-0.2099609375,0.23629999999999998
1.9236641221374047,2.9770992366412212,-1.8778625954198473,-0.448974609375,-0.094970703125,-0.20361328125,0.238
1.6488549618320612,2.900763358778626,-1.816793893129771,-0.452880859375,-0.099365234375,-0.20263671875,0.2397
1.984732824427481,2.900763358778626,-1.618320610687023,-0.4521484375,-0.0947265625,-0.20263671875,0.24139999999999998
2.0,2.9770992366412212,-1.7099236641221374,-0.442626953125,-0.095458984375,-0.209716796875,0.24309999999999998
1.8778625954198473,2.900763358778626,-1.6793893129770991,-0.4443359375,-0.0947265625,-0.20263671875,0.2448
1.5572519083969465,2.931297709923664,-1.5877862595419847,-0.449462890625,-0.091064453125,-0.2080078125,0.2465
1.9236641221374047,2.8702290076335877,-1.5877862595419847,-0.445068359375,-0.10107421875,-0.2080078125,0.24819999999999998
1.8931297709923665,2.7938931297709924,-1.83206106870229,-0.44873046875,-0.096435546875,-0.2060546875,0.24989999999999998
1.8778625954198473,2.7786259541984735,-1.6030534351145038,-0.4501953125,-0.092529296875,-0.204345703125,0.2516
1.786259541984733,2.854961832061069,-1.6030534351145038,-0.447998046875,-0.094970703125,-0.20654296875,0.25329999999999997
1.83206106870229,2.687022900763359,-1.4351145038167938,-0.44677734375,-0.091796875,-0.203125,0.255
2.183206106870229,2.6259541984732824,-1.5572519083969465,-0.4462890625,-0.092529296875,-0.19775390625,0.2567
2.1526717557251906,2.4122137404580153,-1.251908396946565,-0.445556640625,-0.0966796875,-0.20751953125,0.25839999999999996
2.0610687022900764,2.4427480916030535,-1.5572519083969465,-0.44384765625,-0.096435546875,-0.2041015625,0.2601
1.9389312977099236,2.4580152671755724,-1.618320610687023,-0.443359375,-0.094482421875,-0.205810546875,0.2618
2.1374045801526718,2.2595419847328246,-1.4198473282442747,-0.4443359375,-0.097412109375,-0.211181640625,0.2635
2.183206106870229,2.2748091603053435,-1.297709923664122,-0.445068359375,-0.091064453125,-0.207763671875,0.2652
1.984732824427481,2.198473282442748,-1.4198473282442747,-0.44677734375,-0.09716796875,-0.20947265625,0.26689999999999997
2.122137404580153,2.2442748091603053,-1.251908396946565,-0.441650390625,-0.094482421875,-0.211181640625,0.2686
2.0,2.2595419847328246,-1.2213740458015268,-0.447509765625,-0.10107421875,-0.2060546875,0.2703
1.8931297709923665,2.366412213740458,-1.3893129770992367,-0.451416015625,-0.09814453125,-0.2158203125,0.27199999999999996
1.7404580152671756,2.381679389312977,-1.3740458015267176,-0.447265625,-0.096923828125,-0.211669921875,0.2737
1.8473282442748091,2.33587786259542,-1.1755725190839694,-0.446533203125,-0.10205078125,-0.207275390625,0.2754
1.6946564885496183,2.4122137404580153,-1.1297709923664123,-0.447021484375,-0.099609375,-0.208984375,0.27709999999999996
1.6030534351145038,2.366412213740458,-1.3129770992366412,-0.4462890625,-0.103271484375,-0.2119140625,0.2788
1.618320610687023,2.4885496183206106,-1.3587786259541985,-0.449462890625,-0.102783203125,-0.2138671875,0.28049999999999997
1.6946564885496183,2.519083969465649,-1.3282442748091603,-0.448486328125,-0.106201171875,-0.209228515625,0.2822
1.633587786259542,2.549618320610687,-1.4045801526717556,-0.448974609375,-0.104248046875,-0.2119140625,0.2839
1.6946564885496183,2.564885496183206,-1.297709923664122,-0.4453125,-0.1015625,-0.21533203125,0.28559999999999997
1.9083969465648856,2.6412213740458017,-1.4961832061068703,-0.44189453125,-0.096435546875,-0.213623046875,0.2873
2.0916030534351147,2.366412213740458,-1.3893129770992367,-0.44384765625,-0.106689453125,-0.209716796875,0.289
2.1374045801526718,2.5801526717557253,-1.816793893129771,-0.445556640625,-0.1015625,-0.2109375,0.29069999999999996
1.7404580152671756,2.564885496183206,-1.5725190839694656,-0.442626953125,-0.103759765625,-0.21435546875,0.2924
1.7709923664122138,2.16793893129771,-1.5267175572519085,-0.447021484375,-0.0986328125,-0.21337890625,0.2941
2.0763358778625953,2.183206106870229,-1.83206106870229,-0.445068359375,-0.103759765625,-0.20947265625,0.2958
1.9389312977099236,2.198473282442748,-1.7557251908396947,-0.44580078125,-0.103759765625,-0.211669921875,0.2975
1.9236641221374047,2.3206106870229006,-1.5877862595419847,-0.4443359375,-0.10546875,-0.20654296875,0.29919999999999997
1.7404580152671756,2.33587786259542,-1.786259541984733,-0.4443359375,-0.1015625,-0.20947265625,0.3009
1.7099236641221374,2.33587786259542,-1.9694656488549618,-0.44140625,-0.101318359375,-0.206787109375,0.3026
1.7099236641221374,2.4427480916030535,-2.0610687022900764,-0.443359375,-0.104248046875,-0.208984375,0.30429999999999996
1.7099236641221374,2.33587786259542,-1.8931297709923665,-0.44873046875,-0.102294921875,-0.212890625,0.306
1.786259541984733,2.33587786259542,-1.9389312977099236,-0.447998046875,-0.1025390625,-0.2099609375,0.3077
1.7404580152671756,2.3969465648854964,-1.9541984732824427,-0.4462890625,-0.09814453125,-0.212646484375,0.3094
1.618320610687023,2.6412213740458017,-2.030534351145038,-0.447021484375,-0.1015625,-0.210693359375,0.3111
1.6030534351145038,2.519083969465649,-1.8778625954198473,-0.45361328125,-0.10400390625,-0.20703125,0.31279999999999997
1.5419847328244274,2.4580152671755724,-2.0763358778625953,-0.451904296875,-0.095703125,-0.21142578125,0.3145
1.618320610687023,2.564885496183206,-2.0610687022900764,-0.447509765625,-0.095458984375,-0.211669921875,0.3162
1.3893129770992367,2.5343511450381677,-1.9389312977099236,-0.447021484375,-0.0986328125,-0.211669921875,0.31789999999999996
1.251908396946565,2.717557251908397,-1.8778625954198473,-0.4501953125,-0.095947265625,-0.2138671875,0.3196
0.9312977099236641,2.381679389312977,-1.9541984732824427,-0.449462890625,-0.097412109375,-0.21142578125,0.3213
0.8244274809160306,2.381679389312977,-1.7557251908396947,-0.445068359375,-0.099853515625,-0.2109375,0.323
0.7786259541984732,2.4732824427480917,-1.7404580152671756,-0.44287109375,-0.09326171875,-0.213134765625,0.3247
0.5038167938931297,2.4580152671755724,-1.7557251908396947,-0.444580078125,-0.0986328125,-0.211669921875,0.32639999999999997
0.6564885496183206,2.3206106870229006,-1.7251908396946565,-0.445556640625,-0.095458984375,-0.206787109375,0.3281
0.5343511450381679,2.183206106870229,-1.6641221374045803,-0.44873046875,-0.09619140625,-0.21044921875,0.3298
0.3969465648854962,2.16793893129771,-1.3893129770992367,-0.449462890625,-0.093505859375,-0.208251953125,0.33149999999999996
0.48854961832061067,2.0763358778625953,-1.4809160305343512,-0.445556640625,-0.100830078125,-0.21484375,0.3332
0.5801526717557252,1.8625954198473282,-1.5419847328244274,-0.44921875,-0.097412109375,-0.21484375,0.3349
0.6106870229007634,1.7709923664122138,-1.450381679389313,-0.44775390625,-0.09619140625,-0.20849609375,0.33659999999999995
0.6564885496183206,1.9389312977099236,-1.3282442748091603,-0.447021484375,-0.090576171875,-0.19970703125,0.3383
0.7633587786259542,1.618320610687023,-1.2061068702290076,-0.447998046875,-0.094482421875,-0.201416015625,0.33999999999999997
0.8091603053435115,1.816793893129771,-1.282442748091603,-0.44677734375,-0.09765625,-0.217041015625,0.3417
0.7480916030534351,1.7404580152671756,-1.3129770992366412,-0.449951171875,-0.095703125,-0.209716796875,0.3434
0.8091603053435115,1.8931297709923665,-1.450381679389313,-0.45166015625,-0.101318359375,-0.2177734375,0.34509999999999996
0.8854961832061069,1.6030534351145038,-1.3282442748091603,-0.44970703125,-0.10107421875,-0.2158203125,0.3468
0.8549618320610687,1.8473282442748091,-1.282442748091603,-0.445068359375,-0.097900390625,-0.221435546875,0.3485
0.9007633587786259,2.045801526717557,-1.0229007633587786,-0.44775390625,-0.096923828125,-0.21044921875,0.35019999999999996
0.9465648854961832,1.6793893129770991,-1.282442748091603,-0.4501953125,-0.093505859375,-0.209716796875,0.3519
0.9465648854961832,1.984732824427481,-1.3129770992366412,-0.449951171875,-0.09912109375,-0.216552734375,0.35359999999999997
1.1450381679389312,1.8931297709923665,-1.251908396946565,-0.441650390625,-0.096435546875,-0.220458984375,0.3553
1.099236641221374,1.8931297709923665,-1.4198473282442747,-0.446533203125,-0.0966796875,-0.2138671875,0.357
1.2671755725190839,1.8015267175572518,-1.2061068702290076,-0.4482421875,-0.09423828125,-0.2080078125,0.35869999999999996
1.3129770992366412,2.015267175572519,-1.5572519083969465,-0.45361328125,-0.0986328125,-0.221435546875,0.3604
1.1297709923664123,2.030534351145038,-1.1908396946564885,-0.446533203125,-0.096435546875,-0.21923828125,0.3621
1.3740458015267176,2.0916030534351147,-1.1755725190839694,-0.4462890625,-0.095703125,-0.212158203125,0.36379999999999996
1.3587786259541985,2.1526717557251906,-1.099236641221374,-0.447998046875,-0.08935546875,-0.20654296875,0.3655
1.3282442748091603,2.1068702290076335,-1.083969465648855,-0.4501953125,-0.09814453125,-0.220703125,0.36719999999999997
1.1450381679389312,2.0916030534351147,-1.099236641221374,-0.4501953125,-0.09765625,-0.21728515625,0.3689
1.1908396946564885,2.3053435114503817,-1.2061068702290076,-0.45263671875,-0.101806640625,-0.20947265625,0.3706
1.083969465648855,2.213740458015267,-1.297709923664122,-0.452880859375,-0.09912109375,-0.22412109375,0.37229999999999996
1.2366412213740459,2.0610687022900764,-1.3893129770992367,-0.4482421875,-0.10009765625,-0.213623046875,0.374
1.2366412213740459,2.213740458015267,-1.1450381679389312,-0.447509765625,-0.094970703125,-0.21142578125,0.3757
0.9312977099236641,2.2595419847328246,-1.450381679389313,-0.4521484375,-0.10009765625,-0.213623046875,0.37739999999999996
0.8549618320610687,2.1374045801526718,-1.5267175572519085,-0.448974609375,-0.10693359375,-0.217041015625,0.3791
0.9312977099236641,2.16793893129771,-1.6030534351145038,-0.448974609375,-0.103759765625,-0.220947265625,0.38079999999999997
0.9770992366412213,2.33587786259542,-1.5572519083969465,-0.44873046875,-0.096435546875,-0.21923828125,0.38249999999999995
1.1603053435114503,2.366412213740458,-1.5267175572519085,-0.448974609375,-0.100830078125,-0.214111328125,0.3842
1.0076335877862594,2.2595419847328246,-1.4809160305343512,-0.449462890625,-0.104248046875,-0.213623046875,0.38589999999999997
0.916030534351145,2.015267175572519,-1.6488549618320612,-0.447998046875,-0.098876953125,-0.211181640625,0.3876
0.9465648854961832,2.4580152671755724,-1.6030534351145038,-0.445068359375,-0.1005859375,-0.215087890625,0.3893
0.9923664122137404,2.0916030534351147,-1.7251908396946565,-0.448486328125,-0.10107421875,-0.2158203125,0.39099999999999996
1.0076335877862594,1.8473282442748091,-1.5877862595419847,-0.4453125,-0.097900390625,-0.208251953125,0.3927
0.9618320610687023,1.9541984732824427,-1.83206106870229,-0.445556640625,-0.098388671875,-0.21240234375,0.3944
1.2366412213740459,1.786259541984733,-1.7404580152671756,-0.448974609375,-0.096923828125,-0.2060546875,0.39609999999999995
1.0076335877862594,1.7557251908396947,-1.8778625954198473,-0.448974609375,-0.102294921875,-0.21142578125,0.3978
0.9465648854961832,1.7404580152671756,-1.6641221374045803,-0.44580078125,-0.08837890625,-0.20263671875,0.39949999999999997
1.083969465648855,1.6488549618320612,-1.6946564885496183,-0.447021484375,-0.09375,-0.208251953125,0.4012
1.2061068702290076,1.4961832061068703,-1.4045801526717556,-0.445068359375,-0.095947265625,-0.211181640625,0.4029
0.9923664122137404,1.7557251908396947,-1.5267175572519085,-0.44287109375,-0.095703125,-0.205322265625,0.40459999999999996
0.8854961832061069,1.4351145038167938,-1.5114503816793894,-0.4443359375,-0.089599609375,-0.20947265625,0.4063
0.7633587786259542,1.6488549618320612,-1.4961832061068703,-0.445556640625,-0.092529296875,-0.19970703125,0.408
0.7938931297709924,1.633587786259542,-1.4198473282442747,-0.44775390625,-0.097900390625,-0.207763671875,0.40969999999999995
0.732824427480916,1.5877862595419847,-1.282442748091603,-0.441650390625,-0.091552734375,-0.21142578125,0.4114
0.6870229007633588,1.5572519083969465,-1.297709923664122,-0.44580078125,-0.09765625,-0.211181640625,0.41309999999999997
0.48854961832061067,1.282442748091603,-1.5419847328244274,-0.448486328125,-0.091552734375,-0.206787109375,0.4148
0.42748091603053434,1.3282442748091603,-1.3435114503816794,-0.4501953125,-0.095703125,-0.20703125,0.4165
0.24427480916030533,1.282442748091603,-1.282442748091603,-0.449462890625,-0.095458984375,-0.20947265625,0.41819999999999996
0.0,1.1908396946564885,-1.083969465648855,-0.45166015625,-0.096435546875,-0.209716796875,0.4199
0.15267175572519084,1.1297709923664123,-1.2366412213740459,-0.451904296875,-0.09326171875,-0.214111328125,0.4216
0.22900763358778625,1.3129770992366412,-1.083969465648855,-0.44970703125,-0.092529296875,-0.216064453125,0.42329999999999995
0.2900763358778626,1.083969465648855,-1.2061068702290076,-0.444580078125,-0.098876953125,-0.213134765625,0.425
-0.07633587786259542,1.1908396946564885,-1.2213740458015268,-0.44677734375,-0.098876953125,-0.209716796875,0.42669999999999997
0.1984732824427481,1.1450381679389312,-1.4809160305343512,-0.4443359375,-0.09814453125,-0.217529296875,0.4284
0.1984732824427481,1.083969465648855,-1.3740458015267176,-0.44775390625,-0.0986328125,-0.2119140625,0.4301
0.4580152671755725,1.2061068702290076,-1.3435114503816794,-0.446044921875,-0.09765625,-0.208251953125,0.43179999999999996
0.3816793893129771,1.2061068702290076,-1.2671755725190839,-0.4521484375,-0.09765625,-0.207763671875,0.4335
0.1984732824427481,1.3740458015267176,-1.633587786259542,-0.44873046875,-0.099365234375,-0.22216796875,0.4352
0.366412213740458,1.465648854961832,-1.4961832061068703,-0.44580078125,-0.094482421875,-0.21875,0.43689999999999996
0.42748091603053434,1.6793893129770991,-1.450381679389313,-0.444091796875,-0.1044921875,-0.218505859375,0.4386
0.1984732824427481,1.8625954198473282,-1.4198473282442747,-0.4453125,-0.101806640625,-0.211669921875,0.44029999999999997
0.48854961832061067,1.6488549618320612,-1.4198473282442747,-0.4482421875,-0.09423828125,-0.21875,0.44199999999999995
0.13740458015267176,1.7709923664122138,-1.633587786259542,-0.4521484375,-0.09765625,-0.20849609375,0.4437
0.3816793893129771,1.8931297709923665,-1.3740458015267176,-0.44873046875,-0.098876953125,-0.22265625,0.44539999999999996
0.3816793893129771,1.786259541984733,-1.3435114503816794,-0.44580078125,-0.0986328125,-0.216064453125,0.4471
0.5801526717557252,1.9083969465648856,-1.4961832061068703,-0.44921875,-0.099365234375,-0.220458984375,0.4488
0.5343511450381679,2.045801526717557,-1.450381679389313,-0.444580078125,-0.098876953125,-0.215087890625,0.45049999999999996
0.6259541984732825,1.9389312977099236,-1.6488549618320612,-0.450927734375,-0.0947265625,-0.218505859375,0.4522
0.7633587786259542,2.0610687022900764,-1.3893129770992367,-0.44482421875,-0.099609375,-0.20703125,0.45389999999999997
1.1450381679389312,2.1068702290076335,-1.633587786259542,-0.4482421875,-0.103271484375,-0.21435546875,0.45559999999999995
0.916030534351145,2.213740458015267,-1.4961832061068703,-0.450439453125,-0.105712890625,-0.21337890625,0.4573
1.083969465648855,2.1068702290076335,-1.6793893129770991,-0.45166015625,-0.09814453125,-0.2119140625,0.45899999999999996
1.099236641221374,2.030534351145038,-1.4351145038167938,-0.44775390625,-0.096923828125,-0.220947265625,0.4607
1.0534351145038168,2.1068702290076335,-1.5267175572519085,-0.44677734375,-0.099609375,-0.215087890625,0.4624
1.1450381679389312,2.16793893129771,-1.5572519083969465,-0.448486328125,-0.09326171875,-0.213623046875,0.46409999999999996
1.1297709923664123,2.122137404580153,-1.6946564885496183,-0.449462890625,-0.091552734375,-0.213134765625,0.4658
1.0534351145038168,1.984732824427481,-1.5877862595419847,-0.44775390625,-0.09814453125,-0.211181640625,0.46749999999999997
0.9770992366412213,2.0610687022900764,-1.618320610687023,-0.449462890625,-0.094970703125,-0.213623046875,0.46919999999999995
0.7938931297709924,2.198473282442748,-1.6030534351145038,-0.446533203125,-0.094482421875,-0.216552734375,0.4709
0.7022900763358778,2.4427480916030535,-1.7404580152671756,-0.448486328125,-0.099853515625,-0.215576171875,0.47259999999999996
0.5190839694656488,2.183206106870229,-1.786259541984733,-0.447265625,-0.098876953125,-0.21337890625,0.4743
0.5038167938931297,2.381679389312977,-1.816793893129771,-0.44970703125,-0.096923828125,-0.2216796875,0.476
0.4580152671755725,2.2748091603053435,-1.7404580152671756,-0.447509765625,-0.09814453125,-0.209716796875,0.47769999999999996
0.3816793893129771,2.366412213740458,-2.0,-0.446533203125,-0.095458984375,-0.205810546875,0.4794
0.13740458015267176,2.381679389312977,-1.83206106870229,-0.44580078125,-0.098388671875,-0.215087890625,0.48109999999999997
0.3053435114503817,2.2748091603053435,-1.8015267175572518,-0.447998046875,-0.099365234375,-0.2109375,0.48279999999999995
0.32061068702290074,2.3206106870229006,-1.6641221374045803,-0.444580078125,-0.103271484375,-0.206787109375,0.4845
0.5038167938931297,2.3969465648854964,-1.9236641221374047,-0.447021484375,-0.09814453125,-0.219482421875,0.48619999999999997
0.3816793893129771,2.351145038167939,-1.9541984732824427,-0.445068359375,-0.099609375,-0.21044921875,0.4879
0.1984732824427481,2.2748091603053435,-1.8931297709923665,-0.44970703125,-0.10205078125,-0.2099609375,0.4896
0.3816793893129771,2.33587786259542,-1.786259541984733,-0.445556640625,-0.103759765625,-0.20849609375,0.49129999999999996
0.4732824427480916,2.33587786259542,-1.816793893129771,-0.4462890625,-0.097900390625,-0.21240234375,0.493
0.33587786259541985,2.16793893129771,-1.8015267175572518,-0.45068359375,-0.097412109375,-0.215087890625,0.4947
0.48854961832061067,2.16793893129771,-1.7557251908396947,-0.44921875,-0.096435546875,-0.21240234375,0.49639999999999995
0.549618320610687,2.045801526717557,-1.816793893129771,-0.44677734375,-0.09228515625,-0.21533203125,0.4981
0.366412213740458,2.122137404580153,-1.7404580152671756,-0.45068359375,-0.095458984375,-0.20458984375,0.49979999999999997
0.5038167938931297,2.2290076335877864,-1.7557251908396947,-0.44873046875,-0.09423828125,-0.220703125,0.5015
0.2748091603053435,2.015267175572519,-1.6946564885496183,-0.445068359375,-0.097900390625,-0.209228515625,0.5032
0.44274809160305345,1.8473282442748091,-1.7404580152671756,-0.44921875,-0.092041015625,-0.2099609375,0.5049
0.42748091603053434,1.9694656488549618,-1.8778625954198473,-0.445556640625,-0.096435546875,-0.21728515625,0.5065999999999999
0.5343511450381679,1.8015267175572518,-1.3587786259541985,-0.44677734375,-0.0908203125,-0.216064453125,0.5083
0.48854961832061067,1.4809160305343512,-1.7404580152671756,-0.4482421875,-0.0947265625,-0.20947265625,0.51
0.6412213740458015,1.9389312977099236,-1.465648854961832,-0.44873046875,-0.096923828125,-0.215576171875,0.5116999999999999
0.4732824427480916,1.7099236641221374,-1.5725190839694656,-0.443603515625,-0.09375,-0.216796875,0.5134
0.2748091603053435,1.633587786259542,-1.5419847328244274,-0.44970703125,-0.095947265625,-0.207275390625,0.5151
0.061068702290076333,1.633587786259542,-1.4045801526717556,-0.451171875,-0.095458984375,-0.211181640625,0.5167999999999999
0.2900763358778626,1.6030534351145038,-1.3435114503816794,-0.44287109375,-0.089599609375,-0.211181640625,0.5185
0.04580152671755725,1.6030534351145038,-1.4198473282442747,-0.44482421875,-0.096435546875,-0.2099609375,0.5202
0.061068702290076333,1.465648854961832,-1.3587786259541985,-0.44580078125,-0.0947265625,-0.2099609375,0.5218999999999999
0.04580152671755725,1.633587786259542,-1.3893129770992367,-0.448486328125,-0.092529296875,-0.22021484375,0.5236
0.15267175572519084,1.5267175572519085,-1.1603053435114503,-0.44775390625,-0.093505859375,-0.21875,0.5253
-0.12213740458015267,1.5877862595419847,-1.2213740458015268,-0.446044921875,-0.0947265625,-0.2158203125,0.527
-0.44274809160305345,1.83206106870229,-1.1603053435114503,-0.447509765625,-0.0966796875,-0.2109375,0.5287
-0.0916030534351145,1.9236641221374047,-1.5572519083969465,-0.447021484375,-0.0966796875,-0.21630859375,0.5304
-0.2748091603053435,1.6030534351145038,-1.3435114503816794,-0.44775390625,-0.094482421875,-0.2197265625,0.5321
-0.22900763358778625,1.6641221374045803,-1.251908396946565,-0.445556640625,-0.097412109375,-0.21923828125,0.5337999999999999
-0.030534351145038167,1.9083969465648856,-1.1450381679389312,-0.446533203125,-0.09228515625,-0.225830078125,0.5355
-0.015267175572519083,1.8473282442748091,-1.465648854961832,-0.451171875,-0.1005859375,-0.2119140625,0.5372
0.061068702290076333,1.8625954198473282,-1.4351145038167938,-0.44287109375,-0.10009765625,-0.22119140625,0.5388999999999999
0.21374045801526717,2.0610687022900764,-1.450381679389313,-0.44482421875,-0.10302734375,-0.217529296875,0.5406
0.42748091603053434,2.045801526717557,-1.450381679389313,-0.447021484375,-0.09765625,-0.2197265625,0.5423
0.44274809160305345,2.0763358778625953,-1.7557251908396947,-0.44482421875,-0.099365234375,-0.210205078125,0.5439999999999999
0.6717557251908397,2.0610687022900764,-1.5572519083969465,-0.447998046875,-0.1005859375,-0.22216796875,0.5457
0.7480916030534351,2.045801526717557,-1.7557251908396947,-0.44970703125,-0.101318359375,-0.22119140625,0.5474
0.7938931297709924,2.2290076335877864,-1.7557251908396947,-0.4482421875,-0.1015625,-0.216796875,0.5490999999999999
1.1297709923664123,2.16793893129771,-1.8473282442748091,-0.4404296875,-0.099853515625,-0.213623046875,0.5508
1.1450381679389312,1.9694656488549618,-1.816793893129771,-0.44677734375,-0.101806640625,-0.22021484375,0.5525
0.9312977099236641,2.366412213740458,-2.1068702290076335,-0.44775390625,-0.095458984375,-0.218017578125,0.5541999999999999
0.9312977099236641,2.549618320610687,-2.2900763358778624,-0.44775390625,-0.10107421875,-0.21435546875,0.5559
1.1145038167938932,2.4732824427480917,-2.2900763358778624,-0.447021484375,-0.10205078125,-0.218505859375,0.5576
1.1603053435114503,2.6106870229007635,-2.2900763358778624,-0.443115234375,-0.09619140625,-0.210693359375,0.5593
1.1297709923664123,2.717557251908397,-2.213740458015267,-0.444580078125,-0.103271484375,-0.212158203125,0.5609999999999999
1.4198473282442747,2.8702290076335877,-2.2442748091603053,-0.447998046875,-0.096923828125,-0.21240234375,0.5627
1.4198473282442747,2.885496183206107,-2.50381679389313,-0.447509765625,-0.0986328125,-0.2138671875,0.5644
1.3282442748091603,2.900763358778626,-2.4427480916030535,-0.447509765625,-0.09423828125,-0.218017578125,0.5660999999999999
1.4809160305343512,2.8244274809160306,-2.183206106870229,-0.447265625,-0.097412109375,-0.219970703125,0.5678
1.450381679389313,2.9618320610687023,-2.3969465648854964,-0.45166015625,-0.0947265625,-0.217041015625,0.5695
1.465648854961832,3.0229007633587788,-2.16793893129771,-0.44970703125,-0.09228515625,-0.21484375,0.5711999999999999
1.5572519083969465,2.900763358778626,-2.3206106870229006,-0.4443359375,-0.094482421875,-0.209716796875,0.5729
1.4198473282442747,3.0229007633587788,-2.045801526717557,-0.4482421875,-0.095703125,-0.214111328125,0.5746
1.1755725190839694,2.854961832061069,-2.0916030534351147,-0.451171875,-0.0908203125,-0.216796875,0.5762999999999999
1.4045801526717556,2.931297709923664,-2.1374045801526718,-0.451171875,-0.09423828125,-0.215576171875,0.578
1.282442748091603,3.1297709923664123,-1.9694656488549618,-0.44677734375,-0.090087890625,-0.221923828125,0.5797
1.2213740458015268,3.1603053435114505,-1.9083969465648856,-0.447998046875,-0.0966796875,-0.2119140625,0.5813999999999999
1.1297709923664123,3.3740458015267176,-2.2748091603053435,-0.446533203125,-0.0966796875,-0.217529296875,0.5831
0.9312977099236641,3.5114503816793894,-1.9083969465648856,-0.44482421875,-0.100830078125,-0.214111328125,0.5848
1.1908396946564885,3.49618320610687,-1.9694656488549618,-0.446533203125,-0.100341796875,-0.20703125,0.5865
1.2061068702290076,3.4198473282442747,-1.7099236641221374,-0.444091796875,-0.092041015625,-0.2177734375,0.5882
1.4809160305343512,3.5114503816793894,-1.8778625954198473,-0.4423828125,-0.09619140625,-0.210693359375,0.5899
1.5572519083969465,3.4656488549618323,-1.5877862595419847,-0.442626953125,-0.098388671875,-0.212158203125,0.5916
1.5114503816793894,3.6030534351145036,-1.7709923664122138,-0.449462890625,-0.101806640625,-0.211669921875,0.5932999999999999
1.3282442748091603,3.480916030534351,-1.816793893129771,-0.4462890625,-0.102294921875,-0.213134765625,0.595
1.282442748091603,3.5267175572519083,-1.618320610687023,-0.447021484375,-0.09619140625,-0.214111328125,0.5967
1.251908396946565,3.435114503816794,-1.5877862595419847,-0.445068359375,-0.099853515625,-0.2041015625,0.5983999999999999
1.297709923664122,3.267175572519084,-2.015267175572519,-0.445556640625,-0.096923828125,-0.20751953125,0.6001
1.4198473282442747,3.068702290076336,-1.6641221374045803,-0.4453125,-0.098388671875,-0.2158203125,0.6018
1.3740458015267176,2.7480916030534353,-1.5572519083969465,-0.44921875,-0.09912109375,-0.204345703125,0.6034999999999999
1.3282442748091603,2.6412213740458017,-1.4961832061068703,-0.445068359375,-0.096923828125,-0.210693359375,0.6052
1.1755725190839694,2.5801526717557253,-1.5725190839694656,-0.443603515625,-0.1005859375,-0.208984375,0.6069
1.0381679389312977,2.5801526717557253,-1.4351145038167938,-0.447265625,-0.10107421875,-0.201904296875,0.6085999999999999
1.0381679389312977,2.5343511450381677,-1.5725190839694656,-0.445068359375,-0.098876953125,-0.213134765625,0.6103
0.9618320610687023,2.351145038167939,-1.465648854961832,-0.4443359375,-0.1015625,-0.2060546875,0.612
1.0687022900763359,2.427480916030534,-1.3893129770992367,-0.44189453125,-0.101806640625,-0.208984375,0.6136999999999999
0.8396946564885496,2.6259541984732824,-1.4809160305343512,-0.44189453125,-0.0966796875,-0.2158203125,0.6154
0.8396946564885496,2.3969465648854964,-1.6488549618320612,-0.445068359375,-0.10107421875,-0.209228515625,0.6171
0.7022900763358778,2.3053435114503817,-1.2671755725190839,-0.442626953125,-0.099609375,-0.21435546875,0.6188
0.3511450381679389,2.4885496183206106,-1.5267175572519085,-0.44482421875,-0.09716796875,-0.21435546875,0.6204999999999999
0.24427480916030533,2.2595419847328246,-1.5419847328244274,-0.442626953125,-0.099609375,-0.21044921875,0.6222
0.2595419847328244,2.1068702290076335,-1.3435114503816794,-0.4443359375,-0.1005859375,-0.212890625,0.6239
0.13740458015267176,2.16793893129771,-1.3129770992366412,-0.440185546875,-0.10205078125,-0.209228515625,0.6255999999999999
-0.12213740458015267,2.366412213740458,-1.4809160305343512,-0.447021484375,-0.10205078125,-0.207275390625,0.6273
-0.2900763358778626,2.2290076335877864,-1.465648854961832,-0.447021484375,-0.099365234375,-0.20556640625,0.629
-0.3969465648854962,2.0916030534351147,-1.3893129770992367,-0.442138671875,-0.0986328125,-0.207763671875,0.6306999999999999
-0.3511450381679389,2.16793893129771,-1.3129770992366412,-0.446044921875,-0.09765625,-0.218017578125,0.6324
-0.4580152671755725,2.1374045801526718,-1.5419847328244274,-0.442138671875,-0.100341796875,-0.20703125,0.6341
-0.6717557251908397,2.2595419847328246,-1.282442748091603,-0.44091796875,-0.0986328125,-0.20654296875,0.6357999999999999
-0.6564885496183206,2.519083969465649,-1.3435114503816794,-0.4443359375,-0.09912109375,-0.215087890625,0.6375
-0.6106870229007634,2.3969465648854964,-1.3282442748091603,-0.4384765625,-0.097412109375,-0.205322265625,0.6392
-0.4732824427480916,2.351145038167939,-0.9923664122137404,-0.446533203125,-0.098388671875,-0.21728515625,0.6408999999999999
-0.4122137404580153,2.519083969465649,-1.1450381679389312,-0.4443359375,-0.10009765625,-0.218017578125,0.6426
-0.4580152671755725,2.4580152671755724,-1.297709923664122,-0.4423828125,-0.09375,-0.211669921875,0.6443
-0.183206106870229,2.2595419847328246,-1.1603053435114503,-0.442626953125,-0.10009765625,-0.195556640625,0.646
-0.183206106870229,2.183206106870229,-1.3129770992366412,-0.4423828125,-0.10009765625,-0.20849609375,0.6476999999999999
0.0916030534351145,2.1068702290076335,-1.3435114503816794,-0.443359375,-0.094482421875,-0.21630859375,0.6494
0.015267175572519083,2.16793893129771,-1.1603053435114503,-0.4453125,-0.092529296875,-0.212158203125,0.6511
-0.015267175572519083,2.1374045801526718,-0.9923664122137404,-0.44580078125,-0.0986328125,-0.221923828125,0.6527999999999999
-0.04580152671755725,2.045801526717557,-1.0076335877862594,-0.4462890625,-0.09716796875,-0.2109375,0.6545
0.04580152671755725,1.9694656488549618,-0.8549618320610687,-0.44970703125,-0.0966796875,-0.217529296875,0.6562
-0.16793893129770993,2.122137404580153,-0.916030534351145,-0.44775390625,-0.0966796875,-0.210205078125,0.6578999999999999
-0.183206106870229,2.198473282442748,-1.0229007633587786,-0.447265625,-0.09130859375,-0.218017578125,0.6596
-0.04580152671755725,2.1068702290076335,-1.0381679389312977,-0.448486328125,-0.096923828125,-0.21435546875,0.6613
0.015267175572519083,2.1374045801526718,-0.9770992366412213,-0.45166015625,-0.10302734375,-0.213623046875,0.6629999999999999
-0.04580152671755725,2.2595419847328246,-0.916030534351145,-0.44921875,-0.099609375,-0.21484375,0.6647
-0.10687022900763359,2.2748091603053435,-1.1145038167938932,-0.447509765625,-0.09716796875,-0.208984375,0.6664
0.0,2.381679389312977,-1.099236641221374,-0.455810546875,-0.095947265625,-0.217529296875,0.6680999999999999
0.015267175572519083,2.5343511450381677,-1.1450381679389312,-0.452392578125,-0.09716796875,-0.214111328125,0.6698
0.12213740458015267,2.564885496183206,-1.2671755725190839,-0.449951171875,-0.09814453125,-0.218994140625,0.6715
0.030534351145038167,2.687022900763359,-1.0687022900763359,-0.4521484375,-0.100341796875,-0.220703125,0.6731999999999999
-0.015267175572519083,2.519083969465649,-1.1297709923664123,-0.447265625,-0.095458984375,-0.22119140625,0.6748999999999999
0.3816793893129771,2.7022900763358777,-1.0229007633587786,-0.453125,-0.0966796875,-0.206298828125,0.6766
0.24427480916030533,2.9160305343511452,-1.1908396946564885,-0.452392578125,-0.0986328125,-0.21044921875,0.6783
0.42748091603053434,2.6412213740458017,-1.2061068702290076,-0.452880859375,-0.1015625,-0.21142578125,0.6799999999999999
0.6717557251908397,2.732824427480916,-1.0381679389312977,-0.44970703125,-0.09814453125,-0.213134765625,0.6817
0.5343511450381679,2.7480916030534353,-1.1603053435114503,-0.4521484375,-0.097412109375,-0.216796875,0.6834
0.6717557251908397,2.900763358778626,-1.1603053435114503,-0.44873046875,-0.097412109375,-0.213623046875,0.6850999999999999
0.8244274809160306,2.6412213740458017,-1.1145038167938932,-0.44580078125,-0.095947265625,-0.21435546875,0.6868
0.7938931297709924,2.7786259541984735,-0.9923664122137404,-0.451416015625,-0.0986328125,-0.211181640625,0.6885
0.916030534351145,2.763358778625954,-0.8702290076335878,-0.451416015625,-0.093505859375,-0.21630859375,0.6901999999999999
1.0381679389312977,2.8702290076335877,-0.9007633587786259,-0.44384765625,-0.099365234375,-0.22021484375,0.6919
1.099236641221374,2.885496183206107,-0.916030534351145,-0.453369140625,-0.094482421875,-0.213623046875,0.6936
1.1450381679389312,2.7938931297709924,-0.7786259541984732,-0.44384765625,-0.096923828125,-0.2158203125,0.6952999999999999
1.297709923664122,2.931297709923664,-0.6717557251908397,-0.447509765625,-0.092041015625,-0.21826171875,0.697
0.7786259541984732,2.8244274809160306,-0.8396946564885496,-0.45166015625,-0.095703125,-0.213623046875,0.6987
0.8854961832061069,2.7480916030534353,-0.6259541984732825,-0.450439453125,-0.097412109375,-0.210693359375,0.7003999999999999
1.0381679389312977,2.900763358778626,-0.6106870229007634,-0.44775390625,-0.100341796875,-0.2158203125,0.7021
1.251908396946565,2.8396946564885495,-0.5801526717557252,-0.450927734375,-0.094970703125,-0.219970703125,0.7038
1.099236641221374,2.717557251908397,-0.6412213740458015,-0.446533203125,-0.099609375,-0.218994140625,0.7055
1.0381679389312977,2.717557251908397,-0.6564885496183206,-0.4482421875,-0.0986328125,-0.214599609375,0.7071999999999999
1.1450381679389312,2.7938931297709924,-0.7480916030534351,-0.443603515625,-0.09326171875,-0.209228515625,0.7089
1.1450381679389312,2.7938931297709924,-0.7175572519083969,-0.4462890625,-0.098388671875,-0.217529296875,0.7106
1.0229007633587786,2.6564885496183206,-0.6259541984732825,-0.447265625,-0.099853515625,-0.21337890625,0.7122999999999999
0.9770992366412213,2.427480916030534,-0.4732824427480916,-0.441162109375,-0.09716796875,-0.20751953125,0.714
0.9923664122137404,2.33587786259542,-0.5343511450381679,-0.448486328125,-0.0966796875,-0.20849609375,0.7157
1.2213740458015268,2.6564885496183206,-0.5343511450381679,-0.448486328125,-0.1005859375,-0.203857421875,0.7173999999999999
1.2061068702290076,2.3969465648854964,-0.5038167938931297,-0.44580078125,-0.103515625,-0.218017578125,0.7191
1.083969465648855,2.381679389312977,-0.8244274809160306,-0.447021484375,-0.1025390625,-0.2099609375,0.7208
0.916030534351145,2.33587786259542,-0.7633587786259542,-0.445068359375,-0.099853515625,-0.20751953125,0.7224999999999999
0.9465648854961832,2.2442748091603053,-0.5038167938931297,-0.443359375,-0.0986328125,-0.208740234375,0.7242
1.1450381679389312,2.1374045801526718,-0.7022900763358778,-0.444580078125,-0.09814453125,-0.2080078125,0.7259
0.7938931297709924,2.3206106870229006,-0.6106870229007634,-0.44091796875,-0.09814453125,-0.212158203125,0.7275999999999999
0.8549618320610687,2.122137404580153,-0.5648854961832062,-0.439208984375,-0.1025390625,-0.20703125,0.7293
1.0229007633587786,1.9389312977099236,-0.7175572519083969,-0.4404296875,-0.09765625,-0.2109375,0.731
0.9312977099236641,2.045801526717557,-0.6259541984732825,-0.4404296875,-0.09326171875,-0.21142578125,0.7326999999999999
0.8244274809160306,1.9083969465648856,-0.6870229007633588,-0.4375,-0.095458984375,-0.204345703125,0.7343999999999999
0.6412213740458015,1.9236641221374047,-0.4580152671755725,-0.43798828125,-0.093994140625,-0.20703125,0.7361
0.7175572519083969,1.7404580152671756,-0.48854961832061067,-0.44091796875,-0.094482421875,-0.21435546875,0.7378
0.6717557251908397,1.7709923664122138,-0.549618320610687,-0.442138671875,-0.100341796875,-0.20166015625,0.7394999999999999
0.8854961832061069,1.3893129770992367,-0.6412213740458015,-0.4453125,-0.1005859375,-0.210205078125,0.7412
0.7633587786259542,1.3282442748091603,-0.3969465648854962,-0.44384765625,-0.1005859375,-0.21337890625,0.7429
0.6259541984732825,1.3129770992366412,-0.366412213740458,-0.440185546875,-0.09814453125,-0.20458984375,0.7445999999999999
0.5801526717557252,1.1755725190839694,-0.5038167938931297,-0.443115234375,-0.098388671875,-0.2119140625,0.7463
0.8549618320610687,1.0687022900763359,-0.5038167938931297,-0.4423828125,-0.10009765625,-0.211181640625,0.748
0.6259541984732825,0.9312977099236641,-0.32061068702290074,-0.44482421875,-0.091552734375,-0.21240234375,0.7496999999999999
0.6717557251908397,0.9923664122137404,-0.44274809160305345,-0.447265625,-0.103271484375,-0.210693359375,0.7514
0.7175572519083969,1.0076335877862594,-0.3053435114503817,-0.445556640625,-0.097412109375,-0.212890625,0.7531
0.5038167938931297,1.0229007633587786,-0.2595419847328244,-0.4423828125,-0.099853515625,-0.218994140625,0.7547999999999999
0.6259541984732825,1.1145038167938932,-0.16793893129770993,-0.4423828125,-0.098876953125,-0.208251953125,0.7565
0.4732824427480916,1.083969465648855,-0.183206106870229,-0.443359375,-0.0947265625,-0.212890625,0.7582
0.44274809160305345,0.8091603053435115,-0.183206106870229,-0.451416015625,-0.09423828125,-0.213134765625,0.7598999999999999
0.42748091603053434,1.1297709923664123,-0.13740458015267176,-0.447509765625,-0.091552734375,-0.210693359375,0.7615999999999999
0.366412213740458,1.0687022900763359,-0.21374045801526717,-0.45068359375,-0.0888671875,-0.205810546875,0.7633
0.42748091603053434,1.1297709923664123,-0.13740458015267176,-0.447265625,-0.094482421875,-0.212646484375,0.7649999999999999
0.3511450381679389,1.0534351145038168,-0.061068702290076333,-0.4375,-0.095703125,-0.211181640625,0.7666999999999999
0.061068702290076333,1.083969465648855,-0.10687022900763359,-0.447265625,-0.089599609375,-0.211669921875,0.7684
0.2748091603053435,1.2366412213740459,0.10687022900763359,-0.440673828125,-0.086181640625,-0.215087890625,0.7701
0.061068702290076333,1.297709923664122,0.061068702290076333,-0.44482421875,-0.08935546875,-0.207275390625,0.7717999999999999
0.1984732824427481,1.3282442748091603,0.0,-0.447998046875,-0.094482421875,-0.21142578125,0.7735
0.0916030534351145,1.297709923664122,0.15267175572519084,-0.443603515625,-0.096435546875,-0.21923828125,0.7752
-0.2748091603053435,1.3282442748091603,0.1984732824427481,-0.443603515625,-0.093505859375,-0.219970703125,0.7768999999999999
-0.07633587786259542,1.1755725190839694,-0.04580152671755725,-0.439208984375,-0.09228515625,-0.214599609375,0.7786
0.0,1.2671755725190839,0.13740458015267176,-0.445556640625,-0.094482421875,-0.21337890625,0.7803
-0.07633587786259542,1.3435114503816794,-0.030534351145038167,-0.44677734375,-0.09521484375,-0.21435546875,0.7819999999999999
-0.3816793893129771,1.450381679389313,-0.0916030534351145,-0.445068359375,-0.09814453125,-0.224365234375,0.7837
-0.030534351145038167,1.282442748091603,-0.366412213740458,-0.444091796875,-0.09521484375,-0.22021484375,0.7854
-0.04580152671755725,1.3587786259541985,0.030534351145038167,-0.447509765625,-0.09912109375,-0.21875,0.7870999999999999
0.10687022900763359,1.4961832061068703,-0.366412213740458,-0.445556640625,-0.102294921875,-0.218994140625,0.7888
-0.15267175572519084,1.8015267175572518,-0.42748091603053434,-0.44775390625,-0.1025390625,-0.215087890625,0.7905
-0.3053435114503817,1.8015267175572518,-0.6106870229007634,-0.44482421875,-0.104248046875,-0.21484375,0.7921999999999999
0.33587786259541985,1.9236641221374047,-0.7633587786259542,-0.44287109375,-0.105224609375,-0.224365234375,0.7938999999999999
0.1984732824427481,1.984732824427481,-0.7480916030534351,-0.44287109375,-0.103515625,-0.22119140625,0.7956
0.22900763358778625,2.3206106870229006,-0.732824427480916,-0.444091796875,-0.103271484375,-0.22314453125,0.7973
0.5648854961832062,2.198473282442748,-1.0229007633587786,-0.44384765625,-0.1005859375,-0.22265625,0.7989999999999999
0.48854961832061067,2.183206106870229,-1.0076335877862594,-0.44384765625,-0.10595703125,-0.221923828125,0.8007
0.5801526717557252,2.6259541984732824,-1.1297709923664123,-0.44580078125,-0.101318359375,-0.217529296875,0.8024
0.732824427480916,2.4732824427480917,-1.1145038167938932,-0.44677734375,-0.10302734375,-0.228271484375,0.8040999999999999
0.8549618320610687,2.3053435114503817,-1.4351145038167938,-0.45166015625,-0.100830078125,-0.22509765625,0.8058
0.7480916030534351,2.4580152671755724,-1.1755725190839694,-0.44970703125,-0.10107421875,-0.22314453125,0.8075
0.8549618320610687,2.198473282442748,-1.4961832061068703,-0.446044921875,-0.095458984375,-0.227783203125,0.8091999999999999
1.1755725190839694,2.0610687022900764,-1.282442748091603,-0.4482421875,-0.10107421875,-0.21875,0.8109
0.9007633587786259,2.0,-1.450381679389313,-0.449462890625,-0.094970703125,-0.21142578125,0.8126
0.8244274809160306,2.2290076335877864,-1.3587786259541985,-0.453369140625,-0.09423828125,-0.216552734375,0.8142999999999999
0.9770992366412213,1.9694656488549618,-1.3129770992366412,-0.447021484375,-0.093505859375,-0.210693359375,0.816
1.1908396946564885,2.1068702290076335,-1.3129770992366412,-0.44921875,-0.0888671875,-0.218994140625,0.8177
1.2671755725190839,2.0,-1.5419847328244274,-0.448486328125,-0.093017578125,-0.213623046875,0.8193999999999999
1.4351145038167938,1.8625954198473282,-1.2366412213740459,-0.4521484375,-0.09716796875,-0.210693359375,0.8210999999999999
1.3435114503816794,1.7251908396946565,-1.297709923664122,-0.446044921875,-0.091552734375,-0.21337890625,0.8228
1.1145038167938932,1.8473282442748091,-1.0381679389312977,-0.451904296875,-0.08544921875,-0.209228515625,0.8244999999999999
1.4045801526717556,1.6641221374045803,-1.0687022900763359,-0.44970703125,-0.091064453125,-0.2080078125,0.8261999999999999
1.5419847328244274,1.618320610687023,-0.916030534351145,-0.447021484375,-0.0849609375,-0.20751953125,0.8279
1.251908396946565,1.4961832061068703,-0.8549618320610687,-0.44287109375,-0.08984375,-0.208984375,0.8296
1.297709923664122,1.4961832061068703,-0.5801526717557252,-0.4482421875,-0.091796875,-0.201416015625,0.8312999999999999
1.2366412213740459,1.6030534351145038,-0.5954198473282443,-0.45458984375,-0.085205078125,-0.20751953125,0.833
1.3129770992366412,1.2671755725190839,-0.5343511450381679,-0.450439453125,-0.08984375,-0.19970703125,0.8347
1.3587786259541985,1.3129770992366412,-0.4732824427480916,-0.44580078125,-0.09375,-0.206787109375,0.8363999999999999
1.2366412213740459,1.3587786259541985,-0.3969465648854962,-0.44287109375,-0.094970703125,-0.206787109375,0.8381
1.0687022900763359,1.297709923664122,-0.21374045801526717,-0.448974609375,-0.084228515625,-0.212646484375,0.8398
1.3129770992366412,1.0687022900763359,-0.061068702290076333,-0.453857421875,-0.084228515625,-0.209228515625,0.8414999999999999
1.3282442748091603,1.1450381679389312,-0.15267175572519084,-0.4482421875,-0.08837890625,-0.2109375,0.8432
1.1297709923664123,0.916030534351145,-0.0916030534351145,-0.445556640625,-0.091064453125,-0.2138671875,0.8449
1.3740458015267176,0.8854961832061069,0.061068702290076333,-0.45068359375,-0.089599609375,-0.20947265625,0.8465999999999999
1.2366412213740459,0.9618320610687023,-0.13740458015267176,-0.447265625,-0.08740234375,-0.201416015625,0.8482999999999999
0.9618320610687023,0.6717557251908397,0.10687022900763359,-0.448974609375,-0.09326171875,-0.21044921875,0.85
1.3435114503816794,0.6106870229007634,0.366412213740458,-0.44580078125,-0.09912109375,-0.20947265625,0.8516999999999999
1.3587786259541985,0.6717557251908397,-0.04580152671755725,-0.44482421875,-0.100830078125,-0.20849609375,0.8533999999999999
1.0687022900763359,0.5648854961832062,-0.015267175572519083,-0.44580078125,-0.094970703125,-0.2099609375,0.8551
1.4198473282442747,0.5648854961832062,0.10687022900763359,-0.445556640625,-0.0947265625,-0.22021484375,0.8568
1.3435114503816794,0.4580152671755725,-0.10687022900763359,-0.445556640625,-0.100830078125,-0.20654296875,0.8584999999999999
1.0687022900763359,0.3511450381679389,-0.15267175572519084,-0.449462890625,-0.101318359375,-0.212158203125,0.8602
1.251908396946565,0.3816793893129771,0.030534351145038167,-0.45166015625,-0.095947265625,-0.21728515625,0.8619
0.9618320610687023,0.22900763358778625,-0.3053435114503817,-0.443359375,-0.100830078125,-0.21533203125,0.8635999999999999
0.8854961832061069,0.183206106870229,-0.015267175572519083,-0.44775390625,-0.105224609375,-0.207763671875,0.8653
0.7022900763358778,0.22900763358778625,-0.1984732824427481,-0.452392578125,-0.10595703125,-0.221435546875,0.867
0.5038167938931297,0.2900763358778626,-0.22900763358778625,-0.447998046875,-0.1044921875,-0.222412109375,0.8686999999999999
0.13740458015267176,0.3969465648854962,-0.44274809160305345,-0.446533203125,-0.10302734375,-0.22021484375,0.8704
0.10687022900763359,0.48854961832061067,-0.16793893129770993,-0.445556640625,-0.107177734375,-0.2275390625,0.8721
0.061068702290076333,0.7786259541984732,-0.42748091603053434,-0.448486328125,-0.104248046875,-0.2265625,0.8737999999999999
-0.12213740458015267,0.9007633587786259,-0.5038167938931297,-0.447021484375,-0.107177734375,-0.230712890625,0.8755
-0.22900763358778625,0.7022900763358778,-0.6106870229007634,-0.445556640625,-0.10986328125,-0.223876953125,0.8772
-0.5190839694656488,0.8549618320610687,-0.6106870229007634,-0.445068359375,-0.11181640625,-0.225830078125,0.8788999999999999
-0.1984732824427481,1.251908396946565,-0.8244274809160306,-0.450439453125,-0.10791015625,-0.21923828125,0.8805999999999999
-0.21374045801526717,1.1755725190839694,-0.7633587786259542,-0.448486328125,-0.10986328125,-0.231689453125,0.8823
-0.5648854961832062,1.3129770992366412,-1.0687022900763359,-0.449462890625,-0.1015625,-0.221923828125,0.8839999999999999
-0.030534351145038167,1.450381679389313,-0.8549618320610687,-0.44677734375,-0.101806640625,-0.22216796875,0.8856999999999999
-0.3511450381679389,1.297709923664122,-1.2671755725190839,-0.447265625,-0.103515625,-0.225830078125,0.8874
-0.5190839694656488,1.282442748091603,-1.2061068702290076,-0.442138671875,-0.100341796875,-0.219970703125,0.8891
-0.32061068702290074,1.465648854961832,-1.1297709923664123,-0.443115234375,-0.108154296875,-0.218505859375,0.8907999999999999
0.07633587786259542,1.6488549618320612,-0.8549618320610687,-0.441162109375,-0.107666015625,-0.215087890625,0.8925
-0.015267175572519083,1.4351145038167938,-1.297709923664122,-0.451171875,-0.097412109375,-0.22509765625,0.8942
0.21374045801526717,1.5877862595419847,-1.2366412213740459,-0.450439453125,-0.099853515625,-0.22705078125,0.8958999999999999
0.48854961832061067,1.8625954198473282,-1.3282442748091603,-0.448486328125,-0.10009765625,-0.21630859375,0.8976
0.366412213740458,1.7099236641221374,-1.282442748091603,-0.44970703125,-0.095947265625,-0.223876953125,0.8993
0.16793893129770993,1.7251908396946565,-1.2671755725190839,-0.44970703125,-0.1005859375,-0.22216796875,0.9009999999999999
0.1984732824427481,1.816793893129771,-1.1755725190839694,-0.447021484375,-0.092041015625,-0.214599609375,0.9027
0.5648854961832062,1.8015267175572518,-1.1603053435114503,-0.4443359375,-0.0908203125,-0.2158203125,0.9044
0.3969465648854962,1.786259541984733,-1.0381679389312977,-0.445556640625,-0.093994140625,-0.2158203125,0.9060999999999999
0.0916030534351145,1.83206106870229,-1.0381679389312977,-0.447998046875,-0.092529296875,-0.22216796875,0.9077999999999999
0.061068702290076333,1.8473282442748091,-1.0534351145038168,-0.448486328125,-0.09423828125,-0.220458984375,0.9095
0.04580152671755725,2.015267175572519,-1.0381679389312977,-0.441650390625,-0.08935546875,-0.21240234375,0.9111999999999999
-0.15267175572519084,2.0916030534351147,-1.0229007633587786,-0.44384765625,-0.090087890625,-0.212646484375,0.9128999999999999
-0.22900763358778625,2.1374045801526718,-1.1145038167938932,-0.44482421875,-0.090087890625,-0.215576171875,0.9146
-0.3511450381679389,2.183206106870229,-0.9923664122137404,-0.444580078125,-0.0927734375,-0.2099609375,0.9163
-0.5190839694656488,1.9389312977099236,-0.9007633587786259,-0.446044921875,-0.095947265625,-0.202392578125,0.9179999999999999
-0.48854961832061067,1.8473282442748091,-0.8854961832061069,-0.44921875,-0.093017578125,-0.2138671875,0.9197
-0.4122137404580153,1.786259541984733,-0.7175572519083969,-0.44677734375,-0.093505859375,-0.208984375,0.9214
-0.3816793893129771,1.8931297709923665,-0.916030534351145,-0.4375,-0.092041015625,-0.204345703125,0.9230999999999999
-0.1984732824427481,1.9694656488549618,-0.8244274809160306,-0.444091796875,-0.09619140625,-0.212158203125,0.9248
-0.32061068702290074,1.618320610687023,-0.7633587786259542,-0.444580078125,-0.096435546875,-0.202392578125,0.9265
-0.030534351145038167,1.3282442748091603,-0.7175572519083969,-0.446533203125,-0.090087890625,-0.2041015625,0.9281999999999999
0.015267175572519083,1.3740458015267176,-0.5954198473282443,-0.44140625,-0.094970703125,-0.2119140625,0.9299
0.0,1.2213740458015268,-0.6564885496183206,-0.443359375,-0.0908203125,-0.21337890625,0.9316
0.366412213740458,1.083969465648855,-0.7022900763358778,-0.441650390625,-0.087158203125,-0.21240234375,0.9332999999999999
0.549618320610687,1.0229007633587786,-0.5954198473282443,-0.44482421875,-0.092041015625,-0.2119140625,0.9349999999999999
0.3511450381679389,0.7480916030534351,-0.7022900763358778,-0.44580078125,-0.091552734375,-0.211181640625,0.9367
0.5954198473282443,0.732824427480916,-0.7175572519083969,-0.44580078125,-0.09130859375,-0.21142578125,0.9383999999999999
0.5343511450381679,0.6412213740458015,-0.48854961832061067,-0.443359375,-0.091552734375,-0.211669921875,0.9400999999999999
0.5190839694656488,0.7786259541984732,-0.6564885496183206,-0.44287109375,-0.087890625,-0.21044921875,0.9418
0.6564885496183206,0.732824427480916,-0.5343511450381679,-0.4462890625,-0.092041015625,-0.209228515625,0.9434999999999999
0.7175572519083969,0.5801526717557252,-0.6412213740458015,-0.44482421875,-0.090576171875,-0.2197265625,0.9451999999999999
0.7786259541984732,0.549618320610687,-0.7175572519083969,-0.4443359375,-0.087158203125,-0.2099609375,0.9469
0.6870229007633588,0.6106870229007634,-0.4580152671755725,-0.442626953125,-0.093505859375,-0.203369140625,0.9486
0.9923664122137404,0.48854961832061067,-0.6259541984732825,-0.447265625,-0.085693359375,-0.208984375,0.9502999999999999
0.9312977099236641,0.5190839694656488,-0.6870229007633588,-0.4453125,-0.095458984375,-0.218017578125,0.952
1.0534351145038168,0.44274809160305345,-0.4580152671755725,-0.44921875,-0.094482421875,-0.2236328125,0.9537
0.9618320610687023,0.33587786259541985,-0.3816793893129771,-0.44921875,-0.093017578125,-0.21630859375,0.9553999999999999
0.9618320610687023,0.549618320610687,-0.42748091603053434,-0.4453125,-0.091796875,-0.220703125,0.9571
0.8702290076335878,0.4732824427480916,-0.2748091603053435,-0.450439453125,-0.087158203125,-0.21728515625,0.9588
1.1297709923664123,0.549618320610687,-0.4732824427480916,-0.447509765625,-0.08935546875,-0.2216796875,0.9604999999999999
0.9923664122137404,0.6259541984732825,-0.22900763358778625,-0.450927734375,-0.096923828125,-0.216552734375,0.9621999999999999
1.099236641221374,0.9618320610687023,-0.4580152671755725,-0.44873046875,-0.095458984375,-0.217529296875,0.9639
0.9923664122137404,1.1145038167938932,-0.4732824427480916,-0.44775390625,-0.098876953125,-0.215576171875,0.9655999999999999
0.8091603053435115,1.083969465648855,-0.6259541984732825,-0.451904296875,-0.102783203125,-0.221435546875,0.9672999999999999
0.8549618320610687,1.3129770992366412,-0.366412213740458,-0.447265625,-0.09912109375,-0.229248046875,0.969
1.0229007633587786,1.6030534351145038,-0.44274809160305345,-0.447021484375,-0.095703125,-0.220947265625,0.9706999999999999
1.2061068702290076,1.633587786259542,-0.5801526717557252,-0.45068359375,-0.09765625,-0.2197265625,0.9723999999999999
0.9618320610687023,1.618320610687023,-0.7480916030534351,-0.44189453125,-0.09912109375,-0.223388671875,0.9741
1.1450381679389312,1.8625954198473282,-0.6870229007633588,-0.446533203125,-0.10302734375,-0.224609375,0.9758
1.251908396946565,1.816793893129771,-0.916030534351145,-0.443603515625,-0.10595703125,-0.230712890625,0.9774999999999999
1.1908396946564885,1.9694656488549618,-1.0229007633587786,-0.445556640625,-0.100830078125,-0.223388671875,0.9792
1.3282442748091603,1.6946564885496183,-0.9618320610687023,-0.447265625,-0.104248046875,-0.220947265625,0.9809
1.4961832061068703,1.7404580152671756,-1.0381679389312977,-0.448486328125,-0.104736328125,-0.220703125,0.9825999999999999
1.4351145038167938,2.1068702290076335,-1.1603053435114503,-0.451416015625,-0.103271484375,-0.22509765625,0.9843
1.3129770992366412,2.2290076335877864,-1.2366412213740459,-0.44970703125,-0.103271484375,-0.22802734375,0.986
1.450381679389313,2.2290076335877864,-1.3435114503816794,-0.4453125,-0.099853515625,-0.2265625,0.9876999999999999
1.2061068702290076,2.0763358778625953,-1.2213740458015268,-0.44921875,-0.10302734375,-0.21826171875,0.9894
1.2213740458015268,2.0763358778625953,-1.297709923664122,-0.4423828125,-0.096923828125,-0.22265625,0.9911
1.2366412213740459,2.0763358778625953,-1.099236641221374,-0.44970703125,-0.103759765625,-0.2197265625,0.9927999999999999
1.3435114503816794,2.183206106870229,-1.2213740458015268,-0.452880859375,-0.095947265625,-0.216064453125,0.9944999999999999
1.4961832061068703,2.183206106870229,-0.9923664122137404,-0.448486328125,-0.094970703125,-0.214599609375,0.9962
1.0687022900763359,2.213740458015267,-0.9923664122137404,-0.44873046875,-0.096435546875,-0.222900390625,0.9978999999999999
1.2061068702290076,2.2290076335877864,-1.2366412213740459,-0.44677734375,-0.095947265625,-0.218994140625,0.9995999999999999
1.3740458015267176,2.0763358778625953,-1.1297709923664123,-0.447998046875,-0.091796875,-0.21337890625,1.0012999999999999
1.2366412213740459,2.0916030534351147,-0.6259541984732825,-0.44775390625,-0.093017578125,-0.216064453125,1.003
1.2366412213740459,2.030534351145038,-1.083969465648855,-0.448974609375,-0.095703125,-0.210693359375,1.0047
1.1908396946564885,2.030534351145038,-0.8091603053435115,-0.44775390625,-0.09375,-0.20947265625,1.0064
1.1603053435114503,2.0763358778625953,-0.6870229007633588,-0.448486328125,-0.091796875,-0.21826171875,1.0081
1.1145038167938932,1.9541984732824427,-0.5801526717557252,-0.44677734375,-0.0908203125,-0.20263671875,1.0098
1.0687022900763359,1.7557251908396947,-0.7480916030534351,-0.44677734375,-0.090087890625,-0.20458984375,1.0114999999999998
1.3129770992366412,1.5877862595419847,-0.1984732824427481,-0.4501953125,-0.086669921875,-0.21044921875,1.0131999999999999
1.0687022900763359,1.5114503816793894,-0.44274809160305345,-0.44287109375,-0.083740234375,-0.216552734375,1.0149
0.916030534351145,1.7099236641221374,-0.2595419847328244,-0.44970703125,-0.08544921875,-0.203369140625,1.0166
0.8396946564885496,1.5877862595419847,-0.42748091603053434,-0.4462890625,-0.0927734375,-0.207275390625,1.0183
0.732824427480916,1.3740458015267176,-0.44274809160305345,-0.44970703125,-0.09033203125,-0.21044921875,1.02
0.3511450381679389,1.3435114503816794,-0.183206106870229,-0.44775390625,-0.0888671875,-0.216552734375,1.0217
0.48854961832061067,1.3129770992366412,-0.015267175572519083,-0.442138671875,-0.09619140625,-0.204345703125,1.0233999999999999
0.42748091603053434,1.2366412213740459,-0.13740458015267176,-0.446533203125,-0.09423828125,-0.212646484375,1.0251
0.15267175572519084,1.3893129770992367,-0.12213740458015267,-0.445068359375,-0.09375,-0.220947265625,1.0268
0.3511450381679389,1.083969465648855,-0.24427480916030533,-0.442626953125,-0.0927734375,-0.21337890625,1.0285
0.4732824427480916,1.099236641221374,-0.16793893129770993,-0.44482421875,-0.09326171875,-0.205078125,1.0302
0.24427480916030533,0.9312977099236641,-0.0916030534351145,-0.43994140625,-0.09619140625,-0.21044921875,1.0319
0.2595419847328244,0.9618320610687023,-0.015267175572519083,-0.442626953125,-0.09521484375,-0.21630859375,1.0335999999999999
0.5648854961832062,0.7786259541984732,-0.22900763358778625,-0.448974609375,-0.095947265625,-0.2119140625,1.0352999999999999
0.44274809160305345,0.6870229007633588,-0.15267175572519084,-0.4423828125,-0.096923828125,-0.21923828125,1.037
0.5954198473282443,0.8396946564885496,0.061068702290076333,-0.4462890625,-0.0947265625,-0.220458984375,1.0387
0.6564885496183206,0.7786259541984732,0.0,-0.44482421875,-0.0966796875,-0.2138671875,1.0404
0.5954198473282443,0.5801526717557252,-0.22900763358778625,-0.444091796875,-0.099609375,-0.21826171875,1.0421
0.7786259541984732,0.8702290076335878,0.030534351145038167,-0.444091796875,-0.099365234375,-0.218994140625,1.0437999999999998
0.7480916030534351,0.9312977099236641,-0.183206106870229,-0.446044921875,-0.099853515625,-0.217041015625,1.0454999999999999
0.6259541984732825,0.732824427480916,-0.16793893129770993,-0.4443359375,-0.099609375,-0.216552734375,1.0472
0.916030534351145,0.8396946564885496,-0.4732824427480916,-0.4462890625,-0.101318359375,-0.211669921875,1.0489
0.7786259541984732,0.9465648854961832,-0.16793893129770993,-0.441650390625,-0.10302734375,-0.2158203125,1.0506
0.7786259541984732,0.9312977099236641,-0.3969465648854962,-0.44482421875,-0.09619140625,-0.21484375,1.0523
0.5954198473282443,0.9465648854961832,-0.3511450381679389,-0.44287109375,-0.097900390625,-0.21630859375,1.054
0.8244274809160306,0.8244274809160306,-0.5343511450381679,-0.44482421875,-0.09716796875,-0.222412109375,1.0556999999999999
0.8091603053435115,0.8854961832061069,-0.3053435114503817,-0.443359375,-0.09716796875,-0.21875,1.0574
0.6717557251908397,1.099236641221374,-0.44274809160305345,-0.442138671875,-0.096923828125,-0.210693359375,1.0591
0.5648854961832062,0.8549618320610687,-0.32061068702290074,-0.4404296875,-0.097900390625,-0.218505859375,1.0608
0.3969465648854962,0.7480916030534351,-0.5343511450381679,-0.4453125,-0.09814453125,-0.218994140625,1.0625
0.33587786259541985,0.8702290076335878,-0.5801526717557252,-0.447021484375,-0.10205078125,-0.22119140625,1.0642
0.5343511450381679,1.0229007633587786,-0.5954198473282443,-0.450439453125,-0.098388671875,-0.218017578125,1.0658999999999998
0.13740458015267176,0.7022900763358778,-0.5954198473282443,-0.445556640625,-0.097900390625,-0.22412109375,1.0675999999999999
0.24427480916030533,1.0687022900763359,-0.6412213740458015,-0.445068359375,-0.09521484375,-0.23388671875,1.0693
0.12213740458015267,1.0687022900763359,-0.7786259541984732,-0.44775390625,-0.093017578125,-0.229736328125,1.071
0.0,1.1908396946564885,-0.8702290076335878,-0.449462890625,-0.097412109375,-0.229248046875,1.0727
0.030534351145038167,1.3740458015267176,-0.7480916030534351,-0.442626953125,-0.095703125,-0.221923828125,1.0744
0.0,1.3740458015267176,-0.7786259541984732,-0.4501953125,-0.097900390625,-0.21630859375,1.0760999999999998
0.061068702290076333,1.3893129770992367,-0.7786259541984732,-0.448486328125,-0.09619140625,-0.2080078125,1.0777999999999999
0.07633587786259542,1.4351145038167938,-1.1297709923664123,-0.4482421875,-0.09326171875,-0.2216796875,1.0795
0.04580152671755725,1.3282442748091603,-0.916030534351145,-0.4443359375,-0.095947265625,-0.21826171875,1.0812
0.04580152671755725,1.83206106870229,-1.0534351145038168,-0.44287109375,-0.095458984375,-0.22314453125,1.0829
0.183206106870229,1.8625954198473282,-0.9465648854961832,-0.44677734375,-0.09765625,-0.2216796875,1.0846
0.2748091603053435,1.83206106870229,-1.1755725190839694,-0.44775390625,-0.094970703125,-0.2158203125,1.0863
0.1984732824427481,1.8778625954198473,-1.1755725190839694,-0.4482421875,-0.094482421875,-0.220703125,1.0879999999999999
0.3816793893129771,2.015267175572519,-1.1603053435114503,-0.45166015625,-0.094482421875,-0.215576171875,1.0897
0.8549618320610687,2.16793893129771,-1.083969465648855,-0.445556640625,-0.097900390625,-0.215576171875,1.0914
0.7633587786259542,2.16793893129771,-1.1297709923664123,-0.444580078125,-0.099853515625,-0.21875,1.0931
0.6717557251908397,1.9389312977099236,-1.1145038167938932,-0.4453125,-0.09521484375,-0.217529296875,1.0948
0.8396946564885496,1.9541984732824427,-1.083969465648855,-0.447265625,-0.0908203125,-0.219482421875,1.0965
0.8854961832061069,1.8931297709923665,-1.0687022900763359,-0.445556640625,-0.088623046875,-0.210693359375,1.0981999999999998
0.9618320610687023,1.8778625954198473,-1.282442748091603,-0.445556640625,-0.09423828125,-0.215087890625,1.0998999999999999
1.083969465648855,1.83206106870229,-1.099236641221374,-0.447021484375,-0.089599609375,-0.21826171875,1.1016
1.2366412213740459,1.9694656488549618,-0.9618320610687023,-0.4462890625,-0.092041015625,-0.21630859375,1.1033
1.0381679389312977,1.786259541984733,-0.8091603053435115,-0.451416015625,-0.096923828125,-0.216064453125,1.105
1.4045801526717556,1.7251908396946565,-0.916030534351145,-0.446533203125,-0.095458984375,-0.207763671875,1.1067
1.4351145038167938,1.8015267175572518,-0.9007633587786259,-0.448486328125,-0.0927734375,-0.21435546875,1.1083999999999998
1.282442748091603,1.8931297709923665,-0.9923664122137404,-0.447998046875,-0.092529296875,-0.21337890625,1.1100999999999999
1.1755725190839694,1.6488549618320612,-0.9312977099236641,-0.44970703125,-0.0927734375,-0.208984375,1.1118
1.1450381679389312,1.6641221374045803,-0.7480916030534351,-0.450439453125,-0.098388671875,-0.218505859375,1.1135
1.2213740458015268,1.6030534351145038,-0.7786259541984732,-0.44873046875,-0.09375,-0.2138671875,1.1152
1.282442748091603,1.6946564885496183,-0.7633587786259542,-0.4521484375,-0.088134765625,-0.212646484375,1.1169
1.4045801526717556,1.5572519083969465,-0.5648854961832062,-0.44970703125,-0.0966796875,-0.21337890625,1.1186
1.0229007633587786,1.5725190839694656,-0.8396946564885496,-0.447998046875,-0.0927734375,-0.207275390625,1.1202999999999999
1.0534351145038168,1.7251908396946565,-1.0076335877862594,-0.450439453125,-0.095458984375,-0.205322265625,1.1219999999999999
1.2213740458015268,1.8625954198473282,-0.7938931297709924,-0.449951171875,-0.093017578125,-0.20458984375,1.1237
1.1450381679389312,1.6641221374045803,-0.7633587786259542,-0.443603515625,-0.095458984375,-0.22021484375,1.1254
0.9923664122137404,1.5725190839694656,-0.5801526717557252,-0.4501953125,-0.0947265625,-0.221435546875,1.1271
1.1450381679389312,1.6488549618320612,-0.7786259541984732,-0.445556640625,-0.094482421875,-0.212646484375,1.1288
1.297709923664122,1.618320610687023,-0.7938931297709924,-0.4423828125,-0.09130859375,-0.204833984375,1.1304999999999998
1.3587786259541985,1.4198473282442747,-0.48854961832061067,-0.44677734375,-0.094970703125,-0.210205078125,1.1321999999999999
1.251908396946565,1.3893129770992367,-0.6870229007633588,-0.44970703125,-0.093994140625,-0.212646484375,1.1339
1.3129770992366412,1.251908396946565,-0.6717557251908397,-0.443359375,-0.099853515625,-0.2177734375,1.1356
1.4961832061068703,1.083969465648855,-0.7938931297709924,-0.447021484375,-0.09375,-0.21435546875,1.1373
1.083969465648855,1.083969465648855,-0.6106870229007634,-0.450927734375,-0.092041015625,-0.215087890625,1.139
1.1603053435114503,0.9312977099236641,-0.44274809160305345,-0.43994140625,-0.09033203125,-0.217529296875,1.1407
1.2671755725190839,0.8549618320610687,-0.5343511450381679,-0.448974609375,-0.0927734375,-0.21044921875,1.1423999999999999
1.2366412213740459,0.8091603053435115,-0.7022900763358778,-0.4501953125,-0.092041015625,-0.21630859375,1.1441
1.2366412213740459,0.916030534351145,-0.4122137404580153,-0.449462890625,-0.096435546875,-0.21240234375,1.1458
1.0076335877862594,0.8702290076335878,-0.3969465648854962,-0.4443359375,-0.095703125,-0.210205078125,1.1475
1.083969465648855,0.8854961832061069,-0.3511450381679389,-0.446533203125,-0.09326171875,-0.212158203125,1.1492
0.7022900763358778,1.0687022900763359,-0.6106870229007634,-0.444580078125,-0.09326171875,-0.212158203125,1.1509
1.1297709923664123,1.2213740458015268,-0.6259541984732825,-0.445556640625,-0.09765625,-0.209716796875,1.1525999999999998
0.8396946564885496,1.1145038167938932,-0.5801526717557252,-0.447509765625,-0.096435546875,-0.222412109375,1.1542999999999999
0.6870229007633588,1.0534351145038168,-0.6564885496183206,-0.450439453125,-0.097412109375,-0.2177734375,1.156
0.6564885496183206,1.1297709923664123,-0.6564885496183206,-0.4453125,-0.0966796875,-0.223876953125,1.1577
0.5648854961832062,1.1297709923664123,-0.732824427480916,-0.447998046875,-0.099609375,-0.217041015625,1.1594
0.5190839694656488,1.3435114503816794,-0.6412213740458015,-0.45068359375,-0.099609375,-0.217529296875,1.1611
0.5801526717557252,1.1297709923664123,-0.7633587786259542,-0.4521484375,-0.099609375,-0.220947265625,1.1627999999999998
0.6717557251908397,1.083969465648855,-0.8396946564885496,-0.44384765625,-0.094482421875,-0.221435546875,1.1644999999999999
0.44274809160305345,1.1603053435114503,-0.8396946564885496,-0.4482421875,-0.096923828125,-0.219482421875,1.1662
0.3816793893129771,1.282442748091603,-0.8854961832061069,-0.446533203125,-0.099365234375,-0.22021484375,1.1679
0.3969465648854962,1.1603053435114503,-0.7786259541984732,-0.447998046875,-0.094482421875,-0.216796875,1.1696
0.42748091603053434,0.7633587786259542,-0.5343511450381679,-0.446533203125,-0.10009765625,-0.217529296875,1.1713
0.3816793893129771,0.916030534351145,-0.9923664122137404,-0.44580078125,-0.094970703125,-0.214599609375,1.173
0.22900763358778625,1.0534351145038168,-0.9465648854961832,-0.446044921875,-0.095703125,-0.214599609375,1.1746999999999999
0.0916030534351145,0.7480916030534351,-0.9465648854961832,-0.445068359375,-0.100341796875,-0.2158203125,1.1764
0.0916030534351145,0.9618320610687023,-1.0076335877862594,-0.448486328125,-0.103271484375,-0.2080078125,1.1781
0.07633587786259542,0.9465648854961832,-0.8549618320610687,-0.447021484375,-0.0966796875,-0.21337890625,1.1798
0.2900763358778626,0.7786259541984732,-0.916030534351145,-0.44775390625,-0.0966796875,-0.21630859375,1.1815
0.015267175572519083,0.7938931297709924,-0.8091603053435115,-0.449462890625,-0.09228515625,-0.21533203125,1.1832
0.04580152671755725,0.9007633587786259,-0.8396946564885496,-0.4501953125,-0.09814453125,-0.21630859375,1.1848999999999998
0.12213740458015267,0.9465648854961832,-0.8854961832061069,-0.44677734375,-0.09326171875,-0.21044921875,1.1865999999999999
-0.030534351145038167,0.8854961832061069,-0.9465648854961832,-0.4462890625,-0.08984375,-0.215576171875,1.1883
-0.07633587786259542,0.7175572519083969,-0.9312977099236641,-0.444091796875,-0.095458984375,-0.20703125,1.19
-0.16793893129770993,0.8702290076335878,-0.8549618320610687,-0.447265625,-0.0966796875,-0.210205078125,1.1917
0.10687022900763359,0.9618320610687023,-0.7633587786259542,-0.449462890625,-0.091796875,-0.218017578125,1.1934
0.3816793893129771,0.732824427480916,-0.6870229007633588,-0.446044921875,-0.09375,-0.213134765625,1.1950999999999998
0.183206106870229,0.6259541984732825,-0.8702290076335878,-0.446044921875,-0.097900390625,-0.206298828125,1.1967999999999999
0.183206106870229,0.9007633587786259,-0.8244274809160306,-0.448486328125,-0.0908203125,-0.216064453125,1.1985
0.2595419847328244,0.6564885496183206,-0.916030534351145,-0.4462890625,-0.093994140625,-0.21923828125,1.2002
0.16793893129770993,0.8854961832061069,-0.7938931297709924,-0.444580078125,-0.097412109375,-0.21435546875,1.2019
0.32061068702290074,0.8091603053435115,-0.9465648854961832,-0.449951171875,-0.08984375,-0.2099609375,1.2036
0.32061068702290074,0.9007633587786259,-0.9465648854961832,-0.4501953125,-0.08544921875,-0.211669921875,1.2053
0.366412213740458,1.0687022900763359,-1.083969465648855,-0.453125,-0.092041015625,-0.217041015625,1.2069999999999999
0.42748091603053434,0.9618320610687023,-1.0381679389312977,-0.448486328125,-0.089599609375,-0.21728515625,1.2086999999999999
0.6106870229007634,1.1755725190839694,-1.1603053435114503,-0.449462890625,-0.09423828125,-0.22021484375,1.2104
0.7786259541984732,1.1908396946564885,-1.0687022900763359,-0.44677734375,-0.09375,-0.213134765625,1.2121
0.4580152671755725,1.099236641221374,-0.9923664122137404,-0.445068359375,-0.093017578125,-0.21142578125,1.2138
0.549618320610687,1.083969465648855,-1.1603053435114503,-0.445556640625,-0.090087890625,-0.21044921875,1.2155
0.9465648854961832,1.1297709923664123,-1.0687022900763359,-0.447509765625,-0.090576171875,-0.220458984375,1.2171999999999998
0.5190839694656488,1.2061068702290076,-1.0687022900763359,-0.448974609375,-0.09130859375,-0.217041015625,1.2188999999999999
0.549618320610687,1.1297709923664123,-1.1297709923664123,-0.44873046875,-0.09521484375,-0.211181640625,1.2206
0.5954198473282443,1.251908396946565,-0.9923664122137404,-0.446044921875,-0.094970703125,-0.216796875,1.2223
0.6259541984732825,1.297709923664122,-1.3282442748091603,-0.447509765625,-0.09423828125,-0.2216796875,1.224
0.8702290076335878,1.251908396946565,-1.0076335877862594,-0.44580078125,-0.092041015625,-0.224609375,1.2257
0.6870229007633588,0.9770992366412213,-1.1450381679389312,-0.445556640625,-0.091552734375,-0.214599609375,1.2273999999999998
0.916030534351145,1.1145038167938932,-1.1297709923664123,-0.45166015625,-0.088134765625,-0.22119140625,1.2290999999999999
0.8396946564885496,0.9923664122137404,-1.2671755725190839,-0.448486328125,-0.09423828125,-0.222412109375,1.2308
0.9007633587786259,1.1908396946564885,-1.1908396946564885,-0.443359375,-0.0966796875,-0.221923828125,1.2325
0.916030534351145,1.2671755725190839,-1.2366412213740459,-0.446044921875,-0.09765625,-0.214111328125,1.2342
0.9923664122137404,1.1908396946564885,-1.1603053435114503,-0.4462890625,-0.095703125,-0.21240234375,1.2359
1.1755725190839694,0.7938931297709924,-1.297709923664122,-0.44921875,-0.0947265625,-0.220947265625,1.2376
1.099236641221374,0.9007633587786259,-1.2213740458015268,-0.44482421875,-0.09765625,-0.22216796875,1.2392999999999998
1.2061068702290076,1.083969465648855,-1.297709923664122,-0.448486328125,-0.092041015625,-0.21435546875,1.2409999999999999
1.3435114503816794,0.916030534351145,-1.0229007633587786,-0.4453125,-0.0986328125,-0.2099609375,1.2427
1.3282442748091603,0.8244274809160306,-1.1297709923664123,-0.4482421875,-0.099853515625,-0.213623046875,1.2444
1.1145038167938932,0.9923664122137404,-1.2213740458015268,-0.447998046875,-0.0966796875,-0.220703125,1.2461
1.0229007633587786,1.0076335877862594,-1.0229007633587786,-0.45166015625,-0.09130859375,-0.217041015625,1.2478
0.8854961832061069,0.9770992366412213,-0.9007633587786259,-0.451416015625,-0.093505859375,-0.215576171875,1.2494999999999998
0.8396946564885496,0.8244274809160306,-1.0076335877862594,-0.4521484375,-0.09228515625,-0.21826171875,1.2511999999999999
0.8244274809160306,1.0687022900763359,-1.1908396946564885,-0.448974609375,-0.0986328125,-0.2177734375,1.2529
0.6259541984732825,1.2061068702290076,-1.1297709923664123,-0.45068359375,-0.09033203125,-0.211181640625,1.2546
0.6259541984732825,0.9618320610687023,-0.9923664122137404,-0.439697265625,-0.09716796875,-0.211669921875,1.2563
0.5038167938931297,0.8702290076335878,-0.9465648854961832,-0.44921875,-0.097900390625,-0.212646484375,1.258
0.4732824427480916,0.9465648854961832,-1.0534351145038168,-0.450439453125,-0.09228515625,-0.21435546875,1.2596999999999998
0.3969465648854962,1.0076335877862594,-0.9312977099236641,-0.44775390625,-0.0947265625,-0.210693359375,1.2613999999999999
0.5801526717557252,0.9923664122137404,-1.0076335877862594,-0.447265625,-0.097412109375,-0.2197265625,1.2631
0.48854961832061067,0.7938931297709924,-1.0076335877862594,-0.446044921875,-0.09228515625,-0.22509765625,1.2648
0.42748091603053434,0.732824427480916,-0.9618320610687023,-0.452392578125,-0.092529296875,-0.204345703125,1.2665
0.5190839694656488,0.732824427480916,-1.0687022900763359,-0.447998046875,-0.092041015625,-0.20751953125,1.2682
0.42748091603053434,0.732824427480916,-0.9618320610687023,-0.45068359375,-0.09716796875,-0.2109375,1.2699
0.5954198473282443,0.9007633587786259,-1.099236641221374,-0.4482421875,-0.09375,-0.216796875,1.2715999999999998
0.6412213740458015,0.7786259541984732,-0.916030534351145,-0.447021484375,-0.08935546875,-0.215087890625,1.2732999999999999
0.6717557251908397,0.6106870229007634,-1.1908396946564885,-0.442626953125,-0.095458984375,-0.2060546875,1.275
0.5190839694656488,0.6412213740458015,-1.099236641221374,-0.44873046875,-0.091552734375,-0.218994140625,1.2767
0.7938931297709924,0.5648854961832062,-1.297709923664122,-0.44384765625,-0.090576171875,-0.216064453125,1.2784
0.8091603053435115,0.5648854961832062,-1.0381679389312977,-0.44580078125,-0.0966796875,-0.2060546875,1.2801
0.7022900763358778,0.8702290076335878,-1.1603053435114503,-0.443359375,-0.091064453125,-0.218994140625,1.2817999999999998
0.7786259541984732,0.732824427480916,-0.9770992366412213,-0.44140625,-0.0927734375,-0.21630859375,1.2834999999999999
0.6412213740458015,0.7786259541984732,-1.0229007633587786,-0.448974609375,-0.09375,-0.220703125,1.2852
0.7175572519083969,0.7480916030534351,-1.1145038167938932,-0.446044921875,-0.09521484375,-0.213134765625,1.2869
0.7786259541984732,0.8244274809160306,-0.8854961832061069,-0.44775390625,-0.09375,-0.20458984375,1.2886
0.7786259541984732,1.1145038167938932,-0.8854961832061069,-0.447998046875,-0.087646484375,-0.212890625,1.2903
1.0534351145038168,0.9618320610687023,-0.8244274809160306,-0.4462890625,-0.093505859375,-0.220947265625,1.292
0.7786259541984732,1.0687022900763359,-0.6717557251908397,-0.44384765625,-0.09521484375,-0.21875,1.2936999999999999
0.7480916030534351,1.1603053435114503,-0.8549618320610687,-0.445556640625,-0.095458984375,-0.208740234375,1.2953999999999999
0.7175572519083969,1.083969465648855,-0.9770992366412213,-0.44775390625,-0.09423828125,-0.2177734375,1.2971
0.8396946564885496,1.1908396946564885,-0.9312977099236641,-0.447021484375,-0.095458984375,-0.225830078125,1.2988
0.6564885496183206,1.0381679389312977,-0.8244274809160306,-0.449462890625,-0.0927734375,-0.218505859375,1.3005
0.6412213740458015,1.251908396946565,-1.0687022900763359,-0.449951171875,-0.091796875,-0.220947265625,1.3022
0.6870229007633588,1.099236641221374,-0.7022900763358778,-0.448974609375,-0.09375,-0.218994140625,1.3038999999999998
0.6564885496183206,1.2213740458015268,-0.916030534351145,-0.44677734375,-0.098388671875,-0.215576171875,1.3055999999999999
0.5190839694656488,1.0534351145038168,-0.8091603053435115,-0.445068359375,-0.096923828125,-0.2236328125,1.3073
0.6259541984732825,1.099236641221374,-0.9312977099236641,-0.447021484375,-0.095703125,-0.213623046875,1.309
0.8549618320610687,1.2213740458015268,-0.916030534351145,-0.4462890625,-0.09521484375,-0.219482421875,1.3107
0.7480916030534351,1.1603053435114503,-0.9618320610687023,-0.447021484375,-0.09521484375,-0.213623046875,1.3124
0.6259541984732825,1.2061068702290076,-0.6717557251908397,-0.447509765625,-0.095703125,-0.218017578125,1.3140999999999998
0.5801526717557252,0.9312977099236641,-0.8549618320610687,-0.445556640625,-0.095947265625,-0.21142578125,1.3157999999999999
0.7633587786259542,0.8702290076335878,-0.8702290076335878,-0.446533203125,-0.091796875,-0.210693359375,1.3175
0.5038167938931297,0.9770992366412213,-0.8702290076335878,-0.44921875,-0.09228515625,-0.21875,1.3192
0.6106870229007634,0.8854961832061069,-0.8244274809160306,-0.4453125,-0.0908203125,-0.22021484375,1.3209
0.7633587786259542,0.9465648854961832,-0.7480916030534351,-0.4423828125,-0.08984375,-0.217041015625,1.3226
0.9007633587786259,0.8549618320610687,-0.8091603053435115,-0.445068359375,-0.095458984375,-0.20849609375,1.3243
0.8091603053435115,0.9923664122137404,-0.7633587786259542,-0.445556640625,-0.09326171875,-0.217041015625,1.3259999999999998
0.5954198473282443,0.916030534351145,-0.8549618320610687,-0.445556640625,-0.09228515625,-0.214111328125,1.3276999999999999
0.7786259541984732,0.8244274809160306,-0.9465648854961832,-0.44384765625,-0.0947265625,-0.21484375,1.3294
0.732824427480916,0.8854961832061069,-0.7786259541984732,-0.445556640625,-0.095947265625,-0.214599609375,1.3311
0.7175572519083969,0.7175572519083969,-0.7633587786259542,-0.447998046875,-0.097900390625,-0.21337890625,1.3328
0.8091603053435115,0.9465648854961832,-0.6259541984732825,-0.44775390625,-0.09814453125,-0.2158203125,1.3345
0.5801526717557252,0.732824427480916,-0.9923664122137404,-0.44775390625,-0.097412109375,-0.205810546875,1.3361999999999998
0.5038167938931297,0.8549618320610687,-0.9770992366412213,-0.44384765625,-0.10107421875,-0.2109375,1.3378999999999999
0.366412213740458,0.732824427480916,-0.8854961832061069,-0.4384765625,-0.09716796875,-0.208740234375,1.3396
0.2900763358778626,0.6717557251908397,-0.7633587786259542,-0.439453125,-0.091552734375,-0.2119140625,1.3413
0.04580152671755725,0.6412213740458015,-0.8854961832061069,-0.44384765625,-0.0908203125,-0.206787109375,1.343
0.030534351145038167,0.5038167938931297,-0.8396946564885496,-0.441650390625,-0.090087890625,-0.202392578125,1.3447
0.0916030534351145,0.6106870229007634,-1.0076335877862594,-0.44287109375,-0.0908203125,-0.212158203125,1.3463999999999998
-0.04580152671755725,0.5343511450381679,-0.732824427480916,-0.439453125,-0.095703125,-0.212158203125,1.3480999999999999
-0.15267175572519084,0.9618320610687023,-0.5801526717557252,-0.445556640625,-0.0966796875,-0.213623046875,1.3497999999999999
-0.061068702290076333,0.6564885496183206,-0.7480916030534351,-0.4482421875,-0.09375,-0.21044921875,1.3515
-0.2595419847328244,0.6106870229007634,-0.916030534351145,-0.44921875,-0.09130859375,-0.212890625,1.3532
0.030534351145038167,0.7633587786259542,-0.7786259541984732,-0.45263671875,-0.09130859375,-0.21728515625,1.3549
0.15267175572519084,0.9465648854961832,-0.7938931297709924,-0.4501953125,-0.0947265625,-0.213623046875,1.3566
0.0,0.7480916030534351,-0.6259541984732825,-0.4423828125,-0.09375,-0.22314453125,1.3582999999999998
0.183206106870229,0.6412213740458015,-0.5343511450381679,-0.44287109375,-0.094482421875,-0.215576171875,1.3599999999999999
0.2900763358778626,0.5648854961832062,-0.5648854961832062,-0.44775390625,-0.084228515625,-0.21533203125,1.3617
0.6412213740458015,0.9007633587786259,-0.5038167938931297,-0.44970703125,-0.082275390625,-0.214111328125,1.3634
0.549618320610687,0.7786259541984732,-0.48854961832061067,-0.4482421875,-0.091552734375,-0.217529296875,1.3651
0.7480916030534351,0.6106870229007634,-0.5801526717557252,-0.44580078125,-0.092041015625,-0.220947265625,1.3668
0.6870229007633588,0.549618320610687,-0.6564885496183206,-0.445068359375,-0.09423828125,-0.2197265625,1.3684999999999998
0.7480916030534351,0.5801526717557252,-0.5190839694656488,-0.447998046875,-0.086669921875,-0.21435546875,1.3701999999999999
0.8702290076335878,0.5954198473282443,-0.3053435114503817,-0.447509765625,-0.091796875,-0.222900390625,1.3719
1.0534351145038168,0.6259541984732825,-0.3969465648854962,-0.44873046875,-0.090576171875,-0.216552734375,1.3736
1.0687022900763359,0.6259541984732825,-0.5038167938931297,-0.441162109375,-0.09130859375,-0.212158203125,1.3753
1.083969465648855,0.6412213740458015,-0.3969465648854962,-0.443603515625,-0.088134765625,-0.220458984375,1.377
0.5648854961832062,0.7938931297709924,-0.6564885496183206,-0.44921875,-0.087890625,-0.222900390625,1.3786999999999998
0.9465648854961832,0.6259541984732825,-0.5801526717557252,-0.44970703125,-0.09423828125,-0.21044921875,1.3803999999999998
1.0076335877862594,0.8702290076335878,-0.5038167938931297,-0.45458984375,-0.09521484375,-0.2177734375,1.3820999999999999
1.1603053435114503,0.6870229007633588,-0.5954198473282443,-0.44189453125,-0.09521484375,-0.20703125,1.3838
0.8854961832061069,0.7633587786259542,-0.549618320610687,-0.44677734375,-0.091064453125,-0.213623046875,1.3855
0.7938931297709924,0.9770992366412213,-0.3816793893129771,-0.45263671875,-0.095703125,-0.216552734375,1.3872
1.0076335877862594,0.9007633587786259,-0.33587786259541985,-0.448974609375,-0.095703125,-0.2177734375,1.3889
0.7938931297709924,1.0687022900763359,-0.6412213740458015,-0.456298828125,-0.098388671875,-0.21337890625,1.3905999999999998
0.9465648854961832,1.1755725190839694,-0.5648854961832062,-0.44775390625,-0.09814453125,-0.2236328125,1.3922999999999999
0.7022900763358778,0.9770992366412213,-0.32061068702290074,-0.456298828125,-0.095703125,-0.216064453125,1.394
0.5801526717557252,0.9770992366412213,-0.42748091603053434,-0.456298828125,-0.095703125,-0.21484375,1.3957
0.916030534351145,1.2366412213740459,-0.3816793893129771,-0.45361328125,-0.09619140625,-0.2080078125,1.3974
0.6870229007633588,1.1755725190839694,-0.6259541984732825,-0.453125,-0.09228515625,-0.218994140625,1.3991
0.6259541984732825,1.1603053435114503,-0.5343511450381679,-0.444580078125,-0.09130859375,-0.225341796875,1.4007999999999998
0.916030534351145,1.1603053435114503,-0.48854961832061067,-0.44482421875,-0.094482421875,-0.216064453125,1.4024999999999999
0.8702290076335878,1.1297709923664123,-0.549618320610687,-0.448974609375,-0.09423828125,-0.21484375,1.4042
0.7480916030534351,1.1908396946564885,-0.6870229007633588,-0.44873046875,-0.096435546875,-0.216552734375,1.4059
0.9465648854961832,1.083969465648855,-0.5648854961832062,-0.445556640625,-0.09814453125,-0.21142578125,1.4076
1.1755725190839694,0.8854961832061069,-0.7022900763358778,-0.453369140625,-0.096435546875,-0.211181640625,1.4093
1.1603053435114503,0.8396946564885496,-0.6870229007633588,-0.452392578125,-0.098388671875,-0.22265625,1.411
1.1908396946564885,0.8854961832061069,-0.7938931297709924,-0.453857421875,-0.1025390625,-0.213623046875,1.4126999999999998
1.1603053435114503,0.7633587786259542,-0.366412213740458,-0.4501953125,-0.0927734375,-0.218505859375,1.4143999999999999
1.0687022900763359,0.7633587786259542,-0.6412213740458015,-0.45458984375,-0.090576171875,-0.224365234375,1.4161
1.3282442748091603,0.8244274809160306,-0.6106870229007634,-0.44873046875,-0.091796875,-0.217529296875,1.4178
1.2671755725190839,0.6106870229007634,-0.8396946564885496,-0.453857421875,-0.095947265625,-0.215087890625,1.4195
1.3740458015267176,0.7022900763358778,-0.5343511450381679,-0.456298828125,-0.09716796875,-0.218994140625,1.4212
1.5114503816793894,0.9465648854961832,-0.7633587786259542,-0.447509765625,-0.092529296875,-0.2099609375,1.4228999999999998
1.5725190839694656,1.0229007633587786,-0.549618320610687,-0.447509765625,-0.0927734375,-0.217041015625,1.4245999999999999
1.3282442748091603,1.0687022900763359,-0.48854961832061067,-0.4560546875,-0.09033203125,-0.2080078125,1.4263
1.3893129770992367,1.099236641221374,-0.4580152671755725,-0.454345703125,-0.093017578125,-0.214111328125,1.428
1.5725190839694656,1.297709923664122,-0.7633587786259542,-0.451904296875,-0.08837890625,-0.21484375,1.4297
1.3587786259541985,1.3587786259541985,-0.5190839694656488,-0.445068359375,-0.0927734375,-0.210693359375,1.4314
1.3282442748091603,1.3435114503816794,-0.732824427480916,-0.447998046875,-0.0888671875,-0.21240234375,1.4330999999999998
1.4809160305343512,1.2213740458015268,-0.5190839694656488,-0.43994140625,-0.093994140625,-0.2138671875,1.4347999999999999
1.4045801526717556,1.3587786259541985,-0.732824427480916,-0.447998046875,-0.09326171875,-0.229248046875,1.4364999999999999
1.2671755725190839,1.4809160305343512,-0.5801526717557252,-0.442138671875,-0.09326171875,-0.21875,1.4382
1.1450381679389312,1.3587786259541985,-0.48854961832061067,-0.452392578125,-0.0947265625,-0.210205078125,1.4399
1.2671755725190839,1.4198473282442747,-0.48854961832061067,-0.453857421875,-0.0927734375,-0.214111328125,1.4416
1.297709923664122,1.251908396946565,-0.5190839694656488,-0.44970703125,-0.091064453125,-0.216064453125,1.4433
1.2366412213740459,1.282442748091603,-0.4580152671755725,-0.4482421875,-0.093994140625,-0.22314453125,1.4449999999999998
0.9770992366412213,1.3282442748091603,-0.5954198473282443,-0.447021484375,-0.091796875,-0.222900390625,1.4466999999999999
1.1908396946564885,1.297709923664122,-0.44274809160305345,-0.448486328125,-0.09326171875,-0.21484375,1.4484
1.3129770992366412,1.1755725190839694,-0.5190839694656488,-0.450439453125,-0.090576171875,-0.22021484375,1.4501
1.0687022900763359,1.251908396946565,-0.4732824427480916,-0.443603515625,-0.086669921875,-0.220458984375,1.4518
0.9007633587786259,1.2671755725190839,-0.48854961832061067,-0.44287109375,-0.0908203125,-0.212158203125,1.4535
0.9770992366412213,1.2366412213740459,-0.3969465648854962,-0.4453125,-0.088134765625,-0.216552734375,1.4551999999999998
1.1145038167938932,1.1603053435114503,-0.6717557251908397,-0.44287109375,-0.09423828125,-0.219970703125,1.4568999999999999
1.1297709923664123,1.4198473282442747,-0.5343511450381679,-0.44921875,-0.09326171875,-0.22314453125,1.4586
1.0381679389312977,1.1755725190839694,-0.6564885496183206,-0.44677734375,-0.097412109375,-0.21484375,1.4603
1.1145038167938932,1.1450381679389312,-0.7022900763358778,-0.443603515625,-0.091552734375,-0.21142578125,1.462
1.2061068702290076,1.2671755725190839,-0.6564885496183206,-0.44091796875,-0.095703125,-0.220947265625,1.4637
1.4045801526717556,1.083969465648855,-0.6717557251908397,-0.44677734375,-0.092041015625,-0.223388671875,1.4653999999999998
1.0687022900763359,1.1450381679389312,-0.6870229007633588,-0.446533203125,-0.10205078125,-0.21435546875,1.4670999999999998
1.0229007633587786,1.2671755725190839,-0.6717557251908397,-0.44091796875,-0.0947265625,-0.214111328125,1.4687999999999999
1.1908396946564885,1.1908396946564885,-0.8549618320610687,-0.4482421875,-0.0966796875,-0.215087890625,1.4705
1.251908396946565,1.3893129770992367,-0.6412213740458015,-0.449462890625,-0.100830078125,-0.210205078125,1.4722
1.2671755725190839,1.4809160305343512,-0.8549618320610687,-0.447998046875,-0.094482421875,-0.21044921875,1.4739
1.2213740458015268,1.3435114503816794,-0.7633587786259542,-0.44482421875,-0.092529296875,-0.21533203125,1.4756
1.2366412213740459,1.4045801526717556,-0.9465648854961832,-0.444580078125,-0.09375,-0.2138671875,1.4772999999999998
1.2061068702290076,1.4045801526717556,-0.9465648854961832,-0.443115234375,-0.097900390625,-0.2158203125,1.4789999999999999
1.2671755725190839,1.3282442748091603,-0.9312977099236641,-0.4462890625,-0.097412109375,-0.216064453125,1.4807
1.1297709923664123,1.6030534351145038,-0.9618320610687023,-0.4453125,-0.094970703125,-0.212158203125,1.4824
1.083969465648855,1.4351145038167938,-1.1908396946564885,-0.4453125,-0.089599609375,-0.218994140625,1.4841
1.0687022900763359,1.465648854961832,-0.8549618320610687,-0.447509765625,-0.08984375,-0.219482421875,1.4858
0.732824427480916,1.4961832061068703,-1.0534351145038168,-0.446044921875,-0.09619140625,-0.2265625,1.4874999999999998
0.8702290076335878,1.3740458015267176,-1.0076335877862594,-0.446044921875,-0.087890625,-0.217041015625,1.4891999999999999
1.0687022900763359,1.5114503816793894,-0.9618320610687023,-0.44677734375,-0.08984375,-0.217529296875,1.4909
0.916030534351145,1.4961832061068703,-0.8244274809160306,-0.44677734375,-0.089599609375,-0.209228515625,1.4926
0.7022900763358778,1.450381679389313,-0.9007633587786259,-0.447509765625,-0.087158203125,-0.216796875,1.4943
0.5954198473282443,1.3435114503816794,-0.916030534351145,-0.44775390625,-0.0869140625,-0.21484375,1.496
0.7633587786259542,1.3435114503816794,-0.732824427480916,-0.45068359375,-0.09130859375,-0.213134765625,1.4976999999999998
0.5801526717557252,1.297709923664122,-0.6106870229007634,-0.447509765625,-0.08935546875,-0.2265625,1.4993999999999998
0.6717557251908397,1.3435114503816794,-0.6412213740458015,-0.44873046875,-0.088623046875,-0.2138671875,1.5010999999999999
0.6412213740458015,1.2061068702290076,-0.5954198473282443,-0.4462890625,-0.0927734375,-0.216796875,1.5028
0.732824427480916,1.0229007633587786,-0.6412213740458015,-0.447509765625,-0.093017578125,-0.218505859375,1.5045
0.4732824427480916,1.1603053435114503,-0.4122137404580153,-0.447998046875,-0.092529296875,-0.208984375,1.5062
0.5648854961832062,1.1603053435114503,-0.48854961832061067,-0.447998046875,-0.09423828125,-0.212158203125,1.5079
0.7175572519083969,0.9465648854961832,-0.42748091603053434,-0.44677734375,-0.092041015625,-0.212890625,1.5095999999999998
0.5648854961832062,1.099236641221374,-0.6259541984732825,-0.446044921875,-0.094970703125,-0.215576171875,1.5112999999999999
0.6717557251908397,1.1145038167938932,-0.3969465648854962,-0.448486328125,-0.094482421875,-0.217529296875,1.513
0.8702290076335878,1.3282442748091603,-0.5343511450381679,-0.448486328125,-0.092041015625,-0.2138671875,1.5147
0.4580152671755725,1.3282442748091603,-0.5343511450381679,-0.447509765625,-0.091796875,-0.213134765625,1.5164
0.6870229007633588,1.0381679389312977,-0.5190839694656488,-0.446044921875,-0.090576171875,-0.212646484375,1.5181
0.5343511450381679,1.083969465648855,-0.7480916030534351,-0.44921875,-0.093017578125,-0.21044921875,1.5197999999999998
0.366412213740458,1.2671755725190839,-0.5801526717557252,-0.447998046875,-0.092529296875,-0.20703125,1.5214999999999999
0.3816793893129771,1.3129770992366412,-0.5190839694656488,-0.447998046875,-0.094482421875,-0.21923828125,1.5231999999999999
0.6259541984732825,1.1145038167938932,-0.7022900763358778,-0.444580078125,-0.093994140625,-0.215576171875,1.5249
0.366412213740458,1.0534351145038168,-0.5801526717557252,-0.443603515625,-0.09228515625,-0.214111328125,1.5266
0.4122137404580153,1.1908396946564885,-0.6259541984732825,-0.447021484375,-0.0927734375,-0.211669921875,1.5283
0.5190839694656488,1.1908396946564885,-0.732824427480916,-0.451171875,-0.09521484375,-0.20458984375,1.5299999999999998
0.42748091603053434,1.3129770992366412,-0.8549618320610687,-0.4482421875,-0.09326171875,-0.2109375,1.5316999999999998
0.3816793893129771,1.1297709923664123,-0.8854961832061069,-0.451171875,-0.09375,-0.217529296875,1.5333999999999999
0.3969465648854962,1.0381679389312977,-0.8549618320610687,-0.448486328125,-0.090576171875,-0.2158203125,1.5351
0.32061068702290074,1.282442748091603,-0.7938931297709924,-0.443359375,-0.088623046875,-0.2158203125,1.5368
0.3053435114503817,1.2061068702290076,-0.7633587786259542,-0.440185546875,-0.09130859375,-0.22216796875,1.5385
0.183206106870229,1.1450381679389312,-0.9007633587786259,-0.447998046875,-0.09521484375,-0.218994140625,1.5402
0.3053435114503817,1.1145038167938932,-0.9923664122137404,-0.446533203125,-0.09716796875,-0.21826171875,1.5418999999999998
0.2900763358778626,1.1145038167938932,-1.0381679389312977,-0.44873046875,-0.094482421875,-0.218505859375,1.5435999999999999
0.2748091603053435,0.9007633587786259,-1.083969465648855,-0.4423828125,-0.093017578125,-0.223876953125,1.5453
0.15267175572519084,1.0534351145038168,-1.099236641221374,-0.445068359375,-0.083984375,-0.220458984375,1.547
0.12213740458015267,1.1145038167938932,-1.1755725190839694,-0.451904296875,-0.0947265625,-0.22021484375,1.5487
0.5954198473282443,1.1755725190839694,-1.2213740458015268,-0.44970703125,-0.092529296875,-0.218994140625,1.5504
0.2900763358778626,1.2213740458015268,-1.1145038167938932,-0.44970703125,-0.092041015625,-0.215087890625,1.5520999999999998
0.21374045801526717,1.1908396946564885,-1.1603053435114503,-0.449462890625,-0.09375,-0.217529296875,1.5537999999999998
0.32061068702290074,1.1450381679389312,-1.3129770992366412,-0.44873046875,-0.094970703125,-0.218505859375,1.5554999999999999
0.3053435114503817,1.3587786259541985,-1.1603053435114503,-0.44677734375,-0.09912109375,-0.212890625,1.5572
0.3816793893129771,1.4961832061068703,-1.0534351145038168,-0.44677734375,-0.096435546875,-0.216796875,1.5589
0.6259541984732825,1.3587786259541985,-1.297709923664122,-0.450439453125,-0.097900390625,-0.2197265625,1.5606
0.5190839694656488,1.465648854961832,-1.0381679389312977,-0.44580078125,-0.090087890625,-0.22509765625,1.5623
0.5343511450381679,1.4045801526717556,-0.9923664122137404,-0.445556640625,-0.090087890625,-0.223876953125,1.5639999999999998
0.5038167938931297,1.7709923664122138,-1.0534351145038168,-0.4501953125,-0.08935546875,-0.20751953125,1.5656999999999999
0.7938931297709924,1.633587786259542,-1.2671755725190839,-0.451416015625,-0.090087890625,-0.2216796875,1.5674
0.8396946564885496,1.6030534351145038,-1.1755725190839694,-0.44970703125,-0.091552734375,-0.2216796875,1.5691
0.7480916030534351,1.6488549618320612,-1.1755725190839694,-0.44921875,-0.09326171875,-0.220703125,1.5708
0.6870229007633588,1.8625954198473282,-1.251908396946565,-0.44970703125,-0.086181640625,-0.206787109375,1.5725
0.6870229007633588,1.8015267175572518,-1.2366412213740459,-0.4501953125,-0.091064453125,-0.213134765625,1.5741999999999998
0.8396946564885496,1.4961832061068703,-1.3435114503816794,-0.447509765625,-0.09033203125,-0.21923828125,1.5758999999999999
0.7480916030534351,1.5114503816793894,-1.3282442748091603,-0.44921875,-0.09423828125,-0.2236328125,1.5776
0.732824427480916,1.618320610687023,-1.2061068702290076,-0.451171875,-0.0888671875,-0.214111328125,1.5793
0.7022900763358778,1.6946564885496183,-1.4045801526717556,-0.45068359375,-0.093017578125,-0.21533203125,1.581
0.7022900763358778,1.6793893129770991,-1.1908396946564885,-0.44970703125,-0.085693359375,-0.22412109375,1.5827
0.8702290076335878,1.6946564885496183,-1.0534351145038168,-0.4501953125,-0.091552734375,-0.221435546875,1.5843999999999998
0.8549618320610687,1.5114503816793894,-1.2213740458015268,-0.450927734375,-0.08984375,-0.209716796875,1.5860999999999998
0.9618320610687023,1.4351145038167938,-1.2213740458015268,-0.4521484375,-0.086669921875,-0.21044921875,1.5877999999999999
0.7786259541984732,1.7251908396946565,-1.099236641221374,-0.4423828125,-0.0888671875,-0.2109375,1.5895
1.083969465648855,1.6641221374045803,-1.0687022900763359,-0.44384765625,-0.0888671875,-0.203369140625,1.5912
1.083969465648855,1.5725190839694656,-0.9770992366412213,-0.4541015625,-0.092041015625,-0.21240234375,1.5929
1.0076335877862594,1.5419847328244274,-1.1603053435114503,-0.449462890625,-0.091064453125,-0.217529296875,1.5946
1.0381679389312977,1.3129770992366412,-1.0534351145038168,-0.447265625,-0.085693359375,-0.207763671875,1.5962999999999998
0.8091603053435115,1.5114503816793894,-1.1450381679389312,-0.448486328125,-0.087646484375,-0.210693359375,1.5979999999999999
0.9312977099236641,1.633587786259542,-1.0534351145038168,-0.447021484375,-0.09130859375,-0.21240234375,1.5997
0.7633587786259542,1.3282442748091603,-0.8702290076335878,-0.451171875,-0.08447265625,-0.213623046875,1.6014
0.6564885496183206,1.2061068702290076,-0.8244274809160306,-0.443115234375,-0.0859375,-0.21044921875,1.6031
0.8702290076335878,1.2671755725190839,-0.9923664122137404,-0.4453125,-0.08984375,-0.2119140625,1.6048
0.6717557251908397,1.3129770992366412,-0.9312977099236641,-0.451171875,-0.0908203125,-0.212890625,1.6064999999999998
0.6106870229007634,1.2061068702290076,-0.9618320610687023,-0.450927734375,-0.091064453125,-0.214111328125,1.6081999999999999
0.5954198473282443,0.9923664122137404,-0.7480916030534351,-0.445068359375,-0.09326171875,-0.20849609375,1.6098999999999999
0.48854961832061067,1.2213740458015268,-0.8702290076335878,-0.448486328125,-0.088623046875,-0.21728515625,1.6116
0.6717557251908397,1.1297709923664123,-1.0534351145038168,-0.440185546875,-0.087890625,-0.2099609375,1.6133
0.5038167938931297,0.9770992366412213,-1.1603053435114503,-0.445556640625,-0.092041015625,-0.220458984375,1.615
0.5343511450381679,1.0687022900763359,-1.1297709923664123,-0.446044921875,-0.093017578125,-0.211669921875,1.6166999999999998
0.44274809160305345,1.1603053435114503,-1.1297709923664123,-0.44384765625,-0.092041015625,-0.20849609375,1.6183999999999998
0.4732824427480916,1.083969465648855,-1.0076335877862594,-0.44677734375,-0.089599609375,-0.206787109375,1.6200999999999999
0.5648854961832062,0.7175572519083969,-1.1755725190839694,-0.445068359375,-0.100341796875,-0.210693359375,1.6218
0.6717557251908397,0.9618320610687023,-1.1755725190839694,-0.440673828125,-0.0947265625,-0.21923828125,1.6235
0.44274809160305345,0.8702290076335878,-1.4351145038167938,-0.440673828125,-0.09521484375,-0.219482421875,1.6252
0.5190839694656488,0.8396946564885496,-1.251908396946565,-0.44677734375,-0.09375,-0.211669921875,1.6269
0.549618320610687,1.0229007633587786,-1.282442748091603,-0.442138671875,-0.0966796875,-0.21044921875,1.6285999999999998
0.44274809160305345,0.9465648854961832,-1.3282442748091603,-0.43896484375,-0.095947265625,-0.208984375,1.6302999999999999
0.3969465648854962,0.9312977099236641,-1.3740458015267176,-0.445556640625,-0.093017578125,-0.219482421875,1.632
0.42748091603053434,0.9923664122137404,-1.3282442748091603,-0.43994140625,-0.093017578125,-0.22314453125,1.6337
0.21374045801526717,0.9465648854961832,-1.3587786259541985,-0.441162109375,-0.092529296875,-0.2158203125,1.6354
0.32061068702290074,1.0229007633587786,-1.465648854961832,-0.440673828125,-0.09375,-0.220703125,1.6371
0.24427480916030533,1.1450381679389312,-1.4198473282442747,-0.449951171875,-0.096923828125,-0.217041015625,1.6387999999999998
0.1984732824427481,1.1755725190839694,-1.297709923664122,-0.449462890625,-0.094482421875,-0.23193359375,1.6404999999999998
0.4122137404580153,1.297709923664122,-1.6488549618320612,-0.448486328125,-0.0908203125,-0.229736328125,1.6421999999999999
0.12213740458015267,1.1297709923664123,-1.4045801526717556,-0.447998046875,-0.09423828125,-0.22607421875,1.6439
0.015267175572519083,1.3893129770992367,-1.5114503816793894,-0.450927734375,-0.09521484375,-0.2236328125,1.6456
0.10687022900763359,1.5114503816793894,-1.3435114503816794,-0.447998046875,-0.09619140625,-0.223876953125,1.6473
0.32061068702290074,1.6030534351145038,-1.5114503816793894,-0.454345703125,-0.08984375,-0.21923828125,1.6489999999999998
0.21374045801526717,1.6641221374045803,-1.4045801526717556,-0.442626953125,-0.092529296875,-0.22607421875,1.6506999999999998
0.21374045801526717,1.618320610687023,-1.4045801526717556,-0.44775390625,-0.09130859375,-0.220703125,1.6523999999999999
0.15267175572519084,1.8931297709923665,-1.1603053435114503,-0.445556640625,-0.087158203125,-0.215087890625,1.6541
0.16793893129770993,1.7251908396946565,-1.3282442748091603,-0.445068359375,-0.09619140625,-0.2021484375,1.6558
0.2900763358778626,1.5419847328244274,-1.3129770992366412,-0.445068359375,-0.09521484375,-0.218017578125,1.6575
0.24427480916030533,1.4198473282442747,-1.4045801526717556,-0.449462890625,-0.09033203125,-0.21630859375,1.6592
0.22900763358778625,1.4198473282442747,-1.1755725190839694,-0.44970703125,-0.09326171875,-0.213623046875,1.6608999999999998
0.030534351145038167,1.3893129770992367,-1.1450381679389312,-0.45263671875,-0.09375,-0.2158203125,1.6625999999999999
-0.04580152671755725,1.2366412213740459,-1.099236641221374,-0.452392578125,-0.09130859375,-0.213623046875,1.6643
-0.0916030534351145,1.1450381679389312,-1.4351145038167938,-0.449462890625,-0.0908203125,-0.21484375,1.666
-0.04580152671755725,1.2061068702290076,-1.1755725190839694,-0.449951171875,-0.09423828125,-0.213134765625,1.6677
-0.061068702290076333,1.3435114503816794,-1.282442748091603,-0.4482421875,-0.094482421875,-0.218017578125,1.6694
-0.015267175572519083,0.8854961832061069,-1.2061068702290076,-0.447509765625,-0.094970703125,-0.208251953125,1.6710999999999998
-0.07633587786259542,1.1908396946564885,-1.297709923664122,-0.4501953125,-0.09326171875,-0.2109375,1.6727999999999998
-0.2748091603053435,1.1450381679389312,-1.083969465648855,-0.45263671875,-0.0927734375,-0.208984375,1.6744999999999999
-0.22900763358778625,0.9312977099236641,-1.251908396946565,-0.44580078125,-0.096435546875,-0.2099609375,1.6762
-0.2900763358778626,0.9618320610687023,-1.2213740458015268,-0.445068359375,-0.08740234375,-0.21142578125,1.6779
-0.2595419847328244,1.0076335877862594,-1.2366412213740459,-0.449951171875,-0.09326171875,-0.219970703125,1.6796
-0.2900763358778626,0.9618320610687023,-1.3129770992366412,-0.44970703125,-0.092529296875,-0.21875,1.6813
-0.5648854961832062,0.9923664122137404,-1.2213740458015268,-0.447998046875,-0.09619140625,-0.21337890625,1.6829999999999998
-0.5190839694656488,0.9618320610687023,-1.099236641221374,-0.44970703125,-0.08447265625,-0.21484375,1.6846999999999999
-0.4732824427480916,1.0534351145038168,-1.2671755725190839,-0.44921875,-0.090576171875,-0.208251953125,1.6864
-0.3816793893129771,0.8549618320610687,-1.2671755725190839,-0.45263671875,-0.08837890625,-0.21630859375,1.6881
-0.6259541984732825,0.7480916030534351,-1.282442748091603,-0.44970703125,-0.089599609375,-0.211181640625,1.6898
-0.732824427480916,0.6412213740458015,-0.9465648854961832,-0.4462890625,-0.0908203125,-0.208740234375,1.6915
-0.5801526717557252,0.8396946564885496,-1.0534351145038168,-0.44482421875,-0.0888671875,-0.209228515625,1.6931999999999998
-0.42748091603053434,0.7175572519083969,-1.1145038167938932,-0.446044921875,-0.08984375,-0.21923828125,1.6948999999999999
-0.5648854961832062,0.6564885496183206,-1.2061068702290076,-0.44775390625,-0.0927734375,-0.228271484375,1.6965999999999999
-0.6259541984732825,0.4580152671755725,-0.8549618320610687,-0.444091796875,-0.087646484375,-0.216796875,1.6983
-0.4732824427480916,0.6106870229007634,-0.8091603053435115,-0.445556640625,-0.090087890625,-0.20947265625,1.7
-0.24427480916030533,0.6564885496183206,-0.9618320610687023,-0.4501953125,-0.0927734375,-0.214111328125,1.7017
-0.3969465648854962,0.5648854961832062,-0.7938931297709924,-0.44677734375,-0.086669921875,-0.21337890625,1.7033999999999998
-0.6870229007633588,0.4732824427480916,-0.6259541984732825,-0.447998046875,-0.0869140625,-0.223876953125,1.7050999999999998
-0.0916030534351145,0.6870229007633588,-0.916030534351145,-0.45263671875,-0.088623046875,-0.212158203125,1.7067999999999999
0.030534351145038167,0.8091603053435115,-0.8702290076335878,-0.44921875,-0.089111328125,-0.215576171875,1.7085
-0.1984732824427481,0.7480916030534351,-0.6259541984732825,-0.44775390625,-0.091552734375,-0.219970703125,1.7102
0.22900763358778625,0.8549618320610687,-0.7786259541984732,-0.448486328125,-0.09033203125,-0.215576171875,1.7119
0.22900763358778625,0.8702290076335878,-0.7175572519083969,-0.4453125,-0.086669921875,-0.22021484375,1.7136
0.3816793893129771,0.9923664122137404,-0.5801526717557252,-0.447265625,-0.088134765625,-0.218505859375,1.7152999999999998
0.3969465648854962,0.9770992366412213,-0.7022900763358778,-0.448486328125,-0.092529296875,-0.2177734375,1.7169999999999999
0.5038167938931297,1.1755725190839694,-0.5190839694656488,-0.451171875,-0.09326171875,-0.218505859375,1.7187
0.5038167938931297,1.0687022900763359,-0.732824427480916,-0.45263671875,-0.0908203125,-0.218994140625,1.7204
0.5648854961832062,1.1145038167938932,-0.7938931297709924,-0.44677734375,-0.091552734375,-0.22021484375,1.7221
0.732824427480916,1.1145038167938932,-0.6564885496183206,-0.448486328125,-0.09033203125,-0.215087890625,1.7238
0.7022900763358778,1.2213740458015268,-0.5801526717557252,-0.447265625,-0.0908203125,-0.224609375,1.7254999999999998
0.5038167938931297,1.3282442748091603,-0.7022900763358778,-0.443603515625,-0.090576171875,-0.224853515625,1.7271999999999998
0.6870229007633588,1.2366412213740459,-0.6106870229007634,-0.45068359375,-0.098876953125,-0.219482421875,1.7288999999999999
0.6412213740458015,1.251908396946565,-0.8091603053435115,-0.447021484375,-0.095458984375,-0.220458984375,1.7306
0.48854961832061067,1.282442748091603,-0.8854961832061069,-0.44775390625,-0.10009765625,-0.22412109375,1.7323
0.42748091603053434,1.3435114503816794,-1.0076335877862594,-0.447998046875,-0.095947265625,-0.2236328125,1.734
0.42748091603053434,1.465648854961832,-1.1297709923664123,-0.44775390625,-0.10302734375,-0.21728515625,1.7356999999999998
0.366412213740458,1.7404580152671756,-1.0229007633587786,-0.44775390625,-0.103515625,-0.222900390625,1.7373999999999998
0.16793893129770993,1.8778625954198473,-1.2213740458015268,-0.447265625,-0.10107421875,-0.2275390625,1.7390999999999999
0.33587786259541985,1.984732824427481,-1.5419847328244274,-0.44970703125,-0.09814453125,-0.227783203125,1.7408
0.0,2.0916030534351147,-1.465648854961832,-0.447265625,-0.102783203125,-0.22412109375,1.7425
-0.1984732824427481,2.213740458015267,-1.6641221374045803,-0.447509765625,-0.107666015625,-0.22216796875,1.7442
-0.0916030534351145,2.2442748091603053,-1.9083969465648856,-0.44677734375,-0.10205078125,-0.23095703125,1.7459
-0.3053435114503817,2.5801526717557253,-1.7251908396946565,-0.4501953125,-0.099365234375,-0.222900390625,1.7475999999999998
-0.21374045801526717,2.6259541984732824,-1.984732824427481,-0.44970703125,-0.103515625,-0.2197265625,1.7492999999999999
-0.3053435114503817,2.33587786259542,-2.0916030534351147,-0.449462890625,-0.10498046875,-0.21630859375,1.751
-0.16793893129770993,2.6717557251908395,-2.1068702290076335,-0.44775390625,-0.09814453125,-0.21435546875,1.7527
-0.15267175572519084,2.6717557251908395,-2.2748091603053435,-0.44775390625,-0.1015625,-0.2197265625,1.7544
-0.13740458015267176,2.763358778625954,-2.2290076335877864,-0.45166015625,-0.099365234375,-0.2255859375,1.7561
-0.1984732824427481,2.519083969465649,-2.33587786259542,-0.447021484375,-0.1015625,-0.2216796875,1.7577999999999998
-0.2748091603053435,2.6717557251908395,-2.1526717557251906,-0.453125,-0.100341796875,-0.222900390625,1.7594999999999998
-0.183206106870229,2.6564885496183206,-2.3206106870229006,-0.44970703125,-0.09912109375,-0.22265625,1.7611999999999999
-0.2900763358778626,2.6106870229007635,-2.4732824427480917,-0.446533203125,-0.09716796875,-0.220947265625,1.7629
-0.183206106870229,2.7022900763358777,-2.3206106870229006,-0.447998046875,-0.095947265625,-0.21630859375,1.7646
-0.1984732824427481,2.6412213740458017,-2.0916030534351147,-0.447021484375,-0.091064453125,-0.21484375,1.7663
-0.32061068702290074,2.6259541984732824,-2.1374045801526718,-0.44482421875,-0.094970703125,-0.212890625,1.7679999999999998
-0.04580152671755725,2.2595419847328246,-2.0916030534351147,-0.451171875,-0.09619140625,-0.214599609375,1.7696999999999998
-0.183206106870229,2.1526717557251906,-2.030534351145038,-0.445556640625,-0.092041015625,-0.218017578125,1.7713999999999999
-0.183206106870229,2.1374045801526718,-2.1526717557251906,-0.44189453125,-0.090087890625,-0.217041015625,1.7731
-0.15267175572519084,1.8931297709923665,-2.0763358778625953,-0.447998046875,-0.0830078125,-0.206787109375,1.7748
-0.15267175572519084,1.8778625954198473,-1.7709923664122138,-0.44921875,-0.08837890625,-0.206298828125,1.7765
-0.10687022900763359,1.7251908396946565,-1.633587786259542,-0.44873046875,-0.089111328125,-0.2080078125,1.7782
-0.32061068702290074,1.816793893129771,-1.7709923664122138,-0.447265625,-0.088134765625,-0.208251953125,1.7798999999999998
-0.4580152671755725,1.4045801526717556,-1.6946564885496183,-0.44775390625,-0.090576171875,-0.210693359375,1.7815999999999999
-0.6259541984732825,1.5572519083969465,-1.465648854961832,-0.446044921875,-0.0869140625,-0.20947265625,1.7832999999999999
-0.5954198473282443,1.633587786259542,-1.5877862595419847,-0.44775390625,-0.090576171875,-0.197021484375,1.785
