gyrox1,gyroy1,gyroz1,accelx1,accely1,accelz1,Time
0.6717557251908397,4.473282442748092,-1.3282442748091603,-0.40966796875,-0.04736328125,-0.32421875,0.0
0.4580152671755725,4.595419847328245,-1.1297709923664123,-0.4130859375,-0.050048828125,-0.328369140625,0.0017
0.6564885496183206,4.748091603053435,-1.3129770992366412,-0.4072265625,-0.048828125,-0.336669921875,0.0034
0.7175572519083969,4.656488549618321,-1.2213740458015268,-0.407470703125,-0.050537109375,-0.337646484375,0.0050999999999999995
0.6717557251908397,4.412213740458015,-1.3129770992366412,-0.4052734375,-0.04541015625,-0.32861328125,0.0068
0.6412213740458015,4.396946564885496,-1.282442748091603,-0.40478515625,-0.04931640625,-0.334716796875,0.008499999999999999
0.7938931297709924,4.396946564885496,-1.465648854961832,-0.40234375,-0.04931640625,-0.332275390625,0.010199999999999999
0.7786259541984732,4.396946564885496,-1.297709923664122,-0.4033203125,-0.05078125,-0.32763671875,0.011899999999999999
0.7786259541984732,4.305343511450381,-1.450381679389313,-0.40283203125,-0.05126953125,-0.33056640625,0.0136
0.6870229007633588,4.427480916030534,-1.3893129770992367,-0.39697265625,-0.046630859375,-0.3310546875,0.0153
0.8244274809160306,4.366412213740458,-1.5572519083969465,-0.401123046875,-0.04833984375,-0.33642578125,0.016999999999999998
1.0381679389312977,4.3816793893129775,-1.3435114503816794,-0.40576171875,-0.052490234375,-0.3359375,0.018699999999999998
0.6717557251908397,4.076335877862595,-1.5877862595419847,-0.399169921875,-0.051513671875,-0.33056640625,0.020399999999999998
0.6717557251908397,4.122137404580153,-1.5114503816793894,-0.399658203125,-0.048828125,-0.318603515625,0.022099999999999998
0.9465648854961832,3.816793893129771,-1.450381679389313,-0.398681640625,-0.0458984375,-0.335205078125,0.023799999999999998
0.8244274809160306,3.6946564885496183,-1.297709923664122,-0.40283203125,-0.0498046875,-0.335205078125,0.0255
0.7633587786259542,3.5572519083969465,-1.5114503816793894,-0.400634765625,-0.049560546875,-0.33154296875,0.0272
0.6259541984732825,3.236641221374046,-1.4809160305343512,-0.4013671875,-0.05078125,-0.324951171875,0.0289
0.8091603053435115,3.3435114503816794,-1.618320610687023,-0.397705078125,-0.050048828125,-0.33349609375,0.0306
0.6412213740458015,3.114503816793893,-1.3129770992366412,-0.396240234375,-0.04443359375,-0.3251953125,0.032299999999999995
0.8244274809160306,3.0229007633587788,-1.5114503816793894,-0.397216796875,-0.04931640625,-0.3271484375,0.033999999999999996
0.8702290076335878,2.7480916030534353,-1.4045801526717556,-0.398681640625,-0.0556640625,-0.33837890625,0.035699999999999996
0.6717557251908397,2.885496183206107,-1.5572519083969465,-0.39990234375,-0.048095703125,-0.3291015625,0.037399999999999996
0.6717557251908397,2.8702290076335877,-1.4961832061068703,-0.399658203125,-0.052734375,-0.333251953125,0.039099999999999996
0.7633587786259542,2.6564885496183206,-1.5419847328244274,-0.400146484375,-0.052001953125,-0.33837890625,0.040799999999999996
0.6259541984732825,2.2442748091603053,-1.251908396946565,-0.40283203125,-0.04931640625,-0.339599609375,0.042499999999999996
0.5954198473282443,2.4427480916030535,-1.4045801526717556,-0.400390625,-0.05322265625,-0.335693359375,0.044199999999999996
0.549618320610687,2.519083969465649,-1.3129770992366412,-0.40185546875,-0.049560546875,-0.3271484375,0.045899999999999996
0.5954198473282443,2.2900763358778624,-1.4961832061068703,-0.402099609375,-0.052734375,-0.32421875,0.047599999999999996
0.5954198473282443,2.4122137404580153,-1.4351145038167938,-0.401611328125,-0.051025390625,-0.32763671875,0.0493
0.4732824427480916,2.4732824427480917,-1.5419847328244274,-0.401611328125,-0.0556640625,-0.333740234375,0.051
0.4122137404580153,2.4427480916030535,-1.2366412213740459,-0.39990234375,-0.050048828125,-0.32861328125,0.0527
0.42748091603053434,2.6412213740458017,-1.4045801526717556,-0.400634765625,-0.052490234375,-0.331298828125,0.0544
0.3816793893129771,2.5343511450381677,-1.5114503816793894,-0.400390625,-0.045654296875,-0.33349609375,0.0561
0.32061068702290074,2.519083969465649,-1.4198473282442747,-0.4033203125,-0.047119140625,-0.32861328125,0.0578
0.5038167938931297,2.717557251908397,-1.0687022900763359,-0.401611328125,-0.05517578125,-0.338623046875,0.0595
0.3816793893129771,2.6717557251908395,-1.3587786259541985,-0.4033203125,-0.05419921875,-0.330078125,0.0612
0.5343511450381679,2.6564885496183206,-1.450381679389313,-0.40283203125,-0.0517578125,-0.331787109375,0.0629
0.3969465648854962,2.7480916030534353,-1.450381679389313,-0.405517578125,-0.050537109375,-0.337646484375,0.06459999999999999
0.4580152671755725,2.6717557251908395,-1.4045801526717556,-0.405517578125,-0.052978515625,-0.329833984375,0.0663
0.3816793893129771,2.7022900763358777,-1.3435114503816794,-0.401611328125,-0.052734375,-0.33349609375,0.06799999999999999
0.3816793893129771,2.7938931297709924,-1.450381679389313,-0.402099609375,-0.050537109375,-0.32958984375,0.0697
0.5343511450381679,2.7938931297709924,-1.5419847328244274,-0.402587890625,-0.050048828125,-0.337158203125,0.07139999999999999
0.33587786259541985,2.763358778625954,-1.1297709923664123,-0.40185546875,-0.044921875,-0.334716796875,0.0731
0.2595419847328244,2.8396946564885495,-1.282442748091603,-0.403076171875,-0.052001953125,-0.33251953125,0.07479999999999999
0.3053435114503817,2.946564885496183,-1.450381679389313,-0.39697265625,-0.053466796875,-0.330322265625,0.0765
0.366412213740458,2.931297709923664,-1.4198473282442747,-0.399658203125,-0.049560546875,-0.33349609375,0.07819999999999999
0.6717557251908397,2.6106870229007635,-1.4809160305343512,-0.40625,-0.04833984375,-0.337158203125,0.0799
0.42748091603053434,2.885496183206107,-1.3129770992366412,-0.4013671875,-0.04931640625,-0.3310546875,0.08159999999999999
0.2595419847328244,2.8396946564885495,-1.282442748091603,-0.41015625,-0.048828125,-0.333740234375,0.0833
0.7786259541984732,2.854961832061069,-1.5419847328244274,-0.403564453125,-0.0458984375,-0.3251953125,0.08499999999999999
0.6412213740458015,3.0076335877862594,-1.3435114503816794,-0.40478515625,-0.049560546875,-0.328125,0.0867
0.3969465648854962,2.900763358778626,-1.3893129770992367,-0.399658203125,-0.045654296875,-0.330078125,0.08839999999999999
0.6870229007633588,2.931297709923664,-1.7099236641221374,-0.398681640625,-0.050537109375,-0.333251953125,0.0901
0.6106870229007634,2.8396946564885495,-1.5267175572519085,-0.40185546875,-0.04736328125,-0.331298828125,0.09179999999999999
0.6717557251908397,2.931297709923664,-1.4351145038167938,-0.39892578125,-0.0458984375,-0.332275390625,0.0935
0.6412213740458015,2.8244274809160306,-1.4045801526717556,-0.405029296875,-0.053955078125,-0.32861328125,0.09519999999999999
0.5190839694656488,2.8702290076335877,-1.5877862595419847,-0.400390625,-0.047607421875,-0.33203125,0.0969
0.6564885496183206,3.068702290076336,-1.6793893129770991,-0.40087890625,-0.047119140625,-0.331787109375,0.0986
0.8244274809160306,2.8244274809160306,-1.5725190839694656,-0.40380859375,-0.0478515625,-0.330078125,0.1003
0.4580152671755725,2.763358778625954,-1.5114503816793894,-0.4033203125,-0.053955078125,-0.33740234375,0.102
0.6259541984732825,2.763358778625954,-1.6793893129770991,-0.406005859375,-0.048095703125,-0.32568359375,0.1037
0.44274809160305345,2.6106870229007635,-1.4198473282442747,-0.404541015625,-0.0439453125,-0.327880859375,0.1054
0.6870229007633588,2.8091603053435112,-1.5267175572519085,-0.39794921875,-0.048828125,-0.329833984375,0.1071
0.8244274809160306,2.7480916030534353,-1.450381679389313,-0.403076171875,-0.0517578125,-0.340087890625,0.1088
0.7480916030534351,2.732824427480916,-1.6488549618320612,-0.405029296875,-0.052734375,-0.336181640625,0.11049999999999999
0.8396946564885496,2.687022900763359,-1.633587786259542,-0.399169921875,-0.04736328125,-0.33203125,0.1122
0.6564885496183206,2.5343511450381677,-1.7099236641221374,-0.400146484375,-0.05224609375,-0.3330078125,0.11389999999999999
0.42748091603053434,2.5343511450381677,-1.4045801526717556,-0.39599609375,-0.04931640625,-0.33056640625,0.1156
0.549618320610687,2.50381679389313,-1.83206106870229,-0.397216796875,-0.050048828125,-0.3349609375,0.11729999999999999
0.5343511450381679,2.366412213740458,-1.633587786259542,-0.398193359375,-0.048828125,-0.326416015625,0.119
0.7480916030534351,2.3053435114503817,-1.618320610687023,-0.396728515625,-0.04638671875,-0.326171875,0.12069999999999999
0.7022900763358778,2.351145038167939,-1.618320610687023,-0.39697265625,-0.0498046875,-0.32861328125,0.1224
0.2900763358778626,2.2442748091603053,-1.7557251908396947,-0.3974609375,-0.04931640625,-0.329345703125,0.12409999999999999
0.3816793893129771,2.1068702290076335,-1.6946564885496183,-0.401611328125,-0.05078125,-0.331298828125,0.1258
0.7480916030534351,2.045801526717557,-1.5114503816793894,-0.397705078125,-0.048828125,-0.324951171875,0.1275
0.6564885496183206,2.045801526717557,-1.450381679389313,-0.40185546875,-0.0517578125,-0.336669921875,0.12919999999999998
0.6106870229007634,1.984732824427481,-1.7099236641221374,-0.397216796875,-0.047119140625,-0.3349609375,0.1309
0.5343511450381679,1.5725190839694656,-1.6641221374045803,-0.3974609375,-0.048095703125,-0.34130859375,0.1326
0.2900763358778626,1.8015267175572518,-1.7709923664122138,-0.397705078125,-0.053466796875,-0.332275390625,0.1343
0.549618320610687,1.7099236641221374,-1.4809160305343512,-0.395751953125,-0.052490234375,-0.3359375,0.13599999999999998
0.6870229007633588,1.5877862595419847,-1.6793893129770991,-0.3974609375,-0.051025390625,-0.330810546875,0.1377
0.3816793893129771,1.465648854961832,-1.7251908396946565,-0.39990234375,-0.05078125,-0.33349609375,0.1394
0.5954198473282443,1.3435114503816794,-1.6488549618320612,-0.3974609375,-0.05126953125,-0.335693359375,0.1411
0.6106870229007634,1.4045801526717556,-1.618320610687023,-0.39404296875,-0.04931640625,-0.322021484375,0.14279999999999998
0.5190839694656488,1.3129770992366412,-1.6946564885496183,-0.3994140625,-0.05126953125,-0.330810546875,0.1445
0.6259541984732825,1.1297709923664123,-1.633587786259542,-0.399658203125,-0.04638671875,-0.3330078125,0.1462
0.732824427480916,1.0687022900763359,-1.5877862595419847,-0.398681640625,-0.051025390625,-0.3310546875,0.1479
0.6412213740458015,0.9770992366412213,-1.4198473282442747,-0.39990234375,-0.04833984375,-0.3251953125,0.14959999999999998
0.48854961832061067,1.0076335877862594,-1.4809160305343512,-0.40478515625,-0.046630859375,-0.328857421875,0.1513
0.5801526717557252,0.9618320610687023,-1.4961832061068703,-0.403076171875,-0.045654296875,-0.33447265625,0.153
0.6106870229007634,1.0687022900763359,-1.5267175572519085,-0.399658203125,-0.04638671875,-0.33349609375,0.1547
0.7786259541984732,0.9312977099236641,-1.5725190839694656,-0.3994140625,-0.05126953125,-0.332275390625,0.15639999999999998
0.6564885496183206,0.7022900763358778,-1.6793893129770991,-0.400146484375,-0.048583984375,-0.33984375,0.1581
0.7938931297709924,0.5038167938931297,-1.4961832061068703,-0.401611328125,-0.049560546875,-0.334716796875,0.1598
0.6717557251908397,0.5801526717557252,-1.450381679389313,-0.3994140625,-0.052001953125,-0.339599609375,0.1615
0.7175572519083969,0.6717557251908397,-1.4045801526717556,-0.39697265625,-0.046630859375,-0.331787109375,0.16319999999999998
0.8702290076335878,0.7633587786259542,-1.5572519083969465,-0.40380859375,-0.047119140625,-0.3369140625,0.1649
0.9465648854961832,0.7022900763358778,-1.3587786259541985,-0.404541015625,-0.04638671875,-0.333251953125,0.1666
0.8091603053435115,1.0534351145038168,-1.4351145038167938,-0.399658203125,-0.053955078125,-0.3359375,0.16829999999999998
0.8854961832061069,0.9007633587786259,-1.450381679389313,-0.40576171875,-0.044189453125,-0.338623046875,0.16999999999999998
1.0381679389312977,0.7633587786259542,-1.465648854961832,-0.406494140625,-0.046875,-0.33349609375,0.1717
0.9312977099236641,0.549618320610687,-1.5114503816793894,-0.4033203125,-0.05029296875,-0.333984375,0.1734
0.9923664122137404,0.9770992366412213,-1.5572519083969465,-0.40234375,-0.04833984375,-0.333740234375,0.17509999999999998
0.9618320610687023,0.8244274809160306,-1.251908396946565,-0.40576171875,-0.047119140625,-0.33154296875,0.17679999999999998
0.8854961832061069,0.8244274809160306,-1.465648854961832,-0.405517578125,-0.048828125,-0.333984375,0.1785
1.1603053435114503,0.9007633587786259,-1.3740458015267176,-0.402099609375,-0.05224609375,-0.33203125,0.1802
1.2213740458015268,0.8702290076335878,-1.4045801526717556,-0.40087890625,-0.048583984375,-0.333740234375,0.18189999999999998
1.2213740458015268,0.9312977099236641,-1.251908396946565,-0.398681640625,-0.050048828125,-0.33642578125,0.18359999999999999
1.1297709923664123,1.1145038167938932,-1.3893129770992367,-0.40283203125,-0.04296875,-0.3369140625,0.1853
1.1297709923664123,0.9312977099236641,-1.5114503816793894,-0.404052734375,-0.04638671875,-0.3369140625,0.187
0.9923664122137404,0.9923664122137404,-1.4351145038167938,-0.40673828125,-0.04296875,-0.329833984375,0.18869999999999998
1.1603053435114503,1.3740458015267176,-1.2061068702290076,-0.404052734375,-0.049560546875,-0.329833984375,0.19039999999999999
1.1450381679389312,1.3435114503816794,-1.4351145038167938,-0.40625,-0.052490234375,-0.33837890625,0.1921
0.9923664122137404,1.1603053435114503,-1.3740458015267176,-0.407958984375,-0.04931640625,-0.3388671875,0.1938
1.0229007633587786,1.3282442748091603,-1.2366412213740459,-0.40673828125,-0.0478515625,-0.3359375,0.19549999999999998
1.1297709923664123,1.4961832061068703,-1.2061068702290076,-0.400146484375,-0.047607421875,-0.330810546875,0.1972
1.1297709923664123,1.5419847328244274,-1.4198473282442747,-0.405029296875,-0.049560546875,-0.329345703125,0.1989
1.3435114503816794,1.4961832061068703,-1.2061068702290076,-0.404052734375,-0.042724609375,-0.330078125,0.2006
1.3893129770992367,1.3893129770992367,-1.5877862595419847,-0.406494140625,-0.052978515625,-0.331787109375,0.20229999999999998
1.3740458015267176,1.2366412213740459,-1.5114503816793894,-0.397705078125,-0.05078125,-0.33740234375,0.204
1.2671755725190839,1.5419847328244274,-1.5725190839694656,-0.399169921875,-0.049560546875,-0.33642578125,0.2057
1.282442748091603,1.4809160305343512,-1.7099236641221374,-0.400146484375,-0.045166015625,-0.333984375,0.2074
1.3893129770992367,1.450381679389313,-1.4351145038167938,-0.398193359375,-0.04443359375,-0.3330078125,0.20909999999999998
1.3129770992366412,1.251908396946565,-1.4198473282442747,-0.398193359375,-0.048095703125,-0.33251953125,0.2108
1.282442748091603,1.251908396946565,-1.3740458015267176,-0.3994140625,-0.0537109375,-0.33447265625,0.2125
1.4045801526717556,1.3282442748091603,-1.3587786259541985,-0.394775390625,-0.047119140625,-0.3359375,0.2142
1.3282442748091603,1.0534351145038168,-1.6946564885496183,-0.397705078125,-0.05078125,-0.332275390625,0.21589999999999998
1.3740458015267176,1.1145038167938932,-1.5419847328244274,-0.39404296875,-0.051513671875,-0.332763671875,0.2176
1.4351145038167938,1.251908396946565,-1.6488549618320612,-0.4033203125,-0.048828125,-0.326904296875,0.2193
1.251908396946565,1.2213740458015268,-1.5572519083969465,-0.398681640625,-0.047119140625,-0.338623046875,0.22099999999999997
1.3587786259541985,1.083969465648855,-1.4809160305343512,-0.398193359375,-0.045654296875,-0.333740234375,0.22269999999999998
1.1603053435114503,0.9007633587786259,-1.3435114503816794,-0.398193359375,-0.04541015625,-0.32958984375,0.2244
1.251908396946565,0.9770992366412213,-1.5114503816793894,-0.392333984375,-0.05224609375,-0.328857421875,0.2261
1.3282442748091603,0.9007633587786259,-1.450381679389313,-0.396484375,-0.051513671875,-0.331298828125,0.22779999999999997
1.3435114503816794,0.7022900763358778,-1.5572519083969465,-0.399658203125,-0.051513671875,-0.336669921875,0.22949999999999998
1.3435114503816794,0.7175572519083969,-1.3893129770992367,-0.400146484375,-0.048095703125,-0.32861328125,0.2312
1.0229007633587786,0.5190839694656488,-1.3435114503816794,-0.400390625,-0.051513671875,-0.337890625,0.2329
1.1603053435114503,0.5954198473282443,-1.6030534351145038,-0.4033203125,-0.0498046875,-0.336181640625,0.23459999999999998
1.282442748091603,0.8396946564885496,-1.5572519083969465,-0.40185546875,-0.04931640625,-0.323486328125,0.23629999999999998
1.2061068702290076,0.5190839694656488,-1.4045801526717556,-0.403076171875,-0.05029296875,-0.324951171875,0.238
1.1145038167938932,0.24427480916030533,-1.450381679389313,-0.39697265625,-0.052490234375,-0.3310546875,0.2397
1.1450381679389312,0.3969465648854962,-1.3282442748091603,-0.4033203125,-0.046875,-0.326416015625,0.24139999999999998
1.083969465648855,0.3816793893129771,-1.450381679389313,-0.3984375,-0.0517578125,-0.324951171875,0.24309999999999998
1.2061068702290076,0.3816793893129771,-1.4809160305343512,-0.395263671875,-0.04736328125,-0.322998046875,0.2448
1.2213740458015268,0.44274809160305345,-1.618320610687023,-0.40673828125,-0.05029296875,-0.327880859375,0.2465
1.2213740458015268,0.6412213740458015,-1.5419847328244274,-0.400634765625,-0.05224609375,-0.32958984375,0.24819999999999998
1.1755725190839694,0.2900763358778626,-1.6793893129770991,-0.40478515625,-0.0517578125,-0.3271484375,0.24989999999999998
1.282442748091603,0.3969465648854962,-1.450381679389313,-0.405029296875,-0.041748046875,-0.336669921875,0.2516
1.251908396946565,0.6717557251908397,-1.4809160305343512,-0.404541015625,-0.04833984375,-0.334228515625,0.25329999999999997
1.251908396946565,0.7022900763358778,-1.5114503816793894,-0.40185546875,-0.05126953125,-0.3359375,0.255
0.9923664122137404,0.48854961832061067,-1.5419847328244274,-0.4013671875,-0.057861328125,-0.33837890625,0.2567
0.9618320610687023,0.6259541984732825,-1.7099236641221374,-0.402099609375,-0.051025390625,-0.328857421875,0.25839999999999996
1.1450381679389312,0.6564885496183206,-1.7251908396946565,-0.401123046875,-0.0498046875,-0.328857421875,0.2601
0.8549618320610687,0.6106870229007634,-1.8625954198473282,-0.40478515625,-0.046630859375,-0.32763671875,0.2618
1.1145038167938932,0.6412213740458015,-1.8931297709923665,-0.39990234375,-0.052978515625,-0.332763671875,0.2635
1.099236641221374,0.732824427480916,-1.83206106870229,-0.399658203125,-0.048583984375,-0.333740234375,0.2652
1.297709923664122,0.6870229007633588,-1.8778625954198473,-0.401611328125,-0.04345703125,-0.3330078125,0.26689999999999997
1.282442748091603,0.5954198473282443,-1.8625954198473282,-0.3994140625,-0.049560546875,-0.33349609375,0.2686
1.1755725190839694,0.6259541984732825,-2.1068702290076335,-0.39794921875,-0.046875,-0.330322265625,0.2703
1.0687022900763359,0.42748091603053434,-2.183206106870229,-0.398681640625,-0.045166015625,-0.32958984375,0.27199999999999996
1.2366412213740459,0.5038167938931297,-2.0610687022900764,-0.4013671875,-0.04736328125,-0.330322265625,0.2737
1.3435114503816794,0.549618320610687,-2.2290076335877864,-0.400390625,-0.05029296875,-0.326171875,0.2754
1.3740458015267176,0.6259541984732825,-2.2595419847328246,-0.400390625,-0.043701171875,-0.332763671875,0.27709999999999996
1.4351145038167938,0.3511450381679389,-2.1374045801526718,-0.400146484375,-0.04345703125,-0.324462890625,0.2788
1.6030534351145038,0.6106870229007634,-2.16793893129771,-0.402099609375,-0.04638671875,-0.3310546875,0.28049999999999997
1.4045801526717556,0.2595419847328244,-2.2290076335877864,-0.4013671875,-0.048095703125,-0.328125,0.2822
1.4961832061068703,0.183206106870229,-2.1526717557251906,-0.400634765625,-0.05126953125,-0.330810546875,0.2839
1.6641221374045803,0.5343511450381679,-2.351145038167939,-0.405029296875,-0.0517578125,-0.3310546875,0.28559999999999997
1.5725190839694656,0.549618320610687,-2.2900763358778624,-0.400634765625,-0.0458984375,-0.340087890625,0.2873
1.6488549618320612,0.2748091603053435,-2.198473282442748,-0.399658203125,-0.0478515625,-0.336669921875,0.289
1.6946564885496183,0.32061068702290074,-2.213740458015267,-0.403076171875,-0.05029296875,-0.33251953125,0.29069999999999996
1.8015267175572518,0.21374045801526717,-2.2748091603053435,-0.403564453125,-0.048095703125,-0.331298828125,0.2924
1.8473282442748091,0.3816793893129771,-2.1068702290076335,-0.405029296875,-0.05029296875,-0.334228515625,0.2941
1.8015267175572518,0.3969465648854962,-2.4427480916030535,-0.405029296875,-0.0517578125,-0.33447265625,0.2958
1.7557251908396947,0.183206106870229,-2.198473282442748,-0.403076171875,-0.056640625,-0.32666015625,0.2975
1.8625954198473282,0.22900763358778625,-2.198473282442748,-0.404296875,-0.048583984375,-0.3271484375,0.29919999999999997
1.9083969465648856,0.4580152671755725,-2.0916030534351147,-0.404541015625,-0.04833984375,-0.3291015625,0.3009
1.6793893129770991,0.7022900763358778,-2.0916030534351147,-0.40234375,-0.0478515625,-0.3349609375,0.3026
1.9236641221374047,0.2595419847328244,-1.9236641221374047,-0.40673828125,-0.0478515625,-0.33056640625,0.30429999999999996
1.9083969465648856,0.16793893129770993,-1.8778625954198473,-0.403564453125,-0.05126953125,-0.330810546875,0.306
2.1068702290076335,0.22900763358778625,-1.8931297709923665,-0.402099609375,-0.05078125,-0.33544921875,0.3077
1.9694656488549618,0.24427480916030533,-2.015267175572519,-0.39794921875,-0.049560546875,-0.335205078125,0.3094
1.816793893129771,0.07633587786259542,-1.5572519083969465,-0.397705078125,-0.052978515625,-0.333984375,0.3111
1.7709923664122138,0.183206106870229,-1.9083969465648856,-0.405517578125,-0.055419921875,-0.3310546875,0.31279999999999997
2.015267175572519,0.3053435114503817,-1.786259541984733,-0.40185546875,-0.052734375,-0.3330078125,0.3145
1.8473282442748091,0.3053435114503817,-1.7709923664122138,-0.40380859375,-0.04736328125,-0.331787109375,0.3162
1.816793893129771,0.2595419847328244,-1.7709923664122138,-0.399658203125,-0.052734375,-0.329833984375,0.31789999999999996
1.83206106870229,0.13740458015267176,-1.786259541984733,-0.401611328125,-0.05419921875,-0.32958984375,0.3196
1.9083969465648856,0.16793893129770993,-1.7251908396946565,-0.4013671875,-0.04931640625,-0.330322265625,0.3213
1.9694656488549618,0.0,-1.7709923664122138,-0.40625,-0.056640625,-0.3310546875,0.323
1.8473282442748091,0.0916030534351145,-1.5572519083969465,-0.403564453125,-0.052734375,-0.335693359375,0.3247
1.8778625954198473,0.13740458015267176,-1.5419847328244274,-0.4052734375,-0.05615234375,-0.3212890625,0.32639999999999997
1.6793893129770991,0.04580152671755725,-1.3740458015267176,-0.404296875,-0.054931640625,-0.332763671875,0.3281
1.6946564885496183,-0.10687022900763359,-1.5572519083969465,-0.404052734375,-0.055419921875,-0.3310546875,0.3298
1.6641221374045803,0.07633587786259542,-1.6488549618320612,-0.4072265625,-0.056396484375,-0.33544921875,0.33149999999999996
1.4809160305343512,0.12213740458015267,-1.6641221374045803,-0.404296875,-0.052001953125,-0.32666015625,0.3332
1.4809160305343512,-0.16793893129770993,-1.5572519083969465,-0.40234375,-0.052490234375,-0.33056640625,0.3349
1.5267175572519085,-0.0916030534351145,-1.4351145038167938,-0.402099609375,-0.046142578125,-0.330810546875,0.33659999999999995
1.4809160305343512,0.07633587786259542,-1.3282442748091603,-0.40283203125,-0.05517578125,-0.33447265625,0.3383
1.3435114503816794,-0.15267175572519084,-1.5419847328244274,-0.404296875,-0.05615234375,-0.33251953125,0.33999999999999997
1.3435114503816794,-0.183206106870229,-1.618320610687023,-0.400390625,-0.05224609375,-0.33447265625,0.3417
1.1908396946564885,-0.183206106870229,-1.5877862595419847,-0.4033203125,-0.0517578125,-0.335205078125,0.3434
1.297709923664122,-0.061068702290076333,-1.5419847328244274,-0.39990234375,-0.05126953125,-0.330810546875,0.34509999999999996
1.1603053435114503,-0.16793893129770993,-1.5725190839694656,-0.4013671875,-0.046875,-0.3349609375,0.3468
1.1145038167938932,-0.2900763358778626,-1.3282442748091603,-0.404052734375,-0.052978515625,-0.33349609375,0.3485
1.0381679389312977,-0.12213740458015267,-1.4198473282442747,-0.402099609375,-0.050048828125,-0.339111328125,0.35019999999999996
1.2061068702290076,-0.183206106870229,-1.297709923664122,-0.40478515625,-0.04833984375,-0.33349609375,0.3519
1.6488549618320612,-0.2748091603053435,-1.450381679389313,-0.406494140625,-0.052001953125,-0.32958984375,0.35359999999999997
1.1603053435114503,-0.3511450381679389,-1.282442748091603,-0.398681640625,-0.0517578125,-0.33154296875,0.3553
0.916030534351145,-0.24427480916030533,-1.6641221374045803,-0.40087890625,-0.053466796875,-0.332275390625,0.357
1.1908396946564885,-0.07633587786259542,-1.4045801526717556,-0.404541015625,-0.05126953125,-0.328125,0.35869999999999996
1.282442748091603,-0.33587786259541985,-1.4351145038167938,-0.403564453125,-0.055419921875,-0.3310546875,0.3604
1.2671755725190839,-0.2595419847328244,-1.4198473282442747,-0.404052734375,-0.053955078125,-0.333251953125,0.3621
1.251908396946565,-0.21374045801526717,-1.4351145038167938,-0.40625,-0.05322265625,-0.334228515625,0.36379999999999996
1.1450381679389312,-0.15267175572519084,-1.3893129770992367,-0.404296875,-0.048583984375,-0.32763671875,0.3655
1.1297709923664123,-0.15267175572519084,-1.450381679389313,-0.404052734375,-0.04833984375,-0.32470703125,0.36719999999999997
1.3435114503816794,-0.16793893129770993,-1.4045801526717556,-0.40185546875,-0.05029296875,-0.32763671875,0.3689
1.083969465648855,-0.183206106870229,-1.633587786259542,-0.406982421875,-0.044677734375,-0.326416015625,0.3706
1.251908396946565,-0.24427480916030533,-1.4809160305343512,-0.40185546875,-0.0556640625,-0.334228515625,0.37229999999999996
1.1603053435114503,-0.32061068702290074,-1.450381679389313,-0.400634765625,-0.0517578125,-0.33544921875,0.374
1.1603053435114503,-0.2900763358778626,-1.4351145038167938,-0.40625,-0.05029296875,-0.32861328125,0.3757
1.3740458015267176,-0.1984732824427481,-1.5267175572519085,-0.406005859375,-0.053466796875,-0.338623046875,0.37739999999999996
1.3129770992366412,-0.15267175572519084,-1.4961832061068703,-0.401611328125,-0.051025390625,-0.332763671875,0.3791
1.282442748091603,-0.12213740458015267,-1.4961832061068703,-0.404296875,-0.0517578125,-0.33642578125,0.38079999999999997
1.0687022900763359,-0.1984732824427481,-1.4961832061068703,-0.406494140625,-0.0537109375,-0.328857421875,0.38249999999999995
1.3893129770992367,-0.2748091603053435,-1.5267175572519085,-0.404052734375,-0.052978515625,-0.335693359375,0.3842
1.5114503816793894,-0.2595419847328244,-1.5419847328244274,-0.40576171875,-0.051513671875,-0.32958984375,0.38589999999999997
1.1755725190839694,-0.32061068702290074,-1.5267175572519085,-0.405517578125,-0.050537109375,-0.333251953125,0.3876
1.4961832061068703,-0.04580152671755725,-1.282442748091603,-0.399658203125,-0.051025390625,-0.325927734375,0.3893
1.2671755725190839,-0.0916030534351145,-1.450381679389313,-0.39990234375,-0.047607421875,-0.326904296875,0.39099999999999996
1.251908396946565,-0.3053435114503817,-1.4045801526717556,-0.403564453125,-0.04931640625,-0.330078125,0.3927
1.5114503816793894,-0.24427480916030533,-1.5572519083969465,-0.40234375,-0.05078125,-0.336181640625,0.3944
1.3129770992366412,0.015267175572519083,-1.4351145038167938,-0.402099609375,-0.052978515625,-0.331298828125,0.39609999999999995
1.1450381679389312,-0.12213740458015267,-1.3740458015267176,-0.40625,-0.049072265625,-0.334228515625,0.3978
1.5267175572519085,-0.1984732824427481,-1.3587786259541985,-0.40576171875,-0.0498046875,-0.33837890625,0.39949999999999997
1.4351145038167938,-0.183206106870229,-1.5877862595419847,-0.404296875,-0.052490234375,-0.3466796875,0.4012
1.4351145038167938,0.030534351145038167,-1.4198473282442747,-0.404052734375,-0.0458984375,-0.329833984375,0.4029
1.465648854961832,0.015267175572519083,-1.5114503816793894,-0.40966796875,-0.052490234375,-0.325439453125,0.40459999999999996
1.4961832061068703,-0.030534351145038167,-1.3129770992366412,-0.40576171875,-0.05615234375,-0.329833984375,0.4063
1.465648854961832,-0.1984732824427481,-1.7099236641221374,-0.4091796875,-0.051513671875,-0.3271484375,0.408
1.6488549618320612,0.10687022900763359,-1.465648854961832,-0.40673828125,-0.048828125,-0.32373046875,0.40969999999999995
1.7099236641221374,0.16793893129770993,-1.6030534351145038,-0.40380859375,-0.043701171875,-0.323974609375,0.4114
1.4198473282442747,0.21374045801526717,-1.6030534351145038,-0.403564453125,-0.047119140625,-0.33056640625,0.41309999999999997
1.6030534351145038,0.07633587786259542,-1.6488549618320612,-0.406982421875,-0.051025390625,-0.33056640625,0.4148
1.465648854961832,0.0,-1.5419847328244274,-0.404541015625,-0.047119140625,-0.3291015625,0.4165
1.3282442748091603,0.0916030534351145,-1.5877862595419847,-0.401611328125,-0.0498046875,-0.33447265625,0.41819999999999996
1.5572519083969465,0.12213740458015267,-1.4351145038167938,-0.40087890625,-0.05029296875,-0.337158203125,0.4199
1.5267175572519085,0.1984732824427481,-1.5267175572519085,-0.39990234375,-0.046630859375,-0.326416015625,0.4216
1.4809160305343512,0.15267175572519084,-1.4198473282442747,-0.407470703125,-0.051513671875,-0.338134765625,0.42329999999999995
1.6793893129770991,0.061068702290076333,-1.3893129770992367,-0.4033203125,-0.049072265625,-0.3359375,0.425
1.4809160305343512,0.2900763358778626,-1.4961832061068703,-0.404052734375,-0.052001953125,-0.327880859375,0.42669999999999997
1.6030534351145038,0.42748091603053434,-1.3740458015267176,-0.40478515625,-0.056640625,-0.32666015625,0.4284
1.8778625954198473,0.21374045801526717,-1.5572519083969465,-0.403564453125,-0.056640625,-0.3291015625,0.4301
1.6946564885496183,0.21374045801526717,-1.465648854961832,-0.402099609375,-0.041748046875,-0.333251953125,0.43179999999999996
1.6488549618320612,0.15267175572519084,-1.4198473282442747,-0.40576171875,-0.048828125,-0.32861328125,0.4335
1.7099236641221374,0.2900763358778626,-1.6030534351145038,-0.40966796875,-0.052001953125,-0.32861328125,0.4352
1.5877862595419847,0.24427480916030533,-1.5419847328244274,-0.406494140625,-0.048828125,-0.329345703125,0.43689999999999996
1.7709923664122138,0.07633587786259542,-1.3740458015267176,-0.404541015625,-0.049072265625,-0.336181640625,0.4386
1.6488549618320612,0.0916030534351145,-1.5419847328244274,-0.406982421875,-0.048828125,-0.3369140625,0.44029999999999997
1.786259541984733,0.3969465648854962,-1.4809160305343512,-0.403564453125,-0.052490234375,-0.329345703125,0.44199999999999995
1.7557251908396947,0.42748091603053434,-1.4198473282442747,-0.408935546875,-0.04833984375,-0.33837890625,0.4437
1.7557251908396947,0.366412213740458,-1.5877862595419847,-0.40576171875,-0.046875,-0.335693359375,0.44539999999999996
1.9541984732824427,0.33587786259541985,-1.4198473282442747,-0.406494140625,-0.048095703125,-0.331298828125,0.4471
1.83206106870229,0.3816793893129771,-1.3129770992366412,-0.406982421875,-0.05126953125,-0.327880859375,0.4488
1.7251908396946565,0.8091603053435115,-1.5114503816793894,-0.406005859375,-0.043701171875,-0.330322265625,0.45049999999999996
1.7404580152671756,0.3511450381679389,-1.450381679389313,-0.404296875,-0.04736328125,-0.328125,0.4522
1.6488549618320612,0.4732824427480916,-1.3740458015267176,-0.398193359375,-0.048095703125,-0.327880859375,0.45389999999999997
1.7709923664122138,0.4732824427480916,-1.4198473282442747,-0.41015625,-0.05712890625,-0.321044921875,0.45559999999999995
1.9389312977099236,0.48854961832061067,-1.4809160305343512,-0.406494140625,-0.05322265625,-0.328125,0.4573
1.786259541984733,0.6106870229007634,-1.3435114503816794,-0.399169921875,-0.049072265625,-0.3310546875,0.45899999999999996
1.9236641221374047,0.48854961832061067,-1.4045801526717556,-0.4091796875,-0.0498046875,-0.329833984375,0.4607
2.0610687022900764,0.5648854961832062,-1.4198473282442747,-0.403076171875,-0.05322265625,-0.326904296875,0.4624
2.0763358778625953,0.7480916030534351,-1.2671755725190839,-0.405517578125,-0.048828125,-0.330078125,0.46409999999999996
1.6030534351145038,0.7175572519083969,-1.2213740458015268,-0.4013671875,-0.049560546875,-0.329345703125,0.4658
1.9389312977099236,0.5801526717557252,-1.4198473282442747,-0.39892578125,-0.0517578125,-0.333251953125,0.46749999999999997
1.9389312977099236,0.6564885496183206,-1.1297709923664123,-0.40185546875,-0.05078125,-0.32861328125,0.46919999999999995
1.9083969465648856,0.8091603053435115,-1.3740458015267176,-0.40185546875,-0.052490234375,-0.323486328125,0.4709
1.786259541984733,0.7938931297709924,-1.282442748091603,-0.403076171875,-0.052734375,-0.334716796875,0.47259999999999996
1.984732824427481,0.8396946564885496,-1.2213740458015268,-0.400634765625,-0.047607421875,-0.332763671875,0.4743
1.9236641221374047,0.916030534351145,-1.3129770992366412,-0.4033203125,-0.052978515625,-0.330078125,0.476
1.7099236641221374,0.9007633587786259,-1.282442748091603,-0.406005859375,-0.046875,-0.332763671875,0.47769999999999996
1.816793893129771,0.6412213740458015,-1.3129770992366412,-0.40478515625,-0.049072265625,-0.330078125,0.4794
1.83206106870229,1.0687022900763359,-1.3893129770992367,-0.39990234375,-0.050537109375,-0.32470703125,0.48109999999999997
1.8931297709923665,0.8854961832061069,-1.3435114503816794,-0.4033203125,-0.05224609375,-0.33203125,0.48279999999999995
1.816793893129771,0.7633587786259542,-1.2213740458015268,-0.4013671875,-0.05419921875,-0.330322265625,0.4845
2.045801526717557,0.8396946564885496,-1.2213740458015268,-0.399169921875,-0.056396484375,-0.330810546875,0.48619999999999997
1.9541984732824427,0.8091603053435115,-1.2671755725190839,-0.40673828125,-0.048828125,-0.32958984375,0.4879
1.8015267175572518,1.083969465648855,-1.2061068702290076,-0.403076171875,-0.048828125,-0.32861328125,0.4896
1.8778625954198473,1.0381679389312977,-1.282442748091603,-0.40478515625,-0.05224609375,-0.329345703125,0.49129999999999996
1.8778625954198473,1.0381679389312977,-1.2671755725190839,-0.4072265625,-0.052001953125,-0.3330078125,0.493
1.83206106870229,1.0534351145038168,-1.450381679389313,-0.404052734375,-0.051025390625,-0.33349609375,0.4947
1.9389312977099236,0.8854961832061069,-1.1908396946564885,-0.4013671875,-0.0498046875,-0.326171875,0.49639999999999995
1.9083969465648856,0.9312977099236641,-1.2061068702290076,-0.399658203125,-0.051513671875,-0.334716796875,0.4981
1.83206106870229,1.083969465648855,-1.099236641221374,-0.40869140625,-0.0537109375,-0.327880859375,0.49979999999999997
1.6793893129770991,1.083969465648855,-1.297709923664122,-0.403564453125,-0.05810546875,-0.32373046875,0.5015
1.8931297709923665,1.0076335877862594,-1.2366412213740459,-0.40087890625,-0.056396484375,-0.332275390625,0.5032
1.786259541984733,0.9465648854961832,-0.9618320610687023,-0.404296875,-0.0498046875,-0.33447265625,0.5049
1.7557251908396947,0.9465648854961832,-1.2213740458015268,-0.401123046875,-0.050048828125,-0.332763671875,0.5065999999999999
1.9083969465648856,0.9312977099236641,-1.4198473282442747,-0.39990234375,-0.051025390625,-0.3291015625,0.5083
1.465648854961832,0.8702290076335878,-1.1755725190839694,-0.39990234375,-0.053466796875,-0.336181640625,0.51
1.5725190839694656,0.9770992366412213,-1.3587786259541985,-0.402099609375,-0.05126953125,-0.3369140625,0.5116999999999999
1.7404580152671756,0.9007633587786259,-1.2213740458015268,-0.4052734375,-0.051513671875,-0.33349609375,0.5134
1.7404580152671756,0.9312977099236641,-1.282442748091603,-0.40673828125,-0.0546875,-0.330078125,0.5151
1.450381679389313,1.0687022900763359,-1.2213740458015268,-0.408447265625,-0.05419921875,-0.326904296875,0.5167999999999999
1.6488549618320612,0.8396946564885496,-1.282442748091603,-0.40869140625,-0.05419921875,-0.327880859375,0.5185
1.5877862595419847,1.0381679389312977,-1.1603053435114503,-0.400390625,-0.054931640625,-0.327392578125,0.5202
1.7099236641221374,1.0076335877862594,-1.2366412213740459,-0.4033203125,-0.052001953125,-0.327392578125,0.5218999999999999
1.5877862595419847,0.916030534351145,-1.5572519083969465,-0.40234375,-0.05126953125,-0.329345703125,0.5236
1.465648854961832,0.8702290076335878,-1.6488549618320612,-0.40283203125,-0.048583984375,-0.32861328125,0.5253
1.5725190839694656,1.0076335877862594,-1.1908396946564885,-0.405029296875,-0.05126953125,-0.322509765625,0.527
1.5572519083969465,0.7633587786259542,-1.282442748091603,-0.40185546875,-0.0576171875,-0.33203125,0.5287
1.3587786259541985,0.8244274809160306,-1.2213740458015268,-0.400390625,-0.0537109375,-0.33056640625,0.5304
1.5114503816793894,1.099236641221374,-1.2671755725190839,-0.40283203125,-0.052001953125,-0.3330078125,0.5321
1.5267175572519085,0.8396946564885496,-1.297709923664122,-0.39892578125,-0.051025390625,-0.321533203125,0.5337999999999999
1.450381679389313,0.8854961832061069,-1.4809160305343512,-0.405517578125,-0.0537109375,-0.3232421875,0.5355
1.5114503816793894,0.9007633587786259,-1.297709923664122,-0.40087890625,-0.052978515625,-0.327880859375,0.5372
1.465648854961832,0.8549618320610687,-1.3129770992366412,-0.400390625,-0.05029296875,-0.330078125,0.5388999999999999
1.4961832061068703,0.8244274809160306,-1.282442748091603,-0.40185546875,-0.052490234375,-0.330078125,0.5406
1.5267175572519085,0.9923664122137404,-1.4809160305343512,-0.403076171875,-0.051025390625,-0.33544921875,0.5423
1.4351145038167938,0.8244274809160306,-1.1755725190839694,-0.405517578125,-0.05810546875,-0.33984375,0.5439999999999999
1.4961832061068703,0.7480916030534351,-1.3740458015267176,-0.408203125,-0.05126953125,-0.33349609375,0.5457
1.4961832061068703,0.7022900763358778,-1.282442748091603,-0.4072265625,-0.05078125,-0.333984375,0.5474
1.251908396946565,0.5038167938931297,-1.3435114503816794,-0.404052734375,-0.05322265625,-0.332275390625,0.5490999999999999
1.3893129770992367,0.7786259541984732,-1.2366412213740459,-0.4013671875,-0.050048828125,-0.327880859375,0.5508
1.3129770992366412,0.6564885496183206,-1.2366412213740459,-0.40283203125,-0.0498046875,-0.332275390625,0.5525
1.3740458015267176,0.6259541984732825,-1.1755725190839694,-0.40478515625,-0.05224609375,-0.328125,0.5541999999999999
1.5114503816793894,0.6259541984732825,-1.3893129770992367,-0.402587890625,-0.05419921875,-0.33251953125,0.5559
1.1603053435114503,0.5190839694656488,-1.297709923664122,-0.403564453125,-0.052978515625,-0.333984375,0.5576
1.099236641221374,0.5801526717557252,-1.1908396946564885,-0.40380859375,-0.05517578125,-0.3369140625,0.5593
1.3740458015267176,0.5038167938931297,-1.1297709923664123,-0.40380859375,-0.052490234375,-0.336669921875,0.5609999999999999
1.3740458015267176,0.3816793893129771,-1.3129770992366412,-0.40478515625,-0.046630859375,-0.327880859375,0.5627
1.1603053435114503,0.42748091603053434,-1.1297709923664123,-0.405029296875,-0.053955078125,-0.3291015625,0.5644
1.1145038167938932,0.5038167938931297,-1.1603053435114503,-0.401611328125,-0.054931640625,-0.336669921875,0.5660999999999999
1.297709923664122,0.2900763358778626,-1.297709923664122,-0.39990234375,-0.051513671875,-0.330078125,0.5678
1.1755725190839694,0.2900763358778626,-1.3740458015267176,-0.4013671875,-0.05419921875,-0.340576171875,0.5695
0.8854961832061069,0.33587786259541985,-1.1297709923664123,-0.39794921875,-0.058349609375,-0.333251953125,0.5711999999999999
0.9770992366412213,0.4122137404580153,-1.0229007633587786,-0.40478515625,-0.058837890625,-0.333740234375,0.5729
1.0534351145038168,0.549618320610687,-1.2366412213740459,-0.406005859375,-0.05615234375,-0.3291015625,0.5746
1.0229007633587786,0.4732824427480916,-1.1603053435114503,-0.403076171875,-0.051513671875,-0.33447265625,0.5762999999999999
1.1145038167938932,0.32061068702290074,-1.0687022900763359,-0.4052734375,-0.05224609375,-0.319091796875,0.578
0.9312977099236641,0.3969465648854962,-1.3435114503816794,-0.401611328125,-0.052490234375,-0.327880859375,0.5797
0.732824427480916,0.07633587786259542,-1.1755725190839694,-0.4033203125,-0.05224609375,-0.333984375,0.5813999999999999
1.0229007633587786,0.061068702290076333,-1.0687022900763359,-0.40087890625,-0.053466796875,-0.332763671875,0.5831
0.8549618320610687,0.15267175572519084,-1.251908396946565,-0.4033203125,-0.053466796875,-0.328857421875,0.5848
0.9007633587786259,0.1984732824427481,-1.1297709923664123,-0.402099609375,-0.052001953125,-0.332275390625,0.5865
1.0229007633587786,-0.04580152671755725,-1.083969465648855,-0.403564453125,-0.052001953125,-0.325927734375,0.5882
0.9465648854961832,-0.030534351145038167,-1.1908396946564885,-0.40185546875,-0.05419921875,-0.332763671875,0.5899
0.9770992366412213,0.030534351145038167,-1.1145038167938932,-0.400390625,-0.057373046875,-0.3310546875,0.5916
0.7480916030534351,-0.12213740458015267,-1.0229007633587786,-0.401611328125,-0.05029296875,-0.331298828125,0.5932999999999999
0.9770992366412213,-0.33587786259541985,-1.1908396946564885,-0.403564453125,-0.056884765625,-0.32763671875,0.595
1.0687022900763359,-0.12213740458015267,-1.2061068702290076,-0.406005859375,-0.0556640625,-0.330810546875,0.5967
0.5801526717557252,-0.21374045801526717,-1.1908396946564885,-0.4033203125,-0.05419921875,-0.32470703125,0.5983999999999999
0.9618320610687023,-0.2595419847328244,-1.1755725190839694,-0.40673828125,-0.04541015625,-0.332275390625,0.6001
1.0534351145038168,0.0,-1.0076335877862594,-0.40869140625,-0.048583984375,-0.330810546875,0.6018
0.9618320610687023,-0.24427480916030533,-1.083969465648855,-0.40673828125,-0.05322265625,-0.33447265625,0.6034999999999999
1.0229007633587786,-0.22900763358778625,-1.4045801526717556,-0.40478515625,-0.056396484375,-0.3310546875,0.6052
0.8396946564885496,-0.5954198473282443,-1.2366412213740459,-0.404052734375,-0.052001953125,-0.328125,0.6069
0.9007633587786259,-0.22900763358778625,-1.1755725190839694,-0.4013671875,-0.05078125,-0.3232421875,0.6085999999999999
0.9465648854961832,-0.2900763358778626,-1.2213740458015268,-0.400634765625,-0.052490234375,-0.32666015625,0.6103
0.6564885496183206,-0.21374045801526717,-0.9770992366412213,-0.403076171875,-0.05419921875,-0.3232421875,0.612
1.0687022900763359,-0.44274809160305345,-0.9618320610687023,-0.406494140625,-0.04931640625,-0.3232421875,0.6136999999999999
1.0229007633587786,-0.2900763358778626,-0.9923664122137404,-0.40771484375,-0.0517578125,-0.329833984375,0.6154
0.732824427480916,-0.3053435114503817,-1.083969465648855,-0.4033203125,-0.04931640625,-0.330078125,0.6171
1.0076335877862594,-0.3969465648854962,-1.0381679389312977,-0.406494140625,-0.04443359375,-0.31884765625,0.6188
0.7022900763358778,-0.24427480916030533,-1.0534351145038168,-0.406494140625,-0.04833984375,-0.340087890625,0.6204999999999999
0.9770992366412213,-0.2595419847328244,-0.9923664122137404,-0.403076171875,-0.050048828125,-0.3291015625,0.6222
1.1145038167938932,-0.3511450381679389,-1.1297709923664123,-0.39990234375,-0.049072265625,-0.335693359375,0.6239
1.0076335877862594,-0.3053435114503817,-1.083969465648855,-0.40380859375,-0.05126953125,-0.32421875,0.6255999999999999
0.9923664122137404,-0.33587786259541985,-1.1145038167938932,-0.40283203125,-0.0498046875,-0.32373046875,0.6273
1.0534351145038168,-0.2748091603053435,-1.1450381679389312,-0.404541015625,-0.0537109375,-0.32958984375,0.629
0.9465648854961832,-0.2748091603053435,-0.916030534351145,-0.408447265625,-0.050537109375,-0.33056640625,0.6306999999999999
1.1908396946564885,-0.42748091603053434,-1.2061068702290076,-0.409423828125,-0.045166015625,-0.327392578125,0.6324
1.0381679389312977,-0.5343511450381679,-1.282442748091603,-0.404052734375,-0.04833984375,-0.333251953125,0.6341
0.8549618320610687,-0.5190839694656488,-1.450381679389313,-0.401611328125,-0.048828125,-0.335205078125,0.6357999999999999
1.2366412213740459,-0.4732824427480916,-1.1145038167938932,-0.404541015625,-0.047119140625,-0.329833984375,0.6375
1.099236641221374,-0.4580152671755725,-1.1755725190839694,-0.407958984375,-0.05029296875,-0.322265625,0.6392
1.0381679389312977,-0.3511450381679389,-1.2671755725190839,-0.40380859375,-0.05224609375,-0.326904296875,0.6408999999999999
1.099236641221374,-0.2595419847328244,-1.2213740458015268,-0.404052734375,-0.05419921875,-0.32861328125,0.6426
1.1450381679389312,-0.5343511450381679,-1.297709923664122,-0.406005859375,-0.05322265625,-0.32958984375,0.6443
1.099236641221374,-0.42748091603053434,-1.3129770992366412,-0.40380859375,-0.05419921875,-0.325439453125,0.646
1.2061068702290076,-0.3816793893129771,-1.1297709923664123,-0.404052734375,-0.05224609375,-0.32470703125,0.6476999999999999
1.0687022900763359,-0.3816793893129771,-1.1603053435114503,-0.40673828125,-0.050537109375,-0.32177734375,0.6494
1.0381679389312977,-0.5038167938931297,-1.1908396946564885,-0.408935546875,-0.0498046875,-0.321533203125,0.6511
1.0687022900763359,-0.3511450381679389,-1.083969465648855,-0.406982421875,-0.043212890625,-0.328857421875,0.6527999999999999
1.2061068702290076,-0.22900763358778625,-1.083969465648855,-0.403564453125,-0.052001953125,-0.33740234375,0.6545
0.7175572519083969,-0.3816793893129771,-0.8396946564885496,-0.406982421875,-0.044921875,-0.32861328125,0.6562
1.1297709923664123,-0.2748091603053435,-0.9618320610687023,-0.412353515625,-0.0537109375,-0.32763671875,0.6578999999999999
1.2213740458015268,-0.183206106870229,-1.1603053435114503,-0.406982421875,-0.05712890625,-0.330810546875,0.6596
0.7022900763358778,-0.15267175572519084,-1.099236641221374,-0.407958984375,-0.052001953125,-0.3310546875,0.6613
0.9923664122137404,-0.2595419847328244,-0.9618320610687023,-0.41162109375,-0.052978515625,-0.319580078125,0.6629999999999999
0.7480916030534351,-0.2900763358778626,-0.9770992366412213,-0.40625,-0.05419921875,-0.319580078125,0.6647
0.7022900763358778,-0.13740458015267176,-0.9770992366412213,-0.410888671875,-0.05322265625,-0.328857421875,0.6664
0.7786259541984732,0.0,-0.9312977099236641,-0.4111328125,-0.05078125,-0.32763671875,0.6680999999999999
0.7175572519083969,-0.061068702290076333,-1.0534351145038168,-0.408935546875,-0.05419921875,-0.326416015625,0.6698
0.5343511450381679,-0.030534351145038167,-1.0229007633587786,-0.408935546875,-0.053955078125,-0.326171875,0.6715
0.6564885496183206,0.0916030534351145,-0.9923664122137404,-0.41015625,-0.05029296875,-0.3271484375,0.6731999999999999
0.6717557251908397,0.2748091603053435,-1.2213740458015268,-0.41064453125,-0.05078125,-0.32666015625,0.6748999999999999
0.6412213740458015,0.24427480916030533,-1.1908396946564885,-0.4111328125,-0.054443359375,-0.3173828125,0.6766
0.6564885496183206,0.42748091603053434,-1.0076335877862594,-0.404296875,-0.04736328125,-0.33056640625,0.6783
0.44274809160305345,0.48854961832061067,-1.2366412213740459,-0.4091796875,-0.04638671875,-0.335205078125,0.6799999999999999
0.33587786259541985,0.5190839694656488,-1.1450381679389312,-0.406005859375,-0.051025390625,-0.3310546875,0.6817
0.6564885496183206,0.5648854961832062,-1.282442748091603,-0.40478515625,-0.048828125,-0.324951171875,0.6834
0.549618320610687,0.5801526717557252,-1.1908396946564885,-0.41064453125,-0.05078125,-0.32763671875,0.6850999999999999
0.7022900763358778,0.732824427480916,-1.251908396946565,-0.408203125,-0.046142578125,-0.3251953125,0.6868
0.48854961832061067,0.7480916030534351,-1.099236641221374,-0.408203125,-0.050537109375,-0.332763671875,0.6885
0.5190839694656488,0.9312977099236641,-1.099236641221374,-0.408447265625,-0.052490234375,-0.33447265625,0.6901999999999999
0.7022900763358778,1.0076335877862594,-0.9923664122137404,-0.41015625,-0.047607421875,-0.338134765625,0.6919
0.7786259541984732,0.9312977099236641,-1.282442748091603,-0.403076171875,-0.048583984375,-0.33203125,0.6936
0.48854961832061067,0.9618320610687023,-1.251908396946565,-0.41064453125,-0.046875,-0.33154296875,0.6952999999999999
0.7175572519083969,1.251908396946565,-1.3129770992366412,-0.40576171875,-0.052001953125,-0.33251953125,0.697
0.6870229007633588,1.1450381679389312,-1.3587786259541985,-0.410400390625,-0.05126953125,-0.328125,0.6987
0.8702290076335878,1.1450381679389312,-1.3893129770992367,-0.4091796875,-0.048828125,-0.328857421875,0.7003999999999999
0.8244274809160306,1.083969465648855,-1.4351145038167938,-0.404541015625,-0.046142578125,-0.33740234375,0.7021
0.8091603053435115,1.1145038167938932,-1.3893129770992367,-0.4052734375,-0.046142578125,-0.328369140625,0.7038
0.549618320610687,1.251908396946565,-1.4045801526717556,-0.408447265625,-0.049560546875,-0.325927734375,0.7055
0.8549618320610687,1.1603053435114503,-1.5419847328244274,-0.405517578125,-0.04541015625,-0.32470703125,0.7071999999999999
1.0076335877862594,1.1450381679389312,-1.5114503816793894,-0.404052734375,-0.0498046875,-0.322021484375,0.7089
1.099236641221374,1.3282442748091603,-1.4198473282442747,-0.411865234375,-0.044921875,-0.3271484375,0.7106
0.8702290076335878,1.2213740458015268,-1.4198473282442747,-0.408447265625,-0.052490234375,-0.337890625,0.7122999999999999
0.916030534351145,1.1450381679389312,-1.7251908396946565,-0.403076171875,-0.0498046875,-0.334228515625,0.714
1.099236641221374,1.1908396946564885,-1.633587786259542,-0.406982421875,-0.04931640625,-0.333251953125,0.7157
1.0534351145038168,1.4045801526717556,-1.633587786259542,-0.404541015625,-0.052490234375,-0.32275390625,0.7173999999999999
1.1297709923664123,1.1908396946564885,-1.3740458015267176,-0.407958984375,-0.048828125,-0.320068359375,0.7191
1.083969465648855,1.1908396946564885,-1.7251908396946565,-0.403076171875,-0.048095703125,-0.3271484375,0.7208
1.1145038167938932,1.297709923664122,-1.5267175572519085,-0.407470703125,-0.04443359375,-0.331787109375,0.7224999999999999
1.2366412213740459,1.1450381679389312,-1.6030534351145038,-0.400390625,-0.046630859375,-0.32763671875,0.7242
1.1145038167938932,1.2061068702290076,-1.2671755725190839,-0.405517578125,-0.046142578125,-0.319580078125,0.7259
1.1755725190839694,1.4961832061068703,-1.5725190839694656,-0.4033203125,-0.042236328125,-0.328369140625,0.7275999999999999
1.1603053435114503,1.1145038167938932,-1.3282442748091603,-0.40380859375,-0.04833984375,-0.325927734375,0.7293
1.3435114503816794,1.1755725190839694,-1.5725190839694656,-0.41015625,-0.049072265625,-0.329833984375,0.731
1.5419847328244274,1.2366412213740459,-1.4961832061068703,-0.406494140625,-0.04833984375,-0.32275390625,0.7326999999999999
1.3893129770992367,1.0076335877862594,-1.5725190839694656,-0.408447265625,-0.041748046875,-0.328369140625,0.7343999999999999
1.3129770992366412,1.0229007633587786,-1.6030534351145038,-0.40234375,-0.042236328125,-0.328125,0.7361
1.2213740458015268,0.8854961832061069,-1.6488549618320612,-0.40869140625,-0.052001953125,-0.326904296875,0.7378
1.2366412213740459,0.9007633587786259,-1.4198473282442747,-0.405029296875,-0.04931640625,-0.32421875,0.7394999999999999
1.3282442748091603,0.7938931297709924,-1.3740458015267176,-0.408447265625,-0.048583984375,-0.328125,0.7412
1.297709923664122,0.8854961832061069,-1.3435114503816794,-0.408203125,-0.04833984375,-0.32763671875,0.7429
1.1450381679389312,0.9770992366412213,-1.5877862595419847,-0.40771484375,-0.052978515625,-0.326904296875,0.7445999999999999
1.1603053435114503,1.1145038167938932,-1.3893129770992367,-0.403076171875,-0.048095703125,-0.32666015625,0.7463
1.3740458015267176,1.0687022900763359,-1.4045801526717556,-0.401123046875,-0.0546875,-0.329345703125,0.748
1.3740458015267176,0.9465648854961832,-1.4198473282442747,-0.4072265625,-0.052490234375,-0.322998046875,0.7496999999999999
1.5877862595419847,0.9923664122137404,-1.5267175572519085,-0.402099609375,-0.055908203125,-0.327880859375,0.7514
1.465648854961832,1.0229007633587786,-1.450381679389313,-0.407470703125,-0.052734375,-0.322509765625,0.7531
1.3129770992366412,1.0381679389312977,-1.282442748091603,-0.408203125,-0.050537109375,-0.325439453125,0.7547999999999999
1.450381679389313,0.916030534351145,-1.2671755725190839,-0.405517578125,-0.049560546875,-0.331787109375,0.7565
1.3435114503816794,0.9923664122137404,-1.450381679389313,-0.402099609375,-0.04931640625,-0.333251953125,0.7582
1.4961832061068703,1.083969465648855,-1.1755725190839694,-0.40380859375,-0.052001953125,-0.325927734375,0.7598999999999999
1.251908396946565,1.0076335877862594,-1.3893129770992367,-0.40478515625,-0.0478515625,-0.33056640625,0.7615999999999999
1.251908396946565,1.0076335877862594,-1.2061068702290076,-0.40234375,-0.04931640625,-0.326904296875,0.7633
1.3282442748091603,0.8091603053435115,-1.3587786259541985,-0.4052734375,-0.05224609375,-0.334716796875,0.7649999999999999
1.1755725190839694,0.8549618320610687,-1.4351145038167938,-0.4052734375,-0.04443359375,-0.323486328125,0.7666999999999999
1.4045801526717556,0.9770992366412213,-1.3740458015267176,-0.405517578125,-0.05029296875,-0.322509765625,0.7684
1.465648854961832,0.8396946564885496,-1.2366412213740459,-0.405517578125,-0.05078125,-0.32763671875,0.7701
1.4045801526717556,1.0229007633587786,-1.3740458015267176,-0.406982421875,-0.051025390625,-0.332275390625,0.7717999999999999
1.282442748091603,0.9007633587786259,-1.4198473282442747,-0.402587890625,-0.046142578125,-0.32275390625,0.7735
1.1297709923664123,1.1145038167938932,-1.3587786259541985,-0.408935546875,-0.046630859375,-0.3251953125,0.7752
1.282442748091603,1.1755725190839694,-1.282442748091603,-0.408447265625,-0.048828125,-0.3291015625,0.7768999999999999
1.1450381679389312,1.0076335877862594,-1.3740458015267176,-0.39697265625,-0.0458984375,-0.328125,0.7786
1.3129770992366412,1.083969465648855,-1.251908396946565,-0.405029296875,-0.048583984375,-0.32666015625,0.7803
1.1908396946564885,1.1450381679389312,-1.282442748091603,-0.406494140625,-0.046630859375,-0.3310546875,0.7819999999999999
1.3740458015267176,1.1603053435114503,-1.297709923664122,-0.4052734375,-0.05029296875,-0.333740234375,0.7837
1.1145038167938932,1.0687022900763359,-1.3587786259541985,-0.4052734375,-0.041259765625,-0.332275390625,0.7854
1.0076335877862594,1.0381679389312977,-1.3282442748091603,-0.40234375,-0.0458984375,-0.328125,0.7870999999999999
1.099236641221374,0.9923664122137404,-1.3893129770992367,-0.40771484375,-0.052001953125,-0.32861328125,0.7888
1.2366412213740459,0.9312977099236641,-1.2671755725190839,-0.404541015625,-0.05419921875,-0.3310546875,0.7905
1.282442748091603,0.9007633587786259,-1.297709923664122,-0.41015625,-0.05029296875,-0.33154296875,0.7921999999999999
1.282442748091603,0.9465648854961832,-1.3435114503816794,-0.405029296875,-0.046142578125,-0.329833984375,0.7938999999999999
1.1145038167938932,0.9923664122137404,-1.3435114503816794,-0.40869140625,-0.04150390625,-0.32861328125,0.7956
1.3282442748091603,1.1755725190839694,-1.251908396946565,-0.4072265625,-0.044921875,-0.33349609375,0.7973
1.4045801526717556,0.9007633587786259,-1.4809160305343512,-0.408203125,-0.047119140625,-0.33203125,0.7989999999999999
1.3740458015267176,1.0687022900763359,-1.1908396946564885,-0.39794921875,-0.05029296875,-0.336669921875,0.8007
1.5877862595419847,0.9770992366412213,-1.3282442748091603,-0.410888671875,-0.048583984375,-0.32861328125,0.8024
1.465648854961832,0.9312977099236641,-1.3129770992366412,-0.4072265625,-0.049072265625,-0.328125,0.8040999999999999
1.465648854961832,0.8854961832061069,-1.3435114503816794,-0.407958984375,-0.050048828125,-0.328125,0.8058
1.4809160305343512,1.0381679389312977,-1.2366412213740459,-0.397216796875,-0.049560546875,-0.333740234375,0.8075
1.9083969465648856,0.8244274809160306,-1.3435114503816794,-0.401123046875,-0.050048828125,-0.332763671875,0.8091999999999999
1.5877862595419847,0.9770992366412213,-1.2213740458015268,-0.403076171875,-0.046630859375,-0.324462890625,0.8109
1.4198473282442747,0.8854961832061069,-1.3740458015267176,-0.402587890625,-0.046875,-0.3291015625,0.8126
1.6030534351145038,1.0229007633587786,-1.3587786259541985,-0.4052734375,-0.046630859375,-0.328369140625,0.8142999999999999
1.6793893129770991,0.9618320610687023,-1.4045801526717556,-0.404296875,-0.049072265625,-0.322998046875,0.816
1.7709923664122138,0.916030534351145,-1.3893129770992367,-0.40673828125,-0.047119140625,-0.327392578125,0.8177
1.816793893129771,0.9312977099236641,-1.3587786259541985,-0.400634765625,-0.043212890625,-0.31982421875,0.8193999999999999
1.9541984732824427,0.7633587786259542,-1.465648854961832,-0.400390625,-0.042236328125,-0.326904296875,0.8210999999999999
1.6488549618320612,0.6717557251908397,-1.3587786259541985,-0.40625,-0.046630859375,-0.33056640625,0.8228
1.618320610687023,0.7022900763358778,-1.4198473282442747,-0.405029296875,-0.04443359375,-0.3359375,0.8244999999999999
1.7709923664122138,0.6259541984732825,-1.1297709923664123,-0.40283203125,-0.0439453125,-0.323486328125,0.8261999999999999
1.8473282442748091,0.4580152671755725,-1.3587786259541985,-0.3974609375,-0.047607421875,-0.326171875,0.8279
1.5877862595419847,0.549618320610687,-1.297709923664122,-0.40380859375,-0.0498046875,-0.32861328125,0.8296
1.8778625954198473,0.5801526717557252,-1.1297709923664123,-0.405029296875,-0.04931640625,-0.3349609375,0.8312999999999999
1.7557251908396947,0.44274809160305345,-1.1145038167938932,-0.40380859375,-0.052978515625,-0.3310546875,0.833
1.7099236641221374,0.5343511450381679,-1.4961832061068703,-0.4033203125,-0.0478515625,-0.3369140625,0.8347
2.015267175572519,0.5343511450381679,-1.3129770992366412,-0.40185546875,-0.049560546875,-0.331787109375,0.8363999999999999
1.9236641221374047,0.2595419847328244,-1.3893129770992367,-0.40185546875,-0.052001953125,-0.32666015625,0.8381
2.1526717557251906,0.3816793893129771,-1.2213740458015268,-0.40673828125,-0.050048828125,-0.328369140625,0.8398
1.9694656488549618,0.3053435114503817,-1.3282442748091603,-0.406494140625,-0.052978515625,-0.33349609375,0.8414999999999999
1.618320610687023,0.24427480916030533,-1.251908396946565,-0.4072265625,-0.052734375,-0.335693359375,0.8432
1.8778625954198473,0.3969465648854962,-1.4961832061068703,-0.406005859375,-0.048095703125,-0.329833984375,0.8449
2.0610687022900764,0.3511450381679389,-1.5419847328244274,-0.40478515625,-0.056884765625,-0.32763671875,0.8465999999999999
1.8778625954198473,0.32061068702290074,-1.2671755725190839,-0.40087890625,-0.052734375,-0.328369140625,0.8482999999999999
1.8778625954198473,0.12213740458015267,-1.3129770992366412,-0.408203125,-0.047607421875,-0.334716796875,0.85
1.9541984732824427,-0.030534351145038167,-1.465648854961832,-0.406982421875,-0.05029296875,-0.327392578125,0.8516999999999999
1.7557251908396947,0.12213740458015267,-1.450381679389313,-0.406982421875,-0.0478515625,-0.329833984375,0.8533999999999999
1.7099236641221374,-0.015267175572519083,-1.3893129770992367,-0.405517578125,-0.0517578125,-0.329833984375,0.8551
1.9083969465648856,0.15267175572519084,-1.3282442748091603,-0.404296875,-0.048583984375,-0.330078125,0.8568
1.786259541984733,0.04580152671755725,-1.465648854961832,-0.407958984375,-0.04443359375,-0.32421875,0.8584999999999999
1.7557251908396947,0.1984732824427481,-1.297709923664122,-0.406494140625,-0.046630859375,-0.32861328125,0.8602
1.7557251908396947,0.07633587786259542,-1.4351145038167938,-0.40283203125,-0.056396484375,-0.33203125,0.8619
1.9389312977099236,-0.015267175572519083,-1.1603053435114503,-0.404052734375,-0.048583984375,-0.331787109375,0.8635999999999999
1.8015267175572518,0.1984732824427481,-1.282442748091603,-0.40625,-0.048828125,-0.325439453125,0.8653
1.6641221374045803,0.0916030534351145,-1.251908396946565,-0.401611328125,-0.05078125,-0.32568359375,0.867
1.816793893129771,0.10687022900763359,-1.3435114503816794,-0.40869140625,-0.053466796875,-0.318359375,0.8686999999999999
1.816793893129771,0.061068702290076333,-1.297709923664122,-0.4091796875,-0.052001953125,-0.3232421875,0.8704
1.7099236641221374,-0.061068702290076333,-1.465648854961832,-0.40625,-0.05078125,-0.330322265625,0.8721
1.4809160305343512,0.015267175572519083,-1.3129770992366412,-0.399658203125,-0.050537109375,-0.3251953125,0.8737999999999999
1.6946564885496183,0.16793893129770993,-1.4961832061068703,-0.399169921875,-0.047607421875,-0.323486328125,0.8755
1.6488549618320612,0.061068702290076333,-1.4961832061068703,-0.409912109375,-0.055419921875,-0.3310546875,0.8772
1.786259541984733,0.15267175572519084,-1.4809160305343512,-0.40576171875,-0.044921875,-0.32470703125,0.8788999999999999
1.6946564885496183,-0.0916030534351145,-1.3893129770992367,-0.40966796875,-0.048828125,-0.32080078125,0.8805999999999999
1.7251908396946565,0.061068702290076333,-1.3435114503816794,-0.409912109375,-0.048828125,-0.3291015625,0.8823
1.8015267175572518,0.22900763358778625,-1.297709923664122,-0.408447265625,-0.056396484375,-0.32421875,0.8839999999999999
1.4198473282442747,0.183206106870229,-1.633587786259542,-0.40380859375,-0.047607421875,-0.32958984375,0.8856999999999999
1.5572519083969465,0.12213740458015267,-1.3587786259541985,-0.409912109375,-0.04931640625,-0.3251953125,0.8874
1.8015267175572518,0.0916030534351145,-1.3740458015267176,-0.404541015625,-0.05517578125,-0.33203125,0.8891
1.83206106870229,0.04580152671755725,-1.282442748091603,-0.4052734375,-0.04931640625,-0.326171875,0.8907999999999999
1.618320610687023,0.24427480916030533,-1.4198473282442747,-0.404296875,-0.051513671875,-0.330078125,0.8925
1.6946564885496183,0.22900763358778625,-1.5267175572519085,-0.4052734375,-0.048095703125,-0.326904296875,0.8942
1.83206106870229,0.24427480916030533,-1.3435114503816794,-0.400390625,-0.05126953125,-0.333251953125,0.8958999999999999
1.8473282442748091,0.2900763358778626,-1.3129770992366412,-0.403564453125,-0.05029296875,-0.329345703125,0.8976
1.6946564885496183,0.2748091603053435,-1.4351145038167938,-0.4072265625,-0.048583984375,-0.331787109375,0.8993
1.816793893129771,0.10687022900763359,-1.2061068702290076,-0.40966796875,-0.0517578125,-0.32421875,0.9009999999999999
1.6030534351145038,0.366412213740458,-1.3740458015267176,-0.407470703125,-0.052001953125,-0.332275390625,0.9027
1.6641221374045803,0.3053435114503817,-1.1297709923664123,-0.409912109375,-0.050048828125,-0.330078125,0.9044
1.8015267175572518,0.3969465648854962,-1.282442748091603,-0.406005859375,-0.0498046875,-0.32666015625,0.9060999999999999
1.786259541984733,0.22900763358778625,-1.1450381679389312,-0.41015625,-0.04345703125,-0.32373046875,0.9077999999999999
1.8473282442748091,0.3053435114503817,-1.3129770992366412,-0.405517578125,-0.050048828125,-0.33154296875,0.9095
1.5267175572519085,0.22900763358778625,-1.1908396946564885,-0.4013671875,-0.047607421875,-0.3212890625,0.9111999999999999
1.786259541984733,0.1984732824427481,-1.282442748091603,-0.406005859375,-0.049072265625,-0.333251953125,0.9128999999999999
1.633587786259542,0.24427480916030533,-1.2061068702290076,-0.40625,-0.04443359375,-0.331298828125,0.9146
1.6793893129770991,0.5190839694656488,-1.3435114503816794,-0.406494140625,-0.04833984375,-0.326904296875,0.9163
1.786259541984733,0.33587786259541985,-1.297709923664122,-0.408935546875,-0.050537109375,-0.324462890625,0.9179999999999999
1.786259541984733,0.4732824427480916,-1.2366412213740459,-0.40966796875,-0.05615234375,-0.327392578125,0.9197
1.6030534351145038,0.5648854961832062,-1.282442748091603,-0.412353515625,-0.050048828125,-0.328857421875,0.9214
1.6946564885496183,0.44274809160305345,-1.3587786259541985,-0.406005859375,-0.0498046875,-0.326904296875,0.9230999999999999
1.8931297709923665,0.3816793893129771,-1.3282442748091603,-0.40087890625,-0.050537109375,-0.32373046875,0.9248
1.7099236641221374,0.4580152671755725,-1.2213740458015268,-0.40283203125,-0.048095703125,-0.320556640625,0.9265
1.7099236641221374,0.5038167938931297,-1.251908396946565,-0.4033203125,-0.051513671875,-0.323486328125,0.9281999999999999
1.618320610687023,0.2900763358778626,-1.3740458015267176,-0.403076171875,-0.05224609375,-0.326416015625,0.9299
1.83206106870229,0.549618320610687,-1.282442748091603,-0.404296875,-0.0546875,-0.330078125,0.9316
1.8473282442748091,0.4580152671755725,-1.1755725190839694,-0.40087890625,-0.050048828125,-0.325439453125,0.9332999999999999
1.8625954198473282,0.4580152671755725,-1.0229007633587786,-0.40625,-0.051025390625,-0.321044921875,0.9349999999999999
1.7404580152671756,0.4732824427480916,-1.282442748091603,-0.406982421875,-0.050537109375,-0.32763671875,0.9367
1.8778625954198473,0.4580152671755725,-1.1450381679389312,-0.404541015625,-0.047119140625,-0.322509765625,0.9383999999999999
1.816793893129771,0.4732824427480916,-0.9923664122137404,-0.40673828125,-0.054931640625,-0.328369140625,0.9400999999999999
1.83206106870229,0.549618320610687,-1.1297709923664123,-0.40576171875,-0.048095703125,-0.3203125,0.9418
1.6030534351145038,0.3053435114503817,-1.0229007633587786,-0.40869140625,-0.05126953125,-0.329833984375,0.9434999999999999
1.7251908396946565,0.5038167938931297,-1.0687022900763359,-0.4033203125,-0.05712890625,-0.3291015625,0.9451999999999999
1.633587786259542,0.4732824427480916,-0.8854961832061069,-0.404052734375,-0.0498046875,-0.3330078125,0.9469
1.6488549618320612,0.3969465648854962,-0.732824427480916,-0.400146484375,-0.047607421875,-0.32958984375,0.9486
1.8931297709923665,0.366412213740458,-0.8702290076335878,-0.402099609375,-0.044189453125,-0.323974609375,0.9502999999999999
1.786259541984733,0.5190839694656488,-0.8854961832061069,-0.407958984375,-0.0478515625,-0.32861328125,0.952
1.6030534351145038,0.42748091603053434,-0.7938931297709924,-0.405517578125,-0.0478515625,-0.3203125,0.9537
1.5114503816793894,0.42748091603053434,-0.6412213740458015,-0.400390625,-0.052734375,-0.32666015625,0.9553999999999999
1.786259541984733,0.5038167938931297,-0.8396946564885496,-0.404296875,-0.051025390625,-0.32568359375,0.9571
1.7099236641221374,0.549618320610687,-0.8549618320610687,-0.407958984375,-0.050048828125,-0.330078125,0.9588
1.7557251908396947,0.5343511450381679,-0.7633587786259542,-0.40869140625,-0.050048828125,-0.339599609375,0.9604999999999999
1.6488549618320612,0.5038167938931297,-0.7786259541984732,-0.407958984375,-0.04736328125,-0.33447265625,0.9621999999999999
1.6488549618320612,0.5954198473282443,-0.8396946564885496,-0.403564453125,-0.05029296875,-0.3359375,0.9639
1.6488549618320612,0.7022900763358778,-0.8702290076335878,-0.407470703125,-0.046142578125,-0.333740234375,0.9655999999999999
1.633587786259542,0.6106870229007634,-0.8244274809160306,-0.407958984375,-0.0498046875,-0.322998046875,0.9672999999999999
1.5877862595419847,0.5648854961832062,-0.8549618320610687,-0.407470703125,-0.046142578125,-0.3251953125,0.969
1.5572519083969465,0.5801526717557252,-0.916030534351145,-0.4072265625,-0.046875,-0.325439453125,0.9706999999999999
1.618320610687023,0.6259541984732825,-0.9618320610687023,-0.40478515625,-0.052734375,-0.32373046875,0.9723999999999999
1.7404580152671756,0.8396946564885496,-0.8549618320610687,-0.408935546875,-0.0478515625,-0.32568359375,0.9741
1.5572519083969465,0.6564885496183206,-0.8549618320610687,-0.406982421875,-0.052978515625,-0.329833984375,0.9758
1.4809160305343512,0.6106870229007634,-0.7633587786259542,-0.41162109375,-0.046142578125,-0.321533203125,0.9774999999999999
1.816793893129771,0.732824427480916,-0.9618320610687023,-0.404541015625,-0.04638671875,-0.32763671875,0.9792
1.83206106870229,0.5190839694656488,-0.8396946564885496,-0.404052734375,-0.04541015625,-0.3271484375,0.9809
1.5114503816793894,0.7022900763358778,-1.0229007633587786,-0.40478515625,-0.046630859375,-0.328857421875,0.9825999999999999
1.6946564885496183,0.7022900763358778,-0.8702290076335878,-0.40966796875,-0.050048828125,-0.33447265625,0.9843
1.7099236641221374,0.7786259541984732,-0.9007633587786259,-0.41015625,-0.052978515625,-0.332763671875,0.986
1.7099236641221374,0.9465648854961832,-1.1755725190839694,-0.4052734375,-0.048828125,-0.33056640625,0.9876999999999999
1.83206106870229,0.916030534351145,-1.0534351145038168,-0.40869140625,-0.049560546875,-0.326416015625,0.9894
1.8931297709923665,0.6870229007633588,-0.9312977099236641,-0.4072265625,-0.052734375,-0.328125,0.9911
1.6946564885496183,0.9618320610687023,-1.083969465648855,-0.407470703125,-0.052001953125,-0.32763671875,0.9927999999999999
1.7099236641221374,0.9770992366412213,-1.2366412213740459,-0.4052734375,-0.049560546875,-0.322021484375,0.9944999999999999
1.7099236641221374,0.9770992366412213,-1.0229007633587786,-0.4013671875,-0.0498046875,-0.332275390625,0.9962
1.7099236641221374,0.9923664122137404,-1.0229007633587786,-0.407958984375,-0.051025390625,-0.32958984375,0.9978999999999999
1.8015267175572518,1.099236641221374,-1.083969465648855,-0.406494140625,-0.05078125,-0.328857421875,0.9995999999999999
1.4961832061068703,0.9007633587786259,-1.0381679389312977,-0.40283203125,-0.05029296875,-0.32763671875,1.0012999999999999
1.5572519083969465,1.0687022900763359,-1.2061068702290076,-0.407470703125,-0.044189453125,-0.332275390625,1.003
1.7404580152671756,1.0076335877862594,-0.9923664122137404,-0.399658203125,-0.05029296875,-0.32958984375,1.0047
1.8015267175572518,1.0381679389312977,-0.9770992366412213,-0.407470703125,-0.049072265625,-0.32275390625,1.0064
1.4045801526717556,1.0229007633587786,-0.8549618320610687,-0.405517578125,-0.050048828125,-0.32177734375,1.0081
1.816793893129771,0.9007633587786259,-1.1145038167938932,-0.40966796875,-0.051025390625,-0.316162109375,1.0098
1.6641221374045803,1.0687022900763359,-0.916030534351145,-0.404052734375,-0.048828125,-0.325439453125,1.0114999999999998
1.6641221374045803,1.1755725190839694,-0.916030534351145,-0.399658203125,-0.054443359375,-0.327392578125,1.0131999999999999
1.7251908396946565,1.1755725190839694,-1.0076335877862594,-0.404541015625,-0.057861328125,-0.3291015625,1.0149
1.618320610687023,1.0381679389312977,-1.2671755725190839,-0.40966796875,-0.053955078125,-0.325927734375,1.0166
1.4351145038167938,0.8854961832061069,-0.8549618320610687,-0.398193359375,-0.0517578125,-0.3359375,1.0183
1.7404580152671756,1.0534351145038168,-1.2061068702290076,-0.405517578125,-0.04833984375,-0.330078125,1.02
1.5877862595419847,1.099236641221374,-1.1755725190839694,-0.405029296875,-0.047607421875,-0.3291015625,1.0217
1.6946564885496183,0.7480916030534351,-0.9618320610687023,-0.405517578125,-0.048095703125,-0.330810546875,1.0233999999999999
1.5419847328244274,0.7022900763358778,-0.8244274809160306,-0.406005859375,-0.054443359375,-0.327880859375,1.0251
1.6793893129770991,0.5954198473282443,-0.8244274809160306,-0.405517578125,-0.051513671875,-0.32421875,1.0268
1.6030534351145038,0.8244274809160306,-0.8396946564885496,-0.402099609375,-0.053955078125,-0.3173828125,1.0285
1.465648854961832,0.5801526717557252,-0.9770992366412213,-0.40478515625,-0.047119140625,-0.32568359375,1.0302
1.3740458015267176,0.6259541984732825,-0.8854961832061069,-0.406982421875,-0.050537109375,-0.3310546875,1.0319
1.4351145038167938,0.6412213740458015,-1.0381679389312977,-0.406005859375,-0.0498046875,-0.338623046875,1.0335999999999999
1.5572519083969465,0.6259541984732825,-0.9465648854961832,-0.40234375,-0.052490234375,-0.332275390625,1.0352999999999999
1.4961832061068703,0.5190839694656488,-0.9770992366412213,-0.406005859375,-0.049072265625,-0.330078125,1.037
1.4351145038167938,0.5190839694656488,-0.9465648854961832,-0.40234375,-0.048828125,-0.322021484375,1.0387
1.465648854961832,0.4580152671755725,-1.1603053435114503,-0.404296875,-0.053466796875,-0.325927734375,1.0404
1.450381679389313,0.4732824427480916,-1.0534351145038168,-0.40380859375,-0.052001953125,-0.32421875,1.0421
1.4045801526717556,0.3816793893129771,-1.2671755725190839,-0.405517578125,-0.053466796875,-0.328369140625,1.0437999999999998
1.1603053435114503,0.44274809160305345,-0.9618320610687023,-0.405517578125,-0.05322265625,-0.320068359375,1.0454999999999999
1.3740458015267176,0.4122137404580153,-1.0687022900763359,-0.403564453125,-0.044921875,-0.327392578125,1.0472
1.4809160305343512,0.44274809160305345,-0.9923664122137404,-0.40283203125,-0.04931640625,-0.326904296875,1.0489
1.4351145038167938,0.4580152671755725,-1.2061068702290076,-0.403076171875,-0.051513671875,-0.33251953125,1.0506
1.2213740458015268,0.3969465648854962,-1.083969465648855,-0.40478515625,-0.048828125,-0.32568359375,1.0523
1.251908396946565,0.32061068702290074,-1.297709923664122,-0.396728515625,-0.050537109375,-0.329833984375,1.054
1.5114503816793894,0.2900763358778626,-1.1145038167938932,-0.404541015625,-0.04638671875,-0.326416015625,1.0556999999999999
1.2671755725190839,0.4122137404580153,-1.1297709923664123,-0.4130859375,-0.048095703125,-0.334716796875,1.0574
1.2366412213740459,0.3816793893129771,-1.282442748091603,-0.402099609375,-0.049560546875,-0.32763671875,1.0591
1.1755725190839694,0.44274809160305345,-1.1603053435114503,-0.404052734375,-0.051025390625,-0.327880859375,1.0608
1.297709923664122,0.2748091603053435,-1.0076335877862594,-0.407470703125,-0.050048828125,-0.326904296875,1.0625
1.1755725190839694,0.21374045801526717,-1.2366412213740459,-0.405029296875,-0.0537109375,-0.327392578125,1.0642
1.465648854961832,0.366412213740458,-1.297709923664122,-0.40283203125,-0.05224609375,-0.326171875,1.0658999999999998
1.3282442748091603,0.2748091603053435,-1.3435114503816794,-0.405029296875,-0.0537109375,-0.327880859375,1.0675999999999999
1.4809160305343512,0.16793893129770993,-1.2061068702290076,-0.40478515625,-0.05029296875,-0.32666015625,1.0693
1.2213740458015268,0.4122137404580153,-1.282442748091603,-0.408935546875,-0.046875,-0.333984375,1.071
1.2366412213740459,0.16793893129770993,-1.2671755725190839,-0.401611328125,-0.0458984375,-0.333740234375,1.0727
1.1145038167938932,0.1984732824427481,-1.3129770992366412,-0.411376953125,-0.048583984375,-0.328857421875,1.0744
1.1908396946564885,0.32061068702290074,-1.2061068702290076,-0.406982421875,-0.047119140625,-0.32666015625,1.0760999999999998
1.618320610687023,0.2748091603053435,-1.3893129770992367,-0.405029296875,-0.0537109375,-0.326904296875,1.0777999999999999
1.297709923664122,0.24427480916030533,-1.1908396946564885,-0.406494140625,-0.04638671875,-0.324462890625,1.0795
1.2671755725190839,0.3969465648854962,-1.4198473282442747,-0.405517578125,-0.048095703125,-0.32861328125,1.0812
1.5419847328244274,0.42748091603053434,-1.4809160305343512,-0.41064453125,-0.048095703125,-0.326171875,1.0829
1.4961832061068703,0.6412213740458015,-1.2671755725190839,-0.409912109375,-0.046142578125,-0.323974609375,1.0846
1.465648854961832,0.4122137404580153,-1.3587786259541985,-0.40966796875,-0.051025390625,-0.32080078125,1.0863
1.5419847328244274,0.5648854961832062,-1.2213740458015268,-0.408203125,-0.051513671875,-0.326904296875,1.0879999999999999
1.3740458015267176,0.32061068702290074,-1.2671755725190839,-0.40576171875,-0.046630859375,-0.331787109375,1.0897
1.4045801526717556,0.24427480916030533,-1.465648854961832,-0.404296875,-0.048583984375,-0.332763671875,1.0914
1.5572519083969465,0.3969465648854962,-1.4961832061068703,-0.401123046875,-0.04736328125,-0.32666015625,1.0931
1.5572519083969465,0.3053435114503817,-1.3129770992366412,-0.404052734375,-0.051513671875,-0.328857421875,1.0948
1.6946564885496183,0.42748091603053434,-1.282442748091603,-0.40576171875,-0.050048828125,-0.318359375,1.0965
1.6793893129770991,0.4580152671755725,-1.5419847328244274,-0.405029296875,-0.0537109375,-0.32421875,1.0981999999999998
1.5725190839694656,0.549618320610687,-1.3435114503816794,-0.40673828125,-0.05126953125,-0.32373046875,1.0998999999999999
1.465648854961832,0.24427480916030533,-1.3282442748091603,-0.4033203125,-0.04296875,-0.330078125,1.1016
1.5267175572519085,0.5343511450381679,-1.282442748091603,-0.40673828125,-0.0498046875,-0.328857421875,1.1033
1.8625954198473282,0.5038167938931297,-1.3893129770992367,-0.4052734375,-0.04736328125,-0.328857421875,1.105
1.5419847328244274,0.549618320610687,-1.4045801526717556,-0.40478515625,-0.054931640625,-0.32568359375,1.1067
1.7251908396946565,0.5648854961832062,-1.2671755725190839,-0.407470703125,-0.048828125,-0.3349609375,1.1083999999999998
1.5725190839694656,0.5648854961832062,-1.3587786259541985,-0.411865234375,-0.054931640625,-0.33251953125,1.1100999999999999
1.6488549618320612,0.549618320610687,-1.4045801526717556,-0.41259765625,-0.04443359375,-0.3291015625,1.1118
1.8015267175572518,0.5954198473282443,-1.251908396946565,-0.4072265625,-0.052734375,-0.330322265625,1.1135
1.8778625954198473,0.5954198473282443,-1.3282442748091603,-0.408203125,-0.051513671875,-0.31787109375,1.1152
1.6641221374045803,0.7938931297709924,-1.1145038167938932,-0.4130859375,-0.047119140625,-0.32373046875,1.1169
1.633587786259542,0.7175572519083969,-1.282442748091603,-0.407958984375,-0.0498046875,-0.333740234375,1.1186
1.5725190839694656,0.8091603053435115,-1.4809160305343512,-0.402099609375,-0.051025390625,-0.33056640625,1.1202999999999999
1.4961832061068703,0.8702290076335878,-1.4961832061068703,-0.403076171875,-0.0439453125,-0.31982421875,1.1219999999999999
1.6488549618320612,0.6106870229007634,-1.1603053435114503,-0.405517578125,-0.04931640625,-0.316162109375,1.1237
1.9389312977099236,0.7022900763358778,-1.3282442748091603,-0.408447265625,-0.0556640625,-0.32666015625,1.1254
1.816793893129771,0.7022900763358778,-1.0076335877862594,-0.40771484375,-0.05224609375,-0.325927734375,1.1271
1.7251908396946565,1.0076335877862594,-1.099236641221374,-0.408203125,-0.05029296875,-0.324951171875,1.1288
1.83206106870229,0.9923664122137404,-1.2213740458015268,-0.405517578125,-0.049560546875,-0.328857421875,1.1304999999999998
1.6030534351145038,0.9312977099236641,-1.3435114503816794,-0.4091796875,-0.05322265625,-0.330078125,1.1321999999999999
1.9236641221374047,0.8549618320610687,-1.251908396946565,-0.409912109375,-0.0517578125,-0.33251953125,1.1339
1.7099236641221374,1.0381679389312977,-1.2213740458015268,-0.41064453125,-0.045654296875,-0.32763671875,1.1356
1.5725190839694656,1.0687022900763359,-1.4045801526717556,-0.405029296875,-0.051513671875,-0.333251953125,1.1373
1.83206106870229,1.099236641221374,-1.1908396946564885,-0.408935546875,-0.05224609375,-0.32763671875,1.139
1.83206106870229,1.0076335877862594,-1.099236641221374,-0.408203125,-0.051513671875,-0.325439453125,1.1407
1.7099236641221374,1.0687022900763359,-1.3740458015267176,-0.40478515625,-0.048095703125,-0.33154296875,1.1423999999999999
1.6946564885496183,1.0687022900763359,-1.2366412213740459,-0.401611328125,-0.048583984375,-0.3173828125,1.1441
1.633587786259542,1.1145038167938932,-1.1755725190839694,-0.4033203125,-0.050048828125,-0.33349609375,1.1458
1.6793893129770991,1.282442748091603,-1.083969465648855,-0.40478515625,-0.053466796875,-0.327392578125,1.1475
1.7709923664122138,1.2061068702290076,-1.2061068702290076,-0.404052734375,-0.052490234375,-0.325439453125,1.1492
1.7099236641221374,1.0687022900763359,-1.099236641221374,-0.400634765625,-0.0478515625,-0.3271484375,1.1509
1.6641221374045803,1.0687022900763359,-1.083969465648855,-0.404541015625,-0.048583984375,-0.322021484375,1.1525999999999998
1.7709923664122138,1.1755725190839694,-1.1603053435114503,-0.40380859375,-0.049560546875,-0.325439453125,1.1542999999999999
1.7709923664122138,1.2213740458015268,-1.1297709923664123,-0.412109375,-0.052978515625,-0.32861328125,1.156
1.8473282442748091,1.0687022900763359,-1.0229007633587786,-0.40625,-0.053466796875,-0.32763671875,1.1577
1.7251908396946565,1.1297709923664123,-1.083969465648855,-0.406494140625,-0.048095703125,-0.32958984375,1.1594
1.6030534351145038,1.3129770992366412,-0.9770992366412213,-0.405029296875,-0.044189453125,-0.336181640625,1.1611
1.7251908396946565,1.2061068702290076,-1.0229007633587786,-0.404541015625,-0.0458984375,-0.3251953125,1.1627999999999998
1.8931297709923665,1.2671755725190839,-1.1603053435114503,-0.407470703125,-0.05224609375,-0.333740234375,1.1644999999999999
1.6793893129770991,1.282442748091603,-1.0381679389312977,-0.40576171875,-0.053955078125,-0.32958984375,1.1662
1.8015267175572518,1.2213740458015268,-1.1755725190839694,-0.4072265625,-0.052001953125,-0.32470703125,1.1679
2.0916030534351147,1.3129770992366412,-1.1145038167938932,-0.40283203125,-0.0478515625,-0.31494140625,1.1696
1.7404580152671756,1.3129770992366412,-1.0381679389312977,-0.4072265625,-0.044677734375,-0.32861328125,1.1713
1.7709923664122138,1.3282442748091603,-1.0381679389312977,-0.405517578125,-0.050537109375,-0.328369140625,1.173
1.8473282442748091,1.3893129770992367,-1.2213740458015268,-0.410400390625,-0.0517578125,-0.32958984375,1.1746999999999999
1.9083969465648856,1.3587786259541985,-1.1145038167938932,-0.404052734375,-0.046142578125,-0.326416015625,1.1764
1.83206106870229,1.6030534351145038,-1.1297709923664123,-0.4072265625,-0.051513671875,-0.323486328125,1.1781
1.786259541984733,1.5419847328244274,-1.0229007633587786,-0.40576171875,-0.05224609375,-0.324462890625,1.1798
2.1374045801526718,1.5572519083969465,-1.0229007633587786,-0.40673828125,-0.044189453125,-0.33154296875,1.1815
1.8015267175572518,1.4198473282442747,-1.1603053435114503,-0.39990234375,-0.050048828125,-0.330078125,1.1832
2.0610687022900764,1.282442748091603,-1.099236641221374,-0.402099609375,-0.048583984375,-0.328125,1.1848999999999998
2.3206106870229006,1.4198473282442747,-0.9618320610687023,-0.4072265625,-0.0546875,-0.333251953125,1.1865999999999999
2.198473282442748,1.5419847328244274,-1.0229007633587786,-0.40234375,-0.050537109375,-0.331787109375,1.1883
2.122137404580153,1.633587786259542,-1.1145038167938932,-0.401123046875,-0.05322265625,-0.3212890625,1.19
2.0916030534351147,1.633587786259542,-1.282442748091603,-0.404296875,-0.047119140625,-0.327392578125,1.1917
1.8931297709923665,1.5725190839694656,-0.9618320610687023,-0.404052734375,-0.048583984375,-0.322509765625,1.1934
1.8931297709923665,1.5267175572519085,-1.0381679389312977,-0.406494140625,-0.0498046875,-0.324951171875,1.1950999999999998
1.9541984732824427,1.6641221374045803,-1.083969465648855,-0.40869140625,-0.048583984375,-0.325439453125,1.1967999999999999
2.2748091603053435,1.618320610687023,-1.099236641221374,-0.4072265625,-0.04638671875,-0.325439453125,1.1985
1.984732824427481,1.6946564885496183,-0.9923664122137404,-0.404052734375,-0.0478515625,-0.326171875,1.2002
2.213740458015267,1.5419847328244274,-0.916030534351145,-0.408447265625,-0.054443359375,-0.3310546875,1.2019
1.8778625954198473,1.618320610687023,-0.9007633587786259,-0.406005859375,-0.04931640625,-0.326171875,1.2036
2.2900763358778624,1.5725190839694656,-0.9770992366412213,-0.404541015625,-0.045654296875,-0.32763671875,1.2053
1.984732824427481,1.6793893129770991,-0.9923664122137404,-0.40771484375,-0.051513671875,-0.328857421875,1.2069999999999999
2.030534351145038,1.5877862595419847,-1.1297709923664123,-0.4013671875,-0.049072265625,-0.32421875,1.2086999999999999
2.1374045801526718,1.6793893129770991,-0.9312977099236641,-0.4013671875,-0.0517578125,-0.32568359375,1.2104
2.2442748091603053,1.465648854961832,-1.1297709923664123,-0.399169921875,-0.0537109375,-0.326904296875,1.2121
1.8625954198473282,1.7099236641221374,-0.9007633587786259,-0.403564453125,-0.051513671875,-0.32080078125,1.2138
1.6641221374045803,1.6641221374045803,-1.0381679389312977,-0.407470703125,-0.05029296875,-0.33154296875,1.2155
1.9541984732824427,1.4961832061068703,-0.8244274809160306,-0.404052734375,-0.051513671875,-0.33056640625,1.2171999999999998
2.0610687022900764,1.5114503816793894,-0.9770992366412213,-0.406982421875,-0.050537109375,-0.329345703125,1.2188999999999999
2.0,1.5114503816793894,-0.9618320610687023,-0.407470703125,-0.04931640625,-0.335693359375,1.2206
1.8625954198473282,1.7099236641221374,-1.1908396946564885,-0.404052734375,-0.0517578125,-0.328369140625,1.2223
2.0,1.6488549618320612,-1.0534351145038168,-0.401123046875,-0.052490234375,-0.330810546875,1.224
2.015267175572519,1.5725190839694656,-0.8854961832061069,-0.40478515625,-0.0498046875,-0.324462890625,1.2257
2.0,1.5114503816793894,-1.0534351145038168,-0.4013671875,-0.050537109375,-0.327880859375,1.2273999999999998
1.9236641221374047,1.3587786259541985,-1.2213740458015268,-0.40380859375,-0.052490234375,-0.333740234375,1.2290999999999999
1.816793893129771,1.297709923664122,-0.6564885496183206,-0.401123046875,-0.04833984375,-0.330078125,1.2308
1.7404580152671756,1.3587786259541985,-1.1450381679389312,-0.406494140625,-0.056640625,-0.32763671875,1.2325
1.8931297709923665,1.5114503816793894,-0.8702290076335878,-0.40283203125,-0.054443359375,-0.32373046875,1.2342
1.816793893129771,1.3129770992366412,-0.9770992366412213,-0.40087890625,-0.04638671875,-0.327880859375,1.2359
1.618320610687023,1.2061068702290076,-0.9312977099236641,-0.403076171875,-0.05859375,-0.33056640625,1.2376
1.5572519083969465,1.2671755725190839,-0.916030534351145,-0.400146484375,-0.053955078125,-0.327392578125,1.2392999999999998
1.7404580152671756,1.2213740458015268,-0.8854961832061069,-0.402099609375,-0.052001953125,-0.32861328125,1.2409999999999999
1.7251908396946565,1.1908396946564885,-1.2366412213740459,-0.4033203125,-0.055908203125,-0.32470703125,1.2427
1.7099236641221374,1.2671755725190839,-0.9007633587786259,-0.40087890625,-0.0498046875,-0.326171875,1.2444
1.450381679389313,1.1755725190839694,-1.1297709923664123,-0.3984375,-0.05078125,-0.331787109375,1.2461
1.450381679389313,1.2061068702290076,-0.9007633587786259,-0.40185546875,-0.05517578125,-0.3271484375,1.2478
1.4045801526717556,1.1450381679389312,-1.0534351145038168,-0.402587890625,-0.056884765625,-0.3271484375,1.2494999999999998
1.450381679389313,1.2061068702290076,-0.7022900763358778,-0.40185546875,-0.055908203125,-0.325927734375,1.2511999999999999
1.4961832061068703,1.1450381679389312,-0.8244274809160306,-0.39892578125,-0.052734375,-0.32861328125,1.2529
1.4351145038167938,1.0076335877862594,-1.0076335877862594,-0.39990234375,-0.051025390625,-0.32373046875,1.2546
1.297709923664122,1.0229007633587786,-1.0229007633587786,-0.41064453125,-0.053955078125,-0.3349609375,1.2563
1.465648854961832,0.8854961832061069,-0.8702290076335878,-0.40625,-0.055419921875,-0.337890625,1.258
1.3282442748091603,0.8854961832061069,-1.1450381679389312,-0.407470703125,-0.055908203125,-0.33154296875,1.2596999999999998
1.2213740458015268,0.7480916030534351,-0.916030534351145,-0.404296875,-0.05419921875,-0.329345703125,1.2613999999999999
1.3129770992366412,0.9618320610687023,-1.0229007633587786,-0.404296875,-0.0546875,-0.3359375,1.2631
1.4351145038167938,0.9770992366412213,-1.0687022900763359,-0.404541015625,-0.051025390625,-0.3232421875,1.2648
1.2061068702290076,1.0229007633587786,-1.0534351145038168,-0.404541015625,-0.051025390625,-0.3203125,1.2665
1.3587786259541985,0.8396946564885496,-0.7633587786259542,-0.407958984375,-0.052001953125,-0.32373046875,1.2682
1.297709923664122,0.6412213740458015,-1.0229007633587786,-0.40576171875,-0.046630859375,-0.326171875,1.2699
1.2366412213740459,0.9312977099236641,-1.1450381679389312,-0.4052734375,-0.054443359375,-0.333251953125,1.2715999999999998
0.9770992366412213,0.7938931297709924,-1.1297709923664123,-0.404052734375,-0.05029296875,-0.32861328125,1.2732999999999999
1.2671755725190839,0.7633587786259542,-1.0381679389312977,-0.405029296875,-0.05322265625,-0.323486328125,1.275
1.3740458015267176,0.8854961832061069,-1.1450381679389312,-0.40478515625,-0.052978515625,-0.3369140625,1.2767
1.0534351145038168,0.7938931297709924,-1.0687022900763359,-0.403564453125,-0.053955078125,-0.332763671875,1.2784
0.9007633587786259,0.9007633587786259,-1.1297709923664123,-0.40380859375,-0.05517578125,-0.32177734375,1.2801
1.1450381679389312,0.5343511450381679,-0.9770992366412213,-0.40673828125,-0.049072265625,-0.33154296875,1.2817999999999998
1.1755725190839694,0.8854961832061069,-1.0534351145038168,-0.4052734375,-0.0478515625,-0.326416015625,1.2834999999999999
1.1450381679389312,0.9007633587786259,-1.0229007633587786,-0.40185546875,-0.05517578125,-0.324951171875,1.2852
0.9007633587786259,0.5801526717557252,-1.1297709923664123,-0.404052734375,-0.048583984375,-0.327880859375,1.2869
0.7175572519083969,0.7022900763358778,-0.9770992366412213,-0.402099609375,-0.05029296875,-0.32373046875,1.2886
1.0229007633587786,0.5954198473282443,-1.0534351145038168,-0.401123046875,-0.054931640625,-0.3291015625,1.2903
0.9618320610687023,0.3511450381679389,-1.099236641221374,-0.404052734375,-0.050048828125,-0.3291015625,1.292
0.7633587786259542,0.5038167938931297,-0.9770992366412213,-0.4013671875,-0.04833984375,-0.326171875,1.2936999999999999
0.9770992366412213,0.4122137404580153,-0.8854961832061069,-0.409912109375,-0.052490234375,-0.33056640625,1.2953999999999999
0.9465648854961832,0.3969465648854962,-1.0381679389312977,-0.406494140625,-0.051513671875,-0.331298828125,1.2971
0.9312977099236641,0.6259541984732825,-0.9312977099236641,-0.405517578125,-0.049560546875,-0.3330078125,1.2988
1.0687022900763359,0.4122137404580153,-1.083969465648855,-0.405517578125,-0.04736328125,-0.326904296875,1.3005
0.8244274809160306,0.4732824427480916,-1.0381679389312977,-0.401123046875,-0.05126953125,-0.31787109375,1.3022
0.5954198473282443,0.4732824427480916,-1.0229007633587786,-0.401611328125,-0.052001953125,-0.32470703125,1.3038999999999998
0.6870229007633588,0.5190839694656488,-1.0076335877862594,-0.40185546875,-0.047607421875,-0.3271484375,1.3055999999999999
0.549618320610687,0.3969465648854962,-1.1297709923664123,-0.405517578125,-0.052001953125,-0.332275390625,1.3073
0.7938931297709924,0.0916030534351145,-1.0381679389312977,-0.402587890625,-0.05419921875,-0.3291015625,1.309
0.9312977099236641,0.1984732824427481,-0.9465648854961832,-0.4072265625,-0.05322265625,-0.33056640625,1.3107
0.6717557251908397,0.5648854961832062,-1.1755725190839694,-0.40234375,-0.050048828125,-0.338134765625,1.3124
1.0381679389312977,0.3511450381679389,-1.0229007633587786,-0.40478515625,-0.051025390625,-0.333740234375,1.3140999999999998
0.732824427480916,0.21374045801526717,-0.8549618320610687,-0.406494140625,-0.048095703125,-0.334228515625,1.3157999999999999
0.732824427480916,0.12213740458015267,-1.2213740458015268,-0.403564453125,-0.046142578125,-0.332763671875,1.3175
0.7022900763358778,0.13740458015267176,-1.0381679389312977,-0.40087890625,-0.050537109375,-0.32421875,1.3192
0.6717557251908397,0.183206106870229,-0.9618320610687023,-0.406494140625,-0.048828125,-0.33154296875,1.3209
0.7480916030534351,0.2748091603053435,-1.0229007633587786,-0.399658203125,-0.050048828125,-0.32666015625,1.3226
0.7633587786259542,0.16793893129770993,-0.9770992366412213,-0.40283203125,-0.052490234375,-0.32861328125,1.3243
0.7786259541984732,0.1984732824427481,-1.083969465648855,-0.406005859375,-0.052734375,-0.320068359375,1.3259999999999998
0.6870229007633588,0.061068702290076333,-1.1297709923664123,-0.404052734375,-0.048095703125,-0.327880859375,1.3276999999999999
0.6564885496183206,0.15267175572519084,-0.916030534351145,-0.404541015625,-0.048583984375,-0.3232421875,1.3294
0.732824427480916,0.0,-1.0534351145038168,-0.406494140625,-0.047119140625,-0.325439453125,1.3311
0.7175572519083969,-0.04580152671755725,-1.0381679389312977,-0.40087890625,-0.052001953125,-0.33056640625,1.3328
0.9007633587786259,0.0916030534351145,-1.099236641221374,-0.400634765625,-0.0478515625,-0.335693359375,1.3345
0.8396946564885496,0.0,-0.9007633587786259,-0.406005859375,-0.053466796875,-0.3251953125,1.3361999999999998
0.7633587786259542,-0.07633587786259542,-0.8854961832061069,-0.403076171875,-0.048828125,-0.3232421875,1.3378999999999999
0.5648854961832062,-0.16793893129770993,-1.1755725190839694,-0.400390625,-0.04736328125,-0.3271484375,1.3396
0.5801526717557252,0.04580152671755725,-1.1450381679389312,-0.409423828125,-0.045166015625,-0.324462890625,1.3413
0.6106870229007634,-0.13740458015267176,-1.2213740458015268,-0.404296875,-0.04638671875,-0.325439453125,1.343
0.5648854961832062,0.13740458015267176,-1.0076335877862594,-0.404296875,-0.047607421875,-0.328125,1.3447
0.732824427480916,0.15267175572519084,-1.2061068702290076,-0.40478515625,-0.04541015625,-0.32275390625,1.3463999999999998
0.7633587786259542,0.04580152671755725,-1.0381679389312977,-0.408447265625,-0.052490234375,-0.332763671875,1.3480999999999999
0.6870229007633588,0.12213740458015267,-1.2366412213740459,-0.404296875,-0.0537109375,-0.32373046875,1.3497999999999999
0.6564885496183206,0.13740458015267176,-1.0076335877862594,-0.401611328125,-0.053955078125,-0.326904296875,1.3515
0.5954198473282443,0.13740458015267176,-1.0229007633587786,-0.406494140625,-0.052734375,-0.322998046875,1.3532
0.6717557251908397,0.015267175572519083,-0.9923664122137404,-0.406005859375,-0.05029296875,-0.327880859375,1.3549
0.8091603053435115,0.030534351145038167,-0.8396946564885496,-0.411865234375,-0.047119140625,-0.33203125,1.3566
0.6717557251908397,0.21374045801526717,-1.0229007633587786,-0.405517578125,-0.052001953125,-0.3291015625,1.3582999999999998
0.5343511450381679,0.2595419847328244,-1.1755725190839694,-0.408203125,-0.048828125,-0.326171875,1.3599999999999999
0.7633587786259542,0.33587786259541985,-1.0381679389312977,-0.409423828125,-0.048095703125,-0.3212890625,1.3617
0.7480916030534351,0.22900763358778625,-0.9770992366412213,-0.409423828125,-0.05517578125,-0.322265625,1.3634
0.6106870229007634,0.16793893129770993,-0.7938931297709924,-0.406494140625,-0.047119140625,-0.323486328125,1.3651
0.6717557251908397,0.24427480916030533,-1.0076335877862594,-0.407958984375,-0.05078125,-0.322998046875,1.3668
0.8091603053435115,0.24427480916030533,-0.8854961832061069,-0.412841796875,-0.046630859375,-0.3291015625,1.3684999999999998
0.9312977099236641,0.3511450381679389,-0.8854961832061069,-0.40869140625,-0.05078125,-0.3271484375,1.3701999999999999
0.8396946564885496,0.6412213740458015,-0.9923664122137404,-0.408203125,-0.048095703125,-0.3232421875,1.3719
0.9770992366412213,0.5343511450381679,-0.9465648854961832,-0.407470703125,-0.048828125,-0.32861328125,1.3736
0.5801526717557252,0.6564885496183206,-0.8244274809160306,-0.403076171875,-0.050537109375,-0.3232421875,1.3753
0.8854961832061069,0.5190839694656488,-0.9465648854961832,-0.40576171875,-0.046630859375,-0.33349609375,1.377
0.8091603053435115,0.6717557251908397,-1.083969465648855,-0.402587890625,-0.0478515625,-0.3251953125,1.3786999999999998
0.8396946564885496,0.6106870229007634,-1.0534351145038168,-0.40380859375,-0.046142578125,-0.326416015625,1.3803999999999998
1.0229007633587786,0.8091603053435115,-1.251908396946565,-0.41064453125,-0.04931640625,-0.316162109375,1.3820999999999999
0.7480916030534351,0.8396946564885496,-1.1755725190839694,-0.412109375,-0.05029296875,-0.326416015625,1.3838
0.7938931297709924,0.6412213740458015,-1.083969465648855,-0.408447265625,-0.04931640625,-0.32373046875,1.3855
1.251908396946565,0.5038167938931297,-1.0534351145038168,-0.404296875,-0.04931640625,-0.326904296875,1.3872
1.1603053435114503,0.549618320610687,-1.1297709923664123,-0.407958984375,-0.04296875,-0.329833984375,1.3889
0.7786259541984732,0.5801526717557252,-1.2366412213740459,-0.4072265625,-0.04833984375,-0.330322265625,1.3905999999999998
0.8549618320610687,0.5801526717557252,-0.8854961832061069,-0.406494140625,-0.048583984375,-0.3193359375,1.3922999999999999
0.8396946564885496,0.6717557251908397,-1.099236641221374,-0.406494140625,-0.050537109375,-0.31884765625,1.394
1.1145038167938932,0.6259541984732825,-0.7786259541984732,-0.40966796875,-0.048583984375,-0.32373046875,1.3957
1.0687022900763359,0.4732824427480916,-0.9770992366412213,-0.405517578125,-0.044189453125,-0.32470703125,1.3974
0.7175572519083969,0.5801526717557252,-1.1450381679389312,-0.41064453125,-0.04833984375,-0.322998046875,1.3991
0.8854961832061069,0.8091603053435115,-1.0687022900763359,-0.40576171875,-0.04833984375,-0.322265625,1.4007999999999998
0.8549618320610687,0.6412213740458015,-0.8702290076335878,-0.40771484375,-0.052490234375,-0.3232421875,1.4024999999999999
1.1450381679389312,0.48854961832061067,-0.9312977099236641,-0.40869140625,-0.0458984375,-0.3359375,1.4042
0.9312977099236641,0.7175572519083969,-1.083969465648855,-0.404296875,-0.050537109375,-0.327880859375,1.4059
0.9312977099236641,0.6106870229007634,-1.099236641221374,-0.40185546875,-0.052734375,-0.3291015625,1.4076
0.7938931297709924,0.5801526717557252,-1.0076335877862594,-0.40478515625,-0.046875,-0.325927734375,1.4093
0.6564885496183206,0.6106870229007634,-1.099236641221374,-0.405517578125,-0.048828125,-0.322998046875,1.411
0.8702290076335878,0.6412213740458015,-0.9618320610687023,-0.408935546875,-0.046630859375,-0.32666015625,1.4126999999999998
0.732824427480916,0.8702290076335878,-1.2213740458015268,-0.406982421875,-0.056396484375,-0.31787109375,1.4143999999999999
0.6870229007633588,0.7022900763358778,-1.0534351145038168,-0.406005859375,-0.048095703125,-0.324462890625,1.4161
0.7480916030534351,0.7633587786259542,-1.1450381679389312,-0.400390625,-0.05029296875,-0.330078125,1.4178
0.7175572519083969,0.7938931297709924,-1.0229007633587786,-0.408935546875,-0.04638671875,-0.331298828125,1.4195
0.732824427480916,1.0229007633587786,-0.9465648854961832,-0.404296875,-0.052978515625,-0.32568359375,1.4212
0.6412213740458015,1.083969465648855,-1.0687022900763359,-0.408203125,-0.05224609375,-0.32470703125,1.4228999999999998
0.5038167938931297,1.099236641221374,-1.1145038167938932,-0.40869140625,-0.051025390625,-0.326904296875,1.4245999999999999
0.2900763358778626,0.9465648854961832,-0.8854961832061069,-0.409912109375,-0.0498046875,-0.33203125,1.4263
0.5954198473282443,1.1297709923664123,-1.0381679389312977,-0.405029296875,-0.0439453125,-0.313720703125,1.428
0.7938931297709924,1.3282442748091603,-0.8702290076335878,-0.40478515625,-0.049560546875,-0.326171875,1.4297
0.6412213740458015,1.282442748091603,-0.9770992366412213,-0.41162109375,-0.049072265625,-0.328125,1.4314
0.5190839694656488,1.1145038167938932,-1.0229007633587786,-0.408203125,-0.045654296875,-0.32958984375,1.4330999999999998
0.6106870229007634,1.2061068702290076,-1.099236641221374,-0.408203125,-0.045654296875,-0.33056640625,1.4347999999999999
0.6564885496183206,1.450381679389313,-1.099236641221374,-0.409423828125,-0.046630859375,-0.3330078125,1.4364999999999999
0.33587786259541985,1.5419847328244274,-1.2366412213740459,-0.40234375,-0.047607421875,-0.325927734375,1.4382
0.15267175572519084,1.4045801526717556,-1.083969465648855,-0.40576171875,-0.046142578125,-0.32861328125,1.4399
0.6259541984732825,1.465648854961832,-1.2213740458015268,-0.412353515625,-0.05029296875,-0.32568359375,1.4416
0.5801526717557252,1.5267175572519085,-1.2213740458015268,-0.409423828125,-0.04931640625,-0.332275390625,1.4433
0.5648854961832062,1.3435114503816794,-1.5114503816793894,-0.4072265625,-0.04931640625,-0.324951171875,1.4449999999999998
0.7022900763358778,1.83206106870229,-1.450381679389313,-0.405029296875,-0.047119140625,-0.32470703125,1.4466999999999999
0.549618320610687,1.633587786259542,-1.6488549618320612,-0.40478515625,-0.044677734375,-0.328857421875,1.4484
0.3816793893129771,1.6030534351145038,-1.450381679389313,-0.407958984375,-0.0400390625,-0.328857421875,1.4501
0.5801526717557252,1.5572519083969465,-1.4809160305343512,-0.4072265625,-0.044921875,-0.329345703125,1.4518
0.6870229007633588,1.618320610687023,-1.633587786259542,-0.406982421875,-0.04541015625,-0.324462890625,1.4535
0.6870229007633588,1.5419847328244274,-1.7404580152671756,-0.40576171875,-0.049072265625,-0.32470703125,1.4551999999999998
0.6412213740458015,1.4351145038167938,-1.633587786259542,-0.405029296875,-0.05224609375,-0.326904296875,1.4568999999999999
0.732824427480916,1.3740458015267176,-1.6946564885496183,-0.404052734375,-0.045166015625,-0.3291015625,1.4586
0.6259541984732825,1.5114503816793894,-1.6946564885496183,-0.39990234375,-0.050537109375,-0.3251953125,1.4603
0.7022900763358778,1.251908396946565,-2.0610687022900764,-0.404296875,-0.048828125,-0.321044921875,1.462
0.8702290076335878,1.1908396946564885,-1.8015267175572518,-0.407470703125,-0.046875,-0.329833984375,1.4637
0.8396946564885496,1.3435114503816794,-1.8473282442748091,-0.400634765625,-0.052001953125,-0.333740234375,1.4653999999999998
0.6717557251908397,1.1603053435114503,-1.8015267175572518,-0.400634765625,-0.046875,-0.32421875,1.4670999999999998
0.7480916030534351,1.1297709923664123,-1.7404580152671756,-0.40283203125,-0.04833984375,-0.33056640625,1.4687999999999999
1.1908396946564885,1.0534351145038168,-1.7099236641221374,-0.40966796875,-0.048583984375,-0.33056640625,1.4705
0.916030534351145,1.2366412213740459,-1.83206106870229,-0.407470703125,-0.052001953125,-0.325439453125,1.4722
0.8702290076335878,1.251908396946565,-1.8625954198473282,-0.41015625,-0.05078125,-0.328125,1.4739
1.1297709923664123,0.9312977099236641,-1.7709923664122138,-0.40625,-0.049072265625,-0.32861328125,1.4756
1.1450381679389312,1.083969465648855,-1.83206106870229,-0.408447265625,-0.046142578125,-0.32861328125,1.4772999999999998
0.9770992366412213,1.2061068702290076,-1.6946564885496183,-0.410400390625,-0.046875,-0.322509765625,1.4789999999999999
0.8854961832061069,1.1450381679389312,-1.7404580152671756,-0.404296875,-0.04931640625,-0.324462890625,1.4807
1.1145038167938932,1.0229007633587786,-1.8931297709923665,-0.4072265625,-0.0458984375,-0.325927734375,1.4824
1.2061068702290076,1.1145038167938932,-1.8473282442748091,-0.40576171875,-0.046142578125,-0.333984375,1.4841
0.8244274809160306,1.099236641221374,-1.7404580152671756,-0.40625,-0.048095703125,-0.327392578125,1.4858
1.1145038167938932,1.099236641221374,-1.6946564885496183,-0.404541015625,-0.0498046875,-0.32958984375,1.4874999999999998
1.2366412213740459,1.0076335877862594,-1.618320610687023,-0.40380859375,-0.044921875,-0.32470703125,1.4891999999999999
0.9312977099236641,1.0229007633587786,-1.5267175572519085,-0.40234375,-0.044189453125,-0.326171875,1.4909
1.1297709923664123,0.8854961832061069,-1.5725190839694656,-0.398193359375,-0.04541015625,-0.319580078125,1.4926
1.099236641221374,0.9312977099236641,-1.3435114503816794,-0.402587890625,-0.05078125,-0.32763671875,1.4943
1.1450381679389312,0.9618320610687023,-1.3435114503816794,-0.401611328125,-0.05029296875,-0.32080078125,1.496
1.2366412213740459,0.7786259541984732,-1.251908396946565,-0.404541015625,-0.045654296875,-0.3232421875,1.4976999999999998
0.9770992366412213,0.9007633587786259,-1.3435114503816794,-0.40869140625,-0.048828125,-0.317626953125,1.4993999999999998
0.9923664122137404,0.7633587786259542,-1.4961832061068703,-0.403564453125,-0.046875,-0.32470703125,1.5010999999999999
1.1603053435114503,0.916030534351145,-1.5267175572519085,-0.404296875,-0.04833984375,-0.319580078125,1.5028
1.0687022900763359,0.7633587786259542,-1.2213740458015268,-0.399169921875,-0.048583984375,-0.327880859375,1.5045
0.9618320610687023,0.7633587786259542,-1.2061068702290076,-0.406005859375,-0.052490234375,-0.32666015625,1.5062
1.0076335877862594,0.7786259541984732,-1.4351145038167938,-0.40380859375,-0.052490234375,-0.3349609375,1.5079
0.9923664122137404,0.7175572519083969,-1.6946564885496183,-0.40673828125,-0.05224609375,-0.326904296875,1.5095999999999998
0.9465648854961832,0.8854961832061069,-1.099236641221374,-0.40380859375,-0.051025390625,-0.33251953125,1.5112999999999999
1.083969465648855,0.6870229007633588,-1.2366412213740459,-0.405029296875,-0.0537109375,-0.33349609375,1.513
0.7786259541984732,0.7633587786259542,-1.3129770992366412,-0.407470703125,-0.044921875,-0.328857421875,1.5147
0.9618320610687023,0.6259541984732825,-1.3587786259541985,-0.404296875,-0.04150390625,-0.328857421875,1.5164
0.9618320610687023,0.5801526717557252,-1.2671755725190839,-0.401123046875,-0.05029296875,-0.321533203125,1.5181
0.8549618320610687,0.5954198473282443,-1.3587786259541985,-0.40625,-0.049072265625,-0.3251953125,1.5197999999999998
1.0534351145038168,0.6412213740458015,-1.1908396946564885,-0.404296875,-0.047607421875,-0.327880859375,1.5214999999999999
0.9923664122137404,0.7480916030534351,-1.1755725190839694,-0.4052734375,-0.04833984375,-0.326171875,1.5231999999999999
1.1908396946564885,0.6717557251908397,-1.0229007633587786,-0.40673828125,-0.049072265625,-0.326904296875,1.5249
0.7938931297709924,0.5954198473282443,-1.1297709923664123,-0.40771484375,-0.0458984375,-0.32861328125,1.5266
0.9923664122137404,0.7175572519083969,-1.450381679389313,-0.401611328125,-0.050537109375,-0.326416015625,1.5283
1.2671755725190839,0.732824427480916,-1.3129770992366412,-0.40625,-0.048095703125,-0.321533203125,1.5299999999999998
1.099236641221374,0.7480916030534351,-1.2213740458015268,-0.4072265625,-0.04931640625,-0.334716796875,1.5316999999999998
0.9007633587786259,0.5648854961832062,-1.1450381679389312,-0.402587890625,-0.04931640625,-0.320068359375,1.5333999999999999
0.8396946564885496,0.6412213740458015,-1.1297709923664123,-0.400390625,-0.047119140625,-0.3203125,1.5351
1.2213740458015268,0.6564885496183206,-1.2061068702290076,-0.406982421875,-0.043212890625,-0.3173828125,1.5368
1.1755725190839694,0.7022900763358778,-1.3129770992366412,-0.407958984375,-0.0537109375,-0.32958984375,1.5385
1.0534351145038168,0.6870229007633588,-1.3282442748091603,-0.402587890625,-0.047119140625,-0.322998046875,1.5402
1.3129770992366412,0.6870229007633588,-1.2671755725190839,-0.406982421875,-0.0498046875,-0.322021484375,1.5418999999999998
1.3893129770992367,0.5954198473282443,-1.1450381679389312,-0.40576171875,-0.04736328125,-0.32275390625,1.5435999999999999
1.450381679389313,0.732824427480916,-1.0381679389312977,-0.40283203125,-0.048583984375,-0.326416015625,1.5453
1.3282442748091603,0.48854961832061067,-1.1297709923664123,-0.4052734375,-0.04248046875,-0.318359375,1.547
1.4045801526717556,0.4580152671755725,-1.2061068702290076,-0.403076171875,-0.04638671875,-0.332763671875,1.5487
1.4809160305343512,0.8244274809160306,-1.1908396946564885,-0.396240234375,-0.043212890625,-0.322509765625,1.5504
1.465648854961832,0.5801526717557252,-1.3435114503816794,-0.40185546875,-0.042724609375,-0.3232421875,1.5520999999999998
1.450381679389313,0.4732824427480916,-1.0687022900763359,-0.404541015625,-0.040771484375,-0.322021484375,1.5537999999999998
1.4198473282442747,0.33587786259541985,-1.2366412213740459,-0.406494140625,-0.0458984375,-0.328857421875,1.5554999999999999
1.4045801526717556,0.5038167938931297,-1.4045801526717556,-0.4052734375,-0.047119140625,-0.327880859375,1.5572
1.5267175572519085,0.5343511450381679,-1.3435114503816794,-0.404052734375,-0.044189453125,-0.321044921875,1.5589
1.5267175572519085,0.3969465648854962,-1.2671755725190839,-0.40576171875,-0.047607421875,-0.325927734375,1.5606
1.5114503816793894,0.3511450381679389,-1.1755725190839694,-0.404052734375,-0.050048828125,-0.322021484375,1.5623
1.6488549618320612,0.3816793893129771,-1.099236641221374,-0.406494140625,-0.0498046875,-0.329345703125,1.5639999999999998
1.83206106870229,0.4732824427480916,-1.3282442748091603,-0.4072265625,-0.046630859375,-0.3310546875,1.5656999999999999
1.786259541984733,0.5954198473282443,-1.2671755725190839,-0.405029296875,-0.049560546875,-0.32470703125,1.5674
1.786259541984733,0.3816793893129771,-1.2213740458015268,-0.41064453125,-0.0478515625,-0.318603515625,1.5691
1.8015267175572518,0.21374045801526717,-1.1755725190839694,-0.408203125,-0.045654296875,-0.3330078125,1.5708
1.83206106870229,0.549618320610687,-1.3282442748091603,-0.40576171875,-0.0498046875,-0.322265625,1.5725
1.7557251908396947,0.3969465648854962,-1.1450381679389312,-0.407470703125,-0.048583984375,-0.321044921875,1.5741999999999998
1.8015267175572518,0.3816793893129771,-1.4351145038167938,-0.412353515625,-0.048095703125,-0.329345703125,1.5758999999999999
1.83206106870229,0.33587786259541985,-1.282442748091603,-0.41162109375,-0.0458984375,-0.328369140625,1.5776
1.7251908396946565,0.366412213740458,-1.4198473282442747,-0.404052734375,-0.05029296875,-0.329833984375,1.5793
1.8931297709923665,0.549618320610687,-1.450381679389313,-0.412109375,-0.04638671875,-0.331787109375,1.581
1.7099236641221374,0.6106870229007634,-1.5114503816793894,-0.41015625,-0.0498046875,-0.324462890625,1.5827
1.786259541984733,0.6259541984732825,-1.297709923664122,-0.407958984375,-0.050048828125,-0.324951171875,1.5843999999999998
1.786259541984733,0.6717557251908397,-1.4045801526717556,-0.404052734375,-0.045654296875,-0.316650390625,1.5860999999999998
1.7251908396946565,0.5038167938931297,-1.3435114503816794,-0.40576171875,-0.047119140625,-0.34033203125,1.5877999999999999
1.8778625954198473,0.732824427480916,-1.5419847328244274,-0.411865234375,-0.05029296875,-0.322265625,1.5895
1.6641221374045803,0.44274809160305345,-1.2671755725190839,-0.412109375,-0.05078125,-0.322021484375,1.5912
1.7709923664122138,0.549618320610687,-1.618320610687023,-0.407958984375,-0.053466796875,-0.32373046875,1.5929
1.6793893129770991,0.732824427480916,-1.450381679389313,-0.405517578125,-0.05126953125,-0.3251953125,1.5946
1.6641221374045803,0.7022900763358778,-1.297709923664122,-0.405517578125,-0.052490234375,-0.325927734375,1.5962999999999998
1.5114503816793894,0.6717557251908397,-1.297709923664122,-0.412109375,-0.05322265625,-0.328369140625,1.5979999999999999
1.5725190839694656,0.5190839694656488,-1.4045801526717556,-0.406005859375,-0.051025390625,-0.332275390625,1.5997
1.4961832061068703,0.8091603053435115,-1.2366412213740459,-0.40869140625,-0.0498046875,-0.3349609375,1.6014
1.7404580152671756,0.7786259541984732,-1.282442748091603,-0.408935546875,-0.0537109375,-0.32275390625,1.6031
1.3740458015267176,0.8244274809160306,-1.465648854961832,-0.409423828125,-0.054443359375,-0.318603515625,1.6048
1.5419847328244274,0.7175572519083969,-1.3435114503816794,-0.410400390625,-0.046875,-0.32568359375,1.6064999999999998
1.3893129770992367,0.7786259541984732,-1.3587786259541985,-0.40771484375,-0.0458984375,-0.33251953125,1.6081999999999999
1.3282442748091603,0.8396946564885496,-1.4351145038167938,-0.40966796875,-0.051513671875,-0.32666015625,1.6098999999999999
1.5572519083969465,0.9618320610687023,-1.1908396946564885,-0.406982421875,-0.05126953125,-0.3271484375,1.6116
1.5114503816793894,0.9618320610687023,-1.3740458015267176,-0.40673828125,-0.05615234375,-0.320068359375,1.6133
1.1908396946564885,0.9923664122137404,-1.4045801526717556,-0.406982421875,-0.050537109375,-0.328369140625,1.615
1.2671755725190839,1.0687022900763359,-1.3740458015267176,-0.404541015625,-0.045654296875,-0.32373046875,1.6166999999999998
1.282442748091603,1.0381679389312977,-1.450381679389313,-0.411865234375,-0.044677734375,-0.32275390625,1.6183999999999998
1.1603053435114503,0.9618320610687023,-1.3282442748091603,-0.406005859375,-0.050537109375,-0.3232421875,1.6200999999999999
1.5267175572519085,1.0076335877862594,-1.0381679389312977,-0.408447265625,-0.05322265625,-0.323974609375,1.6218
1.1297709923664123,0.9465648854961832,-1.251908396946565,-0.410888671875,-0.047119140625,-0.330322265625,1.6235
1.083969465648855,0.9312977099236641,-1.3282442748091603,-0.41015625,-0.046142578125,-0.3310546875,1.6252
1.1755725190839694,0.9007633587786259,-1.2671755725190839,-0.412109375,-0.046142578125,-0.32763671875,1.6269
1.1297709923664123,1.1603053435114503,-1.2671755725190839,-0.40380859375,-0.050537109375,-0.31884765625,1.6285999999999998
1.1297709923664123,1.0381679389312977,-1.297709923664122,-0.40478515625,-0.05078125,-0.324462890625,1.6302999999999999
1.4961832061068703,1.1145038167938932,-1.282442748091603,-0.41015625,-0.050048828125,-0.32421875,1.632
1.3893129770992367,1.083969465648855,-1.3435114503816794,-0.405517578125,-0.04541015625,-0.32763671875,1.6337
0.9007633587786259,1.1297709923664123,-1.083969465648855,-0.405029296875,-0.0458984375,-0.329345703125,1.6354
1.465648854961832,0.8854961832061069,-1.1908396946564885,-0.410888671875,-0.05322265625,-0.318359375,1.6371
1.5114503816793894,0.9618320610687023,-1.0076335877862594,-0.41455078125,-0.048095703125,-0.3251953125,1.6387999999999998
1.1755725190839694,1.1450381679389312,-1.1908396946564885,-0.407958984375,-0.05078125,-0.32763671875,1.6404999999999998
1.4045801526717556,0.7480916030534351,-1.3893129770992367,-0.410400390625,-0.0439453125,-0.32421875,1.6421999999999999
1.5572519083969465,0.8854961832061069,-1.251908396946565,-0.4072265625,-0.048095703125,-0.332275390625,1.6439
1.1297709923664123,0.916030534351145,-1.1450381679389312,-0.410888671875,-0.049072265625,-0.31640625,1.6456
1.1450381679389312,1.0534351145038168,-1.083969465648855,-0.408447265625,-0.0458984375,-0.321044921875,1.6473
1.3893129770992367,1.0076335877862594,-1.0076335877862594,-0.40673828125,-0.044921875,-0.334716796875,1.6489999999999998
1.3282442748091603,0.8549618320610687,-1.3129770992366412,-0.409912109375,-0.05615234375,-0.330078125,1.6506999999999998
1.3129770992366412,0.8702290076335878,-1.1450381679389312,-0.404296875,-0.048828125,-0.326171875,1.6523999999999999
1.2671755725190839,0.9007633587786259,-1.1603053435114503,-0.405029296875,-0.044189453125,-0.32568359375,1.6541
1.4351145038167938,0.8854961832061069,-1.083969465648855,-0.40771484375,-0.051025390625,-0.325927734375,1.6558
1.3435114503816794,0.8549618320610687,-1.3129770992366412,-0.408935546875,-0.04833984375,-0.32861328125,1.6575
1.2061068702290076,0.8854961832061069,-0.9618320610687023,-0.408447265625,-0.05029296875,-0.330810546875,1.6592
1.251908396946565,0.9618320610687023,-1.2366412213740459,-0.410400390625,-0.051025390625,-0.32080078125,1.6608999999999998
1.3893129770992367,0.9312977099236641,-1.1297709923664123,-0.406982421875,-0.051025390625,-0.3232421875,1.6625999999999999
1.282442748091603,1.0534351145038168,-1.099236641221374,-0.40869140625,-0.046875,-0.3193359375,1.6643
1.3435114503816794,1.0534351145038168,-1.1297709923664123,-0.403564453125,-0.049560546875,-0.324951171875,1.666
1.2671755725190839,0.916030534351145,-1.1755725190839694,-0.405517578125,-0.048828125,-0.3251953125,1.6677
1.4961832061068703,0.9923664122137404,-1.297709923664122,-0.402099609375,-0.046630859375,-0.324462890625,1.6694
1.4351145038167938,0.9618320610687023,-1.1755725190839694,-0.407470703125,-0.04638671875,-0.330810546875,1.6710999999999998
1.1755725190839694,0.7633587786259542,-0.9923664122137404,-0.411376953125,-0.05419921875,-0.32763671875,1.6727999999999998
1.3129770992366412,0.8091603053435115,-1.0229007633587786,-0.408203125,-0.052490234375,-0.321044921875,1.6744999999999999
1.3893129770992367,1.1755725190839694,-1.1450381679389312,-0.413818359375,-0.0458984375,-0.321044921875,1.6762
1.450381679389313,1.0381679389312977,-1.0076335877862594,-0.4033203125,-0.048583984375,-0.323486328125,1.6779
1.2213740458015268,1.083969465648855,-1.2213740458015268,-0.405517578125,-0.050048828125,-0.3310546875,1.6796
1.2671755725190839,1.0229007633587786,-1.2213740458015268,-0.404296875,-0.048583984375,-0.3271484375,1.6813
1.3740458015267176,1.0687022900763359,-1.1450381679389312,-0.40283203125,-0.044677734375,-0.32958984375,1.6829999999999998
1.4198473282442747,1.1297709923664123,-1.1908396946564885,-0.408447265625,-0.046630859375,-0.3251953125,1.6846999999999999
1.4351145038167938,0.9007633587786259,-1.2671755725190839,-0.40869140625,-0.048828125,-0.317626953125,1.6864
1.3129770992366412,1.2366412213740459,-1.099236641221374,-0.407470703125,-0.05419921875,-0.3203125,1.6881
1.4351145038167938,1.0687022900763359,-1.0534351145038168,-0.40234375,-0.05029296875,-0.32275390625,1.6898
1.1450381679389312,0.916030534351145,-1.0381679389312977,-0.40478515625,-0.04833984375,-0.313232421875,1.6915
1.1603053435114503,0.9465648854961832,-1.1755725190839694,-0.4052734375,-0.04833984375,-0.328369140625,1.6931999999999998
1.2061068702290076,0.8396946564885496,-1.0229007633587786,-0.407470703125,-0.051513671875,-0.328369140625,1.6948999999999999
1.1145038167938932,1.1450381679389312,-1.0076335877862594,-0.407958984375,-0.0517578125,-0.33154296875,1.6965999999999999
1.3893129770992367,1.099236641221374,-0.732824427480916,-0.40576171875,-0.05078125,-0.3271484375,1.6983
1.1755725190839694,1.1603053435114503,-0.9465648854961832,-0.40478515625,-0.0498046875,-0.330078125,1.7
1.3587786259541985,1.0687022900763359,-0.7633587786259542,-0.40625,-0.052978515625,-0.32421875,1.7017
1.3587786259541985,1.099236641221374,-0.8244274809160306,-0.40625,-0.046875,-0.330810546875,1.7033999999999998
1.2671755725190839,1.1755725190839694,-0.8854961832061069,-0.40771484375,-0.047607421875,-0.3271484375,1.7050999999999998
1.1755725190839694,1.1450381679389312,-0.8854961832061069,-0.404296875,-0.04931640625,-0.322998046875,1.7067999999999999
1.1450381679389312,1.2366412213740459,-0.8396946564885496,-0.4091796875,-0.049072265625,-0.32373046875,1.7085
1.0687022900763359,1.3129770992366412,-0.9312977099236641,-0.404052734375,-0.04931640625,-0.322509765625,1.7102
1.251908396946565,1.4198473282442747,-0.9312977099236641,-0.40966796875,-0.048095703125,-0.3291015625,1.7119
1.1755725190839694,1.3587786259541985,-0.7175572519083969,-0.409423828125,-0.05029296875,-0.330810546875,1.7136
1.1297709923664123,1.1603053435114503,-0.7938931297709924,-0.40625,-0.0458984375,-0.325439453125,1.7152999999999998
1.0381679389312977,1.5419847328244274,-0.9923664122137404,-0.406494140625,-0.054931640625,-0.321044921875,1.7169999999999999
1.0687022900763359,1.633587786259542,-0.9312977099236641,-0.404296875,-0.047119140625,-0.33203125,1.7187
0.9770992366412213,1.5267175572519085,-0.916030534351145,-0.40673828125,-0.0478515625,-0.327392578125,1.7204
0.8396946564885496,1.5114503816793894,-0.8702290076335878,-0.408203125,-0.044921875,-0.321044921875,1.7221
0.8854961832061069,1.5419847328244274,-0.8702290076335878,-0.405029296875,-0.051513671875,-0.3271484375,1.7238
0.6717557251908397,1.5267175572519085,-0.8854961832061069,-0.40478515625,-0.048583984375,-0.330810546875,1.7254999999999998
1.099236641221374,1.465648854961832,-1.0229007633587786,-0.4091796875,-0.0458984375,-0.326904296875,1.7271999999999998
1.1145038167938932,1.465648854961832,-0.9312977099236641,-0.4072265625,-0.045654296875,-0.32421875,1.7288999999999999
0.8091603053435115,1.3740458015267176,-1.1755725190839694,-0.408203125,-0.046630859375,-0.32421875,1.7306
0.916030534351145,1.5419847328244274,-1.0229007633587786,-0.407470703125,-0.046875,-0.31982421875,1.7323
1.1145038167938932,1.3740458015267176,-1.0381679389312977,-0.40625,-0.045654296875,-0.331298828125,1.734
0.7633587786259542,1.3282442748091603,-1.0076335877862594,-0.402587890625,-0.04931640625,-0.332275390625,1.7356999999999998
0.9770992366412213,1.297709923664122,-1.1755725190839694,-0.40673828125,-0.047607421875,-0.32763671875,1.7373999999999998
0.8396946564885496,1.3740458015267176,-0.9923664122137404,-0.404296875,-0.045654296875,-0.32470703125,1.7390999999999999
1.0076335877862594,1.450381679389313,-1.4045801526717556,-0.40771484375,-0.04443359375,-0.3251953125,1.7408
1.1297709923664123,1.3282442748091603,-1.2671755725190839,-0.4091796875,-0.047119140625,-0.32421875,1.7425
0.8549618320610687,1.3740458015267176,-1.297709923664122,-0.404052734375,-0.04931640625,-0.326904296875,1.7442
0.9465648854961832,1.3282442748091603,-1.3893129770992367,-0.399658203125,-0.048583984375,-0.3310546875,1.7459
1.0076335877862594,1.3587786259541985,-1.3893129770992367,-0.406005859375,-0.047119140625,-0.318603515625,1.7475999999999998
0.9007633587786259,1.083969465648855,-1.3740458015267176,-0.407470703125,-0.048095703125,-0.32275390625,1.7492999999999999
1.0687022900763359,1.1297709923664123,-1.4961832061068703,-0.40087890625,-0.0458984375,-0.320556640625,1.751
1.1603053435114503,1.297709923664122,-1.5114503816793894,-0.404541015625,-0.04541015625,-0.320556640625,1.7527
1.0229007633587786,1.0687022900763359,-1.5572519083969465,-0.40576171875,-0.052978515625,-0.333984375,1.7544
1.1755725190839694,1.0229007633587786,-1.5725190839694656,-0.40771484375,-0.04638671875,-0.325927734375,1.7561
0.9770992366412213,0.916030534351145,-1.4351145038167938,-0.406494140625,-0.045166015625,-0.327880859375,1.7577999999999998
1.0381679389312977,1.1755725190839694,-1.3740458015267176,-0.406005859375,-0.049072265625,-0.322998046875,1.7594999999999998
1.2671755725190839,1.0381679389312977,-1.4809160305343512,-0.4033203125,-0.046875,-0.321533203125,1.7611999999999999
0.8854961832061069,0.9618320610687023,-1.3740458015267176,-0.40625,-0.050537109375,-0.32861328125,1.7629
1.0381679389312977,1.0381679389312977,-1.450381679389313,-0.408447265625,-0.048095703125,-0.326416015625,1.7646
1.2061068702290076,0.9007633587786259,-1.3282442748091603,-0.405517578125,-0.045654296875,-0.3212890625,1.7663
1.282442748091603,0.8244274809160306,-1.5572519083969465,-0.402099609375,-0.048095703125,-0.3271484375,1.7679999999999998
1.3282442748091603,0.7633587786259542,-1.4961832061068703,-0.403076171875,-0.053955078125,-0.330078125,1.7696999999999998
1.1297709923664123,0.8854961832061069,-1.4809160305343512,-0.4052734375,-0.04833984375,-0.330078125,1.7713999999999999
1.0381679389312977,0.9007633587786259,-1.297709923664122,-0.407470703125,-0.042724609375,-0.332763671875,1.7731
1.1297709923664123,1.1145038167938932,-1.4045801526717556,-0.4072265625,-0.044189453125,-0.32568359375,1.7748
1.2061068702290076,0.8702290076335878,-1.3282442748091603,-0.408203125,-0.046875,-0.327880859375,1.7765
1.465648854961832,0.916030534351145,-1.4351145038167938,-0.410400390625,-0.05224609375,-0.326904296875,1.7782
1.3893129770992367,0.8549618320610687,-1.3740458015267176,-0.408447265625,-0.046875,-0.32373046875,1.7798999999999998
1.2671755725190839,0.9618320610687023,-1.5877862595419847,-0.409423828125,-0.048828125,-0.3251953125,1.7815999999999999
1.1908396946564885,1.083969465648855,-1.3435114503816794,-0.405517578125,-0.048583984375,-0.32763671875,1.7832999999999999
