gyrox1,gyroy1,gyroz1,accelx1,accely1,accelz1,Time
3.3893129770992365,1.8473282442748091,-1.1145038167938932,-0.45556640625,-0.112060546875,-0.110595703125,0.0
3.450381679389313,1.83206106870229,-1.282442748091603,-0.45849609375,-0.118408203125,-0.114990234375,0.0017
3.2213740458015265,1.786259541984733,-1.4351145038167938,-0.45703125,-0.116455078125,-0.116943359375,0.0034
3.0229007633587788,1.7557251908396947,-1.251908396946565,-0.4560546875,-0.11474609375,-0.116943359375,0.0050999999999999995
3.0839694656488548,1.6030534351145038,-1.1908396946564885,-0.458740234375,-0.11865234375,-0.12060546875,0.0068
3.0381679389312977,1.633587786259542,-1.3435114503816794,-0.45556640625,-0.116943359375,-0.11328125,0.008499999999999999
3.099236641221374,1.7709923664122138,-1.5877862595419847,-0.448974609375,-0.1181640625,-0.115478515625,0.010199999999999999
3.2213740458015265,1.6488549618320612,-1.4198473282442747,-0.456787109375,-0.11279296875,-0.11083984375,0.011899999999999999
3.282442748091603,1.9389312977099236,-1.4809160305343512,-0.4580078125,-0.115966796875,-0.11376953125,0.0136
3.068702290076336,1.7099236641221374,-1.633587786259542,-0.453125,-0.112060546875,-0.11474609375,0.0153
2.9770992366412212,1.618320610687023,-1.6793893129770991,-0.4521484375,-0.11669921875,-0.1142578125,0.016999999999999998
2.9160305343511452,1.5725190839694656,-1.633587786259542,-0.45263671875,-0.11376953125,-0.11376953125,0.018699999999999998
2.9770992366412212,1.4961832061068703,-1.7251908396946565,-0.4501953125,-0.1162109375,-0.118408203125,0.020399999999999998
3.0076335877862594,1.6488549618320612,-1.83206106870229,-0.450439453125,-0.119140625,-0.11279296875,0.022099999999999998
2.8702290076335877,1.5419847328244274,-1.9541984732824427,-0.455322265625,-0.116455078125,-0.112060546875,0.023799999999999998
2.7786259541984735,1.3129770992366412,-1.83206106870229,-0.45458984375,-0.11865234375,-0.115966796875,0.0255
2.7480916030534353,1.450381679389313,-2.0916030534351147,-0.450439453125,-0.11572265625,-0.116943359375,0.0272
2.8244274809160306,1.450381679389313,-2.1068702290076335,-0.45166015625,-0.11962890625,-0.108154296875,0.0289
2.6564885496183206,1.282442748091603,-2.2748091603053435,-0.447998046875,-0.11474609375,-0.11279296875,0.0306
2.5343511450381677,1.251908396946565,-2.2748091603053435,-0.4501953125,-0.117919921875,-0.1201171875,0.032299999999999995
2.351145038167939,1.3435114503816794,-2.351145038167939,-0.453857421875,-0.11376953125,-0.1162109375,0.033999999999999996
2.50381679389313,0.9465648854961832,-2.2595419847328246,-0.44677734375,-0.114501953125,-0.11328125,0.035699999999999996
2.4427480916030535,1.0534351145038168,-2.16793893129771,-0.4482421875,-0.116943359375,-0.11865234375,0.037399999999999996
2.0610687022900764,0.9465648854961832,-2.2900763358778624,-0.448974609375,-0.113525390625,-0.111572265625,0.039099999999999996
1.83206106870229,1.0381679389312977,-2.2290076335877864,-0.447021484375,-0.1123046875,-0.10791015625,0.040799999999999996
2.122137404580153,0.9923664122137404,-2.183206106870229,-0.4521484375,-0.1162109375,-0.107666015625,0.042499999999999996
1.9694656488549618,1.0534351145038168,-2.2442748091603053,-0.457763671875,-0.11767578125,-0.11376953125,0.044199999999999996
1.8778625954198473,0.9770992366412213,-2.2900763358778624,-0.449462890625,-0.110595703125,-0.1083984375,0.045899999999999996
2.183206106870229,0.9923664122137404,-2.3206106870229006,-0.454833984375,-0.116943359375,-0.112548828125,0.047599999999999996
1.8778625954198473,1.251908396946565,-2.4885496183206106,-0.452880859375,-0.1162109375,-0.114501953125,0.0493
1.9083969465648856,1.2213740458015268,-2.2595419847328246,-0.451171875,-0.111328125,-0.12548828125,0.051
2.1526717557251906,1.4045801526717556,-2.16793893129771,-0.449462890625,-0.110595703125,-0.12158203125,0.0527
2.351145038167939,1.4198473282442747,-2.0916030534351147,-0.44970703125,-0.10888671875,-0.12255859375,0.0544
2.595419847328244,1.9541984732824427,-2.045801526717557,-0.4482421875,-0.115234375,-0.119140625,0.0561
2.6106870229007635,1.7709923664122138,-2.1068702290076335,-0.456298828125,-0.112548828125,-0.119873046875,0.0578
2.595419847328244,1.8015267175572518,-2.0,-0.454833984375,-0.1142578125,-0.123046875,0.0595
2.717557251908397,2.0916030534351147,-2.0763358778625953,-0.45751953125,-0.112060546875,-0.12109375,0.0612
3.099236641221374,2.0916030534351147,-2.1526717557251906,-0.453369140625,-0.109619140625,-0.125244140625,0.0629
2.8244274809160306,2.2595419847328246,-1.9389312977099236,-0.4560546875,-0.11083984375,-0.122802734375,0.06459999999999999
2.946564885496183,2.381679389312977,-1.9541984732824427,-0.459228515625,-0.108642578125,-0.122314453125,0.0663
3.099236641221374,2.2748091603053435,-2.2442748091603053,-0.45654296875,-0.110107421875,-0.11767578125,0.06799999999999999
3.1755725190839694,2.122137404580153,-2.3053435114503817,-0.45361328125,-0.11767578125,-0.1201171875,0.0697
3.1908396946564888,1.9541984732824427,-2.0763358778625953,-0.447509765625,-0.113525390625,-0.121337890625,0.07139999999999999
3.2213740458015265,1.6641221374045803,-1.8778625954198473,-0.45654296875,-0.108642578125,-0.119384765625,0.0731
3.2061068702290076,1.816793893129771,-2.030534351145038,-0.45556640625,-0.110595703125,-0.1220703125,0.07479999999999999
3.267175572519084,2.015267175572519,-2.0,-0.455322265625,-0.11767578125,-0.1103515625,0.0765
3.5572519083969465,1.9083969465648856,-1.8473282442748091,-0.45263671875,-0.116455078125,-0.118896484375,0.07819999999999999
3.5572519083969465,1.6488549618320612,-1.7099236641221374,-0.45556640625,-0.114501953125,-0.1142578125,0.0799
3.6030534351145036,1.6946564885496183,-1.9389312977099236,-0.453125,-0.109130859375,-0.117919921875,0.08159999999999999
3.5114503816793894,1.7709923664122138,-1.9083969465648856,-0.45947265625,-0.108642578125,-0.111083984375,0.0833
3.572519083969466,1.4809160305343512,-1.5114503816793894,-0.457763671875,-0.111328125,-0.115478515625,0.08499999999999999
3.1603053435114505,1.4351145038167938,-1.5114503816793894,-0.456298828125,-0.11279296875,-0.11669921875,0.0867
3.145038167938931,1.3587786259541985,-1.465648854961832,-0.454345703125,-0.114501953125,-0.111328125,0.08839999999999999
3.145038167938931,1.450381679389313,-1.251908396946565,-0.45751953125,-0.1181640625,-0.1103515625,0.0901
2.900763358778626,1.3740458015267176,-1.3587786259541985,-0.456787109375,-0.11474609375,-0.10791015625,0.09179999999999999
2.885496183206107,1.2366412213740459,-1.0687022900763359,-0.455322265625,-0.1123046875,-0.111083984375,0.0935
2.549618320610687,1.1908396946564885,-0.916030534351145,-0.4541015625,-0.11474609375,-0.11279296875,0.09519999999999999
2.7022900763358777,1.1603053435114503,-1.251908396946565,-0.455078125,-0.114990234375,-0.116943359375,0.0969
2.198473282442748,1.2671755725190839,-1.0076335877862594,-0.454833984375,-0.11572265625,-0.116455078125,0.0986
2.1374045801526718,0.9312977099236641,-0.9770992366412213,-0.449462890625,-0.119384765625,-0.119384765625,0.1003
2.045801526717557,0.9465648854961832,-0.7938931297709924,-0.45849609375,-0.111083984375,-0.11328125,0.102
1.8473282442748091,0.9312977099236641,-0.6870229007633588,-0.454833984375,-0.119140625,-0.110107421875,0.1037
1.6946564885496183,1.0381679389312977,-0.5648854961832062,-0.453125,-0.1103515625,-0.1220703125,0.1054
1.6946564885496183,0.9007633587786259,-0.5190839694656488,-0.4501953125,-0.114501953125,-0.11474609375,0.1071
1.5725190839694656,0.916030534351145,-0.4580152671755725,-0.453857421875,-0.114990234375,-0.10888671875,0.1088
1.3587786259541985,0.7175572519083969,-0.7022900763358778,-0.451904296875,-0.111328125,-0.114990234375,0.11049999999999999
1.2671755725190839,0.44274809160305345,-0.3816793893129771,-0.448486328125,-0.113037109375,-0.111328125,0.1122
0.9465648854961832,0.6106870229007634,-0.183206106870229,-0.44873046875,-0.107666015625,-0.121337890625,0.11389999999999999
0.9007633587786259,0.5038167938931297,-0.42748091603053434,-0.454833984375,-0.112548828125,-0.108154296875,0.1156
0.7480916030534351,0.2900763358778626,-0.42748091603053434,-0.459716796875,-0.11083984375,-0.103271484375,0.11729999999999999
0.6106870229007634,0.24427480916030533,-0.2595419847328244,-0.4501953125,-0.116455078125,-0.1181640625,0.119
0.183206106870229,0.030534351145038167,-0.4122137404580153,-0.454833984375,-0.118408203125,-0.108642578125,0.12069999999999999
0.061068702290076333,-0.04580152671755725,-0.48854961832061067,-0.454833984375,-0.115478515625,-0.1083984375,0.1224
0.015267175572519083,-0.15267175572519084,-0.5190839694656488,-0.454345703125,-0.117919921875,-0.107177734375,0.12409999999999999
0.07633587786259542,-0.2595419847328244,-0.5343511450381679,-0.453369140625,-0.1171875,-0.11181640625,0.1258
-0.061068702290076333,-0.549618320610687,-0.6412213740458015,-0.4521484375,-0.115234375,-0.11328125,0.1275
-0.030534351145038167,-0.4580152671755725,-0.5190839694656488,-0.455322265625,-0.11669921875,-0.11376953125,0.12919999999999998
0.030534351145038167,-0.5038167938931297,-0.6717557251908397,-0.455322265625,-0.110107421875,-0.105224609375,0.1309
-0.015267175572519083,-0.6106870229007634,-0.6717557251908397,-0.4560546875,-0.117431640625,-0.114990234375,0.1326
-0.015267175572519083,-0.4732824427480916,-0.8854961832061069,-0.457763671875,-0.11474609375,-0.119384765625,0.1343
0.16793893129770993,-0.42748091603053434,-0.9465648854961832,-0.453125,-0.120361328125,-0.113525390625,0.13599999999999998
0.4122137404580153,-0.2595419847328244,-1.1755725190839694,-0.454833984375,-0.116455078125,-0.117431640625,0.1377
0.5801526717557252,-0.1984732824427481,-0.9007633587786259,-0.45361328125,-0.111328125,-0.117431640625,0.1394
0.8244274809160306,-0.10687022900763359,-1.1755725190839694,-0.455322265625,-0.111328125,-0.110107421875,0.1411
0.916030534351145,0.24427480916030533,-1.0687022900763359,-0.4580078125,-0.116455078125,-0.1181640625,0.14279999999999998
1.0229007633587786,0.3816793893129771,-1.1908396946564885,-0.45751953125,-0.118408203125,-0.119384765625,0.1445
1.5877862595419847,0.44274809160305345,-1.4351145038167938,-0.459228515625,-0.110595703125,-0.1201171875,0.1462
1.6793893129770991,0.5648854961832062,-1.450381679389313,-0.455322265625,-0.11474609375,-0.12158203125,0.1479
1.7099236641221374,0.6412213740458015,-1.4045801526717556,-0.456787109375,-0.1171875,-0.118408203125,0.14959999999999998
1.9694656488549618,0.8702290076335878,-1.5877862595419847,-0.454345703125,-0.116455078125,-0.120849609375,0.1513
2.183206106870229,0.7175572519083969,-1.633587786259542,-0.453857421875,-0.11572265625,-0.1142578125,0.153
2.381679389312977,1.0229007633587786,-1.633587786259542,-0.45849609375,-0.111083984375,-0.12451171875,0.1547
2.2595419847328246,0.8244274809160306,-1.465648854961832,-0.45556640625,-0.108642578125,-0.12548828125,0.15639999999999998
2.6564885496183206,0.916030534351145,-1.8015267175572518,-0.451904296875,-0.112548828125,-0.121337890625,0.1581
2.9618320610687023,1.0076335877862594,-2.0,-0.455078125,-0.10693359375,-0.120849609375,0.1598
2.6564885496183206,0.8091603053435115,-1.8931297709923665,-0.455810546875,-0.111328125,-0.1259765625,0.1615
2.6259541984732824,1.099236641221374,-1.6946564885496183,-0.45458984375,-0.1025390625,-0.119873046875,0.16319999999999998
3.1755725190839694,1.083969465648855,-2.045801526717557,-0.458740234375,-0.113037109375,-0.11572265625,0.1649
3.1297709923664123,0.8396946564885496,-1.8473282442748091,-0.455078125,-0.112548828125,-0.1201171875,0.1666
3.0381679389312977,1.0381679389312977,-1.7557251908396947,-0.44970703125,-0.1123046875,-0.115966796875,0.16829999999999998
3.114503816793893,1.2671755725190839,-1.7099236641221374,-0.45068359375,-0.1083984375,-0.115966796875,0.16999999999999998
3.2061068702290076,0.9923664122137404,-1.9083969465648856,-0.45458984375,-0.1103515625,-0.11962890625,0.1717
3.1603053435114505,1.1908396946564885,-1.7404580152671756,-0.453125,-0.11083984375,-0.119873046875,0.1734
3.1908396946564888,1.2061068702290076,-1.8015267175572518,-0.4599609375,-0.108642578125,-0.126220703125,0.17509999999999998
3.267175572519084,1.0687022900763359,-1.5419847328244274,-0.454345703125,-0.108642578125,-0.11474609375,0.17679999999999998
3.053435114503817,1.3129770992366412,-1.8473282442748091,-0.460205078125,-0.113037109375,-0.1171875,0.1785
2.9618320610687023,1.2671755725190839,-1.5725190839694656,-0.456787109375,-0.11181640625,-0.106201171875,0.1802
3.068702290076336,1.1145038167938932,-1.7709923664122138,-0.453125,-0.110107421875,-0.123291015625,0.18189999999999998
2.7480916030534353,1.0381679389312977,-1.5572519083969465,-0.4541015625,-0.111083984375,-0.122314453125,0.18359999999999999
2.687022900763359,1.083969465648855,-1.5419847328244274,-0.452880859375,-0.1162109375,-0.112548828125,0.1853
2.6106870229007635,1.2671755725190839,-1.3129770992366412,-0.452880859375,-0.111572265625,-0.11962890625,0.187
2.4580152671755724,1.0534351145038168,-1.5267175572519085,-0.45263671875,-0.10888671875,-0.112060546875,0.18869999999999998
2.1068702290076335,0.8549618320610687,-1.4045801526717556,-0.44970703125,-0.11083984375,-0.107666015625,0.19039999999999999
2.198473282442748,0.9007633587786259,-1.5114503816793894,-0.451171875,-0.107421875,-0.11181640625,0.1921
1.9236641221374047,0.7480916030534351,-1.4809160305343512,-0.453125,-0.114013671875,-0.10693359375,0.1938
1.7709923664122138,0.5190839694656488,-1.3740458015267176,-0.45068359375,-0.109619140625,-0.115478515625,0.19549999999999998
1.7099236641221374,0.6259541984732825,-1.4045801526717556,-0.45458984375,-0.113525390625,-0.1123046875,0.1972
1.3129770992366412,0.4122137404580153,-1.4961832061068703,-0.44921875,-0.116943359375,-0.119384765625,0.1989
1.2213740458015268,0.24427480916030533,-1.1908396946564885,-0.4560546875,-0.11181640625,-0.114990234375,0.2006
1.1603053435114503,0.2595419847328244,-1.1297709923664123,-0.455322265625,-0.11083984375,-0.108642578125,0.20229999999999998
1.0534351145038168,0.22900763358778625,-1.1145038167938932,-0.453369140625,-0.105224609375,-0.106201171875,0.204
0.8396946564885496,0.12213740458015267,-1.1603053435114503,-0.4501953125,-0.11328125,-0.100830078125,0.2057
0.6717557251908397,0.15267175572519084,-1.1755725190839694,-0.45361328125,-0.117919921875,-0.115234375,0.2074
0.8549618320610687,-0.015267175572519083,-0.9312977099236641,-0.449951171875,-0.111083984375,-0.11328125,0.20909999999999998
0.7938931297709924,0.061068702290076333,-0.8702290076335878,-0.45361328125,-0.11376953125,-0.113037109375,0.2108
0.48854961832061067,0.04580152671755725,-0.9618320610687023,-0.45458984375,-0.1162109375,-0.117431640625,0.2125
0.4122137404580153,-0.030534351145038167,-0.8244274809160306,-0.459228515625,-0.114501953125,-0.116455078125,0.2142
0.5343511450381679,0.030534351145038167,-0.9618320610687023,-0.453857421875,-0.111083984375,-0.1171875,0.21589999999999998
0.366412213740458,0.21374045801526717,-1.0076335877862594,-0.453125,-0.1142578125,-0.116455078125,0.2176
0.4732824427480916,0.33587786259541985,-1.0534351145038168,-0.45458984375,-0.114013671875,-0.120849609375,0.2193
0.5190839694656488,0.10687022900763359,-0.9312977099236641,-0.45361328125,-0.1162109375,-0.115478515625,0.22099999999999997
0.24427480916030533,0.0,-0.8549618320610687,-0.4580078125,-0.116455078125,-0.118408203125,0.22269999999999998
0.3969465648854962,0.3511450381679389,-0.9007633587786259,-0.45458984375,-0.11376953125,-0.116943359375,0.2244
0.48854961832061067,0.21374045801526717,-1.2061068702290076,-0.45458984375,-0.1162109375,-0.103271484375,0.2261
0.32061068702290074,0.24427480916030533,-0.9465648854961832,-0.4580078125,-0.112060546875,-0.110107421875,0.22779999999999997
0.5954198473282443,0.33587786259541985,-0.8702290076335878,-0.458740234375,-0.115234375,-0.102294921875,0.22949999999999998
0.7175572519083969,0.3969465648854962,-1.1908396946564885,-0.459228515625,-0.116455078125,-0.123779296875,0.2312
0.5343511450381679,0.3511450381679389,-1.0229007633587786,-0.4599609375,-0.113037109375,-0.116943359375,0.2329
0.9007633587786259,0.3511450381679389,-0.9923664122137404,-0.462646484375,-0.10986328125,-0.120361328125,0.23459999999999998
0.9007633587786259,0.4732824427480916,-1.2061068702290076,-0.458740234375,-0.11767578125,-0.126708984375,0.23629999999999998
0.9007633587786259,0.5190839694656488,-0.9923664122137404,-0.44970703125,-0.11181640625,-0.12060546875,0.238
1.0534351145038168,0.5190839694656488,-0.9312977099236641,-0.453125,-0.11279296875,-0.123779296875,0.2397
1.251908396946565,0.5801526717557252,-1.099236641221374,-0.451171875,-0.115234375,-0.110107421875,0.24139999999999998
0.916030534351145,0.5954198473282443,-1.2061068702290076,-0.457275390625,-0.112060546875,-0.118408203125,0.24309999999999998
1.2366412213740459,0.7480916030534351,-1.1145038167938932,-0.45703125,-0.112060546875,-0.116943359375,0.2448
1.1450381679389312,0.8244274809160306,-1.0076335877862594,-0.45361328125,-0.111572265625,-0.109619140625,0.2465
1.0381679389312977,0.7480916030534351,-1.0534351145038168,-0.456787109375,-0.1181640625,-0.120849609375,0.24819999999999998
1.3587786259541985,0.8702290076335878,-1.1603053435114503,-0.450439453125,-0.109130859375,-0.10400390625,0.24989999999999998
1.4809160305343512,0.7480916030534351,-1.1450381679389312,-0.455078125,-0.11572265625,-0.1103515625,0.2516
1.1755725190839694,0.8702290076335878,-1.1450381679389312,-0.453125,-0.11083984375,-0.11865234375,0.25329999999999997
1.3282442748091603,0.916030534351145,-1.0687022900763359,-0.450927734375,-0.113525390625,-0.112060546875,0.255
1.2366412213740459,0.6564885496183206,-1.1908396946564885,-0.456298828125,-0.112548828125,-0.11328125,0.2567
1.3282442748091603,0.549618320610687,-1.0076335877862594,-0.459716796875,-0.112060546875,-0.109619140625,0.25839999999999996
1.2671755725190839,0.8854961832061069,-1.4351145038167938,-0.45458984375,-0.1103515625,-0.107666015625,0.2601
0.8091603053435115,0.5801526717557252,-1.282442748091603,-0.45458984375,-0.11376953125,-0.111083984375,0.2618
1.2213740458015268,0.48854961832061067,-1.4198473282442747,-0.4560546875,-0.11474609375,-0.11767578125,0.2635
0.9312977099236641,0.4122137404580153,-1.1297709923664123,-0.457763671875,-0.11376953125,-0.12109375,0.2652
0.6412213740458015,0.5648854961832062,-1.1450381679389312,-0.45263671875,-0.1123046875,-0.114990234375,0.26689999999999997
0.5954198473282443,0.3969465648854962,-1.1145038167938932,-0.452880859375,-0.10986328125,-0.111083984375,0.2686
0.5343511450381679,0.22900763358778625,-1.450381679389313,-0.458984375,-0.116455078125,-0.113037109375,0.2703
0.5190839694656488,0.24427480916030533,-1.3587786259541985,-0.45458984375,-0.1103515625,-0.10986328125,0.27199999999999996
0.2900763358778626,0.32061068702290074,-1.1297709923664123,-0.453369140625,-0.112548828125,-0.113525390625,0.2737
0.2900763358778626,0.3816793893129771,-1.0076335877862594,-0.457275390625,-0.11474609375,-0.10888671875,0.2754
0.32061068702290074,0.24427480916030533,-0.916030534351145,-0.45654296875,-0.109130859375,-0.111328125,0.27709999999999996
0.22900763358778625,0.366412213740458,-0.8549618320610687,-0.461181640625,-0.112548828125,-0.11669921875,0.2788
0.015267175572519083,0.48854961832061067,-1.0687022900763359,-0.456787109375,-0.111328125,-0.119140625,0.28049999999999997
-0.16793893129770993,0.33587786259541985,-0.916030534351145,-0.45703125,-0.108154296875,-0.114990234375,0.2822
-0.366412213740458,0.42748091603053434,-0.9618320610687023,-0.458251953125,-0.107177734375,-0.114990234375,0.2839
-0.2595419847328244,0.44274809160305345,-0.9312977099236641,-0.458984375,-0.109619140625,-0.109619140625,0.28559999999999997
-0.1984732824427481,0.2595419847328244,-0.916030534351145,-0.460205078125,-0.115966796875,-0.124755859375,0.2873
-0.2748091603053435,0.32061068702290074,-0.7022900763358778,-0.454345703125,-0.109619140625,-0.11279296875,0.289
-0.07633587786259542,0.44274809160305345,-0.8549618320610687,-0.45556640625,-0.116455078125,-0.124755859375,0.29069999999999996
-0.015267175572519083,0.5801526717557252,-0.8549618320610687,-0.455078125,-0.110595703125,-0.1123046875,0.2924
0.0916030534351145,0.8854961832061069,-0.732824427480916,-0.4580078125,-0.115234375,-0.122802734375,0.2941
0.10687022900763359,0.7938931297709924,-0.8702290076335878,-0.45361328125,-0.113037109375,-0.112060546875,0.2958
0.07633587786259542,0.732824427480916,-0.7633587786259542,-0.45703125,-0.112548828125,-0.129150390625,0.2975
0.5038167938931297,0.7480916030534351,-0.8396946564885496,-0.459716796875,-0.1103515625,-0.122314453125,0.29919999999999997
0.5343511450381679,0.7938931297709924,-0.7786259541984732,-0.4580078125,-0.109130859375,-0.118408203125,0.3009
0.8244274809160306,1.0534351145038168,-0.7022900763358778,-0.453857421875,-0.111083984375,-0.119140625,0.3026
1.099236641221374,1.099236641221374,-0.9465648854961832,-0.4541015625,-0.115966796875,-0.119140625,0.30429999999999996
1.3129770992366412,0.8549618320610687,-0.7633587786259542,-0.458984375,-0.114013671875,-0.1240234375,0.306
1.633587786259542,1.083969465648855,-0.6717557251908397,-0.45703125,-0.11181640625,-0.125,0.3077
1.8473282442748091,0.8396946564885496,-1.0381679389312977,-0.460693359375,-0.11083984375,-0.119140625,0.3094
2.1068702290076335,1.0534351145038168,-0.8854961832061069,-0.456298828125,-0.11083984375,-0.123779296875,0.3111
2.1068702290076335,1.1145038167938932,-0.7786259541984732,-0.45654296875,-0.11083984375,-0.126708984375,0.31279999999999997
2.2442748091603053,1.1603053435114503,-0.7480916030534351,-0.46142578125,-0.110595703125,-0.12255859375,0.3145
2.0763358778625953,1.282442748091603,-0.9923664122137404,-0.4560546875,-0.11083984375,-0.12646484375,0.3162
2.198473282442748,1.2366412213740459,-0.7938931297709924,-0.457275390625,-0.112060546875,-0.12353515625,0.31789999999999996
2.2900763358778624,1.3893129770992367,-0.9312977099236641,-0.458251953125,-0.116943359375,-0.12646484375,0.3196
2.122137404580153,1.5572519083969465,-0.9465648854961832,-0.45458984375,-0.10888671875,-0.125,0.3213
1.816793893129771,1.4961832061068703,-1.099236641221374,-0.45849609375,-0.10986328125,-0.125,0.323
1.6488549618320612,1.4809160305343512,-1.2061068702290076,-0.454833984375,-0.11376953125,-0.121337890625,0.3247
1.7099236641221374,1.618320610687023,-1.3587786259541985,-0.453857421875,-0.112548828125,-0.13037109375,0.32639999999999997
1.5114503816793894,1.450381679389313,-1.251908396946565,-0.448974609375,-0.118408203125,-0.11376953125,0.3281
1.2061068702290076,1.3282442748091603,-1.4045801526717556,-0.45361328125,-0.114013671875,-0.112060546875,0.3298
1.1297709923664123,1.450381679389313,-1.2671755725190839,-0.456787109375,-0.11962890625,-0.1123046875,0.33149999999999996
1.2061068702290076,1.1450381679389312,-1.4961832061068703,-0.44921875,-0.117431640625,-0.106689453125,0.3332
1.083969465648855,0.8549618320610687,-1.3129770992366412,-0.447021484375,-0.11279296875,-0.120849609375,0.3349
0.8549618320610687,0.9312977099236641,-1.4045801526717556,-0.44873046875,-0.122314453125,-0.11767578125,0.33659999999999995
0.7175572519083969,0.6259541984732825,-1.5877862595419847,-0.45849609375,-0.116455078125,-0.113525390625,0.3383
0.3816793893129771,0.3816793893129771,-1.5572519083969465,-0.457275390625,-0.122314453125,-0.11083984375,0.33999999999999997
0.0916030534351145,0.5343511450381679,-1.6793893129770991,-0.454833984375,-0.119140625,-0.114990234375,0.3417
0.13740458015267176,0.5038167938931297,-1.4809160305343512,-0.45556640625,-0.1162109375,-0.11279296875,0.3434
0.07633587786259542,0.21374045801526717,-1.3893129770992367,-0.4541015625,-0.11376953125,-0.101318359375,0.34509999999999996
-0.44274809160305345,0.1984732824427481,-1.7099236641221374,-0.4560546875,-0.12060546875,-0.1025390625,0.3468
-0.5648854961832062,0.3511450381679389,-1.5419847328244274,-0.4580078125,-0.118408203125,-0.11474609375,0.3485
-0.5038167938931297,0.16793893129770993,-1.450381679389313,-0.45751953125,-0.1201171875,-0.11767578125,0.35019999999999996
-0.5801526717557252,0.3816793893129771,-1.297709923664122,-0.45556640625,-0.115234375,-0.12060546875,0.3519
-0.7786259541984732,0.6259541984732825,-1.3129770992366412,-0.456787109375,-0.115234375,-0.117431640625,0.35359999999999997
-1.1297709923664123,0.6564885496183206,-1.3129770992366412,-0.4580078125,-0.113037109375,-0.1142578125,0.3553
-1.083969465648855,0.916030534351145,-1.1603053435114503,-0.45263671875,-0.114990234375,-0.1123046875,0.357
-1.297709923664122,0.8396946564885496,-1.083969465648855,-0.45751953125,-0.11279296875,-0.117431640625,0.35869999999999996
-1.5877862595419847,1.1297709923664123,-1.0534351145038168,-0.45703125,-0.111328125,-0.114501953125,0.3604
-1.465648854961832,1.5267175572519085,-0.8396946564885496,-0.450927734375,-0.11083984375,-0.1142578125,0.3621
-1.297709923664122,1.4045801526717556,-0.7633587786259542,-0.45361328125,-0.112060546875,-0.106689453125,0.36379999999999996
-1.2213740458015268,1.3893129770992367,-0.6412213740458015,-0.453125,-0.109375,-0.117919921875,0.3655
-1.2213740458015268,1.5114503816793894,-0.48854961832061067,-0.455322265625,-0.113037109375,-0.114501953125,0.36719999999999997
-1.1755725190839694,1.6030534351145038,-0.5954198473282443,-0.452880859375,-0.1083984375,-0.1123046875,0.3689
-1.0076335877862594,1.3740458015267176,-0.44274809160305345,-0.44921875,-0.112060546875,-0.11328125,0.3706
-0.6259541984732825,1.5419847328244274,-0.3816793893129771,-0.452880859375,-0.1103515625,-0.109619140625,0.37229999999999996
-0.183206106870229,1.2671755725190839,-0.4122137404580153,-0.45068359375,-0.10888671875,-0.11181640625,0.374
0.183206106870229,1.450381679389313,-0.33587786259541985,-0.447509765625,-0.102783203125,-0.1201171875,0.3757
0.7175572519083969,1.4045801526717556,-0.2900763358778626,-0.454345703125,-0.108642578125,-0.11376953125,0.37739999999999996
0.9465648854961832,1.099236641221374,-0.2900763358778626,-0.453857421875,-0.110595703125,-0.121826171875,0.3791
1.5267175572519085,0.9465648854961832,-0.5190839694656488,-0.4560546875,-0.111572265625,-0.102783203125,0.38079999999999997
1.7404580152671756,0.9618320610687023,-0.2748091603053435,-0.45849609375,-0.111328125,-0.126708984375,0.38249999999999995
2.0610687022900764,1.083969465648855,-0.3511450381679389,-0.461181640625,-0.1103515625,-0.1162109375,0.3842
2.4122137404580153,0.916030534351145,-0.3053435114503817,-0.45849609375,-0.1142578125,-0.115966796875,0.38589999999999997
2.2748091603053435,0.9007633587786259,-0.3053435114503817,-0.457763671875,-0.109130859375,-0.109130859375,0.3876
2.5801526717557253,0.9923664122137404,-0.4122137404580153,-0.457275390625,-0.1181640625,-0.106201171875,0.3893
2.7938931297709924,0.9312977099236641,-0.5190839694656488,-0.45703125,-0.11279296875,-0.1123046875,0.39099999999999996
2.7480916030534353,1.1145038167938932,-0.4732824427480916,-0.4560546875,-0.114013671875,-0.114501953125,0.3927
2.6564885496183206,1.4198473282442747,-0.5801526717557252,-0.45556640625,-0.109619140625,-0.107421875,0.3944
2.595419847328244,1.450381679389313,-0.2748091603053435,-0.45751953125,-0.10986328125,-0.111083984375,0.39609999999999995
2.549618320610687,1.5877862595419847,-0.5343511450381679,-0.45654296875,-0.11962890625,-0.11474609375,0.3978
2.3969465648854964,1.633587786259542,-0.33587786259541985,-0.450439453125,-0.1181640625,-0.121337890625,0.39949999999999997
2.0763358778625953,1.465648854961832,-0.5190839694656488,-0.4482421875,-0.1181640625,-0.1201171875,0.4012
1.4351145038167938,1.3587786259541985,-0.7633587786259542,-0.449951171875,-0.115234375,-0.10693359375,0.4029
1.2671755725190839,1.4198473282442747,-0.8244274809160306,-0.449951171875,-0.11474609375,-0.111083984375,0.40459999999999996
1.3282442748091603,1.1603053435114503,-0.8244274809160306,-0.448974609375,-0.12255859375,-0.10595703125,0.4063
1.0381679389312977,1.0381679389312977,-0.7786259541984732,-0.446533203125,-0.12548828125,-0.109375,0.408
0.6564885496183206,0.8702290076335878,-1.0381679389312977,-0.447265625,-0.119873046875,-0.11767578125,0.40969999999999995
0.2748091603053435,0.8549618320610687,-1.4809160305343512,-0.4482421875,-0.12158203125,-0.1201171875,0.4114
0.0916030534351145,0.4580152671755725,-1.3282442748091603,-0.449462890625,-0.1279296875,-0.110595703125,0.41309999999999997
0.13740458015267176,0.24427480916030533,-1.5877862595419847,-0.447998046875,-0.1201171875,-0.11376953125,0.4148
0.030534351145038167,0.24427480916030533,-1.5572519083969465,-0.446044921875,-0.123291015625,-0.114013671875,0.4165
-0.21374045801526717,0.15267175572519084,-1.7099236641221374,-0.45068359375,-0.12451171875,-0.109375,0.41819999999999996
-0.10687022900763359,-0.10687022900763359,-1.984732824427481,-0.4462890625,-0.1220703125,-0.11669921875,0.4199
-0.4122137404580153,-0.3053435114503817,-2.122137404580153,-0.448486328125,-0.1181640625,-0.111572265625,0.4216
-0.42748091603053434,-0.2595419847328244,-2.0763358778625953,-0.449951171875,-0.1201171875,-0.109130859375,0.42329999999999995
-0.4122137404580153,-0.44274809160305345,-2.3206106870229006,-0.44873046875,-0.12255859375,-0.117431640625,0.425
-0.6870229007633588,-0.5038167938931297,-2.381679389312977,-0.44921875,-0.125,-0.11376953125,0.42669999999999997
-0.48854961832061067,-0.732824427480916,-2.366412213740458,-0.45263671875,-0.116943359375,-0.110595703125,0.4284
-0.3969465648854962,-0.6106870229007634,-2.2595419847328246,-0.456787109375,-0.1162109375,-0.11083984375,0.4301
-0.8244274809160306,-0.7480916030534351,-2.763358778625954,-0.46240234375,-0.1171875,-0.11083984375,0.43179999999999996
-0.916030534351145,-1.0687022900763359,-2.7022900763358777,-0.45166015625,-0.112548828125,-0.1064453125,0.4335
-0.8091603053435115,-1.1145038167938932,-2.4732824427480917,-0.457275390625,-0.1103515625,-0.107177734375,0.4352
-1.0076335877862594,-1.1145038167938932,-2.6412213740458017,-0.448974609375,-0.110107421875,-0.109619140625,0.43689999999999996
-1.1908396946564885,-1.1450381679389312,-2.6259541984732824,-0.454345703125,-0.115478515625,-0.111572265625,0.4386
-0.9618320610687023,-1.251908396946565,-2.366412213740458,-0.456787109375,-0.1162109375,-0.114501953125,0.44029999999999997
-1.1450381679389312,-1.2366412213740459,-2.33587786259542,-0.454833984375,-0.112060546875,-0.122802734375,0.44199999999999995
-1.4045801526717556,-1.251908396946565,-2.2290076335877864,-0.459228515625,-0.105224609375,-0.119873046875,0.4437
-1.6641221374045803,-1.1755725190839694,-2.1374045801526718,-0.4560546875,-0.111328125,-0.1181640625,0.44539999999999996
-1.4351145038167938,-0.9465648854961832,-2.122137404580153,-0.458984375,-0.110595703125,-0.12060546875,0.4471
-1.816793893129771,-1.1145038167938932,-1.984732824427481,-0.455322265625,-0.1103515625,-0.126708984375,0.4488
-2.1068702290076335,-0.8702290076335878,-1.7709923664122138,-0.45361328125,-0.099853515625,-0.1181640625,0.45049999999999996
-2.0610687022900764,-0.5801526717557252,-1.7404580152671756,-0.458251953125,-0.099853515625,-0.117431640625,0.4522
-2.183206106870229,-0.549618320610687,-1.633587786259542,-0.459228515625,-0.100830078125,-0.118896484375,0.45389999999999997
-2.2290076335877864,-0.16793893129770993,-1.5877862595419847,-0.455322265625,-0.107666015625,-0.122314453125,0.45559999999999995
-2.1526717557251906,-0.2595419847328244,-1.3435114503816794,-0.4560546875,-0.107666015625,-0.12353515625,0.4573
-2.045801526717557,0.030534351145038167,-1.3740458015267176,-0.46337890625,-0.1064453125,-0.126708984375,0.45899999999999996
-1.9389312977099236,0.24427480916030533,-1.1297709923664123,-0.461181640625,-0.111328125,-0.128662109375,0.4607
-1.5725190839694656,0.6106870229007634,-1.0534351145038168,-0.455078125,-0.107421875,-0.122314453125,0.4624
-1.450381679389313,0.7786259541984732,-1.0229007633587786,-0.46044921875,-0.11083984375,-0.1259765625,0.46409999999999996
-1.1755725190839694,0.9007633587786259,-0.9618320610687023,-0.464111328125,-0.104736328125,-0.130615234375,0.4658
-0.5954198473282443,1.2366412213740459,-0.9312977099236641,-0.45361328125,-0.114013671875,-0.12646484375,0.46749999999999997
-0.6564885496183206,1.5114503816793894,-0.9007633587786259,-0.458740234375,-0.11572265625,-0.129638671875,0.46919999999999995
-0.21374045801526717,1.4809160305343512,-0.7938931297709924,-0.461669921875,-0.1083984375,-0.13134765625,0.4709
0.22900763358778625,1.5725190839694656,-1.0229007633587786,-0.461181640625,-0.111083984375,-0.13134765625,0.47259999999999996
0.3816793893129771,1.816793893129771,-0.7633587786259542,-0.46142578125,-0.109619140625,-0.12060546875,0.4743
0.3816793893129771,1.9541984732824427,-0.7022900763358778,-0.4599609375,-0.11083984375,-0.1240234375,0.476
0.48854961832061067,1.7557251908396947,-0.6717557251908397,-0.4580078125,-0.105712890625,-0.113037109375,0.47769999999999996
0.6259541984732825,1.7557251908396947,-0.5954198473282443,-0.456787109375,-0.109375,-0.119140625,0.4794
1.0381679389312977,1.8931297709923665,-0.5648854961832062,-0.454345703125,-0.10888671875,-0.11181640625,0.48109999999999997
1.0687022900763359,1.8015267175572518,-0.6106870229007634,-0.459716796875,-0.114501953125,-0.121337890625,0.48279999999999995
0.8702290076335878,1.8778625954198473,-0.3816793893129771,-0.45654296875,-0.11083984375,-0.116943359375,0.4845
1.3435114503816794,1.8015267175572518,-0.7022900763358778,-0.462158203125,-0.105712890625,-0.11474609375,0.48619999999999997
1.4198473282442747,1.7404580152671756,-0.6870229007633588,-0.450927734375,-0.1103515625,-0.11865234375,0.4879
1.4045801526717556,1.6641221374045803,-0.5648854961832062,-0.454833984375,-0.112060546875,-0.114990234375,0.4896
1.3435114503816794,1.7251908396946565,-0.5801526717557252,-0.45751953125,-0.1171875,-0.114501953125,0.49129999999999996
1.2213740458015268,1.7404580152671756,-0.7022900763358778,-0.45263671875,-0.113525390625,-0.10986328125,0.493
1.3893129770992367,1.5419847328244274,-0.42748091603053434,-0.458984375,-0.1171875,-0.114990234375,0.4947
1.251908396946565,1.6030534351145038,-0.42748091603053434,-0.456787109375,-0.114013671875,-0.11083984375,0.49639999999999995
1.297709923664122,1.6641221374045803,-0.7633587786259542,-0.458251953125,-0.11181640625,-0.117431640625,0.4981
1.3282442748091603,1.7099236641221374,-0.5801526717557252,-0.454345703125,-0.117431640625,-0.112060546875,0.49979999999999997
1.2366412213740459,1.7404580152671756,-0.6412213740458015,-0.457275390625,-0.114501953125,-0.10986328125,0.5015
1.2671755725190839,1.816793893129771,-0.5190839694656488,-0.459228515625,-0.121337890625,-0.105712890625,0.5032
1.5114503816793894,1.8931297709923665,-0.6870229007633588,-0.45263671875,-0.114501953125,-0.1259765625,0.5049
1.282442748091603,2.2290076335877864,-0.6106870229007634,-0.45947265625,-0.1162109375,-0.1123046875,0.5065999999999999
1.297709923664122,2.3206106870229006,-0.6870229007633588,-0.4599609375,-0.1181640625,-0.111572265625,0.5083
1.3893129770992367,2.2900763358778624,-0.6412213740458015,-0.45458984375,-0.115966796875,-0.111572265625,0.51
1.251908396946565,2.4732824427480917,-0.8396946564885496,-0.45263671875,-0.11962890625,-0.109619140625,0.5116999999999999
1.1603053435114503,2.50381679389313,-0.7480916030534351,-0.45263671875,-0.115234375,-0.1103515625,0.5134
0.8396946564885496,2.4427480916030535,-0.8396946564885496,-0.4541015625,-0.115234375,-0.109130859375,0.5151
0.6564885496183206,2.2290076335877864,-0.9770992366412213,-0.455810546875,-0.107666015625,-0.103759765625,0.5167999999999999
0.5190839694656488,2.2900763358778624,-0.8702290076335878,-0.45556640625,-0.1162109375,-0.106201171875,0.5185
0.030534351145038167,2.198473282442748,-0.9465648854961832,-0.452880859375,-0.1181640625,-0.114013671875,0.5202
-0.04580152671755725,2.122137404580153,-1.0076335877862594,-0.447021484375,-0.1103515625,-0.117919921875,0.5218999999999999
0.13740458015267176,1.8625954198473282,-1.3129770992366412,-0.452392578125,-0.115966796875,-0.110595703125,0.5236
-0.13740458015267176,1.7709923664122138,-1.4045801526717556,-0.45263671875,-0.1142578125,-0.10693359375,0.5253
-0.6412213740458015,1.7709923664122138,-1.0381679389312977,-0.45556640625,-0.121337890625,-0.116943359375,0.527
-0.7633587786259542,1.5572519083969465,-1.2366412213740459,-0.455078125,-0.12158203125,-0.111328125,0.5287
-0.9618320610687023,1.6793893129770991,-1.3740458015267176,-0.457763671875,-0.119873046875,-0.11279296875,0.5304
-0.6106870229007634,1.5572519083969465,-1.4198473282442747,-0.458740234375,-0.124267578125,-0.12109375,0.5321
-0.7175572519083969,1.5267175572519085,-1.450381679389313,-0.4560546875,-0.11865234375,-0.116455078125,0.5337999999999999
-0.6259541984732825,1.4351145038167938,-1.7251908396946565,-0.45556640625,-0.11865234375,-0.120849609375,0.5355
-0.48854961832061067,1.618320610687023,-1.7099236641221374,-0.45849609375,-0.119873046875,-0.114990234375,0.5372
-0.6259541984732825,1.4045801526717556,-1.83206106870229,-0.458984375,-0.11767578125,-0.117431640625,0.5388999999999999
-0.4732824427480916,1.450381679389313,-1.633587786259542,-0.45556640625,-0.113525390625,-0.11181640625,0.5406
-0.183206106870229,1.5419847328244274,-1.8625954198473282,-0.458984375,-0.118408203125,-0.11376953125,0.5423
-0.12213740458015267,1.4809160305343512,-1.8473282442748091,-0.457275390625,-0.1181640625,-0.11767578125,0.5439999999999999
-0.13740458015267176,1.5725190839694656,-2.0,-0.452392578125,-0.118896484375,-0.11181640625,0.5457
0.061068702290076333,1.7251908396946565,-1.9389312977099236,-0.458740234375,-0.115234375,-0.11572265625,0.5474
0.24427480916030533,1.450381679389313,-2.015267175572519,-0.45703125,-0.113525390625,-0.119873046875,0.5490999999999999
0.13740458015267176,1.5114503816793894,-2.122137404580153,-0.453857421875,-0.116943359375,-0.122314453125,0.5508
0.030534351145038167,1.3740458015267176,-2.0610687022900764,-0.4560546875,-0.113037109375,-0.122802734375,0.5525
0.2900763358778626,1.5572519083969465,-1.9389312977099236,-0.45751953125,-0.115234375,-0.1240234375,0.5541999999999999
0.1984732824427481,1.5267175572519085,-2.030534351145038,-0.457763671875,-0.115478515625,-0.114013671875,0.5559
0.07633587786259542,1.3740458015267176,-2.030534351145038,-0.4560546875,-0.114013671875,-0.11328125,0.5576
0.3053435114503817,1.450381679389313,-2.045801526717557,-0.458740234375,-0.118408203125,-0.117431640625,0.5593
0.183206106870229,1.4198473282442747,-2.0,-0.455322265625,-0.109619140625,-0.120849609375,0.5609999999999999
0.15267175572519084,1.3893129770992367,-2.0,-0.45361328125,-0.11181640625,-0.119384765625,0.5627
-0.21374045801526717,1.4351145038167938,-1.9083969465648856,-0.4580078125,-0.114013671875,-0.11279296875,0.5644
-0.24427480916030533,1.5572519083969465,-1.9236641221374047,-0.455322265625,-0.108154296875,-0.1162109375,0.5660999999999999
-0.030534351145038167,1.5419847328244274,-1.6946564885496183,-0.456787109375,-0.11083984375,-0.1142578125,0.5678
-0.2595419847328244,1.6641221374045803,-1.618320610687023,-0.456298828125,-0.106201171875,-0.11181640625,0.5695
-0.5343511450381679,1.7251908396946565,-1.5114503816793894,-0.458984375,-0.108642578125,-0.111328125,0.5711999999999999
-0.3969465648854962,1.9541984732824427,-1.5419847328244274,-0.45361328125,-0.107177734375,-0.117431640625,0.5729
-0.2595419847328244,2.183206106870229,-1.3129770992366412,-0.455810546875,-0.108642578125,-0.111083984375,0.5746
-0.33587786259541985,2.2595419847328246,-1.2671755725190839,-0.45068359375,-0.1083984375,-0.123291015625,0.5762999999999999
-0.183206106870229,2.030534351145038,-1.5114503816793894,-0.45556640625,-0.106689453125,-0.109619140625,0.578
-0.366412213740458,2.122137404580153,-1.4351145038167938,-0.451416015625,-0.109619140625,-0.116943359375,0.5797
-0.16793893129770993,2.1068702290076335,-1.2366412213740459,-0.452880859375,-0.112060546875,-0.117431640625,0.5813999999999999
0.015267175572519083,2.183206106870229,-1.3435114503816794,-0.447998046875,-0.10791015625,-0.11572265625,0.5831
0.24427480916030533,1.8931297709923665,-1.5267175572519085,-0.452880859375,-0.113037109375,-0.1015625,0.5848
0.12213740458015267,2.1526717557251906,-1.6946564885496183,-0.45068359375,-0.11181640625,-0.11572265625,0.5865
0.32061068702290074,1.9694656488549618,-1.3129770992366412,-0.451904296875,-0.1103515625,-0.1123046875,0.5882
0.13740458015267176,1.6793893129770991,-1.5114503816793894,-0.447998046875,-0.110107421875,-0.113525390625,0.5899
0.2900763358778626,1.816793893129771,-1.5572519083969465,-0.45263671875,-0.1142578125,-0.107421875,0.5916
0.42748091603053434,1.7251908396946565,-1.7251908396946565,-0.4541015625,-0.10888671875,-0.105224609375,0.5932999999999999
0.061068702290076333,1.6030534351145038,-1.5877862595419847,-0.450927734375,-0.11083984375,-0.10595703125,0.595
-0.12213740458015267,1.5114503816793894,-1.786259541984733,-0.45361328125,-0.113525390625,-0.114501953125,0.5967
0.015267175572519083,1.3282442748091603,-1.7557251908396947,-0.44287109375,-0.111328125,-0.117919921875,0.5983999999999999
-0.1984732824427481,1.2671755725190839,-1.816793893129771,-0.453857421875,-0.114013671875,-0.10986328125,0.6001
-0.3511450381679389,1.3282442748091603,-1.6641221374045803,-0.454345703125,-0.11083984375,-0.107421875,0.6018
-0.16793893129770993,1.3893129770992367,-1.7251908396946565,-0.4501953125,-0.114013671875,-0.10986328125,0.6034999999999999
-0.2748091603053435,1.4045801526717556,-1.7709923664122138,-0.454345703125,-0.1142578125,-0.110107421875,0.6052
-0.8091603053435115,1.3587786259541985,-2.1374045801526718,-0.44970703125,-0.1103515625,-0.109375,0.6069
-0.8244274809160306,1.450381679389313,-1.9694656488549618,-0.454345703125,-0.11279296875,-0.109375,0.6085999999999999
-0.7786259541984732,1.4198473282442747,-1.83206106870229,-0.45703125,-0.116943359375,-0.11376953125,0.6103
-0.9465648854961832,1.450381679389313,-1.9236641221374047,-0.450439453125,-0.116455078125,-0.1015625,0.612
-1.0687022900763359,1.4198473282442747,-2.045801526717557,-0.44775390625,-0.118896484375,-0.105224609375,0.6136999999999999
-0.9465648854961832,1.465648854961832,-2.0610687022900764,-0.45068359375,-0.117919921875,-0.10791015625,0.6154
-1.0687022900763359,1.2213740458015268,-2.198473282442748,-0.45849609375,-0.113037109375,-0.111083984375,0.6171
-1.0687022900763359,1.3129770992366412,-1.9694656488549618,-0.448486328125,-0.116943359375,-0.109375,0.6188
-1.1145038167938932,1.1297709923664123,-1.816793893129771,-0.453369140625,-0.1142578125,-0.111328125,0.6204999999999999
-1.083969465648855,1.0229007633587786,-2.015267175572519,-0.452880859375,-0.11474609375,-0.1044921875,0.6222
-1.1297709923664123,0.8854961832061069,-2.045801526717557,-0.454833984375,-0.120849609375,-0.12646484375,0.6239
-1.1297709923664123,1.0076335877862594,-1.8625954198473282,-0.4560546875,-0.116455078125,-0.1259765625,0.6255999999999999
-1.099236641221374,0.8702290076335878,-1.9541984732824427,-0.45849609375,-0.117431640625,-0.109375,0.6273
-0.916030534351145,0.7022900763358778,-1.9541984732824427,-0.458740234375,-0.113037109375,-0.117919921875,0.629
-0.7786259541984732,0.5190839694656488,-2.1526717557251906,-0.458740234375,-0.113525390625,-0.116455078125,0.6306999999999999
-0.9007633587786259,0.5954198473282443,-2.015267175572519,-0.454833984375,-0.11572265625,-0.119140625,0.6324
-1.0381679389312977,0.6259541984732825,-1.984732824427481,-0.46240234375,-0.116943359375,-0.123779296875,0.6341
-0.6564885496183206,0.5648854961832062,-1.9541984732824427,-0.45703125,-0.111572265625,-0.121826171875,0.6357999999999999
-0.7480916030534351,0.5038167938931297,-1.9694656488549618,-0.457275390625,-0.11328125,-0.1181640625,0.6375
-1.0381679389312977,0.48854961832061067,-1.5114503816793894,-0.46142578125,-0.115234375,-0.116455078125,0.6392
-0.6870229007633588,0.732824427480916,-1.7709923664122138,-0.461181640625,-0.11572265625,-0.1123046875,0.6408999999999999
-0.7786259541984732,0.916030534351145,-1.7099236641221374,-0.460693359375,-0.111572265625,-0.113525390625,0.6426
-0.7786259541984732,0.7175572519083969,-1.6030534351145038,-0.46044921875,-0.108642578125,-0.12109375,0.6443
-0.9923664122137404,0.7633587786259542,-1.618320610687023,-0.45849609375,-0.110107421875,-0.11865234375,0.646
-1.099236641221374,1.083969465648855,-1.5114503816793894,-0.4580078125,-0.11279296875,-0.12060546875,0.6476999999999999
-0.8396946564885496,1.1603053435114503,-1.4351145038167938,-0.465087890625,-0.10986328125,-0.116943359375,0.6494
-1.3435114503816794,1.3282442748091603,-1.1297709923664123,-0.46142578125,-0.11181640625,-0.118408203125,0.6511
-0.9770992366412213,1.4961832061068703,-1.4351145038167938,-0.46240234375,-0.10986328125,-0.12548828125,0.6527999999999999
-1.1755725190839694,1.6488549618320612,-1.3129770992366412,-0.4609375,-0.11083984375,-0.1171875,0.6545
-1.0534351145038168,1.633587786259542,-1.0229007633587786,-0.458740234375,-0.104248046875,-0.118896484375,0.6562
-0.9770992366412213,1.5725190839694656,-1.3129770992366412,-0.456298828125,-0.106689453125,-0.123779296875,0.6578999999999999
-1.282442748091603,1.3282442748091603,-0.916030534351145,-0.45849609375,-0.115234375,-0.117431640625,0.6596
-0.9618320610687023,1.4045801526717556,-1.1297709923664123,-0.460693359375,-0.111083984375,-0.114501953125,0.6613
-0.916030534351145,1.633587786259542,-1.0381679389312977,-0.45849609375,-0.112060546875,-0.117919921875,0.6629999999999999
-0.9618320610687023,1.8015267175572518,-0.9007633587786259,-0.45458984375,-0.111572265625,-0.113037109375,0.6647
-0.8549618320610687,1.5114503816793894,-0.8091603053435115,-0.458740234375,-0.115966796875,-0.11669921875,0.6664
-0.6870229007633588,1.4809160305343512,-0.7786259541984732,-0.45751953125,-0.109619140625,-0.12353515625,0.6680999999999999
-0.5648854961832062,1.7251908396946565,-0.6412213740458015,-0.460693359375,-0.107421875,-0.1201171875,0.6698
-0.5648854961832062,1.3740458015267176,-0.7938931297709924,-0.455322265625,-0.1142578125,-0.1220703125,0.6715
-0.4122137404580153,1.5725190839694656,-0.7480916030534351,-0.455810546875,-0.11279296875,-0.111083984375,0.6731999999999999
-0.44274809160305345,1.6030534351145038,-0.7175572519083969,-0.453369140625,-0.11328125,-0.10986328125,0.6748999999999999
-0.6412213740458015,1.4961832061068703,-0.7938931297709924,-0.4580078125,-0.108154296875,-0.106201171875,0.6766
-0.183206106870229,1.6641221374045803,-1.0229007633587786,-0.4580078125,-0.114990234375,-0.11328125,0.6783
-0.366412213740458,1.7099236641221374,-0.7480916030534351,-0.458740234375,-0.1171875,-0.11572265625,0.6799999999999999
-0.2748091603053435,1.5725190839694656,-0.7633587786259542,-0.460693359375,-0.11669921875,-0.113525390625,0.6817
-0.33587786259541985,1.5114503816793894,-0.9465648854961832,-0.457763671875,-0.114990234375,-0.113525390625,0.6834
-0.5038167938931297,1.3587786259541985,-0.9923664122137404,-0.44677734375,-0.111083984375,-0.115966796875,0.6850999999999999
-0.42748091603053434,1.297709923664122,-1.0229007633587786,-0.452392578125,-0.116943359375,-0.11669921875,0.6868
-0.6412213740458015,1.3435114503816794,-1.0229007633587786,-0.453125,-0.11572265625,-0.110595703125,0.6885
-0.7175572519083969,1.251908396946565,-1.0229007633587786,-0.4521484375,-0.1181640625,-0.115234375,0.6901999999999999
-0.8244274809160306,1.0229007633587786,-1.1908396946564885,-0.455810546875,-0.11279296875,-0.11328125,0.6919
-0.5954198473282443,0.732824427480916,-1.0076335877862594,-0.453369140625,-0.11376953125,-0.125244140625,0.6936
-0.9312977099236641,1.0229007633587786,-1.0381679389312977,-0.457275390625,-0.11279296875,-0.115478515625,0.6952999999999999
-0.9007633587786259,0.7786259541984732,-0.9618320610687023,-0.45263671875,-0.113525390625,-0.10205078125,0.697
-1.099236641221374,0.4122137404580153,-1.1297709923664123,-0.451904296875,-0.11083984375,-0.11083984375,0.6987
-1.251908396946565,0.6259541984732825,-1.2213740458015268,-0.454833984375,-0.11669921875,-0.114990234375,0.7003999999999999
-1.3740458015267176,0.5648854961832062,-1.3129770992366412,-0.45263671875,-0.11474609375,-0.117431640625,0.7021
-1.2366412213740459,0.42748091603053434,-1.1145038167938932,-0.4560546875,-0.11181640625,-0.11279296875,0.7038
-1.6793893129770991,0.7175572519083969,-1.282442748091603,-0.453369140625,-0.113037109375,-0.1123046875,0.7055
-1.984732824427481,0.4122137404580153,-1.251908396946565,-0.4560546875,-0.11474609375,-0.1142578125,0.7071999999999999
-1.6793893129770991,0.42748091603053434,-1.099236641221374,-0.458740234375,-0.1103515625,-0.11083984375,0.7089
-1.9083969465648856,0.7175572519083969,-1.0534351145038168,-0.453857421875,-0.115478515625,-0.113525390625,0.7106
-1.7251908396946565,0.7175572519083969,-0.9465648854961832,-0.453369140625,-0.111572265625,-0.115478515625,0.7122999999999999
-1.465648854961832,0.732824427480916,-0.9312977099236641,-0.452392578125,-0.114013671875,-0.117431640625,0.714
-1.5267175572519085,0.8396946564885496,-0.7022900763358778,-0.451416015625,-0.110595703125,-0.114013671875,0.7157
-1.3893129770992367,1.1145038167938932,-0.732824427480916,-0.45556640625,-0.1123046875,-0.11865234375,0.7173999999999999
-1.3282442748091603,1.0381679389312977,-0.7633587786259542,-0.454345703125,-0.116943359375,-0.1162109375,0.7191
-1.2213740458015268,1.3893129770992367,-0.6259541984732825,-0.45263671875,-0.116455078125,-0.120849609375,0.7208
-0.7633587786259542,1.633587786259542,-0.5801526717557252,-0.449462890625,-0.1162109375,-0.117431640625,0.7224999999999999
-0.5801526717557252,1.5419847328244274,-0.5648854961832062,-0.4560546875,-0.112060546875,-0.120361328125,0.7242
-0.3969465648854962,1.5877862595419847,-0.6564885496183206,-0.453369140625,-0.115234375,-0.116455078125,0.7259
-0.33587786259541985,1.8473282442748091,-0.9618320610687023,-0.455322265625,-0.115234375,-0.11962890625,0.7275999999999999
-0.12213740458015267,1.816793893129771,-0.9618320610687023,-0.456298828125,-0.11181640625,-0.111572265625,0.7293
-0.2595419847328244,1.6030534351145038,-1.0534351145038168,-0.45556640625,-0.1103515625,-0.1162109375,0.731
0.0916030534351145,1.5877862595419847,-1.1755725190839694,-0.451171875,-0.112060546875,-0.107177734375,0.7326999999999999
0.10687022900763359,1.4809160305343512,-1.1755725190839694,-0.45263671875,-0.115234375,-0.108642578125,0.7343999999999999
0.015267175572519083,1.5267175572519085,-1.099236641221374,-0.45361328125,-0.111328125,-0.11474609375,0.7361
0.2595419847328244,1.4045801526717556,-1.4198473282442747,-0.454833984375,-0.108154296875,-0.113525390625,0.7378
0.3511450381679389,1.251908396946565,-1.4045801526717556,-0.452392578125,-0.112548828125,-0.122802734375,0.7394999999999999
0.12213740458015267,0.9618320610687023,-1.4198473282442747,-0.451416015625,-0.109375,-0.11962890625,0.7412
0.42748091603053434,0.8396946564885496,-1.5877862595419847,-0.45654296875,-0.11279296875,-0.115234375,0.7429
0.4122137404580153,0.732824427480916,-1.6641221374045803,-0.455322265625,-0.11279296875,-0.12060546875,0.7445999999999999
0.1984732824427481,0.8702290076335878,-1.4351145038167938,-0.454345703125,-0.114013671875,-0.125,0.7463
0.3969465648854962,0.7480916030534351,-1.786259541984733,-0.454833984375,-0.108154296875,-0.11865234375,0.748
0.2595419847328244,0.8854961832061069,-1.7099236641221374,-0.45556640625,-0.1123046875,-0.122802734375,0.7496999999999999
0.2748091603053435,0.9007633587786259,-1.6793893129770991,-0.453857421875,-0.113037109375,-0.11767578125,0.7514
0.5648854961832062,0.6717557251908397,-1.4351145038167938,-0.460693359375,-0.11279296875,-0.1171875,0.7531
0.5038167938931297,0.8702290076335878,-1.9083969465648856,-0.4599609375,-0.109375,-0.11767578125,0.7547999999999999
0.549618320610687,1.0687022900763359,-1.7099236641221374,-0.45703125,-0.110595703125,-0.125732421875,0.7565
0.5801526717557252,1.2213740458015268,-1.7404580152671756,-0.456298828125,-0.112060546875,-0.12060546875,0.7582
0.33587786259541985,1.099236641221374,-1.633587786259542,-0.457275390625,-0.1123046875,-0.1240234375,0.7598999999999999
0.366412213740458,1.1450381679389312,-1.7709923664122138,-0.45849609375,-0.109130859375,-0.115478515625,0.7615999999999999
0.33587786259541985,1.2366412213740459,-1.633587786259542,-0.454345703125,-0.112060546875,-0.11376953125,0.7633
0.2900763358778626,1.4351145038167938,-1.5725190839694656,-0.45166015625,-0.108642578125,-0.114501953125,0.7649999999999999
0.3969465648854962,1.3740458015267176,-1.5572519083969465,-0.45458984375,-0.11181640625,-0.124267578125,0.7666999999999999
0.04580152671755725,1.0381679389312977,-1.6030534351145038,-0.455078125,-0.109619140625,-0.11572265625,0.7684
0.15267175572519084,1.1603053435114503,-1.5572519083969465,-0.453857421875,-0.10986328125,-0.123291015625,0.7701
-0.13740458015267176,1.282442748091603,-1.633587786259542,-0.457275390625,-0.108642578125,-0.11865234375,0.7717999999999999
-0.0916030534351145,1.1603053435114503,-1.4045801526717556,-0.4560546875,-0.112548828125,-0.111328125,0.7735
0.030534351145038167,1.2366412213740459,-1.3740458015267176,-0.448974609375,-0.1123046875,-0.115234375,0.7752
-0.2748091603053435,1.1450381679389312,-1.3893129770992367,-0.452392578125,-0.109130859375,-0.112060546875,0.7768999999999999
-0.4580152671755725,1.1450381679389312,-1.4198473282442747,-0.45458984375,-0.10546875,-0.1171875,0.7786
-0.3969465648854962,1.1450381679389312,-1.1297709923664123,-0.45703125,-0.111572265625,-0.10888671875,0.7803
-0.366412213740458,1.282442748091603,-1.099236641221374,-0.45751953125,-0.115234375,-0.1123046875,0.7819999999999999
-0.2595419847328244,1.1908396946564885,-0.916030534351145,-0.455322265625,-0.111572265625,-0.107666015625,0.7837
-0.32061068702290074,1.1145038167938932,-1.0534351145038168,-0.45703125,-0.113525390625,-0.11865234375,0.7854
-0.6259541984732825,1.0534351145038168,-1.0381679389312977,-0.45654296875,-0.116455078125,-0.11376953125,0.7870999999999999
-0.15267175572519084,1.2366412213740459,-1.083969465648855,-0.4599609375,-0.113037109375,-0.11279296875,0.7888
-0.3511450381679389,1.4198473282442747,-1.0534351145038168,-0.451904296875,-0.115478515625,-0.110595703125,0.7905
-0.2748091603053435,1.4351145038167938,-0.9618320610687023,-0.453369140625,-0.11279296875,-0.123046875,0.7921999999999999
-0.2900763358778626,1.5114503816793894,-0.8854961832061069,-0.45849609375,-0.110107421875,-0.12060546875,0.7938999999999999
-0.6412213740458015,1.5267175572519085,-0.9618320610687023,-0.458251953125,-0.114013671875,-0.114013671875,0.7956
-0.6564885496183206,1.5877862595419847,-0.9312977099236641,-0.449951171875,-0.108642578125,-0.116455078125,0.7973
-0.7938931297709924,1.5419847328244274,-0.9312977099236641,-0.45458984375,-0.112548828125,-0.123291015625,0.7989999999999999
-0.8702290076335878,1.3587786259541985,-0.9923664122137404,-0.459228515625,-0.109375,-0.115478515625,0.8007
-0.8854961832061069,1.450381679389313,-0.916030534351145,-0.4560546875,-0.10986328125,-0.116455078125,0.8024
-0.8396946564885496,1.3282442748091603,-0.9923664122137404,-0.45361328125,-0.11083984375,-0.113525390625,0.8040999999999999
-0.6870229007633588,1.2366412213740459,-1.1603053435114503,-0.455078125,-0.11083984375,-0.103759765625,0.8058
-0.42748091603053434,1.2213740458015268,-1.1450381679389312,-0.455322265625,-0.108642578125,-0.127685546875,0.8075
-0.42748091603053434,1.1450381679389312,-1.3435114503816794,-0.458740234375,-0.116455078125,-0.1201171875,0.8091999999999999
-0.1984732824427481,1.4198473282442747,-1.2671755725190839,-0.453125,-0.109130859375,-0.116943359375,0.8109
0.0,1.297709923664122,-1.1755725190839694,-0.45068359375,-0.114990234375,-0.12109375,0.8126
0.42748091603053434,1.2366412213740459,-1.2213740458015268,-0.461181640625,-0.115234375,-0.1142578125,0.8142999999999999
0.3816793893129771,1.4045801526717556,-1.1297709923664123,-0.461181640625,-0.11279296875,-0.115966796875,0.816
0.3969465648854962,1.3282442748091603,-1.2366412213740459,-0.45654296875,-0.111083984375,-0.120849609375,0.8177
0.732824427480916,1.3435114503816794,-1.5572519083969465,-0.458251953125,-0.113037109375,-0.121826171875,0.8193999999999999
0.8702290076335878,1.1603053435114503,-1.3740458015267176,-0.460205078125,-0.11474609375,-0.112060546875,0.8210999999999999
0.8854961832061069,1.1908396946564885,-1.4961832061068703,-0.46044921875,-0.117431640625,-0.12353515625,0.8228
0.9007633587786259,1.5114503816793894,-1.5419847328244274,-0.4609375,-0.114501953125,-0.119140625,0.8244999999999999
1.083969465648855,1.4198473282442747,-1.7404580152671756,-0.4619140625,-0.112548828125,-0.122314453125,0.8261999999999999
1.282442748091603,1.1908396946564885,-1.450381679389313,-0.455322265625,-0.109130859375,-0.125,0.8279
1.0534351145038168,1.465648854961832,-1.6488549618320612,-0.45703125,-0.109130859375,-0.10986328125,0.8296
0.8854961832061069,1.3893129770992367,-1.5114503816793894,-0.455078125,-0.112548828125,-0.11181640625,0.8312999999999999
0.9312977099236641,1.2366412213740459,-1.5572519083969465,-0.46337890625,-0.112060546875,-0.128662109375,0.833
1.0229007633587786,1.2671755725190839,-1.5114503816793894,-0.455322265625,-0.108154296875,-0.121826171875,0.8347
0.7633587786259542,1.2671755725190839,-1.3435114503816794,-0.4541015625,-0.11083984375,-0.118408203125,0.8363999999999999
1.0381679389312977,1.4045801526717556,-1.3282442748091603,-0.455078125,-0.111328125,-0.11376953125,0.8381
0.9618320610687023,1.2671755725190839,-1.6030534351145038,-0.456298828125,-0.10693359375,-0.1201171875,0.8398
0.7786259541984732,1.1450381679389312,-1.1297709923664123,-0.45703125,-0.10693359375,-0.116455078125,0.8414999999999999
0.9923664122137404,1.5267175572519085,-1.297709923664122,-0.461181640625,-0.1083984375,-0.1181640625,0.8432
1.0687022900763359,1.4045801526717556,-1.282442748091603,-0.45751953125,-0.110595703125,-0.120361328125,0.8449
1.1145038167938932,1.282442748091603,-1.297709923664122,-0.457275390625,-0.11572265625,-0.114013671875,0.8465999999999999
1.3435114503816794,1.2366412213740459,-1.2671755725190839,-0.453125,-0.11328125,-0.12158203125,0.8482999999999999
1.251908396946565,1.4351145038167938,-1.251908396946565,-0.45166015625,-0.111328125,-0.120849609375,0.85
1.5419847328244274,1.4045801526717556,-0.9312977099236641,-0.456298828125,-0.107666015625,-0.114013671875,0.8516999999999999
1.297709923664122,1.3435114503816794,-1.1908396946564885,-0.4501953125,-0.111083984375,-0.113037109375,0.8533999999999999
1.3893129770992367,1.4809160305343512,-1.3893129770992367,-0.452880859375,-0.11279296875,-0.116455078125,0.8551
1.4198473282442747,1.450381679389313,-1.465648854961832,-0.452392578125,-0.115234375,-0.112548828125,0.8568
1.6641221374045803,1.3740458015267176,-1.0076335877862594,-0.4521484375,-0.113037109375,-0.1259765625,0.8584999999999999
1.450381679389313,1.5267175572519085,-1.0381679389312977,-0.45703125,-0.11083984375,-0.116943359375,0.8602
1.3893129770992367,1.3740458015267176,-1.1297709923664123,-0.45458984375,-0.1103515625,-0.11328125,0.8619
1.4198473282442747,1.5114503816793894,-1.297709923664122,-0.452392578125,-0.111083984375,-0.119140625,0.8635999999999999
1.450381679389313,1.3587786259541985,-1.1755725190839694,-0.449951171875,-0.113037109375,-0.119384765625,0.8653
1.083969465648855,1.1603053435114503,-1.0534351145038168,-0.456298828125,-0.11181640625,-0.11328125,0.867
1.0076335877862594,1.2061068702290076,-1.251908396946565,-0.45458984375,-0.11181640625,-0.11181640625,0.8686999999999999
1.0381679389312977,0.9618320610687023,-1.2366412213740459,-0.453857421875,-0.114013671875,-0.12255859375,0.8704
1.1145038167938932,0.9618320610687023,-1.1603053435114503,-0.450439453125,-0.1103515625,-0.118896484375,0.8721
1.099236641221374,0.9770992366412213,-1.251908396946565,-0.44970703125,-0.11181640625,-0.1162109375,0.8737999999999999
0.9312977099236641,1.1297709923664123,-1.099236641221374,-0.45654296875,-0.1162109375,-0.122314453125,0.8755
0.9007633587786259,1.1755725190839694,-1.1603053435114503,-0.4541015625,-0.11328125,-0.122314453125,0.8772
1.0534351145038168,1.1450381679389312,-1.2671755725190839,-0.454345703125,-0.11181640625,-0.111083984375,0.8788999999999999
0.8854961832061069,1.1297709923664123,-1.0381679389312977,-0.453857421875,-0.109130859375,-0.110595703125,0.8805999999999999
0.8854961832061069,1.2061068702290076,-1.1908396946564885,-0.453857421875,-0.111083984375,-0.114990234375,0.8823
0.9465648854961832,1.083969465648855,-1.1755725190839694,-0.450927734375,-0.109375,-0.1201171875,0.8839999999999999
0.9923664122137404,1.1908396946564885,-1.282442748091603,-0.453125,-0.11279296875,-0.1103515625,0.8856999999999999
0.7786259541984732,1.0534351145038168,-1.0687022900763359,-0.45263671875,-0.108154296875,-0.10986328125,0.8874
0.732824427480916,0.8549618320610687,-1.0687022900763359,-0.455810546875,-0.10986328125,-0.111083984375,0.8891
0.9312977099236641,1.0381679389312977,-1.1755725190839694,-0.455078125,-0.10791015625,-0.114990234375,0.8907999999999999
1.3435114503816794,0.8854961832061069,-1.2213740458015268,-0.454345703125,-0.113525390625,-0.113525390625,0.8925
1.2366412213740459,0.8854961832061069,-1.1450381679389312,-0.454345703125,-0.1142578125,-0.11669921875,0.8942
1.1450381679389312,0.8549618320610687,-0.9465648854961832,-0.457275390625,-0.113525390625,-0.119140625,0.8958999999999999
1.3435114503816794,1.0076335877862594,-1.2061068702290076,-0.448486328125,-0.111572265625,-0.1201171875,0.8976
1.3740458015267176,0.7022900763358778,-1.297709923664122,-0.449462890625,-0.109130859375,-0.114501953125,0.8993
1.4351145038167938,0.8549618320610687,-1.1908396946564885,-0.45703125,-0.111572265625,-0.114013671875,0.9009999999999999
1.251908396946565,1.1297709923664123,-1.1603053435114503,-0.456298828125,-0.111328125,-0.11572265625,0.9027
1.2366412213740459,0.9618320610687023,-0.9770992366412213,-0.455078125,-0.1083984375,-0.1123046875,0.9044
1.4961832061068703,1.0076335877862594,-0.9465648854961832,-0.45458984375,-0.11474609375,-0.12353515625,0.9060999999999999
1.4198473282442747,1.282442748091603,-1.2061068702290076,-0.4580078125,-0.110595703125,-0.1181640625,0.9077999999999999
1.251908396946565,1.2213740458015268,-0.9770992366412213,-0.457275390625,-0.11279296875,-0.119384765625,0.9095
1.1450381679389312,1.297709923664122,-0.9923664122137404,-0.45361328125,-0.111328125,-0.120849609375,0.9111999999999999
1.0076335877862594,1.3282442748091603,-1.0534351145038168,-0.456787109375,-0.113525390625,-0.11865234375,0.9128999999999999
0.916030534351145,0.9618320610687023,-0.9618320610687023,-0.459716796875,-0.115234375,-0.114013671875,0.9146
0.732824427480916,1.0534351145038168,-0.9465648854961832,-0.4541015625,-0.113525390625,-0.114990234375,0.9163
0.6870229007633588,1.083969465648855,-1.099236641221374,-0.45849609375,-0.109619140625,-0.12109375,0.9179999999999999
0.7480916030534351,1.1755725190839694,-1.0687022900763359,-0.455810546875,-0.1142578125,-0.1123046875,0.9197
0.7633587786259542,1.083969465648855,-0.9923664122137404,-0.45947265625,-0.11669921875,-0.11767578125,0.9214
0.8091603053435115,1.1908396946564885,-0.9618320610687023,-0.454833984375,-0.10693359375,-0.12060546875,0.9230999999999999
0.8854961832061069,1.099236641221374,-0.9465648854961832,-0.453125,-0.111083984375,-0.123046875,0.9248
1.099236641221374,1.2213740458015268,-0.9923664122137404,-0.453369140625,-0.108642578125,-0.123291015625,0.9265
0.9770992366412213,1.2213740458015268,-0.9770992366412213,-0.4580078125,-0.11181640625,-0.12255859375,0.9281999999999999
1.3587786259541985,1.282442748091603,-1.0534351145038168,-0.455078125,-0.109375,-0.119873046875,0.9299
1.450381679389313,1.251908396946565,-0.8549618320610687,-0.456298828125,-0.11669921875,-0.115966796875,0.9316
1.5725190839694656,1.4809160305343512,-0.9312977099236641,-0.4599609375,-0.110107421875,-0.11865234375,0.9332999999999999
1.8015267175572518,1.3740458015267176,-0.9923664122137404,-0.459228515625,-0.113525390625,-0.122802734375,0.9349999999999999
1.6793893129770991,1.5572519083969465,-0.916030534351145,-0.45556640625,-0.11669921875,-0.1298828125,0.9367
1.9083969465648856,1.4351145038167938,-0.9618320610687023,-0.460205078125,-0.1162109375,-0.12255859375,0.9383999999999999
1.786259541984733,1.4809160305343512,-0.9770992366412213,-0.45849609375,-0.10888671875,-0.110107421875,0.9400999999999999
1.8931297709923665,1.3740458015267176,-0.8854961832061069,-0.4521484375,-0.11181640625,-0.128173828125,0.9418
1.786259541984733,1.4809160305343512,-1.0381679389312977,-0.457763671875,-0.112548828125,-0.12255859375,0.9434999999999999
1.9236641221374047,1.297709923664122,-0.916030534351145,-0.4521484375,-0.109375,-0.113037109375,0.9451999999999999
2.122137404580153,1.465648854961832,-1.099236641221374,-0.451904296875,-0.11083984375,-0.117919921875,0.9469
1.83206106870229,1.2671755725190839,-1.083969465648855,-0.45361328125,-0.109619140625,-0.119384765625,0.9486
1.9236641221374047,1.2213740458015268,-0.8091603053435115,-0.456298828125,-0.10986328125,-0.1181640625,0.9502999999999999
1.7557251908396947,1.083969465648855,-0.8549618320610687,-0.45751953125,-0.110107421875,-0.1162109375,0.952
1.8931297709923665,1.2366412213740459,-0.9007633587786259,-0.451904296875,-0.1083984375,-0.11279296875,0.9537
1.8473282442748091,1.1450381679389312,-0.8702290076335878,-0.4541015625,-0.1064453125,-0.11669921875,0.9553999999999999
1.5114503816793894,1.1908396946564885,-0.8702290076335878,-0.45703125,-0.110595703125,-0.118896484375,0.9571
1.3282442748091603,0.9618320610687023,-0.8702290076335878,-0.455810546875,-0.105224609375,-0.117919921875,0.9588
1.5877862595419847,1.1908396946564885,-0.8549618320610687,-0.454833984375,-0.111572265625,-0.11181640625,0.9604999999999999
1.4961832061068703,1.3282442748091603,-0.7022900763358778,-0.462890625,-0.11083984375,-0.120361328125,0.9621999999999999
1.6946564885496183,1.3282442748091603,-0.8091603053435115,-0.4521484375,-0.109375,-0.119384765625,0.9639
1.4809160305343512,1.3587786259541985,-0.8244274809160306,-0.455810546875,-0.10595703125,-0.11376953125,0.9655999999999999
1.4198473282442747,1.3587786259541985,-0.9007633587786259,-0.459716796875,-0.10986328125,-0.113037109375,0.9672999999999999
1.4045801526717556,1.4351145038167938,-0.7480916030534351,-0.460205078125,-0.10986328125,-0.11572265625,0.969
1.3282442748091603,1.4351145038167938,-0.732824427480916,-0.455322265625,-0.10986328125,-0.112548828125,0.9706999999999999
1.297709923664122,1.5877862595419847,-0.7022900763358778,-0.460693359375,-0.108154296875,-0.115478515625,0.9723999999999999
1.282442748091603,1.450381679389313,-0.8396946564885496,-0.45458984375,-0.112060546875,-0.119140625,0.9741
1.3282442748091603,1.3129770992366412,-0.7480916030534351,-0.456298828125,-0.10302734375,-0.110595703125,0.9758
1.5419847328244274,1.5114503816793894,-0.732824427480916,-0.452880859375,-0.10986328125,-0.110107421875,0.9774999999999999
1.5267175572519085,1.4045801526717556,-0.8244274809160306,-0.45458984375,-0.107666015625,-0.113525390625,0.9792
1.465648854961832,1.5267175572519085,-1.0229007633587786,-0.452392578125,-0.107666015625,-0.115234375,0.9809
1.7404580152671756,1.297709923664122,-0.8702290076335878,-0.45166015625,-0.110107421875,-0.12451171875,0.9825999999999999
1.7709923664122138,1.450381679389313,-1.1297709923664123,-0.453125,-0.113037109375,-0.119140625,0.9843
1.8931297709923665,1.465648854961832,-0.9465648854961832,-0.454833984375,-0.10791015625,-0.110107421875,0.986
1.8625954198473282,1.3435114503816794,-1.0381679389312977,-0.452392578125,-0.10693359375,-0.11328125,0.9876999999999999
1.7099236641221374,1.3587786259541985,-1.0076335877862594,-0.459228515625,-0.115478515625,-0.11767578125,0.9894
1.7709923664122138,1.4045801526717556,-1.083969465648855,-0.45068359375,-0.114990234375,-0.11474609375,0.9911
2.0,1.297709923664122,-1.0076335877862594,-0.450927734375,-0.111572265625,-0.11572265625,0.9927999999999999
2.030534351145038,1.0534351145038168,-1.1908396946564885,-0.45068359375,-0.108642578125,-0.114501953125,0.9944999999999999
2.030534351145038,0.9923664122137404,-1.1908396946564885,-0.455810546875,-0.114501953125,-0.112548828125,0.9962
1.8473282442748091,0.9770992366412213,-1.3435114503816794,-0.451904296875,-0.111083984375,-0.112060546875,0.9978999999999999
1.9389312977099236,0.8702290076335878,-1.2061068702290076,-0.455078125,-0.107666015625,-0.11376953125,0.9995999999999999
1.83206106870229,0.8702290076335878,-1.297709923664122,-0.457275390625,-0.113037109375,-0.10693359375,1.0012999999999999
1.6030534351145038,1.0229007633587786,-1.1145038167938932,-0.460693359375,-0.114013671875,-0.124755859375,1.003
1.6030534351145038,0.7786259541984732,-1.282442748091603,-0.45849609375,-0.1123046875,-0.117919921875,1.0047
1.8931297709923665,0.9007633587786259,-1.4198473282442747,-0.45458984375,-0.113037109375,-0.1123046875,1.0064
1.633587786259542,1.1297709923664123,-1.3435114503816794,-0.453125,-0.11474609375,-0.12255859375,1.0081
1.6488549618320612,0.9923664122137404,-1.1450381679389312,-0.45361328125,-0.109619140625,-0.115478515625,1.0098
1.7251908396946565,0.916030534351145,-1.4351145038167938,-0.453125,-0.116943359375,-0.1171875,1.0114999999999998
1.6488549618320612,1.1450381679389312,-1.5572519083969465,-0.456787109375,-0.11279296875,-0.115966796875,1.0131999999999999
1.7404580152671756,1.297709923664122,-1.4809160305343512,-0.454345703125,-0.1123046875,-0.13037109375,1.0149
1.5114503816793894,1.3893129770992367,-1.1603053435114503,-0.44970703125,-0.110595703125,-0.121826171875,1.0166
1.816793893129771,1.2671755725190839,-1.5267175572519085,-0.45703125,-0.112060546875,-0.11865234375,1.0183
2.1068702290076335,1.450381679389313,-1.3129770992366412,-0.45703125,-0.1103515625,-0.1162109375,1.02
1.8931297709923665,1.3893129770992367,-1.450381679389313,-0.455810546875,-0.11181640625,-0.115478515625,1.0217
2.16793893129771,1.251908396946565,-1.4809160305343512,-0.454833984375,-0.1142578125,-0.115478515625,1.0233999999999999
2.3206106870229006,1.3435114503816794,-1.4351145038167938,-0.4580078125,-0.11572265625,-0.121337890625,1.0251
2.2748091603053435,1.3893129770992367,-1.3435114503816794,-0.4541015625,-0.115966796875,-0.1171875,1.0268
1.9694656488549618,1.2366412213740459,-1.5877862595419847,-0.452880859375,-0.110595703125,-0.112548828125,1.0285
2.2290076335877864,0.9465648854961832,-1.4809160305343512,-0.45556640625,-0.113037109375,-0.114501953125,1.0302
2.1526717557251906,1.1145038167938932,-1.3435114503816794,-0.457763671875,-0.11328125,-0.1220703125,1.0319
2.2595419847328246,1.0687022900763359,-1.297709923664122,-0.45849609375,-0.1123046875,-0.117431640625,1.0335999999999999
2.015267175572519,0.8549618320610687,-1.3893129770992367,-0.4580078125,-0.111083984375,-0.11962890625,1.0352999999999999
2.198473282442748,0.8396946564885496,-1.3129770992366412,-0.45361328125,-0.11279296875,-0.118896484375,1.037
2.2442748091603053,1.1755725190839694,-1.3129770992366412,-0.45751953125,-0.1142578125,-0.11669921875,1.0387
2.16793893129771,1.1145038167938932,-1.3740458015267176,-0.45263671875,-0.109130859375,-0.121337890625,1.0404
2.0,1.1297709923664123,-1.3740458015267176,-0.453857421875,-0.112060546875,-0.11376953125,1.0421
2.030534351145038,1.2213740458015268,-1.282442748091603,-0.455322265625,-0.11572265625,-0.12060546875,1.0437999999999998
2.030534351145038,1.282442748091603,-1.282442748091603,-0.45068359375,-0.111328125,-0.114501953125,1.0454999999999999
1.6793893129770991,1.3282442748091603,-1.0687022900763359,-0.45556640625,-0.11328125,-0.11328125,1.0472
1.816793893129771,1.3893129770992367,-1.297709923664122,-0.4580078125,-0.107421875,-0.1171875,1.0489
1.9083969465648856,1.2213740458015268,-1.0687022900763359,-0.454833984375,-0.109375,-0.1171875,1.0506
1.7251908396946565,1.4961832061068703,-1.1755725190839694,-0.453857421875,-0.10888671875,-0.123046875,1.0523
1.5572519083969465,1.2671755725190839,-1.0076335877862594,-0.455810546875,-0.111328125,-0.1201171875,1.054
1.5572519083969465,1.3282442748091603,-1.0381679389312977,-0.4580078125,-0.112548828125,-0.11572265625,1.0556999999999999
1.6946564885496183,1.2213740458015268,-0.9770992366412213,-0.458984375,-0.114013671875,-0.124755859375,1.0574
1.6946564885496183,1.1603053435114503,-0.8702290076335878,-0.45947265625,-0.11474609375,-0.11962890625,1.0591
1.7404580152671756,1.3282442748091603,-0.9618320610687023,-0.455322265625,-0.11279296875,-0.119140625,1.0608
1.8473282442748091,1.4045801526717556,-1.0687022900763359,-0.4560546875,-0.1123046875,-0.12451171875,1.0625
1.7557251908396947,1.5114503816793894,-0.8549618320610687,-0.45361328125,-0.107666015625,-0.11865234375,1.0642
1.7557251908396947,1.4198473282442747,-0.916030534351145,-0.457275390625,-0.110595703125,-0.124755859375,1.0658999999999998
1.5572519083969465,1.5572519083969465,-0.9312977099236641,-0.45703125,-0.11181640625,-0.1220703125,1.0675999999999999
1.4198473282442747,1.5419847328244274,-1.099236641221374,-0.454833984375,-0.115478515625,-0.117431640625,1.0693
1.4961832061068703,1.6030534351145038,-0.916030534351145,-0.45703125,-0.115234375,-0.1162109375,1.071
1.6946564885496183,1.5114503816793894,-0.9770992366412213,-0.45751953125,-0.11083984375,-0.1171875,1.0727
1.4809160305343512,1.5725190839694656,-0.916030534351145,-0.454345703125,-0.1181640625,-0.111083984375,1.0744
1.4198473282442747,1.6030534351145038,-0.9923664122137404,-0.458740234375,-0.108154296875,-0.115478515625,1.0760999999999998
1.3740458015267176,1.3740458015267176,-0.8091603053435115,-0.4541015625,-0.11181640625,-0.115966796875,1.0777999999999999
1.4351145038167938,1.4045801526717556,-0.8244274809160306,-0.455078125,-0.111083984375,-0.12158203125,1.0795
1.251908396946565,1.3740458015267176,-1.0229007633587786,-0.457763671875,-0.112060546875,-0.109619140625,1.0812
1.5877862595419847,1.0534351145038168,-1.099236641221374,-0.454833984375,-0.112060546875,-0.112548828125,1.0829
1.6488549618320612,0.9618320610687023,-0.916030534351145,-0.451171875,-0.108154296875,-0.110595703125,1.0846
1.450381679389313,0.8396946564885496,-1.0687022900763359,-0.45458984375,-0.1103515625,-0.11181640625,1.0863
1.5419847328244274,0.8396946564885496,-1.0076335877862594,-0.457763671875,-0.109130859375,-0.114013671875,1.0879999999999999
1.5419847328244274,0.732824427480916,-1.0534351145038168,-0.453125,-0.1083984375,-0.114990234375,1.0897
1.5114503816793894,0.5801526717557252,-0.8549618320610687,-0.451171875,-0.11181640625,-0.118408203125,1.0914
1.6946564885496183,0.8549618320610687,-0.9312977099236641,-0.458984375,-0.1162109375,-0.125732421875,1.0931
1.618320610687023,0.6412213740458015,-0.7633587786259542,-0.458740234375,-0.111328125,-0.115234375,1.0948
1.5267175572519085,0.6412213740458015,-0.9923664122137404,-0.456298828125,-0.113037109375,-0.120849609375,1.0965
1.251908396946565,0.8396946564885496,-1.0076335877862594,-0.454833984375,-0.11328125,-0.116455078125,1.0981999999999998
1.4961832061068703,1.0534351145038168,-0.8244274809160306,-0.454833984375,-0.1103515625,-0.11279296875,1.0998999999999999
1.297709923664122,1.0687022900763359,-0.9923664122137404,-0.458984375,-0.108642578125,-0.11279296875,1.1016
1.2213740458015268,1.1145038167938932,-1.0229007633587786,-0.452392578125,-0.1142578125,-0.115234375,1.1033
1.0076335877862594,1.099236641221374,-0.8549618320610687,-0.454345703125,-0.107177734375,-0.11962890625,1.105
1.099236641221374,1.297709923664122,-0.7938931297709924,-0.456298828125,-0.105712890625,-0.11474609375,1.1067
1.1908396946564885,1.4809160305343512,-0.7480916030534351,-0.44970703125,-0.115234375,-0.119873046875,1.1083999999999998
1.297709923664122,1.4351145038167938,-0.732824427480916,-0.454833984375,-0.11376953125,-0.115478515625,1.1100999999999999
1.3893129770992367,1.4045801526717556,-0.7633587786259542,-0.455322265625,-0.113037109375,-0.117919921875,1.1118
1.3129770992366412,1.5419847328244274,-0.8702290076335878,-0.45947265625,-0.10986328125,-0.116943359375,1.1135
1.282442748091603,1.5572519083969465,-1.0229007633587786,-0.45703125,-0.1162109375,-0.11328125,1.1152
1.4809160305343512,1.3740458015267176,-0.8396946564885496,-0.457763671875,-0.116455078125,-0.121337890625,1.1169
1.450381679389313,1.3893129770992367,-0.8091603053435115,-0.45703125,-0.107421875,-0.11474609375,1.1186
1.251908396946565,1.3435114503816794,-1.0534351145038168,-0.453125,-0.1162109375,-0.117431640625,1.1202999999999999
1.2061068702290076,1.3587786259541985,-1.0534351145038168,-0.45361328125,-0.12109375,-0.1162109375,1.1219999999999999
1.3587786259541985,1.3587786259541985,-1.0534351145038168,-0.451416015625,-0.118896484375,-0.113525390625,1.1237
1.2366412213740459,1.251908396946565,-1.3129770992366412,-0.4501953125,-0.115478515625,-0.113525390625,1.1254
1.3587786259541985,0.9923664122137404,-1.4961832061068703,-0.4521484375,-0.11083984375,-0.112548828125,1.1271
1.297709923664122,0.9007633587786259,-1.4961832061068703,-0.44970703125,-0.113037109375,-0.11865234375,1.1288
0.9618320610687023,1.0076335877862594,-1.4351145038167938,-0.4541015625,-0.112548828125,-0.107177734375,1.1304999999999998
0.8702290076335878,0.5648854961832062,-1.5419847328244274,-0.45263671875,-0.112060546875,-0.11376953125,1.1321999999999999
1.0076335877862594,0.5648854961832062,-1.5877862595419847,-0.455810546875,-0.112060546875,-0.115478515625,1.1339
1.0229007633587786,0.42748091603053434,-1.4961832061068703,-0.457275390625,-0.116455078125,-0.1123046875,1.1356
1.0381679389312977,0.10687022900763359,-1.4045801526717556,-0.458984375,-0.117919921875,-0.128173828125,1.1373
0.9007633587786259,0.1984732824427481,-1.5572519083969465,-0.458984375,-0.119873046875,-0.1181640625,1.139
0.8702290076335878,0.12213740458015267,-1.5877862595419847,-0.45361328125,-0.112060546875,-0.1142578125,1.1407
1.0687022900763359,0.32061068702290074,-1.6793893129770991,-0.455322265625,-0.116455078125,-0.1162109375,1.1423999999999999
1.083969465648855,0.10687022900763359,-1.618320610687023,-0.45361328125,-0.115478515625,-0.118408203125,1.1441
1.1908396946564885,0.22900763358778625,-1.7099236641221374,-0.45654296875,-0.1103515625,-0.11962890625,1.1458
1.4045801526717556,0.5038167938931297,-1.7404580152671756,-0.458984375,-0.1162109375,-0.11865234375,1.1475
1.282442748091603,0.5954198473282443,-1.6488549618320612,-0.453369140625,-0.115966796875,-0.1259765625,1.1492
1.2671755725190839,0.7480916030534351,-1.786259541984733,-0.455322265625,-0.11572265625,-0.123291015625,1.1509
1.2213740458015268,0.9312977099236641,-1.6488549618320612,-0.4619140625,-0.115966796875,-0.123291015625,1.1525999999999998
1.2213740458015268,1.1908396946564885,-1.7251908396946565,-0.451904296875,-0.109375,-0.1171875,1.1542999999999999
1.465648854961832,1.2671755725190839,-1.7709923664122138,-0.45556640625,-0.114013671875,-0.124755859375,1.156
1.465648854961832,1.3435114503816794,-1.4961832061068703,-0.460693359375,-0.1083984375,-0.1181640625,1.1577
1.465648854961832,1.5419847328244274,-1.5877862595419847,-0.45751953125,-0.110107421875,-0.1181640625,1.1594
1.7709923664122138,1.4351145038167938,-1.6030534351145038,-0.456298828125,-0.11083984375,-0.1201171875,1.1611
1.5267175572519085,1.5572519083969465,-1.4961832061068703,-0.45458984375,-0.1162109375,-0.1240234375,1.1627999999999998
1.5419847328244274,1.7557251908396947,-1.465648854961832,-0.45703125,-0.11083984375,-0.116455078125,1.1644999999999999
1.6793893129770991,1.3435114503816794,-1.4045801526717556,-0.454833984375,-0.113525390625,-0.120361328125,1.1662
1.8015267175572518,1.3740458015267176,-1.4961832061068703,-0.457763671875,-0.110107421875,-0.10595703125,1.1679
1.786259541984733,1.633587786259542,-1.5267175572519085,-0.44970703125,-0.105712890625,-0.10888671875,1.1696
2.1068702290076335,1.450381679389313,-1.251908396946565,-0.454833984375,-0.10791015625,-0.11328125,1.1713
1.9541984732824427,1.2366412213740459,-1.3893129770992367,-0.455810546875,-0.11181640625,-0.12060546875,1.173
1.9083969465648856,1.1145038167938932,-1.2213740458015268,-0.453125,-0.110107421875,-0.11328125,1.1746999999999999
2.015267175572519,1.3740458015267176,-1.4045801526717556,-0.453125,-0.111572265625,-0.125244140625,1.1764
1.7557251908396947,1.251908396946565,-1.3282442748091603,-0.458984375,-0.109375,-0.121337890625,1.1781
1.8473282442748091,1.1603053435114503,-1.2366412213740459,-0.453857421875,-0.108154296875,-0.11962890625,1.1798
1.9694656488549618,1.0534351145038168,-1.1755725190839694,-0.458251953125,-0.111083984375,-0.115478515625,1.1815
1.9389312977099236,0.9618320610687023,-1.2061068702290076,-0.4560546875,-0.110107421875,-0.118408203125,1.1832
1.8625954198473282,1.0687022900763359,-1.1297709923664123,-0.4521484375,-0.115478515625,-0.116455078125,1.1848999999999998
1.6793893129770991,1.083969465648855,-1.1908396946564885,-0.4521484375,-0.11376953125,-0.11181640625,1.1865999999999999
1.5877862595419847,1.1603053435114503,-0.916030534351145,-0.455810546875,-0.110595703125,-0.11376953125,1.1883
1.6488549618320612,1.1603053435114503,-0.9618320610687023,-0.45703125,-0.113525390625,-0.11669921875,1.19
1.8015267175572518,1.0381679389312977,-0.9770992366412213,-0.458251953125,-0.11474609375,-0.115234375,1.1917
1.6793893129770991,1.2671755725190839,-0.9007633587786259,-0.4560546875,-0.11083984375,-0.11376953125,1.1934
1.83206106870229,1.282442748091603,-0.9007633587786259,-0.44775390625,-0.10791015625,-0.12060546875,1.1950999999999998
1.633587786259542,1.3435114503816794,-0.9770992366412213,-0.451171875,-0.112060546875,-0.115234375,1.1967999999999999
1.8473282442748091,1.3282442748091603,-0.916030534351145,-0.45361328125,-0.1103515625,-0.11865234375,1.1985
2.030534351145038,1.1755725190839694,-1.0381679389312977,-0.451416015625,-0.11328125,-0.1142578125,1.2002
1.633587786259542,1.1755725190839694,-1.083969465648855,-0.461181640625,-0.112060546875,-0.112548828125,1.2019
1.7557251908396947,0.8396946564885496,-1.083969465648855,-0.45361328125,-0.111328125,-0.125,1.2036
1.816793893129771,1.0076335877862594,-1.083969465648855,-0.45556640625,-0.111572265625,-0.1181640625,1.2053
1.7099236641221374,1.1755725190839694,-1.1908396946564885,-0.4541015625,-0.109619140625,-0.115966796875,1.2069999999999999
1.4198473282442747,0.8854961832061069,-1.1297709923664123,-0.45654296875,-0.110107421875,-0.114501953125,1.2086999999999999
1.2366412213740459,1.0076335877862594,-1.282442748091603,-0.458984375,-0.11083984375,-0.121826171875,1.2104
1.4961832061068703,1.083969465648855,-1.1603053435114503,-0.453125,-0.109619140625,-0.1171875,1.2121
1.083969465648855,1.0076335877862594,-1.1297709923664123,-0.45361328125,-0.11083984375,-0.108642578125,1.2138
1.0076335877862594,0.9465648854961832,-1.0534351145038168,-0.451416015625,-0.111572265625,-0.110595703125,1.2155
1.0076335877862594,0.916030534351145,-1.083969465648855,-0.454345703125,-0.107421875,-0.10693359375,1.2171999999999998
0.8396946564885496,0.916030534351145,-1.2213740458015268,-0.4560546875,-0.109619140625,-0.11962890625,1.2188999999999999
0.7633587786259542,0.7786259541984732,-1.1908396946564885,-0.451171875,-0.1103515625,-0.11767578125,1.2206
0.9465648854961832,0.8244274809160306,-0.9465648854961832,-0.45703125,-0.1123046875,-0.116943359375,1.2223
0.8244274809160306,0.8091603053435115,-1.1603053435114503,-0.45654296875,-0.111083984375,-0.122802734375,1.224
0.6717557251908397,0.9312977099236641,-1.083969465648855,-0.453125,-0.115966796875,-0.11376953125,1.2257
0.6259541984732825,0.7480916030534351,-1.1145038167938932,-0.456298828125,-0.1142578125,-0.11865234375,1.2273999999999998
0.6564885496183206,0.7480916030534351,-1.1603053435114503,-0.45654296875,-0.111572265625,-0.11328125,1.2290999999999999
0.9007633587786259,0.6259541984732825,-1.282442748091603,-0.45703125,-0.11572265625,-0.111328125,1.2308
1.0229007633587786,0.9007633587786259,-1.1603053435114503,-0.456787109375,-0.1162109375,-0.11572265625,1.2325
0.916030534351145,0.7480916030534351,-1.3282442748091603,-0.454345703125,-0.1142578125,-0.113037109375,1.2342
0.8396946564885496,0.7022900763358778,-1.3740458015267176,-0.451904296875,-0.11083984375,-0.120361328125,1.2359
1.0534351145038168,0.7786259541984732,-1.4351145038167938,-0.456298828125,-0.1103515625,-0.122802734375,1.2376
0.8854961832061069,0.8396946564885496,-1.3129770992366412,-0.455078125,-0.110107421875,-0.12109375,1.2392999999999998
0.7633587786259542,0.6870229007633588,-1.5267175572519085,-0.448486328125,-0.111083984375,-0.119140625,1.2409999999999999
0.9312977099236641,0.7633587786259542,-1.6030534351145038,-0.45361328125,-0.112548828125,-0.121337890625,1.2427
1.1297709923664123,0.6717557251908397,-1.6488549618320612,-0.455322265625,-0.10791015625,-0.112548828125,1.2444
0.9770992366412213,0.6412213740458015,-1.450381679389313,-0.459228515625,-0.11181640625,-0.116455078125,1.2461
0.7480916030534351,0.5801526717557252,-1.5419847328244274,-0.45263671875,-0.10888671875,-0.1064453125,1.2478
0.9007633587786259,0.4580152671755725,-1.4045801526717556,-0.45068359375,-0.111328125,-0.12109375,1.2494999999999998
0.9618320610687023,0.6870229007633588,-1.7251908396946565,-0.448974609375,-0.110107421875,-0.123779296875,1.2511999999999999
1.099236641221374,0.6564885496183206,-1.5877862595419847,-0.453369140625,-0.1103515625,-0.12060546875,1.2529
1.0381679389312977,0.916030534351145,-1.4809160305343512,-0.451416015625,-0.11376953125,-0.114501953125,1.2546
1.099236641221374,0.6412213740458015,-1.5267175572519085,-0.454833984375,-0.11572265625,-0.1240234375,1.2563
1.0687022900763359,0.7022900763358778,-1.450381679389313,-0.45654296875,-0.113037109375,-0.119140625,1.258
1.083969465648855,0.6870229007633588,-1.4198473282442747,-0.453857421875,-0.112548828125,-0.121337890625,1.2596999999999998
1.083969465648855,0.5038167938931297,-1.4809160305343512,-0.451171875,-0.11181640625,-0.1171875,1.2613999999999999
1.0381679389312977,0.7938931297709924,-1.450381679389313,-0.45703125,-0.11279296875,-0.122314453125,1.2631
1.1450381679389312,0.7786259541984732,-1.465648854961832,-0.45751953125,-0.109130859375,-0.1279296875,1.2648
1.0534351145038168,1.1145038167938932,-1.450381679389313,-0.456298828125,-0.11376953125,-0.12890625,1.2665
1.2061068702290076,1.282442748091603,-1.4198473282442747,-0.459716796875,-0.11328125,-0.1240234375,1.2682
1.251908396946565,1.0229007633587786,-1.465648854961832,-0.456298828125,-0.114013671875,-0.114501953125,1.2699
1.3587786259541985,1.3129770992366412,-1.5572519083969465,-0.45068359375,-0.11865234375,-0.115478515625,1.2715999999999998
1.4809160305343512,1.3129770992366412,-1.5267175572519085,-0.452880859375,-0.119384765625,-0.116455078125,1.2732999999999999
1.618320610687023,1.3282442748091603,-1.5419847328244274,-0.451904296875,-0.116943359375,-0.119140625,1.275
1.6488549618320612,1.3435114503816794,-1.297709923664122,-0.456787109375,-0.117431640625,-0.122802734375,1.2767
1.6641221374045803,1.251908396946565,-1.4961832061068703,-0.45263671875,-0.116943359375,-0.124267578125,1.2784
1.8778625954198473,1.2366412213740459,-1.618320610687023,-0.458984375,-0.113037109375,-0.110107421875,1.2801
1.7404580152671756,1.4198473282442747,-1.4351145038167938,-0.45458984375,-0.115478515625,-0.113525390625,1.2817999999999998
1.7404580152671756,1.1908396946564885,-1.450381679389313,-0.4599609375,-0.11279296875,-0.109619140625,1.2834999999999999
1.7251908396946565,1.1908396946564885,-1.5114503816793894,-0.456787109375,-0.114013671875,-0.116455078125,1.2852
1.8015267175572518,1.083969465648855,-1.7404580152671756,-0.45458984375,-0.111572265625,-0.1103515625,1.2869
1.4961832061068703,0.9770992366412213,-1.786259541984733,-0.45458984375,-0.11181640625,-0.114990234375,1.2886
1.4961832061068703,1.0381679389312977,-1.5572519083969465,-0.45361328125,-0.113037109375,-0.11279296875,1.2903
1.4045801526717556,1.0076335877862594,-1.7099236641221374,-0.456787109375,-0.11376953125,-0.114501953125,1.292
1.1908396946564885,0.9618320610687023,-1.5267175572519085,-0.4580078125,-0.1123046875,-0.1103515625,1.2936999999999999
1.0534351145038168,0.7786259541984732,-1.7404580152671756,-0.460205078125,-0.113525390625,-0.11181640625,1.2953999999999999
1.2061068702290076,0.916030534351145,-1.6946564885496183,-0.453857421875,-0.111572265625,-0.117431640625,1.2971
1.1603053435114503,0.8091603053435115,-1.4809160305343512,-0.458740234375,-0.110107421875,-0.121826171875,1.2988
0.732824427480916,0.8396946564885496,-1.5572519083969465,-0.45703125,-0.11279296875,-0.117919921875,1.3005
0.8702290076335878,0.9312977099236641,-1.465648854961832,-0.45703125,-0.106201171875,-0.11865234375,1.3022
1.0687022900763359,0.9465648854961832,-1.3893129770992367,-0.454833984375,-0.108154296875,-0.122802734375,1.3038999999999998
1.0076335877862594,0.8702290076335878,-1.297709923664122,-0.45751953125,-0.109619140625,-0.1181640625,1.3055999999999999
1.1297709923664123,0.9923664122137404,-1.465648854961832,-0.454833984375,-0.11181640625,-0.118896484375,1.3073
1.099236641221374,1.0381679389312977,-1.3587786259541985,-0.454345703125,-0.109130859375,-0.12109375,1.309
1.3282442748091603,0.9923664122137404,-1.3129770992366412,-0.45556640625,-0.10888671875,-0.106201171875,1.3107
1.465648854961832,0.9770992366412213,-1.1603053435114503,-0.451416015625,-0.109130859375,-0.1083984375,1.3124
1.4198473282442747,1.0687022900763359,-1.1297709923664123,-0.453125,-0.1103515625,-0.109619140625,1.3140999999999998
1.3435114503816794,0.9923664122137404,-1.099236641221374,-0.455810546875,-0.1103515625,-0.1123046875,1.3157999999999999
1.4351145038167938,1.2366412213740459,-1.2366412213740459,-0.45556640625,-0.10693359375,-0.113525390625,1.3175
1.7404580152671756,0.9618320610687023,-1.1145038167938932,-0.452880859375,-0.10888671875,-0.115478515625,1.3192
1.6946564885496183,1.0381679389312977,-1.1908396946564885,-0.453125,-0.107177734375,-0.122802734375,1.3209
1.6946564885496183,1.083969465648855,-1.297709923664122,-0.458251953125,-0.107421875,-0.1181640625,1.3226
1.8015267175572518,1.083969465648855,-1.083969465648855,-0.45361328125,-0.1083984375,-0.1181640625,1.3243
1.6946564885496183,1.1603053435114503,-1.1450381679389312,-0.45166015625,-0.109130859375,-0.114990234375,1.3259999999999998
1.6641221374045803,1.282442748091603,-1.0687022900763359,-0.45458984375,-0.10693359375,-0.11279296875,1.3276999999999999
1.6946564885496183,1.099236641221374,-1.1450381679389312,-0.454833984375,-0.10986328125,-0.114501953125,1.3294
1.618320610687023,1.1297709923664123,-1.0229007633587786,-0.453857421875,-0.111328125,-0.110107421875,1.3311
1.3129770992366412,0.8244274809160306,-1.2061068702290076,-0.44873046875,-0.1103515625,-0.11376953125,1.3328
1.4045801526717556,0.8702290076335878,-1.1755725190839694,-0.451171875,-0.107421875,-0.117919921875,1.3345
1.4198473282442747,0.6870229007633588,-1.1145038167938932,-0.450439453125,-0.1142578125,-0.111083984375,1.3361999999999998
1.251908396946565,0.5801526717557252,-1.1755725190839694,-0.45166015625,-0.10986328125,-0.10498046875,1.3378999999999999
1.1908396946564885,0.6259541984732825,-1.3129770992366412,-0.455322265625,-0.114990234375,-0.108642578125,1.3396
1.1908396946564885,0.6259541984732825,-1.1908396946564885,-0.450927734375,-0.10546875,-0.1162109375,1.3413
1.297709923664122,0.4580152671755725,-1.2213740458015268,-0.455322265625,-0.10546875,-0.119140625,1.343
1.5725190839694656,0.7480916030534351,-1.282442748091603,-0.456298828125,-0.108642578125,-0.117919921875,1.3447
1.4351145038167938,0.6564885496183206,-1.3587786259541985,-0.453857421875,-0.111328125,-0.1171875,1.3463999999999998
1.450381679389313,0.6259541984732825,-1.1450381679389312,-0.453857421875,-0.116455078125,-0.114501953125,1.3480999999999999
1.3587786259541985,0.48854961832061067,-1.2213740458015268,-0.4580078125,-0.109375,-0.11474609375,1.3497999999999999
1.251908396946565,0.5801526717557252,-1.3893129770992367,-0.45703125,-0.11279296875,-0.11669921875,1.3515
1.3282442748091603,0.6412213740458015,-1.4045801526717556,-0.453369140625,-0.1103515625,-0.1240234375,1.3532
1.4045801526717556,0.5648854961832062,-1.4351145038167938,-0.45703125,-0.1142578125,-0.123779296875,1.3549
1.633587786259542,0.5343511450381679,-1.465648854961832,-0.453369140625,-0.114990234375,-0.121826171875,1.3566
1.6488549618320612,0.6870229007633588,-1.7404580152671756,-0.453125,-0.119873046875,-0.119873046875,1.3582999999999998
1.7709923664122138,0.5801526717557252,-1.4351145038167938,-0.453857421875,-0.118408203125,-0.116455078125,1.3599999999999999
1.9389312977099236,0.732824427480916,-1.7099236641221374,-0.455322265625,-0.1142578125,-0.123779296875,1.3617
1.4961832061068703,0.6106870229007634,-1.7099236641221374,-0.4560546875,-0.115478515625,-0.112548828125,1.3634
1.786259541984733,0.7938931297709924,-1.633587786259542,-0.4521484375,-0.113037109375,-0.121826171875,1.3651
1.9694656488549618,0.9465648854961832,-1.4045801526717556,-0.457275390625,-0.112060546875,-0.12353515625,1.3668
1.6488549618320612,0.8549618320610687,-1.5725190839694656,-0.45361328125,-0.11279296875,-0.126708984375,1.3684999999999998
1.5419847328244274,0.732824427480916,-1.6030534351145038,-0.455322265625,-0.10986328125,-0.11962890625,1.3701999999999999
1.2366412213740459,0.9923664122137404,-1.5725190839694656,-0.456298828125,-0.113525390625,-0.123291015625,1.3719
1.4198473282442747,1.1297709923664123,-1.5419847328244274,-0.45361328125,-0.1083984375,-0.12646484375,1.3736
1.3282442748091603,0.8091603053435115,-1.7709923664122138,-0.45458984375,-0.112548828125,-0.11962890625,1.3753
1.1603053435114503,0.7786259541984732,-1.5725190839694656,-0.45458984375,-0.11474609375,-0.11474609375,1.377
1.099236641221374,0.8091603053435115,-1.4809160305343512,-0.450927734375,-0.114990234375,-0.11572265625,1.3786999999999998
1.083969465648855,0.8549618320610687,-1.4045801526717556,-0.45556640625,-0.1083984375,-0.117919921875,1.3803999999999998
0.6870229007633588,0.9618320610687023,-1.633587786259542,-0.452880859375,-0.11474609375,-0.114990234375,1.3820999999999999
0.7786259541984732,0.9312977099236641,-1.5725190839694656,-0.454345703125,-0.111083984375,-0.115478515625,1.3838
0.44274809160305345,0.8091603053435115,-1.5267175572519085,-0.45458984375,-0.115478515625,-0.115234375,1.3855
0.3816793893129771,0.5648854961832062,-1.5877862595419847,-0.456298828125,-0.10888671875,-0.112060546875,1.3872
0.32061068702290074,0.5801526717557252,-1.4961832061068703,-0.454345703125,-0.108154296875,-0.118408203125,1.3889
0.3511450381679389,0.6717557251908397,-1.4045801526717556,-0.451171875,-0.10888671875,-0.119873046875,1.3905999999999998
0.07633587786259542,0.7022900763358778,-1.3435114503816794,-0.462646484375,-0.11376953125,-0.11669921875,1.3922999999999999
0.22900763358778625,0.5343511450381679,-1.3587786259541985,-0.451171875,-0.114501953125,-0.111572265625,1.394
0.061068702290076333,0.5954198473282443,-1.2366412213740459,-0.45703125,-0.10986328125,-0.10888671875,1.3957
-0.183206106870229,0.732824427480916,-1.3893129770992367,-0.45263671875,-0.10693359375,-0.118408203125,1.3974
0.12213740458015267,0.7633587786259542,-1.1908396946564885,-0.455322265625,-0.108642578125,-0.116943359375,1.3991
0.42748091603053434,0.8244274809160306,-1.1755725190839694,-0.456787109375,-0.1103515625,-0.112548828125,1.4007999999999998
0.33587786259541985,1.0381679389312977,-1.1297709923664123,-0.45849609375,-0.10791015625,-0.119384765625,1.4024999999999999
0.3969465648854962,0.9312977099236641,-1.1145038167938932,-0.453125,-0.1103515625,-0.1123046875,1.4042
0.6564885496183206,0.9312977099236641,-1.0534351145038168,-0.45703125,-0.116455078125,-0.117431640625,1.4059
0.5954198473282443,1.1755725190839694,-0.8091603053435115,-0.457763671875,-0.10986328125,-0.112060546875,1.4076
0.8244274809160306,1.1755725190839694,-0.9465648854961832,-0.455810546875,-0.105224609375,-0.119873046875,1.4093
0.8091603053435115,1.5114503816793894,-0.916030534351145,-0.455322265625,-0.11474609375,-0.121337890625,1.411
1.0076335877862594,1.1755725190839694,-1.0534351145038168,-0.45849609375,-0.111328125,-0.109375,1.4126999999999998
1.1755725190839694,1.297709923664122,-0.9618320610687023,-0.4560546875,-0.107421875,-0.11767578125,1.4143999999999999
1.3740458015267176,1.3435114503816794,-0.8854961832061069,-0.45361328125,-0.106201171875,-0.112548828125,1.4161
1.4045801526717556,1.2213740458015268,-1.0076335877862594,-0.45458984375,-0.109619140625,-0.110595703125,1.4178
1.5572519083969465,1.0687022900763359,-1.099236641221374,-0.451416015625,-0.1064453125,-0.106689453125,1.4195
1.5725190839694656,1.3740458015267176,-0.9465648854961832,-0.456298828125,-0.105224609375,-0.1181640625,1.4212
2.0,1.297709923664122,-1.2213740458015268,-0.453125,-0.10791015625,-0.111328125,1.4228999999999998
1.7709923664122138,0.9923664122137404,-0.9007633587786259,-0.454345703125,-0.108642578125,-0.10791015625,1.4245999999999999
1.8931297709923665,0.9007633587786259,-0.8396946564885496,-0.4560546875,-0.107177734375,-0.11181640625,1.4263
1.9694656488549618,0.9618320610687023,-0.8854961832061069,-0.454833984375,-0.10498046875,-0.10986328125,1.428
1.9389312977099236,0.7175572519083969,-1.1603053435114503,-0.461181640625,-0.108642578125,-0.1162109375,1.4297
2.030534351145038,0.8702290076335878,-0.8091603053435115,-0.455322265625,-0.11279296875,-0.11669921875,1.4314
1.6793893129770991,0.8854961832061069,-0.9770992366412213,-0.45556640625,-0.110595703125,-0.114990234375,1.4330999999999998
2.2290076335877864,0.9465648854961832,-0.916030534351145,-0.455322265625,-0.108642578125,-0.116943359375,1.4347999999999999
1.8015267175572518,0.8549618320610687,-0.8854961832061069,-0.4609375,-0.1103515625,-0.113525390625,1.4364999999999999
1.984732824427481,0.8244274809160306,-0.8702290076335878,-0.4541015625,-0.1103515625,-0.112060546875,1.4382
1.9694656488549618,0.6870229007633588,-1.099236641221374,-0.46044921875,-0.10888671875,-0.123291015625,1.4399
1.83206106870229,1.0076335877862594,-0.8854961832061069,-0.45654296875,-0.1083984375,-0.11767578125,1.4416
1.8931297709923665,1.0381679389312977,-0.9465648854961832,-0.45703125,-0.111083984375,-0.1123046875,1.4433
1.9541984732824427,1.1450381679389312,-0.7175572519083969,-0.4580078125,-0.10986328125,-0.115966796875,1.4449999999999998
1.5725190839694656,0.9618320610687023,-1.0687022900763359,-0.461669921875,-0.115234375,-0.115478515625,1.4466999999999999
1.6488549618320612,1.1603053435114503,-0.8549618320610687,-0.454833984375,-0.11279296875,-0.122314453125,1.4484
1.984732824427481,1.282442748091603,-0.9007633587786259,-0.458251953125,-0.11669921875,-0.11376953125,1.4501
1.9541984732824427,1.3129770992366412,-0.9770992366412213,-0.456298828125,-0.115478515625,-0.116943359375,1.4518
1.7709923664122138,1.0534351145038168,-1.2061068702290076,-0.4560546875,-0.113525390625,-0.112060546875,1.4535
1.7099236641221374,1.099236641221374,-1.1603053435114503,-0.4541015625,-0.109619140625,-0.125,1.4551999999999998
1.7709923664122138,1.083969465648855,-1.1297709923664123,-0.456298828125,-0.11572265625,-0.1201171875,1.4568999999999999
1.7099236641221374,1.1450381679389312,-1.251908396946565,-0.452392578125,-0.114013671875,-0.11376953125,1.4586
1.4198473282442747,1.083969465648855,-1.4045801526717556,-0.459716796875,-0.118408203125,-0.1171875,1.4603
1.6030534351145038,1.0076335877862594,-1.251908396946565,-0.452392578125,-0.119140625,-0.123291015625,1.462
1.3740458015267176,0.8091603053435115,-1.4045801526717556,-0.450439453125,-0.114013671875,-0.114990234375,1.4637
0.9007633587786259,0.7022900763358778,-1.282442748091603,-0.451416015625,-0.1171875,-0.121337890625,1.4653999999999998
0.5954198473282443,0.549618320610687,-1.4198473282442747,-0.453125,-0.1162109375,-0.110107421875,1.4670999999999998
0.4580152671755725,0.6870229007633588,-1.1755725190839694,-0.451904296875,-0.115234375,-0.1181640625,1.4687999999999999
0.5801526717557252,0.5648854961832062,-1.3740458015267176,-0.45263671875,-0.119873046875,-0.111572265625,1.4705
0.2900763358778626,0.4122137404580153,-1.3893129770992367,-0.45458984375,-0.11279296875,-0.108154296875,1.4722
0.12213740458015267,0.4122137404580153,-1.2671755725190839,-0.4560546875,-0.11767578125,-0.114990234375,1.4739
0.030534351145038167,0.5801526717557252,-1.297709923664122,-0.45068359375,-0.124755859375,-0.116455078125,1.4756
-0.12213740458015267,0.6870229007633588,-1.3435114503816794,-0.454345703125,-0.109375,-0.1162109375,1.4772999999999998
-0.061068702290076333,0.6564885496183206,-1.0534351145038168,-0.454345703125,-0.1142578125,-0.108642578125,1.4789999999999999
-0.2595419847328244,0.6106870229007634,-1.3129770992366412,-0.4541015625,-0.114013671875,-0.117919921875,1.4807
-0.15267175572519084,0.6106870229007634,-1.1755725190839694,-0.4619140625,-0.107666015625,-0.11767578125,1.4824
0.030534351145038167,0.5954198473282443,-1.1603053435114503,-0.455078125,-0.118408203125,-0.12060546875,1.4841
-0.030534351145038167,0.549618320610687,-1.083969465648855,-0.45166015625,-0.111572265625,-0.119873046875,1.4858
0.0,0.7480916030534351,-1.2671755725190839,-0.4560546875,-0.11181640625,-0.120849609375,1.4874999999999998
0.366412213740458,0.7175572519083969,-1.099236641221374,-0.4580078125,-0.1103515625,-0.120849609375,1.4891999999999999
0.366412213740458,0.8396946564885496,-1.0381679389312977,-0.457275390625,-0.108154296875,-0.123046875,1.4909
0.3053435114503817,0.7633587786259542,-0.9923664122137404,-0.45263671875,-0.119140625,-0.122314453125,1.4926
0.3969465648854962,0.8702290076335878,-1.1297709923664123,-0.45947265625,-0.1064453125,-0.12548828125,1.4943
0.5190839694656488,0.8702290076335878,-1.0687022900763359,-0.458251953125,-0.10498046875,-0.11962890625,1.496
0.549618320610687,0.8854961832061069,-1.0229007633587786,-0.45361328125,-0.105224609375,-0.12353515625,1.4976999999999998
0.7786259541984732,0.8396946564885496,-1.0534351145038168,-0.457275390625,-0.10498046875,-0.1162109375,1.4993999999999998
0.6564885496183206,0.9312977099236641,-1.282442748091603,-0.4521484375,-0.107421875,-0.11572265625,1.5010999999999999
0.6564885496183206,0.8244274809160306,-0.8702290076335878,-0.456787109375,-0.103759765625,-0.1171875,1.5028
0.6564885496183206,1.0076335877862594,-1.083969465648855,-0.448486328125,-0.103271484375,-0.116455078125,1.5045
0.6870229007633588,0.8244274809160306,-1.0076335877862594,-0.45263671875,-0.103271484375,-0.1142578125,1.5062
0.6259541984732825,0.7022900763358778,-1.1755725190839694,-0.4560546875,-0.103759765625,-0.117919921875,1.5079
0.916030534351145,0.9618320610687023,-1.0534351145038168,-0.455810546875,-0.107177734375,-0.114501953125,1.5095999999999998
0.9618320610687023,0.8854961832061069,-1.099236641221374,-0.452392578125,-0.1064453125,-0.11572265625,1.5112999999999999
1.1297709923664123,0.5801526717557252,-0.9312977099236641,-0.45703125,-0.102783203125,-0.11865234375,1.513
1.282442748091603,0.8549618320610687,-0.8702290076335878,-0.453125,-0.1025390625,-0.114013671875,1.5147
1.4198473282442747,0.7938931297709924,-0.916030534351145,-0.456298828125,-0.111572265625,-0.113525390625,1.5164
1.1297709923664123,0.7938931297709924,-0.6717557251908397,-0.45556640625,-0.11181640625,-0.111083984375,1.5181
1.2366412213740459,1.251908396946565,-0.9465648854961832,-0.456787109375,-0.1103515625,-0.11376953125,1.5197999999999998
1.5114503816793894,1.450381679389313,-0.916030534351145,-0.456787109375,-0.109130859375,-0.11376953125,1.5214999999999999
1.4351145038167938,1.5419847328244274,-0.9007633587786259,-0.455810546875,-0.109619140625,-0.109375,1.5231999999999999
1.2671755725190839,1.633587786259542,-1.0229007633587786,-0.458251953125,-0.107421875,-0.1162109375,1.5249
1.4351145038167938,1.5725190839694656,-0.8091603053435115,-0.4560546875,-0.11181640625,-0.11279296875,1.5266
1.1908396946564885,1.8778625954198473,-0.7480916030534351,-0.45703125,-0.10986328125,-0.11376953125,1.5283
1.0687022900763359,1.618320610687023,-0.8244274809160306,-0.46142578125,-0.11376953125,-0.119140625,1.5299999999999998
1.2671755725190839,1.6488549618320612,-0.7480916030534351,-0.458740234375,-0.110107421875,-0.11572265625,1.5316999999999998
1.1603053435114503,1.9083969465648856,-0.7938931297709924,-0.45458984375,-0.1103515625,-0.118896484375,1.5333999999999999
1.3740458015267176,1.7251908396946565,-0.7480916030534351,-0.453857421875,-0.110595703125,-0.11376953125,1.5351
1.1755725190839694,1.786259541984733,-0.5801526717557252,-0.455322265625,-0.10791015625,-0.117431640625,1.5368
0.9618320610687023,1.450381679389313,-0.6564885496183206,-0.456787109375,-0.117919921875,-0.120361328125,1.5385
1.0687022900763359,1.5114503816793894,-0.7938931297709924,-0.458984375,-0.1064453125,-0.1162109375,1.5402
1.1908396946564885,1.5572519083969465,-0.5954198473282443,-0.457275390625,-0.1123046875,-0.11962890625,1.5418999999999998
1.3435114503816794,1.3282442748091603,-0.7633587786259542,-0.459228515625,-0.11376953125,-0.113525390625,1.5435999999999999
1.1603053435114503,1.1755725190839694,-0.8091603053435115,-0.4580078125,-0.116455078125,-0.113525390625,1.5453
1.2366412213740459,1.2213740458015268,-0.8091603053435115,-0.459228515625,-0.117919921875,-0.1083984375,1.547
1.0229007633587786,1.3435114503816794,-0.7938931297709924,-0.45703125,-0.111083984375,-0.119873046875,1.5487
1.2366412213740459,1.5114503816793894,-0.9618320610687023,-0.45849609375,-0.111328125,-0.1162109375,1.5504
1.0076335877862594,1.450381679389313,-1.0229007633587786,-0.457763671875,-0.10986328125,-0.1171875,1.5520999999999998
0.8854961832061069,1.3587786259541985,-0.9618320610687023,-0.45703125,-0.115966796875,-0.12060546875,1.5537999999999998
0.6564885496183206,1.251908396946565,-0.7786259541984732,-0.45654296875,-0.11328125,-0.12158203125,1.5554999999999999
0.7175572519083969,1.297709923664122,-0.8244274809160306,-0.460693359375,-0.1171875,-0.11767578125,1.5572
0.7022900763358778,1.2213740458015268,-0.8244274809160306,-0.455322265625,-0.110595703125,-0.12451171875,1.5589
0.5190839694656488,1.1603053435114503,-0.7633587786259542,-0.4580078125,-0.115234375,-0.109619140625,1.5606
0.44274809160305345,1.5114503816793894,-0.8091603053435115,-0.457763671875,-0.117431640625,-0.11572265625,1.5623
0.549618320610687,1.1908396946564885,-0.9007633587786259,-0.454345703125,-0.1162109375,-0.119873046875,1.5639999999999998
0.3511450381679389,1.0534351145038168,-0.9465648854961832,-0.4541015625,-0.114501953125,-0.11279296875,1.5656999999999999
0.5801526717557252,1.1603053435114503,-0.9618320610687023,-0.464599609375,-0.11181640625,-0.115234375,1.5674
0.32061068702290074,1.083969465648855,-1.0534351145038168,-0.46240234375,-0.115234375,-0.11376953125,1.5691
0.24427480916030533,1.1450381679389312,-1.099236641221374,-0.4560546875,-0.116455078125,-0.114990234375,1.5708
0.5190839694656488,1.297709923664122,-1.0229007633587786,-0.460693359375,-0.109619140625,-0.10693359375,1.5725
0.3816793893129771,1.450381679389313,-0.9618320610687023,-0.460693359375,-0.11376953125,-0.11279296875,1.5741999999999998
0.5801526717557252,1.6030534351145038,-1.0229007633587786,-0.451416015625,-0.10986328125,-0.1259765625,1.5758999999999999
0.6870229007633588,1.4045801526717556,-1.1755725190839694,-0.451171875,-0.117431640625,-0.1171875,1.5776
0.8396946564885496,1.3587786259541985,-1.1450381679389312,-0.45703125,-0.109375,-0.116943359375,1.5793
0.6106870229007634,1.6793893129770991,-1.083969465648855,-0.457763671875,-0.10791015625,-0.11083984375,1.581
0.8091603053435115,1.4961832061068703,-0.8396946564885496,-0.460205078125,-0.109619140625,-0.115234375,1.5827
1.0076335877862594,1.1450381679389312,-1.4198473282442747,-0.452392578125,-0.10498046875,-0.127685546875,1.5843999999999998
0.8396946564885496,1.5572519083969465,-1.0534351145038168,-0.455322265625,-0.10693359375,-0.121337890625,1.5860999999999998
0.7786259541984732,1.6030534351145038,-1.1603053435114503,-0.4580078125,-0.1044921875,-0.120361328125,1.5877999999999999
0.916030534351145,1.4351145038167938,-1.2213740458015268,-0.45947265625,-0.108642578125,-0.11767578125,1.5895
0.916030534351145,1.4198473282442747,-1.2213740458015268,-0.453125,-0.11328125,-0.1240234375,1.5912
0.8396946564885496,1.3435114503816794,-1.2213740458015268,-0.45751953125,-0.109130859375,-0.11572265625,1.5929
0.9312977099236641,1.3129770992366412,-1.282442748091603,-0.456298828125,-0.1064453125,-0.119873046875,1.5946
0.7786259541984732,1.297709923664122,-1.099236641221374,-0.4580078125,-0.1064453125,-0.1083984375,1.5962999999999998
0.8244274809160306,1.2213740458015268,-1.4198473282442747,-0.4580078125,-0.102294921875,-0.11669921875,1.5979999999999999
0.8091603053435115,1.3282442748091603,-1.2061068702290076,-0.458984375,-0.10888671875,-0.116455078125,1.5997
0.8549618320610687,1.3893129770992367,-1.0687022900763359,-0.4521484375,-0.109130859375,-0.121826171875,1.6014
0.6870229007633588,1.1603053435114503,-1.2671755725190839,-0.45703125,-0.10791015625,-0.11865234375,1.6031
1.0076335877862594,1.3129770992366412,-1.5114503816793894,-0.454833984375,-0.112060546875,-0.116455078125,1.6048
0.8854961832061069,1.3893129770992367,-1.2061068702290076,-0.452392578125,-0.108154296875,-0.12353515625,1.6064999999999998
0.732824427480916,0.8854961832061069,-1.3282442748091603,-0.45068359375,-0.10693359375,-0.11962890625,1.6081999999999999
0.732824427480916,0.9465648854961832,-1.2671755725190839,-0.453857421875,-0.104736328125,-0.12060546875,1.6098999999999999
0.8549618320610687,1.1908396946564885,-1.2671755725190839,-0.454833984375,-0.1103515625,-0.12158203125,1.6116
0.8396946564885496,1.2213740458015268,-1.3435114503816794,-0.458984375,-0.10888671875,-0.1162109375,1.6133
0.8702290076335878,1.251908396946565,-1.297709923664122,-0.455078125,-0.107421875,-0.118896484375,1.615
0.549618320610687,1.099236641221374,-1.2366412213740459,-0.451416015625,-0.11083984375,-0.1201171875,1.6166999999999998
0.7175572519083969,1.1297709923664123,-1.2366412213740459,-0.450927734375,-0.107177734375,-0.116943359375,1.6183999999999998
0.5343511450381679,1.3282442748091603,-1.1908396946564885,-0.451416015625,-0.107177734375,-0.118408203125,1.6200999999999999
0.5190839694656488,1.282442748091603,-1.3893129770992367,-0.450927734375,-0.109375,-0.119873046875,1.6218
0.6717557251908397,1.0381679389312977,-1.1450381679389312,-0.45556640625,-0.1103515625,-0.118896484375,1.6235
0.8091603053435115,1.282442748091603,-0.9923664122137404,-0.45751953125,-0.109130859375,-0.117431640625,1.6252
0.5038167938931297,1.5114503816793894,-1.0534351145038168,-0.45263671875,-0.109375,-0.115478515625,1.6269
0.6412213740458015,1.5419847328244274,-0.9923664122137404,-0.458251953125,-0.11083984375,-0.115234375,1.6285999999999998
0.3053435114503817,1.465648854961832,-0.7938931297709924,-0.455078125,-0.1083984375,-0.115478515625,1.6302999999999999
0.2748091603053435,1.6488549618320612,-1.2061068702290076,-0.453369140625,-0.108642578125,-0.111572265625,1.632
0.5801526717557252,1.7557251908396947,-1.099236641221374,-0.45166015625,-0.111572265625,-0.115234375,1.6337
0.44274809160305345,1.8015267175572518,-1.1297709923664123,-0.458984375,-0.113037109375,-0.116455078125,1.6354
0.3511450381679389,1.7557251908396947,-0.8854961832061069,-0.45263671875,-0.116455078125,-0.121826171875,1.6371
0.4732824427480916,1.786259541984733,-1.282442748091603,-0.452392578125,-0.108642578125,-0.1201171875,1.6387999999999998
0.3969465648854962,1.9083969465648856,-1.0076335877862594,-0.452880859375,-0.109130859375,-0.116455078125,1.6404999999999998
0.44274809160305345,1.7404580152671756,-1.099236641221374,-0.456298828125,-0.110107421875,-0.11669921875,1.6421999999999999
0.6717557251908397,1.5877862595419847,-1.2061068702290076,-0.45556640625,-0.10888671875,-0.114990234375,1.6439
0.8091603053435115,1.786259541984733,-1.1450381679389312,-0.45068359375,-0.108642578125,-0.116943359375,1.6456
0.6259541984732825,1.5725190839694656,-1.1145038167938932,-0.45263671875,-0.107666015625,-0.112548828125,1.6473
0.6259541984732825,1.618320610687023,-1.2671755725190839,-0.454833984375,-0.1064453125,-0.110595703125,1.6489999999999998
0.7022900763358778,1.450381679389313,-0.9770992366412213,-0.453857421875,-0.112548828125,-0.11767578125,1.6506999999999998
0.6564885496183206,1.1297709923664123,-1.1908396946564885,-0.450927734375,-0.1083984375,-0.12109375,1.6523999999999999
0.9923664122137404,0.9923664122137404,-1.0381679389312977,-0.453125,-0.10888671875,-0.11474609375,1.6541
1.1603053435114503,0.9770992366412213,-1.0381679389312977,-0.453125,-0.108154296875,-0.117919921875,1.6558
0.9923664122137404,1.0381679389312977,-1.1755725190839694,-0.459228515625,-0.11328125,-0.1162109375,1.6575
1.0534351145038168,0.9465648854961832,-1.3129770992366412,-0.458740234375,-0.111572265625,-0.113037109375,1.6592
1.282442748091603,1.0687022900763359,-1.1450381679389312,-0.453125,-0.105712890625,-0.118896484375,1.6608999999999998
1.251908396946565,1.3129770992366412,-1.2366412213740459,-0.4580078125,-0.1064453125,-0.122802734375,1.6625999999999999
1.3893129770992367,1.3435114503816794,-1.282442748091603,-0.455810546875,-0.109619140625,-0.123779296875,1.6643
1.4961832061068703,1.3740458015267176,-1.4961832061068703,-0.460205078125,-0.110595703125,-0.118896484375,1.666
1.6488549618320612,1.4809160305343512,-1.1450381679389312,-0.457275390625,-0.108642578125,-0.115234375,1.6677
1.618320610687023,1.633587786259542,-1.4198473282442747,-0.45703125,-0.10986328125,-0.1220703125,1.6694
1.4045801526717556,1.6946564885496183,-1.297709923664122,-0.452392578125,-0.109619140625,-0.109130859375,1.6710999999999998
1.7404580152671756,1.5877862595419847,-1.297709923664122,-0.451416015625,-0.11083984375,-0.12109375,1.6727999999999998
1.7709923664122138,1.5419847328244274,-1.282442748091603,-0.45703125,-0.11376953125,-0.12255859375,1.6744999999999999
1.6030534351145038,1.6488549618320612,-1.3740458015267176,-0.4560546875,-0.11474609375,-0.122802734375,1.6762
1.5877862595419847,1.6030534351145038,-1.282442748091603,-0.454345703125,-0.105224609375,-0.11376953125,1.6779
1.4045801526717556,1.6488549618320612,-1.251908396946565,-0.45166015625,-0.1123046875,-0.11279296875,1.6796
1.2061068702290076,1.450381679389313,-1.450381679389313,-0.451904296875,-0.1123046875,-0.1142578125,1.6813
1.1603053435114503,1.4961832061068703,-1.3740458015267176,-0.451171875,-0.111083984375,-0.124755859375,1.6829999999999998
1.3740458015267176,1.2366412213740459,-1.3740458015267176,-0.45703125,-0.109130859375,-0.1181640625,1.6846999999999999
1.3740458015267176,1.1908396946564885,-1.5267175572519085,-0.457763671875,-0.111083984375,-0.111572265625,1.6864
1.4045801526717556,1.4198473282442747,-1.2213740458015268,-0.45361328125,-0.112060546875,-0.11279296875,1.6881
1.618320610687023,1.4198473282442747,-1.4961832061068703,-0.45166015625,-0.115966796875,-0.11279296875,1.6898
1.7251908396946565,1.0229007633587786,-1.4198473282442747,-0.45166015625,-0.11474609375,-0.11865234375,1.6915
1.5725190839694656,1.083969465648855,-1.4961832061068703,-0.454345703125,-0.111328125,-0.117919921875,1.6931999999999998
1.7251908396946565,1.3435114503816794,-1.3435114503816794,-0.453369140625,-0.116455078125,-0.11376953125,1.6948999999999999
1.6793893129770991,1.2061068702290076,-1.4809160305343512,-0.45068359375,-0.11181640625,-0.117431640625,1.6965999999999999
1.6793893129770991,1.2213740458015268,-1.5572519083969465,-0.45458984375,-0.113037109375,-0.11962890625,1.6983
1.6030534351145038,1.2213740458015268,-1.6946564885496183,-0.450439453125,-0.1162109375,-0.117431640625,1.7
1.3740458015267176,1.0534351145038168,-1.5114503816793894,-0.453125,-0.1103515625,-0.117919921875,1.7017
1.251908396946565,1.1603053435114503,-1.5572519083969465,-0.452880859375,-0.112060546875,-0.112548828125,1.7033999999999998
1.251908396946565,1.2061068702290076,-1.5877862595419847,-0.456787109375,-0.11669921875,-0.116943359375,1.7050999999999998
0.9312977099236641,1.0229007633587786,-1.6641221374045803,-0.4560546875,-0.109619140625,-0.119384765625,1.7067999999999999
1.1450381679389312,1.251908396946565,-1.4045801526717556,-0.45361328125,-0.109619140625,-0.117919921875,1.7085
0.9007633587786259,1.0381679389312977,-1.4198473282442747,-0.456787109375,-0.111083984375,-0.109130859375,1.7102
0.5801526717557252,1.3435114503816794,-1.465648854961832,-0.45458984375,-0.113525390625,-0.108154296875,1.7119
0.7175572519083969,1.297709923664122,-1.6641221374045803,-0.45458984375,-0.11572265625,-0.112548828125,1.7136
0.42748091603053434,1.1908396946564885,-1.6030534351145038,-0.453125,-0.1123046875,-0.12353515625,1.7152999999999998
0.33587786259541985,0.9923664122137404,-1.4809160305343512,-0.4560546875,-0.116943359375,-0.11572265625,1.7169999999999999
0.42748091603053434,0.9465648854961832,-1.4351145038167938,-0.456298828125,-0.114013671875,-0.11865234375,1.7187
0.16793893129770993,0.8244274809160306,-1.5725190839694656,-0.451416015625,-0.112548828125,-0.119384765625,1.7204
0.32061068702290074,0.9312977099236641,-1.297709923664122,-0.458984375,-0.1123046875,-0.120849609375,1.7221
0.10687022900763359,1.0076335877862594,-1.4198473282442747,-0.45654296875,-0.111572265625,-0.12548828125,1.7238
0.22900763358778625,0.9923664122137404,-1.2213740458015268,-0.45361328125,-0.112548828125,-0.121826171875,1.7254999999999998
0.15267175572519084,0.916030534351145,-1.297709923664122,-0.456298828125,-0.112060546875,-0.117431640625,1.7271999999999998
0.3511450381679389,1.0381679389312977,-1.2366412213740459,-0.458740234375,-0.11865234375,-0.117919921875,1.7288999999999999
0.42748091603053434,1.1450381679389312,-1.3740458015267176,-0.459716796875,-0.11376953125,-0.120849609375,1.7306
0.366412213740458,1.297709923664122,-1.3282442748091603,-0.458984375,-0.114990234375,-0.117431640625,1.7323
0.5343511450381679,1.1755725190839694,-1.4045801526717556,-0.457275390625,-0.113037109375,-0.11962890625,1.734
0.4580152671755725,1.1603053435114503,-1.1145038167938932,-0.458984375,-0.11181640625,-0.11572265625,1.7356999999999998
0.4122137404580153,1.0687022900763359,-1.297709923664122,-0.45703125,-0.11279296875,-0.1181640625,1.7373999999999998
0.4732824427480916,1.3129770992366412,-1.1450381679389312,-0.458740234375,-0.112060546875,-0.120849609375,1.7390999999999999
0.6870229007633588,1.282442748091603,-1.1908396946564885,-0.457275390625,-0.11376953125,-0.120849609375,1.7408
0.916030534351145,1.0076335877862594,-1.2671755725190839,-0.453369140625,-0.111572265625,-0.11865234375,1.7425
0.5648854961832062,1.1450381679389312,-1.251908396946565,-0.459716796875,-0.111328125,-0.1181640625,1.7442
1.099236641221374,1.2671755725190839,-1.2366412213740459,-0.453369140625,-0.116455078125,-0.121826171875,1.7459
1.3893129770992367,1.282442748091603,-1.2671755725190839,-0.455322265625,-0.11474609375,-0.1201171875,1.7475999999999998
1.4961832061068703,1.282442748091603,-1.1908396946564885,-0.46044921875,-0.11181640625,-0.11328125,1.7492999999999999
1.8778625954198473,1.2366412213740459,-1.0229007633587786,-0.4638671875,-0.108642578125,-0.12353515625,1.751
1.83206106870229,1.3740458015267176,-1.3435114503816794,-0.4521484375,-0.108642578125,-0.12451171875,1.7527
1.9236641221374047,1.5267175572519085,-1.3435114503816794,-0.456298828125,-0.10986328125,-0.13134765625,1.7544
1.984732824427481,1.5877862595419847,-1.3435114503816794,-0.459716796875,-0.10693359375,-0.121826171875,1.7561
1.816793893129771,1.6641221374045803,-1.1450381679389312,-0.455810546875,-0.1142578125,-0.11962890625,1.7577999999999998
2.1068702290076335,1.5572519083969465,-1.3129770992366412,-0.45703125,-0.11181640625,-0.1162109375,1.7594999999999998
2.045801526717557,1.8625954198473282,-1.282442748091603,-0.45947265625,-0.11328125,-0.111083984375,1.7611999999999999
2.045801526717557,1.5419847328244274,-1.4045801526717556,-0.454345703125,-0.1162109375,-0.120361328125,1.7629
1.9083969465648856,1.5725190839694656,-1.4809160305343512,-0.459228515625,-0.1181640625,-0.116943359375,1.7646
1.7557251908396947,1.3893129770992367,-1.465648854961832,-0.457275390625,-0.114013671875,-0.112060546875,1.7663
1.4961832061068703,1.450381679389313,-1.3282442748091603,-0.45361328125,-0.113037109375,-0.122314453125,1.7679999999999998
1.7099236641221374,1.1297709923664123,-1.282442748091603,-0.450927734375,-0.113525390625,-0.123291015625,1.7696999999999998
1.5877862595419847,1.1908396946564885,-1.6793893129770991,-0.4521484375,-0.11083984375,-0.110595703125,1.7713999999999999
1.6793893129770991,1.1755725190839694,-1.6488549618320612,-0.4541015625,-0.11376953125,-0.11767578125,1.7731
1.83206106870229,0.8396946564885496,-1.5267175572519085,-0.454345703125,-0.109375,-0.11474609375,1.7748
1.816793893129771,0.9923664122137404,-1.816793893129771,-0.454833984375,-0.111572265625,-0.112548828125,1.7765
1.7709923664122138,0.9770992366412213,-1.7099236641221374,-0.4521484375,-0.116455078125,-0.123291015625,1.7782
2.0,1.099236641221374,-1.6641221374045803,-0.452880859375,-0.10986328125,-0.111083984375,1.7798999999999998
1.9389312977099236,0.9770992366412213,-1.6793893129770991,-0.45751953125,-0.112548828125,-0.114990234375,1.7815999999999999
1.8015267175572518,1.0534351145038168,-1.8625954198473282,-0.451171875,-0.112060546875,-0.121826171875,1.7832999999999999
