gyrox1,gyroy1,gyroz1,accelx1,accely1,accelz1,Time
-1.9083969465648856,1.984732824427481,-3.3740458015267176,0.066650390625,-0.190673828125,-0.5869140625,0.0
-1.7251908396946565,1.8015267175572518,-3.312977099236641,0.06494140625,-0.19140625,-0.58447265625,0.0017
-1.618320610687023,1.8625954198473282,-3.1603053435114505,0.065185546875,-0.189697265625,-0.590576171875,0.0034
-1.083969465648855,2.0,-3.114503816793893,0.061767578125,-0.188720703125,-0.597412109375,0.0050999999999999995
-0.916030534351145,1.786259541984733,-3.1297709923664123,0.06201171875,-0.18603515625,-0.601318359375,0.0068
-0.5801526717557252,1.5114503816793894,-3.0381679389312977,0.063720703125,-0.185546875,-0.58935546875,0.008499999999999999
-0.0916030534351145,1.6793893129770991,-2.9923664122137406,0.0634765625,-0.186767578125,-0.58837890625,0.010199999999999999
0.15267175572519084,1.5114503816793894,-3.053435114503817,0.060546875,-0.18505859375,-0.589111328125,0.011899999999999999
0.4732824427480916,1.4198473282442747,-2.763358778625954,0.061767578125,-0.187744140625,-0.59716796875,0.0136
0.5038167938931297,1.4198473282442747,-2.9923664122137406,0.06689453125,-0.187744140625,-0.58837890625,0.0153
0.5038167938931297,1.3129770992366412,-2.6106870229007635,0.072998046875,-0.179443359375,-0.585205078125,0.016999999999999998
0.549618320610687,1.5419847328244274,-2.732824427480916,0.069091796875,-0.182861328125,-0.586669921875,0.018699999999999998
0.3969465648854962,1.3740458015267176,-2.4732824427480917,0.065185546875,-0.1796875,-0.592529296875,0.020399999999999998
0.6717557251908397,1.1450381679389312,-2.351145038167939,0.069091796875,-0.184326171875,-0.580078125,0.022099999999999998
0.21374045801526717,1.3435114503816794,-2.16793893129771,0.069091796875,-0.185791015625,-0.571044921875,0.023799999999999998
0.07633587786259542,0.9465648854961832,-2.1374045801526718,0.065673828125,-0.18359375,-0.576416015625,0.0255
-0.21374045801526717,0.8244274809160306,-2.015267175572519,0.067626953125,-0.180908203125,-0.583740234375,0.0272
-0.3053435114503817,0.8396946564885496,-1.5725190839694656,0.06689453125,-0.1826171875,-0.578125,0.0289
-0.366412213740458,0.5190839694656488,-1.4045801526717556,0.063720703125,-0.18408203125,-0.578857421875,0.0306
-0.8091603053435115,0.48854961832061067,-1.3435114503816794,0.066650390625,-0.18603515625,-0.586669921875,0.032299999999999995
-0.8091603053435115,0.04580152671755725,-0.8091603053435115,0.0625,-0.175048828125,-0.583740234375,0.033999999999999996
-0.7175572519083969,0.13740458015267176,-0.33587786259541985,0.064697265625,-0.1787109375,-0.5859375,0.035699999999999996
-0.7786259541984732,0.21374045801526717,-0.15267175572519084,0.06689453125,-0.1865234375,-0.587158203125,0.037399999999999996
-0.8396946564885496,0.061068702290076333,0.0916030534351145,0.06689453125,-0.1806640625,-0.5859375,0.039099999999999996
-0.732824427480916,0.0,0.3511450381679389,0.065185546875,-0.179931640625,-0.58935546875,0.040799999999999996
-0.2748091603053435,-0.0916030534351145,0.6106870229007634,0.068603515625,-0.182373046875,-0.587890625,0.042499999999999996
-0.061068702290076333,-0.183206106870229,0.9007633587786259,0.066162109375,-0.181884765625,-0.576904296875,0.044199999999999996
0.07633587786259542,-0.2748091603053435,1.1450381679389312,0.065673828125,-0.18603515625,-0.587158203125,0.045899999999999996
0.1984732824427481,-0.2900763358778626,1.3129770992366412,0.0654296875,-0.18408203125,-0.58740234375,0.047599999999999996
0.5190839694656488,-0.32061068702290074,1.3740458015267176,0.065185546875,-0.18359375,-0.5830078125,0.0493
0.7480916030534351,-0.366412213740458,1.7099236641221374,0.06689453125,-0.185302734375,-0.5849609375,0.051
0.6412213740458015,-0.3816793893129771,1.7709923664122138,0.063720703125,-0.18798828125,-0.58740234375,0.0527
0.7938931297709924,-0.21374045801526717,1.8473282442748091,0.06591796875,-0.190185546875,-0.58154296875,0.0544
0.6412213740458015,-0.3053435114503817,1.9389312977099236,0.063232421875,-0.1904296875,-0.5830078125,0.0561
0.42748091603053434,-0.32061068702290074,1.984732824427481,0.061767578125,-0.1845703125,-0.584228515625,0.0578
0.3053435114503817,-0.44274809160305345,2.0,0.0615234375,-0.185791015625,-0.578857421875,0.0595
0.33587786259541985,-0.3511450381679389,2.0610687022900764,0.06591796875,-0.18798828125,-0.579345703125,0.0612
0.24427480916030533,-0.2748091603053435,1.9083969465648856,0.0625,-0.190673828125,-0.58154296875,0.0629
0.16793893129770993,-0.4122137404580153,1.8625954198473282,0.062255859375,-0.18994140625,-0.580322265625,0.06459999999999999
0.061068702290076333,-0.44274809160305345,1.8473282442748091,0.06298828125,-0.186279296875,-0.578369140625,0.0663
-0.04580152671755725,-0.6106870229007634,1.6946564885496183,0.058349609375,-0.1943359375,-0.583984375,0.06799999999999999
-0.16793893129770993,-0.549618320610687,1.5572519083969465,0.0595703125,-0.189208984375,-0.574462890625,0.0697
-0.3053435114503817,-0.44274809160305345,1.450381679389313,0.060546875,-0.19287109375,-0.591796875,0.07139999999999999
-0.4122137404580153,-0.7480916030534351,1.083969465648855,0.0634765625,-0.19482421875,-0.579833984375,0.0731
-0.5801526717557252,-0.3816793893129771,1.0381679389312977,0.061279296875,-0.188720703125,-0.57568359375,0.07479999999999999
-0.7022900763358778,-0.44274809160305345,0.8396946564885496,0.065185546875,-0.1953125,-0.587646484375,0.0765
-0.8091603053435115,-0.44274809160305345,0.8244274809160306,0.062255859375,-0.19775390625,-0.583740234375,0.07819999999999999
-1.1450381679389312,-0.4122137404580153,0.732824427480916,0.062255859375,-0.19873046875,-0.5791015625,0.0799
-1.0229007633587786,-0.0916030534351145,0.5954198473282443,0.063232421875,-0.193603515625,-0.5869140625,0.08159999999999999
-1.1450381679389312,0.0,0.32061068702290074,0.06201171875,-0.19970703125,-0.5791015625,0.0833
-1.1450381679389312,0.015267175572519083,0.32061068702290074,0.0634765625,-0.1962890625,-0.58349609375,0.08499999999999999
-1.1755725190839694,0.2900763358778626,0.42748091603053434,0.058837890625,-0.19970703125,-0.581298828125,0.0867
-1.4809160305343512,0.5343511450381679,0.15267175572519084,0.0517578125,-0.19482421875,-0.581787109375,0.08839999999999999
-1.5267175572519085,0.6412213740458015,0.3053435114503817,0.061279296875,-0.191650390625,-0.5771484375,0.0901
-1.6030534351145038,0.6870229007633588,0.4732824427480916,0.0595703125,-0.192138671875,-0.58154296875,0.09179999999999999
-1.3740458015267176,1.1603053435114503,0.12213740458015267,0.0576171875,-0.198486328125,-0.580810546875,0.0935
-1.5114503816793894,1.3435114503816794,0.2900763358778626,0.0625,-0.190185546875,-0.577880859375,0.09519999999999999
-1.251908396946565,1.282442748091603,0.1984732824427481,0.061767578125,-0.19580078125,-0.58447265625,0.0969
-1.2061068702290076,1.4045801526717556,0.0916030534351145,0.05908203125,-0.19384765625,-0.58740234375,0.0986
-1.1450381679389312,1.633587786259542,0.16793893129770993,0.0625,-0.19482421875,-0.57080078125,0.1003
-0.8549618320610687,1.618320610687023,0.2748091603053435,0.064208984375,-0.19482421875,-0.58251953125,0.102
-0.5648854961832062,1.7709923664122138,0.04580152671755725,0.065185546875,-0.197021484375,-0.579345703125,0.1037
-0.48854961832061067,1.7251908396946565,0.030534351145038167,0.0595703125,-0.196533203125,-0.583740234375,0.1054
-0.33587786259541985,1.8473282442748091,0.030534351145038167,0.060546875,-0.193115234375,-0.576904296875,0.1071
-0.015267175572519083,1.816793893129771,-0.0916030534351145,0.06298828125,-0.196533203125,-0.588134765625,0.1088
-0.061068702290076333,1.8931297709923665,-0.061068702290076333,0.06005859375,-0.18896484375,-0.58349609375,0.11049999999999999
0.15267175572519084,1.9236641221374047,-0.07633587786259542,0.065185546875,-0.18798828125,-0.58203125,0.1122
0.32061068702290074,1.8931297709923665,0.04580152671755725,0.0625,-0.189453125,-0.58056640625,0.11389999999999999
0.5648854961832062,1.9083969465648856,-0.21374045801526717,0.06591796875,-0.18701171875,-0.5859375,0.1156
0.732824427480916,2.0,-0.061068702290076333,0.064453125,-0.185302734375,-0.574951171875,0.11729999999999999
0.916030534351145,2.1068702290076335,-0.07633587786259542,0.072021484375,-0.18603515625,-0.578125,0.119
1.0381679389312977,2.198473282442748,-0.030534351145038167,0.06494140625,-0.182861328125,-0.58447265625,0.12069999999999999
1.1145038167938932,2.198473282442748,-0.13740458015267176,0.064208984375,-0.18994140625,-0.580078125,0.1224
1.2213740458015268,2.2290076335877864,-0.0916030534351145,0.06689453125,-0.189453125,-0.580810546875,0.12409999999999999
1.3129770992366412,2.213740458015267,0.13740458015267176,0.069580078125,-0.1884765625,-0.582275390625,0.1258
1.5725190839694656,2.33587786259542,0.1984732824427481,0.067626953125,-0.184814453125,-0.57763671875,0.1275
1.5114503816793894,2.1068702290076335,0.32061068702290074,0.068115234375,-0.18603515625,-0.574462890625,0.12919999999999998
1.5114503816793894,2.030534351145038,0.48854961832061067,0.072998046875,-0.186767578125,-0.584228515625,0.1309
1.6488549618320612,2.2748091603053435,0.4122137404580153,0.0693359375,-0.18359375,-0.57373046875,0.1326
1.5877862595419847,2.1068702290076335,0.549618320610687,0.066650390625,-0.181640625,-0.5771484375,0.1343
1.4198473282442747,1.8778625954198473,0.6412213740458015,0.068359375,-0.184326171875,-0.577392578125,0.13599999999999998
1.3740458015267176,1.816793893129771,0.6564885496183206,0.06591796875,-0.185302734375,-0.576416015625,0.1377
1.4809160305343512,1.7709923664122138,0.6412213740458015,0.06640625,-0.178955078125,-0.576171875,0.1394
1.5419847328244274,1.7251908396946565,0.7938931297709924,0.071044921875,-0.180908203125,-0.580810546875,0.1411
0.9770992366412213,1.7099236641221374,0.7633587786259542,0.07080078125,-0.18359375,-0.57958984375,0.14279999999999998
0.7480916030534351,1.5419847328244274,0.8854961832061069,0.065185546875,-0.184326171875,-0.5830078125,0.1445
0.9923664122137404,1.3740458015267176,0.8244274809160306,0.0693359375,-0.18798828125,-0.5830078125,0.1462
0.5954198473282443,1.5572519083969465,1.099236641221374,0.06689453125,-0.185791015625,-0.585205078125,0.1479
0.549618320610687,1.3435114503816794,0.7786259541984732,0.0634765625,-0.18896484375,-0.574951171875,0.14959999999999998
0.4580152671755725,1.1755725190839694,0.8854961832061069,0.062255859375,-0.18896484375,-0.5771484375,0.1513
0.3969465648854962,1.6030534351145038,0.7786259541984732,0.0634765625,-0.187255859375,-0.57861328125,0.153
0.16793893129770993,1.3435114503816794,0.9770992366412213,0.066162109375,-0.188720703125,-0.579833984375,0.1547
0.15267175572519084,1.2061068702290076,0.8396946564885496,0.065185546875,-0.18798828125,-0.585205078125,0.15639999999999998
0.10687022900763359,1.1908396946564885,0.916030534351145,0.064697265625,-0.196044921875,-0.586181640625,0.1581
0.366412213740458,1.5419847328244274,0.6564885496183206,0.060302734375,-0.195068359375,-0.5732421875,0.1598
0.3511450381679389,1.297709923664122,0.5954198473282443,0.0634765625,-0.1943359375,-0.593505859375,0.1615
0.2595419847328244,1.5572519083969465,0.33587786259541985,0.062744140625,-0.185791015625,-0.581298828125,0.16319999999999998
0.2900763358778626,1.4351145038167938,0.2900763358778626,0.06298828125,-0.193115234375,-0.58056640625,0.1649
0.366412213740458,1.450381679389313,0.061068702290076333,0.06396484375,-0.18994140625,-0.591064453125,0.1666
0.1984732824427481,1.3893129770992367,0.0916030534351145,0.061767578125,-0.190673828125,-0.587890625,0.16829999999999998
0.22900763358778625,1.5877862595419847,-0.07633587786259542,0.060302734375,-0.194091796875,-0.5771484375,0.16999999999999998
0.4580152671755725,1.5419847328244274,-0.13740458015267176,0.06494140625,-0.192138671875,-0.5908203125,0.1717
0.42748091603053434,1.7404580152671756,-0.4122137404580153,0.063232421875,-0.18896484375,-0.58349609375,0.1734
0.549618320610687,1.5114503816793894,-0.6106870229007634,0.063720703125,-0.19091796875,-0.584716796875,0.17509999999999998
0.3969465648854962,1.7557251908396947,-0.8396946564885496,0.067626953125,-0.19189453125,-0.572021484375,0.17679999999999998
0.5801526717557252,1.8473282442748091,-0.7633587786259542,0.065673828125,-0.1962890625,-0.5869140625,0.1785
0.48854961832061067,1.7557251908396947,-1.0076335877862594,0.064208984375,-0.192138671875,-0.582763671875,0.1802
0.3969465648854962,1.7557251908396947,-1.1145038167938932,0.0595703125,-0.1826171875,-0.58935546875,0.18189999999999998
0.5343511450381679,1.7251908396946565,-1.2671755725190839,0.065673828125,-0.1923828125,-0.58837890625,0.18359999999999999
0.7938931297709924,1.5267175572519085,-1.2061068702290076,0.064208984375,-0.18603515625,-0.579345703125,0.1853
0.5801526717557252,1.5267175572519085,-1.2213740458015268,0.066650390625,-0.188720703125,-0.583740234375,0.187
0.5801526717557252,1.4809160305343512,-1.083969465648855,0.06103515625,-0.1875,-0.580810546875,0.18869999999999998
0.916030534351145,1.3740458015267176,-1.4198473282442747,0.068603515625,-0.1884765625,-0.57421875,0.19039999999999999
0.916030534351145,1.2366412213740459,-1.3893129770992367,0.069580078125,-0.18896484375,-0.587890625,0.1921
0.916030534351145,1.2671755725190839,-1.7557251908396947,0.070068359375,-0.189453125,-0.57470703125,0.1938
0.9618320610687023,1.083969465648855,-1.6641221374045803,0.072509765625,-0.194091796875,-0.572998046875,0.19549999999999998
0.7786259541984732,0.9007633587786259,-1.8473282442748091,0.071044921875,-0.192138671875,-0.580322265625,0.1972
0.7633587786259542,0.8854961832061069,-1.786259541984733,0.0712890625,-0.191650390625,-0.574462890625,0.1989
0.7786259541984732,0.9618320610687023,-1.8778625954198473,0.068115234375,-0.190185546875,-0.5830078125,0.2006
0.5343511450381679,1.0229007633587786,-1.8473282442748091,0.06689453125,-0.195556640625,-0.583740234375,0.20229999999999998
0.6106870229007634,0.7022900763358778,-1.83206106870229,0.073486328125,-0.1904296875,-0.584716796875,0.204
0.732824427480916,0.7022900763358778,-1.8625954198473282,0.0673828125,-0.19287109375,-0.57763671875,0.2057
0.5648854961832062,0.8396946564885496,-1.7557251908396947,0.0712890625,-0.187744140625,-0.58544921875,0.2074
0.3053435114503817,0.9312977099236641,-1.7709923664122138,0.07177734375,-0.191162109375,-0.58251953125,0.20909999999999998
0.3511450381679389,0.9007633587786259,-1.7404580152671756,0.0732421875,-0.184814453125,-0.5771484375,0.2108
0.16793893129770993,1.1908396946564885,-1.4198473282442747,0.065185546875,-0.186279296875,-0.5849609375,0.2125
0.16793893129770993,1.1297709923664123,-1.4961832061068703,0.06640625,-0.18896484375,-0.59130859375,0.2142
0.4122137404580153,1.1450381679389312,-1.4045801526717556,0.06591796875,-0.18505859375,-0.58447265625,0.21589999999999998
0.42748091603053434,1.3435114503816794,-1.251908396946565,0.061279296875,-0.1884765625,-0.58447265625,0.2176
0.44274809160305345,1.5267175572519085,-1.099236641221374,0.064208984375,-0.183837890625,-0.579345703125,0.2193
0.8244274809160306,1.4961832061068703,-1.0381679389312977,0.066162109375,-0.185302734375,-0.5810546875,0.22099999999999997
0.7938931297709924,1.618320610687023,-0.9770992366412213,0.0654296875,-0.186767578125,-0.583251953125,0.22269999999999998
0.8702290076335878,1.4961832061068703,-1.0229007633587786,0.070556640625,-0.177978515625,-0.585205078125,0.2244
0.9618320610687023,1.7251908396946565,-0.6259541984732825,0.0673828125,-0.18017578125,-0.578857421875,0.2261
1.251908396946565,1.7709923664122138,-0.7633587786259542,0.0625,-0.185546875,-0.581787109375,0.22779999999999997
1.3435114503816794,1.8778625954198473,-0.44274809160305345,0.06689453125,-0.184326171875,-0.5791015625,0.22949999999999998
1.6030534351145038,1.9541984732824427,-0.42748091603053434,0.068359375,-0.1826171875,-0.58251953125,0.2312
1.5267175572519085,2.0,-0.42748091603053434,0.065185546875,-0.181640625,-0.585693359375,0.2329
1.8015267175572518,2.1068702290076335,-0.4580152671755725,0.064697265625,-0.1865234375,-0.583740234375,0.23459999999999998
1.9236641221374047,2.0916030534351147,-0.04580152671755725,0.06689453125,-0.18310546875,-0.586669921875,0.23629999999999998
1.984732824427481,2.1526717557251906,-0.2900763358778626,0.060791015625,-0.184814453125,-0.58544921875,0.238
2.1374045801526718,2.0763358778625953,-0.12213740458015267,0.065673828125,-0.1806640625,-0.57958984375,0.2397
2.1374045801526718,1.984732824427481,-0.07633587786259542,0.06494140625,-0.181884765625,-0.583984375,0.24139999999999998
2.6412213740458017,1.8473282442748091,-0.12213740458015267,0.066162109375,-0.1845703125,-0.584716796875,0.24309999999999998
2.946564885496183,1.8931297709923665,-0.3969465648854962,0.067626953125,-0.18359375,-0.581298828125,0.2448
2.6717557251908395,1.7404580152671756,-0.1984732824427481,0.069580078125,-0.183837890625,-0.5791015625,0.2465
2.7938931297709924,1.6946564885496183,-0.3816793893129771,0.063720703125,-0.182861328125,-0.579833984375,0.24819999999999998
3.145038167938931,1.633587786259542,-0.6259541984732825,0.058349609375,-0.185546875,-0.578125,0.24989999999999998
3.2519083969465647,1.5419847328244274,-0.6564885496183206,0.071533203125,-0.193603515625,-0.583251953125,0.2516
3.099236641221374,1.4961832061068703,-0.7480916030534351,0.070068359375,-0.1904296875,-0.5791015625,0.25329999999999997
3.1603053435114505,1.297709923664122,-0.8244274809160306,0.06298828125,-0.192138671875,-0.584716796875,0.255
3.068702290076336,1.1908396946564885,-0.8244274809160306,0.064208984375,-0.193115234375,-0.57763671875,0.2567
2.900763358778626,1.0381679389312977,-1.1755725190839694,0.0654296875,-0.19091796875,-0.578125,0.25839999999999996
2.763358778625954,0.9618320610687023,-1.083969465648855,0.0654296875,-0.192138671875,-0.574951171875,0.2601
2.4885496183206106,0.9465648854961832,-1.2366412213740459,0.067138671875,-0.194580078125,-0.579833984375,0.2618
2.4122137404580153,0.9312977099236641,-1.2671755725190839,0.062744140625,-0.18896484375,-0.57763671875,0.2635
2.2595419847328246,0.9007633587786259,-1.5419847328244274,0.06005859375,-0.191650390625,-0.581298828125,0.2652
1.9694656488549618,0.9007633587786259,-1.633587786259542,0.060302734375,-0.1943359375,-0.578125,0.26689999999999997
1.6793893129770991,0.9312977099236641,-1.8473282442748091,0.061767578125,-0.192138671875,-0.580078125,0.2686
1.4045801526717556,1.0229007633587786,-1.6641221374045803,0.06005859375,-0.195068359375,-0.58203125,0.2703
1.1450381679389312,0.916030534351145,-1.7709923664122138,0.06103515625,-0.190673828125,-0.581298828125,0.27199999999999996
1.2061068702290076,1.1297709923664123,-1.7404580152671756,0.06005859375,-0.193359375,-0.577880859375,0.2737
0.8549618320610687,1.2671755725190839,-1.8473282442748091,0.06396484375,-0.1982421875,-0.586669921875,0.2754
0.42748091603053434,1.0381679389312977,-1.8778625954198473,0.060546875,-0.197509765625,-0.574951171875,0.27709999999999996
0.5343511450381679,1.3740458015267176,-1.9389312977099236,0.061279296875,-0.190673828125,-0.583984375,0.2788
0.48854961832061067,1.5725190839694656,-1.8473282442748091,0.069580078125,-0.19091796875,-0.580322265625,0.28049999999999997
0.04580152671755725,1.5267175572519085,-1.8778625954198473,0.064697265625,-0.194091796875,-0.572509765625,0.2822
0.07633587786259542,1.7404580152671756,-1.8473282442748091,0.065185546875,-0.188232421875,-0.58154296875,0.2839
0.04580152671755725,1.5572519083969465,-1.9694656488549618,0.0654296875,-0.1923828125,-0.58544921875,0.28559999999999997
-0.015267175572519083,1.6946564885496183,-1.8015267175572518,0.065673828125,-0.1923828125,-0.582763671875,0.2873
0.015267175572519083,1.618320610687023,-1.984732824427481,0.06298828125,-0.19482421875,-0.578369140625,0.289
0.183206106870229,1.6488549618320612,-1.8625954198473282,0.058349609375,-0.19091796875,-0.5859375,0.29069999999999996
0.1984732824427481,1.618320610687023,-1.7557251908396947,0.061279296875,-0.189453125,-0.57861328125,0.2924
0.1984732824427481,1.5419847328244274,-2.0,0.064453125,-0.192138671875,-0.57861328125,0.2941
0.2748091603053435,1.4809160305343512,-1.8015267175572518,0.067626953125,-0.191162109375,-0.585693359375,0.2958
0.3969465648854962,1.3587786259541985,-1.7251908396946565,0.062744140625,-0.189453125,-0.57861328125,0.2975
0.3969465648854962,1.3587786259541985,-2.0610687022900764,0.067138671875,-0.187744140625,-0.569091796875,0.29919999999999997
0.3511450381679389,1.4351145038167938,-1.9236641221374047,0.07080078125,-0.188720703125,-0.57666015625,0.3009
0.42748091603053434,1.1755725190839694,-2.030534351145038,0.05859375,-0.1875,-0.582763671875,0.3026
0.24427480916030533,1.083969465648855,-2.015267175572519,0.0634765625,-0.189697265625,-0.5830078125,0.30429999999999996
0.6106870229007634,1.1297709923664123,-2.183206106870229,0.06982421875,-0.185302734375,-0.583984375,0.306
0.7175572519083969,0.9770992366412213,-2.1526717557251906,0.06494140625,-0.186767578125,-0.572998046875,0.3077
0.48854961832061067,0.8854961832061069,-2.2290076335877864,0.06689453125,-0.18505859375,-0.575927734375,0.3094
0.3969465648854962,0.8396946564885496,-2.33587786259542,0.066650390625,-0.185302734375,-0.57177734375,0.3111
0.732824427480916,0.7480916030534351,-2.4122137404580153,0.062744140625,-0.189453125,-0.583984375,0.31279999999999997
0.7175572519083969,0.7480916030534351,-2.3053435114503817,0.066650390625,-0.18505859375,-0.5849609375,0.3145
0.6259541984732825,0.5954198473282443,-2.4122137404580153,0.059814453125,-0.188232421875,-0.58154296875,0.3162
0.5801526717557252,0.8091603053435115,-2.351145038167939,0.0625,-0.18505859375,-0.58544921875,0.31789999999999996
0.7022900763358778,0.8244274809160306,-2.3053435114503817,0.062744140625,-0.18310546875,-0.5869140625,0.3196
0.9465648854961832,0.8549618320610687,-2.381679389312977,0.07177734375,-0.18603515625,-0.57763671875,0.3213
0.9007633587786259,0.8854961832061069,-2.351145038167939,0.062744140625,-0.18505859375,-0.582275390625,0.323
1.1908396946564885,0.8702290076335878,-2.198473282442748,0.064697265625,-0.188232421875,-0.588134765625,0.3247
1.3129770992366412,0.8396946564885496,-2.045801526717557,0.06201171875,-0.185791015625,-0.579833984375,0.32639999999999997
1.4961832061068703,0.9007633587786259,-1.816793893129771,0.062744140625,-0.182373046875,-0.58154296875,0.3281
1.5877862595419847,1.0076335877862594,-1.8778625954198473,0.06689453125,-0.187255859375,-0.582763671875,0.3298
1.7099236641221374,1.099236641221374,-1.5877862595419847,0.066162109375,-0.184326171875,-0.58154296875,0.33149999999999996
1.7557251908396947,0.9312977099236641,-1.618320610687023,0.0693359375,-0.184814453125,-0.58447265625,0.3332
1.6793893129770991,1.083969465648855,-1.6793893129770991,0.06640625,-0.187744140625,-0.58349609375,0.3349
1.9389312977099236,1.1297709923664123,-1.4198473282442747,0.066162109375,-0.18994140625,-0.58349609375,0.33659999999999995
2.1374045801526718,1.0229007633587786,-1.4198473282442747,0.063720703125,-0.1904296875,-0.581298828125,0.3383
2.381679389312977,1.099236641221374,-1.3129770992366412,0.06103515625,-0.1904296875,-0.58154296875,0.33999999999999997
2.4427480916030535,1.251908396946565,-1.2061068702290076,0.0634765625,-0.189697265625,-0.58544921875,0.3417
2.6717557251908395,1.3435114503816794,-1.297709923664122,0.06689453125,-0.189208984375,-0.587890625,0.3434
2.5343511450381677,1.4351145038167938,-1.2213740458015268,0.066650390625,-0.188232421875,-0.58544921875,0.34509999999999996
2.6259541984732824,1.3740458015267176,-1.1908396946564885,0.060302734375,-0.190185546875,-0.593505859375,0.3468
2.6564885496183206,1.4809160305343512,-0.9770992366412213,0.05859375,-0.1923828125,-0.58642578125,0.3485
2.8244274809160306,1.6793893129770991,-1.1755725190839694,0.0625,-0.192138671875,-0.5888671875,0.35019999999999996
2.717557251908397,1.83206106870229,-1.1145038167938932,0.0615234375,-0.1884765625,-0.592041015625,0.3519
2.946564885496183,1.816793893129771,-1.1145038167938932,0.060302734375,-0.189453125,-0.585205078125,0.35359999999999997
2.946564885496183,1.9389312977099236,-1.2061068702290076,0.066162109375,-0.1904296875,-0.5908203125,0.3553
2.687022900763359,1.816793893129771,-1.2061068702290076,0.0634765625,-0.185546875,-0.587158203125,0.357
2.7938931297709924,1.8473282442748091,-1.1145038167938932,0.060302734375,-0.19140625,-0.577880859375,0.35869999999999996
2.885496183206107,2.015267175572519,-1.0381679389312977,0.06201171875,-0.189208984375,-0.585693359375,0.3604
2.8091603053435112,2.015267175572519,-1.0229007633587786,0.06591796875,-0.1865234375,-0.58056640625,0.3621
2.7022900763358777,1.9236641221374047,-0.9618320610687023,0.06494140625,-0.188232421875,-0.574462890625,0.36379999999999996
2.4732824427480917,1.9541984732824427,-0.8396946564885496,0.067138671875,-0.192626953125,-0.58251953125,0.3655
2.5801526717557253,1.6793893129770991,-0.732824427480916,0.061279296875,-0.1943359375,-0.58935546875,0.36719999999999997
2.6717557251908395,1.8931297709923665,-0.9007633587786259,0.06005859375,-0.18505859375,-0.594970703125,0.3689
2.4732824427480917,1.7099236641221374,-0.8702290076335878,0.062255859375,-0.187744140625,-0.59033203125,0.3706
2.519083969465649,1.5114503816793894,-0.8091603053435115,0.0693359375,-0.190673828125,-0.58984375,0.37229999999999996
2.3969465648854964,1.5877862595419847,-0.9312977099236641,0.068115234375,-0.19384765625,-0.589599609375,0.374
2.6259541984732824,1.5114503816793894,-0.9770992366412213,0.0654296875,-0.19482421875,-0.592041015625,0.3757
2.564885496183206,1.4198473282442747,-0.916030534351145,0.06640625,-0.1845703125,-0.591064453125,0.37739999999999996
2.6717557251908395,1.0076335877862594,-0.9465648854961832,0.06201171875,-0.1923828125,-0.58935546875,0.3791
2.8091603053435112,1.083969465648855,-1.083969465648855,0.0634765625,-0.197021484375,-0.584228515625,0.38079999999999997
2.763358778625954,1.0534351145038168,-1.1450381679389312,0.06396484375,-0.197265625,-0.580322265625,0.38249999999999995
2.6717557251908395,0.8244274809160306,-1.2213740458015268,0.06103515625,-0.19482421875,-0.582763671875,0.3842
2.7480916030534353,0.5343511450381679,-1.2213740458015268,0.068359375,-0.1962890625,-0.585205078125,0.38589999999999997
2.7786259541984735,0.5954198473282443,-1.3435114503816794,0.0634765625,-0.19580078125,-0.58251953125,0.3876
2.9923664122137406,0.3511450381679389,-1.5725190839694656,0.065185546875,-0.196533203125,-0.583984375,0.3893
2.946564885496183,0.13740458015267176,-1.5725190839694656,0.064453125,-0.198486328125,-0.592041015625,0.39099999999999996
3.099236641221374,-0.13740458015267176,-1.816793893129771,0.067626953125,-0.19580078125,-0.586181640625,0.3927
3.053435114503817,-0.16793893129770993,-2.1068702290076335,0.06396484375,-0.19482421875,-0.581787109375,0.3944
2.9923664122137406,-0.3053435114503817,-2.351145038167939,0.0673828125,-0.19677734375,-0.5869140625,0.39609999999999995
2.9770992366412212,-0.061068702290076333,-2.3053435114503817,0.0615234375,-0.196533203125,-0.587890625,0.3978
3.0076335877862594,-0.10687022900763359,-2.687022900763359,0.064208984375,-0.193359375,-0.587158203125,0.39949999999999997
2.519083969465649,-0.07633587786259542,-2.7480916030534353,0.063232421875,-0.19873046875,-0.578369140625,0.4012
2.3053435114503817,-0.061068702290076333,-2.946564885496183,0.061767578125,-0.19091796875,-0.5859375,0.4029
2.030534351145038,0.015267175572519083,-3.1297709923664123,0.068115234375,-0.192138671875,-0.579345703125,0.40459999999999996
1.9541984732824427,0.10687022900763359,-3.3282442748091605,0.065185546875,-0.19091796875,-0.581787109375,0.4063
1.6793893129770991,-0.030534351145038167,-3.114503816793893,0.065185546875,-0.1884765625,-0.5888671875,0.408
1.3587786259541985,0.24427480916030533,-3.236641221374046,0.0693359375,-0.1875,-0.58984375,0.40969999999999995
1.3129770992366412,0.5343511450381679,-3.282442748091603,0.062744140625,-0.189208984375,-0.587646484375,0.4114
1.0687022900763359,0.4580152671755725,-3.3435114503816794,0.05810546875,-0.1904296875,-0.587646484375,0.41309999999999997
1.251908396946565,0.5801526717557252,-3.5572519083969465,0.0634765625,-0.191162109375,-0.576171875,0.4148
1.4198473282442747,0.9618320610687023,-3.435114503816794,0.071044921875,-0.190673828125,-0.595947265625,0.4165
1.3587786259541985,0.9923664122137404,-3.267175572519084,0.059814453125,-0.193359375,-0.584716796875,0.41819999999999996
1.297709923664122,1.0534351145038168,-3.3893129770992365,0.0634765625,-0.19482421875,-0.591552734375,0.4199
1.6946564885496183,1.297709923664122,-3.3740458015267176,0.0615234375,-0.190673828125,-0.58740234375,0.4216
1.6793893129770991,1.465648854961832,-3.3893129770992365,0.064697265625,-0.185791015625,-0.5859375,0.42329999999999995
2.16793893129771,1.4809160305343512,-3.099236641221374,0.0595703125,-0.191650390625,-0.587890625,0.425
2.1374045801526718,1.7709923664122138,-3.49618320610687,0.064208984375,-0.195068359375,-0.5908203125,0.42669999999999997
2.2595419847328246,1.786259541984733,-3.1297709923664123,0.06005859375,-0.182373046875,-0.58935546875,0.4284
2.3969465648854964,2.183206106870229,-3.0839694656488548,0.067626953125,-0.185791015625,-0.591552734375,0.4301
2.564885496183206,2.16793893129771,-2.763358778625954,0.06787109375,-0.188232421875,-0.59130859375,0.43179999999999996
2.854961832061069,2.0916030534351147,-2.854961832061069,0.071533203125,-0.18408203125,-0.587646484375,0.4335
3.0839694656488548,2.0,-2.7480916030534353,0.06787109375,-0.18017578125,-0.58984375,0.4352
3.3893129770992365,2.0,-2.50381679389313,0.066650390625,-0.1845703125,-0.58642578125,0.43689999999999996
3.2519083969465647,1.8625954198473282,-2.2595419847328246,0.06787109375,-0.183837890625,-0.57666015625,0.4386
3.435114503816794,1.816793893129771,-2.2595419847328246,0.0703125,-0.184326171875,-0.5869140625,0.44029999999999997
3.450381679389313,1.5725190839694656,-2.1374045801526718,0.069580078125,-0.17578125,-0.57666015625,0.44199999999999995
3.7251908396946565,1.5877862595419847,-2.0610687022900764,0.073486328125,-0.17724609375,-0.5791015625,0.4437
3.7404580152671754,1.3435114503816794,-1.7709923664122138,0.072998046875,-0.181884765625,-0.586181640625,0.44539999999999996
3.7404580152671754,1.1603053435114503,-1.7709923664122138,0.0703125,-0.185302734375,-0.587890625,0.4471
3.83206106870229,1.1145038167938932,-1.3435114503816794,0.07275390625,-0.180419921875,-0.580322265625,0.4488
3.877862595419847,0.8702290076335878,-1.3129770992366412,0.0703125,-0.177734375,-0.588134765625,0.45049999999999996
3.49618320610687,0.7633587786259542,-1.1755725190839694,0.071044921875,-0.17626953125,-0.584716796875,0.4522
3.633587786259542,0.6106870229007634,-0.9007633587786259,0.069580078125,-0.17626953125,-0.57666015625,0.45389999999999997
3.5419847328244276,0.48854961832061067,-0.6412213740458015,0.06787109375,-0.178955078125,-0.585205078125,0.45559999999999995
3.267175572519084,0.44274809160305345,-0.48854961832061067,0.069091796875,-0.180419921875,-0.57861328125,0.4573
3.1603053435114505,0.3053435114503817,-0.1984732824427481,0.072265625,-0.185302734375,-0.576171875,0.45899999999999996
2.7938931297709924,-0.0916030534351145,-0.16793893129770993,0.0751953125,-0.1806640625,-0.58642578125,0.4607
2.885496183206107,-0.12213740458015267,0.13740458015267176,0.072509765625,-0.186279296875,-0.583740234375,0.4624
2.732824427480916,-0.2748091603053435,0.42748091603053434,0.068115234375,-0.182861328125,-0.58984375,0.46409999999999996
2.7938931297709924,-0.2900763358778626,0.44274809160305345,0.0703125,-0.183349609375,-0.58544921875,0.4658
2.6106870229007635,-0.12213740458015267,0.2748091603053435,0.0634765625,-0.190673828125,-0.585205078125,0.46749999999999997
2.519083969465649,-0.44274809160305345,0.6870229007633588,0.068359375,-0.1904296875,-0.58203125,0.46919999999999995
2.4122137404580153,-0.3969465648854962,0.44274809160305345,0.063232421875,-0.189208984375,-0.5830078125,0.4709
2.381679389312977,-0.366412213740458,0.6870229007633588,0.06787109375,-0.189697265625,-0.579345703125,0.47259999999999996
2.381679389312977,-0.33587786259541985,0.5648854961832062,0.067138671875,-0.1943359375,-0.584716796875,0.4743
2.5343511450381677,-0.3053435114503817,0.7480916030534351,0.062744140625,-0.193115234375,-0.58251953125,0.476
2.381679389312977,-0.2900763358778626,0.6564885496183206,0.059326171875,-0.1943359375,-0.583984375,0.47769999999999996
2.5801526717557253,-0.1984732824427481,0.4122137404580153,0.0625,-0.19384765625,-0.592041015625,0.4794
2.381679389312977,-0.3053435114503817,0.4122137404580153,0.060546875,-0.19287109375,-0.59765625,0.48109999999999997
2.5801526717557253,-0.3816793893129771,0.5190839694656488,0.05859375,-0.197265625,-0.584716796875,0.48279999999999995
2.4732824427480917,-0.1984732824427481,0.0916030534351145,0.06103515625,-0.19873046875,-0.58349609375,0.4845
2.6106870229007635,-0.12213740458015267,-0.015267175572519083,0.0654296875,-0.19921875,-0.584716796875,0.48619999999999997
2.2900763358778624,-0.21374045801526717,-0.1984732824427481,0.0615234375,-0.197509765625,-0.587890625,0.4879
2.2290076335877864,-0.0916030534351145,-0.2595419847328244,0.06298828125,-0.198974609375,-0.5849609375,0.4896
2.122137404580153,0.0916030534351145,-0.4580152671755725,0.0654296875,-0.19482421875,-0.587646484375,0.49129999999999996
1.6641221374045803,-0.07633587786259542,-0.7022900763358778,0.06494140625,-0.197021484375,-0.585205078125,0.493
1.7251908396946565,0.0,-0.7938931297709924,0.065185546875,-0.19287109375,-0.59423828125,0.4947
1.2671755725190839,0.13740458015267176,-1.0076335877862594,0.065673828125,-0.196044921875,-0.58203125,0.49639999999999995
1.099236641221374,0.183206106870229,-1.297709923664122,0.060791015625,-0.199462890625,-0.58935546875,0.4981
1.2061068702290076,0.3053435114503817,-1.297709923664122,0.0634765625,-0.20068359375,-0.58349609375,0.49979999999999997
0.8702290076335878,0.0916030534351145,-1.5572519083969465,0.062744140625,-0.19580078125,-0.586181640625,0.5015
0.42748091603053434,0.183206106870229,-1.6946564885496183,0.060302734375,-0.196044921875,-0.587890625,0.5032
0.13740458015267176,0.22900763358778625,-1.7709923664122138,0.064208984375,-0.19482421875,-0.592529296875,0.5049
0.1984732824427481,0.33587786259541985,-1.7709923664122138,0.06591796875,-0.19287109375,-0.587890625,0.5065999999999999
-0.07633587786259542,0.366412213740458,-1.9541984732824427,0.06787109375,-0.197021484375,-0.5869140625,0.5083
-0.48854961832061067,0.3053435114503817,-1.8931297709923665,0.0634765625,-0.196044921875,-0.588623046875,0.51
-0.42748091603053434,0.42748091603053434,-1.984732824427481,0.06689453125,-0.196533203125,-0.58544921875,0.5116999999999999
-0.9007633587786259,0.42748091603053434,-2.1068702290076335,0.0654296875,-0.1923828125,-0.58642578125,0.5134
-0.9312977099236641,0.4580152671755725,-2.015267175572519,0.0693359375,-0.1962890625,-0.588623046875,0.5151
-0.9465648854961832,0.2748091603053435,-1.984732824427481,0.066162109375,-0.189208984375,-0.585693359375,0.5167999999999999
-0.9312977099236641,0.1984732824427481,-1.9541984732824427,0.060791015625,-0.192138671875,-0.582763671875,0.5185
-0.9465648854961832,0.13740458015267176,-1.816793893129771,0.062744140625,-0.18701171875,-0.583251953125,0.5202
-0.7938931297709924,0.1984732824427481,-2.1068702290076335,0.0615234375,-0.189453125,-0.5859375,0.5218999999999999
-0.8702290076335878,0.183206106870229,-1.8473282442748091,0.05908203125,-0.18701171875,-0.58544921875,0.5236
-0.7938931297709924,-0.061068702290076333,-2.045801526717557,0.06494140625,-0.185302734375,-0.58740234375,0.5253
-0.32061068702290074,-0.183206106870229,-1.6488549618320612,0.0625,-0.18701171875,-0.576904296875,0.527
0.015267175572519083,-0.13740458015267176,-1.8015267175572518,0.06689453125,-0.190185546875,-0.59033203125,0.5287
0.24427480916030533,-0.0916030534351145,-1.7251908396946565,0.064208984375,-0.18896484375,-0.580810546875,0.5304
0.8091603053435115,-0.3816793893129771,-1.9694656488549618,0.061279296875,-0.18994140625,-0.58740234375,0.5321
1.2213740458015268,-0.4122137404580153,-1.618320610687023,0.062255859375,-0.1845703125,-0.588134765625,0.5337999999999999
1.4809160305343512,-0.42748091603053434,-1.9236641221374047,0.0654296875,-0.1845703125,-0.58740234375,0.5355
1.8778625954198473,-0.7022900763358778,-1.83206106870229,0.0625,-0.181884765625,-0.586181640625,0.5372
2.427480916030534,-0.549618320610687,-1.6641221374045803,0.0615234375,-0.18115234375,-0.583251953125,0.5388999999999999
2.7480916030534353,-0.5190839694656488,-1.8015267175572518,0.064208984375,-0.18359375,-0.590087890625,0.5406
3.267175572519084,-0.5343511450381679,-1.7404580152671756,0.066162109375,-0.186767578125,-0.57568359375,0.5423
3.5877862595419847,-0.4122137404580153,-1.6641221374045803,0.06689453125,-0.1806640625,-0.57763671875,0.5439999999999999
3.816793893129771,-0.4580152671755725,-1.7099236641221374,0.063232421875,-0.180908203125,-0.57568359375,0.5457
4.0,-0.4580152671755725,-1.4961832061068703,0.05810546875,-0.183837890625,-0.586181640625,0.5474
4.0,-0.33587786259541985,-1.4961832061068703,0.0625,-0.185302734375,-0.583984375,0.5490999999999999
4.0458015267175576,-0.2748091603053435,-1.251908396946565,0.061767578125,-0.18017578125,-0.588623046875,0.5508
4.106870229007634,-0.22900763358778625,-1.2213740458015268,0.0576171875,-0.182373046875,-0.58251953125,0.5525
4.0458015267175576,-0.16793893129770993,-1.2213740458015268,0.062744140625,-0.18310546875,-0.582275390625,0.5541999999999999
3.9236641221374047,-0.061068702290076333,-1.3129770992366412,0.06103515625,-0.182373046875,-0.585693359375,0.5559
3.969465648854962,0.015267175572519083,-0.9770992366412213,0.057373046875,-0.183349609375,-0.58544921875,0.5576
4.122137404580153,-0.2595419847328244,-1.1145038167938932,0.059326171875,-0.186279296875,-0.580322265625,0.5593
4.015267175572519,-0.183206106870229,-1.1297709923664123,0.061767578125,-0.1796875,-0.578125,0.5609999999999999
3.9083969465648853,0.10687022900763359,-1.0534351145038168,0.058837890625,-0.18408203125,-0.572509765625,0.5627
3.9236641221374047,0.0,-0.9770992366412213,0.065673828125,-0.183837890625,-0.58251953125,0.5644
3.83206106870229,0.04580152671755725,-0.8702290076335878,0.06494140625,-0.1865234375,-0.588623046875,0.5660999999999999
3.969465648854962,-0.030534351145038167,-0.9465648854961832,0.064697265625,-0.1875,-0.5771484375,0.5678
4.076335877862595,0.0916030534351145,-0.9465648854961832,0.064208984375,-0.189208984375,-0.582763671875,0.5695
4.076335877862595,0.015267175572519083,-0.7175572519083969,0.062744140625,-0.1884765625,-0.565673828125,0.5711999999999999
3.7709923664122136,0.015267175572519083,-0.8854961832061069,0.063720703125,-0.184326171875,-0.584716796875,0.5729
3.7404580152671754,0.13740458015267176,-0.732824427480916,0.05859375,-0.187744140625,-0.58056640625,0.5746
3.66412213740458,0.21374045801526717,-1.0687022900763359,0.064208984375,-0.191162109375,-0.58349609375,0.5762999999999999
3.3587786259541983,0.16793893129770993,-1.0229007633587786,0.06298828125,-0.1923828125,-0.580322265625,0.578
3.5267175572519083,0.0916030534351145,-0.9465648854961832,0.05908203125,-0.19482421875,-0.58203125,0.5797
3.267175572519084,0.2595419847328244,-0.8549618320610687,0.0634765625,-0.201416015625,-0.581298828125,0.5813999999999999
3.2061068702290076,0.2748091603053435,-1.0229007633587786,0.0615234375,-0.201171875,-0.578857421875,0.5831
3.053435114503817,0.366412213740458,-1.0687022900763359,0.05908203125,-0.197265625,-0.58544921875,0.5848
3.053435114503817,0.4732824427480916,-1.1297709923664123,0.056884765625,-0.199462890625,-0.586181640625,0.5865
2.595419847328244,0.44274809160305345,-1.1145038167938932,0.0576171875,-0.19970703125,-0.58740234375,0.5882
2.3969465648854964,0.42748091603053434,-1.2671755725190839,0.060791015625,-0.201171875,-0.583740234375,0.5899
2.16793893129771,0.42748091603053434,-1.1908396946564885,0.05908203125,-0.196044921875,-0.589599609375,0.5916
2.1068702290076335,0.5801526717557252,-1.3740458015267176,0.0615234375,-0.20166015625,-0.5810546875,0.5932999999999999
2.0610687022900764,0.7786259541984732,-1.4045801526717556,0.06298828125,-0.20166015625,-0.578125,0.595
1.8015267175572518,0.8244274809160306,-1.5419847328244274,0.060546875,-0.197021484375,-0.586181640625,0.5967
1.3587786259541985,0.8854961832061069,-1.6641221374045803,0.06005859375,-0.19677734375,-0.5810546875,0.5983999999999999
1.282442748091603,0.8854961832061069,-1.6946564885496183,0.05859375,-0.199951171875,-0.58056640625,0.6001
0.8702290076335878,0.9770992366412213,-2.0,0.06298828125,-0.201904296875,-0.59130859375,0.6018
0.6259541984732825,1.282442748091603,-2.0763358778625953,0.057861328125,-0.197021484375,-0.583740234375,0.6034999999999999
0.4580152671755725,1.297709923664122,-2.2595419847328246,0.0576171875,-0.19921875,-0.58203125,0.6052
-0.0916030534351145,1.282442748091603,-2.198473282442748,0.060302734375,-0.197265625,-0.597412109375,0.6069
-0.21374045801526717,1.3740458015267176,-2.213740458015267,0.06005859375,-0.198974609375,-0.588623046875,0.6085999999999999
-0.3816793893129771,1.5419847328244274,-2.50381679389313,0.06201171875,-0.1962890625,-0.579345703125,0.6103
-0.7175572519083969,1.5419847328244274,-2.33587786259542,0.055419921875,-0.19970703125,-0.576904296875,0.612
-1.1297709923664123,1.7404580152671756,-2.595419847328244,0.05810546875,-0.19482421875,-0.5859375,0.6136999999999999
-1.2366412213740459,1.7251908396946565,-2.6717557251908395,0.06005859375,-0.196044921875,-0.583984375,0.6154
-1.1603053435114503,1.83206106870229,-2.6412213740458017,0.05712890625,-0.196044921875,-0.587890625,0.6171
-1.2366412213740459,1.8625954198473282,-2.687022900763359,0.063720703125,-0.1904296875,-0.57958984375,0.6188
-1.3435114503816794,2.0,-2.717557251908397,0.06005859375,-0.195068359375,-0.581298828125,0.6204999999999999
-1.3587786259541985,1.8778625954198473,-3.0229007633587788,0.055908203125,-0.197021484375,-0.588134765625,0.6222
-1.282442748091603,2.122137404580153,-3.0381679389312977,0.056884765625,-0.19775390625,-0.59130859375,0.6239
-1.2061068702290076,1.984732824427481,-2.900763358778626,0.061279296875,-0.19140625,-0.580078125,0.6255999999999999
-1.1755725190839694,2.2442748091603053,-3.2519083969465647,0.064697265625,-0.197021484375,-0.580322265625,0.6273
-1.0229007633587786,2.0763358778625953,-3.053435114503817,0.06298828125,-0.192626953125,-0.59326171875,0.629
-1.1297709923664123,1.8778625954198473,-2.9770992366412212,0.0654296875,-0.197021484375,-0.58544921875,0.6306999999999999
-1.0381679389312977,2.1374045801526718,-2.900763358778626,0.060302734375,-0.18994140625,-0.572265625,0.6324
-0.8854961832061069,2.1526717557251906,-3.068702290076336,0.0615234375,-0.18798828125,-0.580078125,0.6341
-0.8244274809160306,1.83206106870229,-3.0229007633587788,0.063720703125,-0.189208984375,-0.584228515625,0.6357999999999999
-0.8091603053435115,1.9541984732824427,-3.099236641221374,0.06591796875,-0.188232421875,-0.581787109375,0.6375
-0.5648854961832062,2.045801526717557,-3.2213740458015265,0.06298828125,-0.184814453125,-0.587646484375,0.6392
-0.549618320610687,2.0763358778625953,-3.099236641221374,0.065673828125,-0.1904296875,-0.585205078125,0.6408999999999999
-0.32061068702290074,2.015267175572519,-2.9160305343511452,0.0615234375,-0.193359375,-0.580810546875,0.6426
-0.2748091603053435,2.0610687022900764,-3.0229007633587788,0.05859375,-0.184326171875,-0.577880859375,0.6443
-0.04580152671755725,2.045801526717557,-2.9618320610687023,0.06787109375,-0.18603515625,-0.5908203125,0.646
-0.04580152671755725,1.9236641221374047,-2.8244274809160306,0.066162109375,-0.18359375,-0.589599609375,0.6476999999999999
-0.15267175572519084,2.0763358778625953,-2.7022900763358777,0.0673828125,-0.18505859375,-0.587890625,0.6494
0.2595419847328244,2.030534351145038,-2.763358778625954,0.06787109375,-0.18359375,-0.59033203125,0.6511
0.183206106870229,1.9389312977099236,-2.6564885496183206,0.06689453125,-0.1845703125,-0.5849609375,0.6527999999999999
0.3053435114503817,1.9083969465648856,-2.4122137404580153,0.062255859375,-0.1826171875,-0.589599609375,0.6545
0.2748091603053435,1.9083969465648856,-2.351145038167939,0.063232421875,-0.182861328125,-0.595703125,0.6562
0.2595419847328244,1.8931297709923665,-2.2442748091603053,0.067138671875,-0.18603515625,-0.576904296875,0.6578999999999999
0.4580152671755725,1.786259541984733,-2.16793893129771,0.064453125,-0.185546875,-0.58740234375,0.6596
0.2595419847328244,2.0,-1.9236641221374047,0.0634765625,-0.18310546875,-0.588623046875,0.6613
0.3816793893129771,1.7709923664122138,-1.6488549618320612,0.068359375,-0.181884765625,-0.58544921875,0.6629999999999999
0.4732824427480916,1.786259541984733,-1.6946564885496183,0.064453125,-0.18115234375,-0.58203125,0.6647
0.3816793893129771,1.7251908396946565,-1.618320610687023,0.06884765625,-0.17919921875,-0.586181640625,0.6664
0.2900763358778626,1.5114503816793894,-1.297709923664122,0.062744140625,-0.1845703125,-0.590087890625,0.6680999999999999
0.2595419847328244,1.2213740458015268,-1.5419847328244274,0.0625,-0.18994140625,-0.581298828125,0.6698
0.6564885496183206,1.1145038167938932,-1.2366412213740459,0.0654296875,-0.18310546875,-0.583740234375,0.6715
0.5038167938931297,1.099236641221374,-1.297709923664122,0.061279296875,-0.1845703125,-0.585693359375,0.6731999999999999
0.3816793893129771,0.9770992366412213,-1.2061068702290076,0.066162109375,-0.18798828125,-0.580810546875,0.6748999999999999
0.3969465648854962,0.7633587786259542,-1.3893129770992367,0.064208984375,-0.194091796875,-0.58251953125,0.6766
0.3053435114503817,0.4732824427480916,-1.2061068702290076,0.064697265625,-0.1953125,-0.582275390625,0.6783
0.42748091603053434,0.5190839694656488,-1.3740458015267176,0.06689453125,-0.193359375,-0.5771484375,0.6799999999999999
0.2595419847328244,0.5038167938931297,-1.465648854961832,0.061279296875,-0.19140625,-0.5830078125,0.6817
-0.13740458015267176,0.2595419847328244,-1.4809160305343512,0.059814453125,-0.19189453125,-0.581298828125,0.6834
-0.3816793893129771,0.10687022900763359,-1.5572519083969465,0.06201171875,-0.19677734375,-0.582275390625,0.6850999999999999
-0.16793893129770993,-0.061068702290076333,-1.6793893129770991,0.06787109375,-0.19580078125,-0.584716796875,0.6868
-0.4732824427480916,-0.33587786259541985,-1.786259541984733,0.066650390625,-0.197998046875,-0.585205078125,0.6885
-0.6564885496183206,-0.5343511450381679,-1.8931297709923665,0.064453125,-0.196533203125,-0.573486328125,0.6901999999999999
-0.9618320610687023,-0.6106870229007634,-1.8931297709923665,0.0703125,-0.193115234375,-0.5771484375,0.6919
-1.3282442748091603,-0.7175572519083969,-2.0763358778625953,0.063232421875,-0.198486328125,-0.584228515625,0.6936
-1.7709923664122138,-0.9465648854961832,-1.8931297709923665,0.0673828125,-0.19873046875,-0.585205078125,0.6952999999999999
-2.213740458015267,-1.3282442748091603,-1.9694656488549618,0.066162109375,-0.193115234375,-0.582763671875,0.697
-2.8702290076335877,-1.251908396946565,-1.9083969465648856,0.06640625,-0.190673828125,-0.572998046875,0.6987
-3.2061068702290076,-1.5877862595419847,-2.1068702290076335,0.062255859375,-0.191162109375,-0.57763671875,0.7003999999999999
-3.7404580152671754,-1.450381679389313,-1.7099236641221374,0.06298828125,-0.190673828125,-0.573486328125,0.7021
-4.33587786259542,-1.633587786259542,-1.6488549618320612,0.067138671875,-0.191162109375,-0.5830078125,0.7038
-4.6106870229007635,-1.6641221374045803,-1.6641221374045803,0.061279296875,-0.191650390625,-0.587158203125,0.7055
-5.068702290076335,-1.7557251908396947,-1.618320610687023,0.06640625,-0.197265625,-0.58154296875,0.7071999999999999
-5.450381679389313,-1.6946564885496183,-1.5267175572519085,0.062744140625,-0.191650390625,-0.585205078125,0.7089
-5.633587786259542,-1.3893129770992367,-1.4809160305343512,0.066650390625,-0.19775390625,-0.578857421875,0.7106
-5.9541984732824424,-1.3435114503816794,-1.3282442748091603,0.067138671875,-0.189208984375,-0.58203125,0.7122999999999999
-6.030534351145038,-1.465648854961832,-1.3893129770992367,0.063720703125,-0.189697265625,-0.579345703125,0.714
-6.122137404580153,-1.5572519083969465,-1.282442748091603,0.06787109375,-0.189453125,-0.583251953125,0.7157
-6.091603053435114,-1.3282442748091603,-1.083969465648855,0.06787109375,-0.191162109375,-0.58447265625,0.7173999999999999
-5.801526717557252,-1.3740458015267176,-1.099236641221374,0.06689453125,-0.183837890625,-0.5908203125,0.7191
-5.66412213740458,-1.4045801526717556,-1.1297709923664123,0.06689453125,-0.187744140625,-0.589599609375,0.7208
-5.557251908396947,-1.1755725190839694,-1.0381679389312977,0.062744140625,-0.18505859375,-0.58837890625,0.7224999999999999
-5.343511450381679,-1.2061068702290076,-0.9770992366412213,0.0654296875,-0.18408203125,-0.5869140625,0.7242
-5.114503816793893,-0.9618320610687023,-0.8702290076335878,0.059326171875,-0.1884765625,-0.581787109375,0.7259
-4.870229007633588,-0.9618320610687023,-0.8854961832061069,0.0595703125,-0.186767578125,-0.58251953125,0.7275999999999999
-4.732824427480916,-0.7938931297709924,-0.916030534351145,0.06298828125,-0.186767578125,-0.589599609375,0.7293
-4.488549618320611,-0.6412213740458015,-0.8244274809160306,0.062744140625,-0.18603515625,-0.58984375,0.731
-4.305343511450381,-0.6717557251908397,-0.7786259541984732,0.057861328125,-0.18115234375,-0.5869140625,0.7326999999999999
-4.229007633587786,-0.5343511450381679,-0.8549618320610687,0.062255859375,-0.184326171875,-0.58935546875,0.7343999999999999
-3.9236641221374047,-0.6412213740458015,-0.6870229007633588,0.0625,-0.1806640625,-0.58837890625,0.7361
-3.5114503816793894,-0.44274809160305345,-1.0687022900763359,0.05712890625,-0.187744140625,-0.5830078125,0.7378
-3.3587786259541983,-0.32061068702290074,-0.916030534351145,0.057373046875,-0.185302734375,-0.578125,0.7394999999999999
-3.1297709923664123,-0.5343511450381679,-0.9923664122137404,0.0595703125,-0.183837890625,-0.577392578125,0.7412
-2.854961832061069,-0.7175572519083969,-0.6412213740458015,0.057861328125,-0.182861328125,-0.587646484375,0.7429
-2.8396946564885495,-0.5801526717557252,-0.8244274809160306,0.057861328125,-0.185302734375,-0.589599609375,0.7445999999999999
-2.7022900763358777,-0.7175572519083969,-0.8549618320610687,0.0595703125,-0.180908203125,-0.58154296875,0.7463
-2.7480916030534353,-0.7480916030534351,-0.7938931297709924,0.06396484375,-0.185302734375,-0.581787109375,0.748
-2.8091603053435112,-0.6259541984732825,-0.7022900763358778,0.067626953125,-0.183349609375,-0.588623046875,0.7496999999999999
-2.900763358778626,-0.7938931297709924,-0.916030534351145,0.060546875,-0.18994140625,-0.58251953125,0.7514
-2.6259541984732824,-0.7022900763358778,-0.5954198473282443,0.06298828125,-0.189208984375,-0.582763671875,0.7531
-2.7786259541984735,-0.6564885496183206,-0.5954198473282443,0.060791015625,-0.18701171875,-0.58935546875,0.7547999999999999
-2.7480916030534353,-0.6412213740458015,-0.5190839694656488,0.063720703125,-0.183349609375,-0.5869140625,0.7565
-2.900763358778626,-0.6259541984732825,-0.48854961832061067,0.067138671875,-0.187744140625,-0.59033203125,0.7582
-2.687022900763359,-0.366412213740458,-0.42748091603053434,0.064453125,-0.189453125,-0.5947265625,0.7598999999999999
-2.4885496183206106,-0.13740458015267176,-0.3053435114503817,0.067138671875,-0.187255859375,-0.603271484375,0.7615999999999999
-2.6259541984732824,-0.061068702290076333,-0.183206106870229,0.065673828125,-0.185791015625,-0.592041015625,0.7633
-2.4427480916030535,0.1984732824427481,-0.183206106870229,0.065185546875,-0.186767578125,-0.596923828125,0.7649999999999999
-2.2290076335877864,0.4732824427480916,-0.07633587786259542,0.06005859375,-0.183349609375,-0.59619140625,0.7666999999999999
-2.122137404580153,0.6870229007633588,-0.12213740458015267,0.059326171875,-0.18701171875,-0.595458984375,0.7684
-1.7404580152671756,1.0534351145038168,-0.061068702290076333,0.06494140625,-0.183837890625,-0.59912109375,0.7701
-1.6488549618320612,1.4809160305343512,0.061068702290076333,0.06103515625,-0.184326171875,-0.600341796875,0.7717999999999999
-1.5572519083969465,1.7251908396946565,0.3511450381679389,0.05908203125,-0.1845703125,-0.593505859375,0.7735
-1.5725190839694656,2.0610687022900764,0.5343511450381679,0.062255859375,-0.178466796875,-0.591552734375,0.7752
-1.5114503816793894,2.213740458015267,0.732824427480916,0.066650390625,-0.182373046875,-0.582763671875,0.7768999999999999
-1.3282442748091603,2.50381679389313,0.8549618320610687,0.058837890625,-0.177490234375,-0.582763671875,0.7786
-1.2061068702290076,2.564885496183206,1.2366412213740459,0.06201171875,-0.178466796875,-0.5849609375,0.7803
-1.1755725190839694,2.519083969465649,1.297709923664122,0.058349609375,-0.17626953125,-0.583251953125,0.7819999999999999
-1.099236641221374,2.6717557251908395,1.5267175572519085,0.06005859375,-0.1728515625,-0.578857421875,0.7837
-0.8702290076335878,2.6564885496183206,1.6793893129770991,0.061767578125,-0.173828125,-0.585205078125,0.7854
-0.5038167938931297,2.6106870229007635,2.030534351145038,0.063720703125,-0.17138671875,-0.576171875,0.7870999999999999
-0.2595419847328244,2.519083969465649,2.1374045801526718,0.063232421875,-0.174560546875,-0.58203125,0.7888
0.0,2.381679389312977,2.2595419847328246,0.062744140625,-0.1767578125,-0.5791015625,0.7905
0.3053435114503817,2.50381679389313,2.0763358778625953,0.061767578125,-0.176513671875,-0.5810546875,0.7921999999999999
0.7175572519083969,2.366412213740458,2.2290076335877864,0.064453125,-0.1796875,-0.57421875,0.7938999999999999
1.1145038167938932,2.16793893129771,2.2290076335877864,0.06787109375,-0.179443359375,-0.580322265625,0.7956
1.4198473282442747,2.1068702290076335,2.2442748091603053,0.066650390625,-0.177978515625,-0.578125,0.7973
1.9389312977099236,1.984732824427481,2.030534351145038,0.062744140625,-0.1806640625,-0.5771484375,0.7989999999999999
2.213740458015267,1.9083969465648856,2.16793893129771,0.064453125,-0.183349609375,-0.58349609375,0.8007
2.0916030534351147,1.8015267175572518,2.0,0.0595703125,-0.185302734375,-0.58154296875,0.8024
2.3206106870229006,1.7709923664122138,2.015267175572519,0.06640625,-0.18603515625,-0.58251953125,0.8040999999999999
2.6412213740458017,1.83206106870229,1.9694656488549618,0.0654296875,-0.182861328125,-0.584716796875,0.8058
2.7022900763358777,1.7557251908396947,1.9541984732824427,0.0634765625,-0.186279296875,-0.574951171875,0.8075
2.8244274809160306,1.6488549618320612,1.618320610687023,0.0595703125,-0.188720703125,-0.5859375,0.8091999999999999
3.0839694656488548,1.8625954198473282,1.7709923664122138,0.057373046875,-0.186767578125,-0.587890625,0.8109
2.9160305343511452,1.9694656488549618,1.6641221374045803,0.059326171875,-0.18896484375,-0.585205078125,0.8126
2.885496183206107,2.0763358778625953,1.5114503816793894,0.0576171875,-0.185546875,-0.580322265625,0.8142999999999999
3.145038167938931,2.1374045801526718,1.4351145038167938,0.0576171875,-0.193603515625,-0.59033203125,0.816
3.114503816793893,2.0763358778625953,1.5725190839694656,0.06103515625,-0.1923828125,-0.588623046875,0.8177
3.0839694656488548,2.16793893129771,1.2671755725190839,0.055908203125,-0.1875,-0.583740234375,0.8193999999999999
2.9770992366412212,2.2442748091603053,1.1755725190839694,0.061767578125,-0.193359375,-0.5791015625,0.8210999999999999
2.946564885496183,2.3206106870229006,1.2061068702290076,0.05712890625,-0.1953125,-0.583740234375,0.8228
2.9923664122137406,2.4580152671755724,1.0534351145038168,0.059814453125,-0.193603515625,-0.588623046875,0.8244999999999999
2.854961832061069,2.366412213740458,0.8244274809160306,0.0556640625,-0.188232421875,-0.58984375,0.8261999999999999
2.854961832061069,2.5801526717557253,0.9618320610687023,0.0576171875,-0.189208984375,-0.579833984375,0.8279
2.931297709923664,2.4427480916030535,0.8091603053435115,0.052978515625,-0.189208984375,-0.578125,0.8296
2.854961832061069,2.6259541984732824,0.8549618320610687,0.058349609375,-0.19384765625,-0.585693359375,0.8312999999999999
2.6106870229007635,2.6259541984732824,0.8396946564885496,0.055419921875,-0.187255859375,-0.586181640625,0.833
2.7786259541984735,2.427480916030534,0.4580152671755725,0.05859375,-0.191162109375,-0.5849609375,0.8347
3.0229007633587788,2.33587786259542,0.33587786259541985,0.055908203125,-0.195068359375,-0.58056640625,0.8363999999999999
2.885496183206107,2.2748091603053435,0.4122137404580153,0.060302734375,-0.19482421875,-0.580078125,0.8381
2.900763358778626,2.030534351145038,0.15267175572519084,0.05810546875,-0.194580078125,-0.586181640625,0.8398
3.435114503816794,2.1068702290076335,0.061068702290076333,0.064697265625,-0.193359375,-0.584228515625,0.8414999999999999
3.7404580152671754,2.2595419847328246,-0.3511450381679389,0.061279296875,-0.1943359375,-0.58349609375,0.8432
3.801526717557252,2.0916030534351147,-0.3816793893129771,0.063720703125,-0.19384765625,-0.5888671875,0.8449
4.152671755725191,1.8778625954198473,-0.6870229007633588,0.06103515625,-0.19189453125,-0.580810546875,0.8465999999999999
4.320610687022901,1.8473282442748091,-0.7480916030534351,0.06787109375,-0.19140625,-0.585205078125,0.8482999999999999
4.595419847328245,1.816793893129771,-0.9007633587786259,0.063720703125,-0.192626953125,-0.58984375,0.85
4.977099236641221,1.8931297709923665,-1.099236641221374,0.06884765625,-0.1884765625,-0.592041015625,0.8516999999999999
5.267175572519084,2.122137404580153,-1.465648854961832,0.05859375,-0.1904296875,-0.585205078125,0.8533999999999999
5.6183206106870225,2.213740458015267,-1.4809160305343512,0.06201171875,-0.18798828125,-0.578125,0.8551
5.984732824427481,2.198473282442748,-1.3893129770992367,0.061767578125,-0.18310546875,-0.58349609375,0.8568
5.984732824427481,2.366412213740458,-1.297709923664122,0.06201171875,-0.182373046875,-0.581298828125,0.8584999999999999
6.290076335877862,2.595419847328244,-1.4045801526717556,0.06201171875,-0.1845703125,-0.5888671875,0.8602
6.549618320610687,2.381679389312977,-1.4045801526717556,0.058349609375,-0.181884765625,-0.583740234375,0.8619
6.625954198473282,2.198473282442748,-1.3435114503816794,0.0634765625,-0.182861328125,-0.583984375,0.8635999999999999
6.809160305343512,2.4427480916030535,-1.450381679389313,0.064453125,-0.17626953125,-0.590576171875,0.8653
7.00763358778626,2.213740458015267,-1.465648854961832,0.0615234375,-0.179931640625,-0.576171875,0.867
7.465648854961832,2.045801526717557,-1.465648854961832,0.061279296875,-0.178466796875,-0.576416015625,0.8686999999999999
7.7251908396946565,1.9389312977099236,-1.4961832061068703,0.0673828125,-0.183837890625,-0.5830078125,0.8704
8.213740458015268,1.6641221374045803,-1.5114503816793894,0.0654296875,-0.17626953125,-0.57568359375,0.8721
8.01526717557252,1.5572519083969465,-1.6488549618320612,0.067626953125,-0.177978515625,-0.571044921875,0.8737999999999999
8.229007633587786,1.4351145038167938,-1.6030534351145038,0.064453125,-0.175537109375,-0.5732421875,0.8755
8.412213740458014,1.1755725190839694,-1.633587786259542,0.06787109375,-0.178466796875,-0.570068359375,0.8772
7.938931297709924,1.1145038167938932,-1.5725190839694656,0.06689453125,-0.18359375,-0.57666015625,0.8788999999999999
7.66412213740458,0.7480916030534351,-1.633587786259542,0.06494140625,-0.18701171875,-0.574951171875,0.8805999999999999
7.221374045801527,0.6564885496183206,-1.5267175572519085,0.06787109375,-0.17822265625,-0.57373046875,0.8823
6.99236641221374,0.33587786259541985,-1.633587786259542,0.067626953125,-0.1845703125,-0.56787109375,0.8839999999999999
6.442748091603053,0.1984732824427481,-1.5419847328244274,0.06640625,-0.1943359375,-0.5732421875,0.8856999999999999
6.015267175572519,-0.13740458015267176,-1.7099236641221374,0.06298828125,-0.194091796875,-0.571533203125,0.8874
5.374045801526718,-0.07633587786259542,-1.7099236641221374,0.067626953125,-0.190673828125,-0.57373046875,0.8891
4.793893129770993,-0.21374045801526717,-1.6641221374045803,0.063232421875,-0.19287109375,-0.57177734375,0.8907999999999999
4.320610687022901,-0.4122137404580153,-1.786259541984733,0.062255859375,-0.196044921875,-0.57177734375,0.8925
3.83206106870229,-0.33587786259541985,-1.83206106870229,0.068603515625,-0.19970703125,-0.572265625,0.8942
3.114503816793893,-0.3816793893129771,-1.6641221374045803,0.064697265625,-0.2021484375,-0.57470703125,0.8958999999999999
2.381679389312977,-0.3969465648854962,-1.9236641221374047,0.061767578125,-0.203857421875,-0.572265625,0.8976
1.8778625954198473,-0.42748091603053434,-2.030534351145038,0.06396484375,-0.21044921875,-0.580810546875,0.8993
1.297709923664122,-0.1984732824427481,-1.984732824427481,0.06298828125,-0.2080078125,-0.586181640625,0.9009999999999999
0.7633587786259542,-0.10687022900763359,-2.183206106870229,0.057861328125,-0.2109375,-0.582763671875,0.9027
0.22900763358778625,0.0916030534351145,-2.2748091603053435,0.058349609375,-0.201904296875,-0.57470703125,0.9044
-0.22900763358778625,-0.16793893129770993,-2.7480916030534353,0.06103515625,-0.208740234375,-0.58056640625,0.9060999999999999
-0.8702290076335878,0.10687022900763359,-2.6412213740458017,0.06005859375,-0.21435546875,-0.581787109375,0.9077999999999999
-1.1145038167938932,0.13740458015267176,-2.6564885496183206,0.059814453125,-0.20751953125,-0.586181640625,0.9095
-1.5572519083969465,0.24427480916030533,-2.7786259541984735,0.061279296875,-0.201904296875,-0.580322265625,0.9111999999999999
-1.984732824427481,0.5038167938931297,-3.2213740458015265,0.05419921875,-0.2060546875,-0.5830078125,0.9128999999999999
-2.3969465648854964,0.4122137404580153,-3.053435114503817,0.05810546875,-0.204345703125,-0.584716796875,0.9146
-2.732824427480916,0.2900763358778626,-3.3740458015267176,0.060546875,-0.20556640625,-0.583984375,0.9163
-3.1603053435114505,0.5343511450381679,-3.435114503816794,0.054443359375,-0.203125,-0.583251953125,0.9179999999999999
-3.618320610687023,0.4580152671755725,-3.5877862595419847,0.06103515625,-0.199462890625,-0.577880859375,0.9197
-3.7557251908396947,0.48854961832061067,-3.786259541984733,0.059326171875,-0.19873046875,-0.574951171875,0.9214
-4.030534351145038,0.6564885496183206,-3.9083969465648853,0.0615234375,-0.195556640625,-0.585693359375,0.9230999999999999
-4.564885496183206,0.7480916030534351,-4.076335877862595,0.060302734375,-0.195556640625,-0.583740234375,0.9248
-4.8396946564885495,0.6106870229007634,-4.290076335877862,0.060302734375,-0.190673828125,-0.587158203125,0.9265
-4.778625954198473,0.8854961832061069,-4.320610687022901,0.06005859375,-0.193115234375,-0.585693359375,0.9281999999999999
-4.885496183206107,0.9923664122137404,-4.427480916030534,0.060791015625,-0.18603515625,-0.586669921875,0.9299
-5.038167938931298,0.9312977099236641,-4.412213740458015,0.058349609375,-0.185546875,-0.58642578125,0.9316
-4.580152671755725,1.0381679389312977,-4.564885496183206,0.06640625,-0.18896484375,-0.575439453125,0.9332999999999999
-4.244274809160306,1.1297709923664123,-4.656488549618321,0.062744140625,-0.189208984375,-0.58154296875,0.9349999999999999
-3.8625954198473282,1.3587786259541985,-4.8396946564885495,0.06640625,-0.18505859375,-0.59619140625,0.9367
-3.450381679389313,1.5267175572519085,-4.763358778625954,0.0634765625,-0.18115234375,-0.578125,0.9383999999999999
-3.053435114503817,1.465648854961832,-4.870229007633588,0.0654296875,-0.18310546875,-0.572509765625,0.9400999999999999
-2.564885496183206,1.251908396946565,-4.8396946564885495,0.064453125,-0.183837890625,-0.58203125,0.9418
-1.8015267175572518,1.2671755725190839,-4.900763358778626,0.061279296875,-0.183349609375,-0.586669921875,0.9434999999999999
-1.4045801526717556,1.2213740458015268,-5.0534351145038165,0.065673828125,-0.18212890625,-0.58251953125,0.9451999999999999
-0.9618320610687023,1.4809160305343512,-5.083969465648855,0.064697265625,-0.179931640625,-0.579833984375,0.9469
-0.5954198473282443,1.1908396946564885,-5.068702290076335,0.065673828125,-0.180419921875,-0.58837890625,0.9486
-0.13740458015267176,1.1755725190839694,-5.251908396946565,0.069091796875,-0.187744140625,-0.580322265625,0.9502999999999999
0.183206106870229,0.9923664122137404,-5.145038167938932,0.0703125,-0.180908203125,-0.591064453125,0.952
0.3969465648854962,1.1297709923664123,-5.282442748091603,0.067138671875,-0.1826171875,-0.5908203125,0.9537
0.6412213740458015,1.083969465648855,-5.221374045801527,0.061279296875,-0.187255859375,-0.59228515625,0.9553999999999999
0.6106870229007634,1.0076335877862594,-5.343511450381679,0.067138671875,-0.18212890625,-0.58642578125,0.9571
1.1145038167938932,1.099236641221374,-5.206106870229007,0.069091796875,-0.18701171875,-0.591064453125,0.9588
1.1755725190839694,1.1908396946564885,-5.068702290076335,0.0703125,-0.18505859375,-0.593994140625,0.9604999999999999
1.1603053435114503,1.2061068702290076,-5.00763358778626,0.074462890625,-0.182861328125,-0.593505859375,0.9621999999999999
1.6030534351145038,1.2061068702290076,-4.900763358778626,0.067626953125,-0.18603515625,-0.580078125,0.9639
2.015267175572519,1.1450381679389312,-4.687022900763359,0.0625,-0.187744140625,-0.585693359375,0.9655999999999999
2.213740458015267,1.1450381679389312,-4.916030534351145,0.065673828125,-0.18408203125,-0.57666015625,0.9672999999999999
2.50381679389313,1.0076335877862594,-4.717557251908397,0.07080078125,-0.184326171875,-0.572998046875,0.969
2.6717557251908395,0.7633587786259542,-4.67175572519084,0.071044921875,-0.18798828125,-0.577880859375,0.9706999999999999
2.5343511450381677,0.7022900763358778,-4.625954198473282,0.064697265625,-0.18994140625,-0.582275390625,0.9723999999999999
2.3053435114503817,0.3816793893129771,-4.8396946564885495,0.075927734375,-0.193115234375,-0.580078125,0.9741
1.8778625954198473,0.183206106870229,-4.641221374045801,0.0703125,-0.19140625,-0.571533203125,0.9758
1.3587786259541985,0.030534351145038167,-4.641221374045801,0.071044921875,-0.1904296875,-0.583984375,0.9774999999999999
0.7022900763358778,-0.183206106870229,-4.5038167938931295,0.066650390625,-0.188720703125,-0.579833984375,0.9792
-0.030534351145038167,-0.24427480916030533,-4.534351145038168,0.06884765625,-0.196533203125,-0.585693359375,0.9809
-0.6870229007633588,-0.3969465648854962,-4.534351145038168,0.067626953125,-0.19091796875,-0.58984375,0.9825999999999999
-0.9465648854961832,-0.4732824427480916,-4.290076335877862,0.069580078125,-0.1865234375,-0.580810546875,0.9843
-1.3893129770992367,-0.42748091603053434,-4.198473282442748,0.068603515625,-0.190673828125,-0.58251953125,0.986
-1.5877862595419847,-0.5648854961832062,-4.290076335877862,0.060546875,-0.20263671875,-0.576416015625,0.9876999999999999
-1.7557251908396947,-0.6106870229007634,-4.152671755725191,0.06689453125,-0.19775390625,-0.580322265625,0.9894
-1.9083969465648856,-0.5801526717557252,-3.9389312977099236,0.06884765625,-0.19482421875,-0.58203125,0.9911
-1.8625954198473282,-0.549618320610687,-3.9083969465648853,0.0615234375,-0.194580078125,-0.583251953125,0.9927999999999999
-1.8778625954198473,-0.366412213740458,-3.877862595419847,0.072021484375,-0.197021484375,-0.578369140625,0.9944999999999999
-2.2442748091603053,-0.44274809160305345,-3.66412213740458,0.069091796875,-0.19921875,-0.57763671875,0.9962
-2.2748091603053435,-0.5954198473282443,-3.877862595419847,0.0625,-0.19384765625,-0.5849609375,0.9978999999999999
-2.6412213740458017,-0.4580152671755725,-3.6793893129770994,0.061279296875,-0.19873046875,-0.590087890625,0.9995999999999999
-3.618320610687023,-0.5954198473282443,-3.49618320610687,0.064453125,-0.1943359375,-0.578857421875,1.0012999999999999
-4.1679389312977095,-0.6106870229007634,-3.4198473282442747,0.0673828125,-0.19873046875,-0.584716796875,1.003
-4.824427480916031,-0.5648854961832062,-3.49618320610687,0.064208984375,-0.19677734375,-0.58935546875,1.0047
-5.694656488549619,-0.48854961832061067,-3.3893129770992365,0.0615234375,-0.193115234375,-0.585205078125,1.0064
-6.259541984732825,-0.6106870229007634,-3.4656488549618323,0.064208984375,-0.192138671875,-0.586181640625,1.0081
-7.236641221374046,-0.5190839694656488,-3.099236641221374,0.0654296875,-0.189208984375,-0.59228515625,1.0098
-7.770992366412214,-0.3969465648854962,-3.145038167938931,0.064453125,-0.185302734375,-0.588134765625,1.0114999999999998
-8.045801526717558,-0.44274809160305345,-3.145038167938931,0.059814453125,-0.189453125,-0.593994140625,1.0131999999999999
-8.16793893129771,-0.3816793893129771,-3.0229007633587788,0.0615234375,-0.18505859375,-0.589599609375,1.0149
-8.396946564885496,-0.24427480916030533,-2.7938931297709924,0.06298828125,-0.19140625,-0.58837890625,1.0166
-8.534351145038167,-0.2595419847328244,-2.8091603053435112,0.0634765625,-0.1884765625,-0.597412109375,1.0183
-8.213740458015268,-0.32061068702290074,-2.595419847328244,0.063720703125,-0.183837890625,-0.58935546875,1.02
-8.045801526717558,-0.24427480916030533,-2.854961832061069,0.06005859375,-0.18603515625,-0.58984375,1.0217
-7.923664122137405,-0.12213740458015267,-2.763358778625954,0.063232421875,-0.185302734375,-0.586669921875,1.0233999999999999
-7.801526717557252,-0.21374045801526717,-2.8091603053435112,0.06103515625,-0.18017578125,-0.585693359375,1.0251
-7.465648854961832,-0.183206106870229,-2.9160305343511452,0.0673828125,-0.1845703125,-0.59326171875,1.0268
-7.00763358778626,-0.24427480916030533,-2.900763358778626,0.06396484375,-0.18408203125,-0.5849609375,1.0285
-6.6106870229007635,-0.22900763358778625,-2.854961832061069,0.066162109375,-0.179443359375,-0.593505859375,1.0302
-6.641221374045801,-0.21374045801526717,-2.9618320610687023,0.06005859375,-0.178466796875,-0.587646484375,1.0319
-6.6106870229007635,-0.3969465648854962,-2.931297709923664,0.06640625,-0.176513671875,-0.587646484375,1.0335999999999999
-6.396946564885496,-0.1984732824427481,-3.1755725190839694,0.063720703125,-0.17822265625,-0.58837890625,1.0352999999999999
-6.427480916030534,-0.4732824427480916,-2.7938931297709924,0.065185546875,-0.178955078125,-0.589599609375,1.037
-6.3816793893129775,-0.5038167938931297,-3.053435114503817,0.060546875,-0.177734375,-0.589111328125,1.0387
-6.106870229007634,-0.33587786259541985,-3.114503816793893,0.06494140625,-0.177001953125,-0.591796875,1.0404
-6.061068702290076,-0.2595419847328244,-2.9923664122137406,0.063720703125,-0.175048828125,-0.591552734375,1.0421
-5.465648854961832,-0.3969465648854962,-2.885496183206107,0.06201171875,-0.17822265625,-0.6005859375,1.0437999999999998
-5.221374045801527,-0.13740458015267176,-2.9770992366412212,0.063232421875,-0.170654296875,-0.5908203125,1.0454999999999999
-4.99236641221374,-0.0916030534351145,-2.946564885496183,0.06591796875,-0.176025390625,-0.595703125,1.0472
-4.351145038167939,-0.015267175572519083,-3.145038167938931,0.061279296875,-0.176513671875,-0.59033203125,1.0489
-3.969465648854962,0.2748091603053435,-2.8396946564885495,0.0654296875,-0.178955078125,-0.585693359375,1.0506
-3.450381679389313,-0.015267175572519083,-2.8091603053435112,0.060302734375,-0.185791015625,-0.579833984375,1.0523
-3.1297709923664123,-0.015267175572519083,-2.595419847328244,0.064453125,-0.177734375,-0.586669921875,1.054
-3.2061068702290076,0.1984732824427481,-2.6106870229007635,0.063232421875,-0.1806640625,-0.59130859375,1.0556999999999999
-2.7938931297709924,0.2748091603053435,-2.6259541984732824,0.06201171875,-0.18017578125,-0.59130859375,1.0574
-2.595419847328244,0.015267175572519083,-2.6259541984732824,0.066650390625,-0.18212890625,-0.592529296875,1.0591
-2.5801526717557253,0.21374045801526717,-2.4122137404580153,0.0556640625,-0.181396484375,-0.59326171875,1.0608
-2.4122137404580153,0.32061068702290074,-2.4580152671755724,0.061767578125,-0.182373046875,-0.585205078125,1.0625
-2.3969465648854964,-0.030534351145038167,-2.4122137404580153,0.0654296875,-0.181884765625,-0.594482421875,1.0642
-2.3053435114503817,0.3053435114503817,-2.2900763358778624,0.061279296875,-0.18017578125,-0.58837890625,1.0658999999999998
-2.366412213740458,0.3053435114503817,-2.183206106870229,0.060302734375,-0.178955078125,-0.591552734375,1.0675999999999999
-2.198473282442748,0.07633587786259542,-2.2900763358778624,0.063720703125,-0.183349609375,-0.591796875,1.0693
-2.366412213740458,0.12213740458015267,-2.213740458015267,0.062744140625,-0.184814453125,-0.5849609375,1.071
-2.4427480916030535,-0.015267175572519083,-2.2595419847328246,0.0576171875,-0.187255859375,-0.582275390625,1.0727
-2.183206106870229,0.015267175572519083,-2.2595419847328246,0.05859375,-0.18701171875,-0.588134765625,1.0744
-2.1374045801526718,0.04580152671755725,-2.3969465648854964,0.06298828125,-0.1865234375,-0.5888671875,1.0760999999999998
-1.816793893129771,-0.0916030534351145,-2.030534351145038,0.06396484375,-0.18603515625,-0.58544921875,1.0777999999999999
-1.7709923664122138,-0.13740458015267176,-2.351145038167939,0.06494140625,-0.18603515625,-0.5947265625,1.0795
-1.5572519083969465,0.0,-2.4580152671755724,0.0615234375,-0.185791015625,-0.58837890625,1.0812
-1.251908396946565,0.21374045801526717,-2.5343511450381677,0.059814453125,-0.185546875,-0.5947265625,1.0829
-1.0534351145038168,0.2595419847328244,-2.366412213740458,0.05859375,-0.18896484375,-0.590576171875,1.0846
-0.8091603053435115,0.5038167938931297,-2.595419847328244,0.064208984375,-0.182861328125,-0.59375,1.0863
-0.8091603053435115,0.5190839694656488,-2.564885496183206,0.0615234375,-0.188720703125,-0.5869140625,1.0879999999999999
-0.732824427480916,0.4732824427480916,-2.8396946564885495,0.065185546875,-0.1884765625,-0.584716796875,1.0897
-0.7786259541984732,0.4732824427480916,-2.854961832061069,0.05810546875,-0.18896484375,-0.584716796875,1.0914
-0.6717557251908397,0.6259541984732825,-2.8091603053435112,0.064697265625,-0.186767578125,-0.5859375,1.0931
-0.5954198473282443,0.5648854961832062,-2.6717557251908395,0.062744140625,-0.179443359375,-0.59423828125,1.0948
-0.4580152671755725,0.3816793893129771,-2.732824427480916,0.059326171875,-0.179443359375,-0.591552734375,1.0965
-0.48854961832061067,0.3511450381679389,-2.8396946564885495,0.06494140625,-0.178466796875,-0.5947265625,1.0981999999999998
-0.5190839694656488,0.1984732824427481,-2.6564885496183206,0.06787109375,-0.177490234375,-0.58251953125,1.0998999999999999
-0.4580152671755725,0.10687022900763359,-2.198473282442748,0.06787109375,-0.18017578125,-0.58642578125,1.1016
-0.4732824427480916,0.22900763358778625,-2.381679389312977,0.065673828125,-0.177490234375,-0.59423828125,1.1033
-0.732824427480916,0.22900763358778625,-2.183206106870229,0.06494140625,-0.177490234375,-0.5947265625,1.105
-1.0381679389312977,-0.13740458015267176,-1.8473282442748091,0.067626953125,-0.174560546875,-0.58984375,1.1067
-0.9770992366412213,-0.12213740458015267,-1.7557251908396947,0.068115234375,-0.17919921875,-0.5927734375,1.1083999999999998
-1.450381679389313,-0.13740458015267176,-1.6488549618320612,0.06201171875,-0.171630859375,-0.588623046875,1.1100999999999999
-1.7709923664122138,-0.3053435114503817,-1.2061068702290076,0.071044921875,-0.17578125,-0.579833984375,1.1118
-1.6946564885496183,-0.3969465648854962,-1.1145038167938932,0.064697265625,-0.17529296875,-0.591552734375,1.1135
-1.816793893129771,-0.7022900763358778,-0.8396946564885496,0.0693359375,-0.173828125,-0.58251953125,1.1152
-1.6641221374045803,-0.9465648854961832,-0.549618320610687,0.068603515625,-0.178466796875,-0.592529296875,1.1169
-1.4809160305343512,-1.083969465648855,-0.5190839694656488,0.064697265625,-0.17724609375,-0.592529296875,1.1186
-1.0076335877862594,-0.9923664122137404,-0.44274809160305345,0.067626953125,-0.18115234375,-0.59228515625,1.1202999999999999
-0.8396946564885496,-1.0687022900763359,-0.2748091603053435,0.06640625,-0.17919921875,-0.58984375,1.1219999999999999
-0.183206106870229,-1.1603053435114503,-0.22900763358778625,0.0634765625,-0.180419921875,-0.587890625,1.1237
0.5190839694656488,-1.083969465648855,-0.13740458015267176,0.067626953125,-0.17822265625,-0.593505859375,1.1254
1.1603053435114503,-1.0076335877862594,-0.030534351145038167,0.065185546875,-0.18212890625,-0.58935546875,1.1271
1.6641221374045803,-1.099236641221374,-0.07633587786259542,0.060302734375,-0.177734375,-0.59375,1.1288
2.16793893129771,-0.9007633587786259,-0.061068702290076333,0.064697265625,-0.174072265625,-0.59228515625,1.1304999999999998
2.183206106870229,-0.9770992366412213,0.15267175572519084,0.0625,-0.1767578125,-0.59423828125,1.1321999999999999
1.9694656488549618,-1.1297709923664123,0.0,0.065185546875,-0.1767578125,-0.586669921875,1.1339
2.1526717557251906,-0.8549618320610687,0.16793893129770993,0.064453125,-0.179443359375,-0.58544921875,1.1356
1.7557251908396947,-0.8854961832061069,0.07633587786259542,0.056884765625,-0.172119140625,-0.592041015625,1.1373
1.4045801526717556,-0.9618320610687023,0.3816793893129771,0.059814453125,-0.167236328125,-0.58837890625,1.139
1.4961832061068703,-0.8396946564885496,0.32061068702290074,0.05419921875,-0.17041015625,-0.593505859375,1.1407
1.2671755725190839,-0.6870229007633588,0.5190839694656488,0.0576171875,-0.17236328125,-0.58642578125,1.1423999999999999
1.282442748091603,-0.3816793893129771,0.3816793893129771,0.05126953125,-0.176513671875,-0.587890625,1.1441
1.465648854961832,-0.44274809160305345,0.916030534351145,0.0595703125,-0.175537109375,-0.586181640625,1.1458
1.5572519083969465,-0.3816793893129771,1.0229007633587786,0.056884765625,-0.1767578125,-0.590576171875,1.1475
1.8931297709923665,-0.24427480916030533,0.9007633587786259,0.055908203125,-0.182373046875,-0.583984375,1.1492
2.0763358778625953,0.12213740458015267,1.0687022900763359,0.05517578125,-0.181640625,-0.588623046875,1.1509
2.4427480916030535,0.33587786259541985,0.916030534351145,0.056396484375,-0.1796875,-0.587158203125,1.1525999999999998
2.2900763358778624,0.4122137404580153,0.7938931297709924,0.055908203125,-0.18359375,-0.59375,1.1542999999999999
2.4732824427480917,0.549618320610687,0.916030534351145,0.050048828125,-0.177734375,-0.59326171875,1.156
2.366412213740458,0.8244274809160306,0.7633587786259542,0.0556640625,-0.18115234375,-0.59033203125,1.1577
2.5343511450381677,0.9770992366412213,0.8549618320610687,0.056640625,-0.184326171875,-0.58984375,1.1594
2.7938931297709924,1.1297709923664123,0.9007633587786259,0.053955078125,-0.186767578125,-0.601806640625,1.1611
2.885496183206107,1.3282442748091603,0.7022900763358778,0.059814453125,-0.184326171875,-0.592041015625,1.1627999999999998
3.3435114503816794,1.3893129770992367,0.5648854961832062,0.05615234375,-0.187255859375,-0.5869140625,1.1644999999999999
3.4198473282442747,1.3740458015267176,0.5801526717557252,0.05224609375,-0.18701171875,-0.583251953125,1.1662
3.3740458015267176,1.5267175572519085,0.33587786259541985,0.05419921875,-0.1865234375,-0.594482421875,1.1679
3.450381679389313,1.6030534351145038,0.12213740458015267,0.0537109375,-0.18603515625,-0.589599609375,1.1696
3.66412213740458,1.633587786259542,0.0,0.05322265625,-0.18896484375,-0.590087890625,1.1713
3.5267175572519083,1.6946564885496183,-0.21374045801526717,0.0517578125,-0.187255859375,-0.591064453125,1.173
3.5114503816793894,1.8931297709923665,-0.4580152671755725,0.048828125,-0.183349609375,-0.58447265625,1.1746999999999999
3.618320610687023,2.0610687022900764,-0.6717557251908397,0.053955078125,-0.186279296875,-0.5869140625,1.1764
3.5114503816793894,1.9389312977099236,-0.8549618320610687,0.05517578125,-0.1875,-0.582275390625,1.1781
3.5114503816793894,1.9389312977099236,-0.9923664122137404,0.05712890625,-0.185546875,-0.578857421875,1.1798
3.480916030534351,1.7099236641221374,-1.2366412213740459,0.0625,-0.18505859375,-0.57568359375,1.1815
3.450381679389313,1.7404580152671756,-1.3129770992366412,0.056884765625,-0.181396484375,-0.578857421875,1.1832
3.267175572519084,1.6793893129770991,-1.465648854961832,0.0576171875,-0.18212890625,-0.581298828125,1.1848999999999998
2.854961832061069,1.8931297709923665,-1.7251908396946565,0.061279296875,-0.180908203125,-0.58935546875,1.1865999999999999
2.381679389312977,1.83206106870229,-1.6946564885496183,0.057861328125,-0.177978515625,-0.583984375,1.1883
2.1374045801526718,1.816793893129771,-1.83206106870229,0.06298828125,-0.18115234375,-0.5869140625,1.19
2.1526717557251906,2.045801526717557,-1.7709923664122138,0.064697265625,-0.17919921875,-0.585205078125,1.1917
2.519083969465649,2.122137404580153,-1.7709923664122138,0.0595703125,-0.178466796875,-0.578857421875,1.1934
2.5343511450381677,2.122137404580153,-1.7251908396946565,0.05908203125,-0.183349609375,-0.579345703125,1.1950999999999998
2.885496183206107,2.1374045801526718,-1.450381679389313,0.0595703125,-0.18603515625,-0.578125,1.1967999999999999
3.1755725190839694,2.0,-1.7251908396946565,0.05615234375,-0.18505859375,-0.582275390625,1.1985
3.145038167938931,2.1068702290076335,-1.5267175572519085,0.060546875,-0.177734375,-0.573974609375,1.2002
3.1755725190839694,1.9389312977099236,-1.3587786259541985,0.063720703125,-0.17626953125,-0.58203125,1.2019
3.1908396946564888,1.9694656488549618,-1.1908396946564885,0.06103515625,-0.1767578125,-0.5830078125,1.2036
3.3435114503816794,1.8931297709923665,-1.1450381679389312,0.0634765625,-0.177490234375,-0.583984375,1.2053
3.1908396946564888,1.7404580152671756,-1.1908396946564885,0.0615234375,-0.17626953125,-0.572998046875,1.2069999999999999
3.1297709923664123,1.7557251908396947,-0.9007633587786259,0.061767578125,-0.177490234375,-0.5791015625,1.2086999999999999
3.267175572519084,1.786259541984733,-0.8549618320610687,0.060791015625,-0.178955078125,-0.573974609375,1.2104
3.435114503816794,1.633587786259542,-0.6870229007633588,0.057373046875,-0.1845703125,-0.587158203125,1.2121
3.2977099236641223,1.7557251908396947,-0.7480916030534351,0.060302734375,-0.18115234375,-0.57568359375,1.2138
3.2977099236641223,1.9541984732824427,-0.42748091603053434,0.0615234375,-0.181884765625,-0.574951171875,1.2155
3.236641221374046,1.8625954198473282,-0.549618320610687,0.05810546875,-0.1767578125,-0.586181640625,1.2171999999999998
3.3587786259541983,1.9389312977099236,-0.5801526717557252,0.0595703125,-0.183837890625,-0.58447265625,1.2188999999999999
3.5877862595419847,1.8625954198473282,-0.5343511450381679,0.063232421875,-0.18408203125,-0.587646484375,1.2206
3.435114503816794,1.633587786259542,-0.4580152671755725,0.06201171875,-0.18505859375,-0.5771484375,1.2223
3.648854961832061,1.9083969465648856,-0.5648854961832062,0.06103515625,-0.181396484375,-0.5810546875,1.224
3.450381679389313,2.0610687022900764,-0.732824427480916,0.060546875,-0.18115234375,-0.579345703125,1.2257
3.435114503816794,1.8015267175572518,-0.732824427480916,0.059326171875,-0.184326171875,-0.57861328125,1.2273999999999998
3.099236641221374,1.9236641221374047,-0.7786259541984732,0.056884765625,-0.184326171875,-0.578125,1.2290999999999999
3.0839694656488548,2.015267175572519,-0.8702290076335878,0.060302734375,-0.18212890625,-0.57958984375,1.2308
2.9770992366412212,2.0610687022900764,-0.7786259541984732,0.0634765625,-0.183349609375,-0.57763671875,1.2325
2.717557251908397,2.198473282442748,-0.8549618320610687,0.059326171875,-0.186279296875,-0.58349609375,1.2342
2.7938931297709924,2.198473282442748,-1.3129770992366412,0.056884765625,-0.190673828125,-0.576171875,1.2359
2.366412213740458,2.1374045801526718,-1.3282442748091603,0.060546875,-0.18701171875,-0.5771484375,1.2376
2.4122137404580153,2.2442748091603053,-1.4045801526717556,0.05322265625,-0.18505859375,-0.583251953125,1.2392999999999998
2.381679389312977,2.198473282442748,-1.618320610687023,0.05859375,-0.186767578125,-0.59033203125,1.2409999999999999
2.427480916030534,2.213740458015267,-1.633587786259542,0.0546875,-0.186279296875,-0.58349609375,1.2427
2.1526717557251906,2.3053435114503817,-1.83206106870229,0.0537109375,-0.189453125,-0.57958984375,1.2444
2.183206106870229,2.3969465648854964,-1.6488549618320612,0.060302734375,-0.185546875,-0.585693359375,1.2461
2.16793893129771,2.33587786259542,-2.0,0.063720703125,-0.18896484375,-0.592041015625,1.2478
2.1374045801526718,2.3053435114503817,-2.0610687022900764,0.06103515625,-0.190673828125,-0.58447265625,1.2494999999999998
2.2442748091603053,2.427480916030534,-2.33587786259542,0.060302734375,-0.1953125,-0.58642578125,1.2511999999999999
2.6106870229007635,2.3969465648854964,-2.2900763358778624,0.061279296875,-0.1923828125,-0.586181640625,1.2529
2.50381679389313,2.2900763358778624,-2.33587786259542,0.05859375,-0.185546875,-0.576171875,1.2546
2.6106870229007635,2.4732824427480917,-2.3969465648854964,0.06201171875,-0.185791015625,-0.589599609375,1.2563
2.427480916030534,2.549618320610687,-2.4427480916030535,0.063720703125,-0.180419921875,-0.588623046875,1.258
2.5801526717557253,2.519083969465649,-2.3053435114503817,0.06396484375,-0.182373046875,-0.580810546875,1.2596999999999998
2.763358778625954,2.549618320610687,-2.3053435114503817,0.057861328125,-0.18408203125,-0.584716796875,1.2613999999999999
2.7022900763358777,2.595419847328244,-2.3206106870229006,0.060791015625,-0.182861328125,-0.5830078125,1.2631
2.4885496183206106,2.7480916030534353,-2.427480916030534,0.064453125,-0.178955078125,-0.591796875,1.2648
2.854961832061069,2.5801526717557253,-2.366412213740458,0.0634765625,-0.18115234375,-0.584228515625,1.2665
3.099236641221374,2.7480916030534353,-2.519083969465649,0.0693359375,-0.178466796875,-0.579345703125,1.2682
3.1908396946564888,2.687022900763359,-2.198473282442748,0.0693359375,-0.184326171875,-0.5908203125,1.2699
3.3893129770992365,2.7938931297709924,-2.3969465648854964,0.064208984375,-0.177978515625,-0.573974609375,1.2715999999999998
3.5114503816793894,2.885496183206107,-2.2748091603053435,0.06298828125,-0.181640625,-0.5859375,1.2732999999999999
3.7099236641221376,2.9160305343511452,-2.198473282442748,0.06689453125,-0.179931640625,-0.588623046875,1.275
4.030534351145038,2.9160305343511452,-2.122137404580153,0.06298828125,-0.1826171875,-0.585205078125,1.2767
4.519083969465649,2.7938931297709924,-2.2900763358778624,0.0673828125,-0.178466796875,-0.586669921875,1.2784
4.473282442748092,2.687022900763359,-2.183206106870229,0.06640625,-0.1796875,-0.579345703125,1.2801
4.763358778625954,2.7480916030534353,-2.0610687022900764,0.0654296875,-0.182373046875,-0.581787109375,1.2817999999999998
5.206106870229007,2.763358778625954,-2.0,0.0654296875,-0.18212890625,-0.5869140625,1.2834999999999999
4.961832061068702,2.8091603053435112,-1.9236641221374047,0.068359375,-0.182373046875,-0.587890625,1.2852
5.038167938931298,2.732824427480916,-1.8473282442748091,0.06982421875,-0.181396484375,-0.58642578125,1.2869
5.221374045801527,2.8396946564885495,-1.984732824427481,0.06640625,-0.1806640625,-0.58740234375,1.2886
5.1603053435114505,2.946564885496183,-1.7404580152671756,0.067626953125,-0.18359375,-0.587158203125,1.2903
4.885496183206107,2.9923664122137406,-1.5877862595419847,0.064697265625,-0.1806640625,-0.587890625,1.292
5.206106870229007,3.1603053435114505,-1.5114503816793894,0.0673828125,-0.18603515625,-0.587158203125,1.2936999999999999
5.267175572519084,3.236641221374046,-1.4961832061068703,0.063232421875,-0.189453125,-0.590087890625,1.2953999999999999
5.068702290076335,3.2977099236641223,-1.3893129770992367,0.066650390625,-0.1884765625,-0.591552734375,1.2971
5.068702290076335,3.3740458015267176,-1.3740458015267176,0.06494140625,-0.185791015625,-0.58056640625,1.2988
5.404580152671755,3.3282442748091605,-1.2366412213740459,0.0595703125,-0.188720703125,-0.585693359375,1.3005
5.206106870229007,3.435114503816794,-1.3893129770992367,0.066162109375,-0.1845703125,-0.5859375,1.3022
5.00763358778626,3.480916030534351,-1.3129770992366412,0.064697265625,-0.1904296875,-0.593505859375,1.3038999999999998
5.0534351145038165,3.5114503816793894,-1.4961832061068703,0.064697265625,-0.185302734375,-0.588623046875,1.3055999999999999
5.1603053435114505,3.5572519083969465,-1.2061068702290076,0.066650390625,-0.18798828125,-0.588134765625,1.3073
4.916030534351145,3.4656488549618323,-1.3740458015267176,0.06640625,-0.18994140625,-0.583251953125,1.309
5.068702290076335,3.404580152671756,-1.3129770992366412,0.063720703125,-0.1875,-0.587890625,1.3107
5.221374045801527,3.435114503816794,-1.4809160305343512,0.0673828125,-0.181640625,-0.59130859375,1.3124
5.297709923664122,3.3435114503816794,-1.3740458015267176,0.06689453125,-0.1826171875,-0.597412109375,1.3140999999999998
5.038167938931298,3.1755725190839694,-1.6030534351145038,0.0673828125,-0.18505859375,-0.5908203125,1.3157999999999999
4.854961832061068,3.068702290076336,-1.4809160305343512,0.066162109375,-0.18505859375,-0.591064453125,1.3175
4.702290076335878,2.8244274809160306,-1.6030534351145038,0.06640625,-0.185302734375,-0.58935546875,1.3192
4.793893129770993,2.9618320610687023,-1.3587786259541985,0.06640625,-0.182373046875,-0.59130859375,1.3209
4.824427480916031,2.6717557251908395,-1.465648854961832,0.070068359375,-0.18505859375,-0.595947265625,1.3226
4.870229007633588,2.595419847328244,-1.4809160305343512,0.0703125,-0.18505859375,-0.5859375,1.3243
4.870229007633588,2.3969465648854964,-1.3740458015267176,0.073974609375,-0.1845703125,-0.585205078125,1.3259999999999998
5.114503816793893,2.4580152671755724,-0.9618320610687023,0.06640625,-0.185546875,-0.58544921875,1.3276999999999999
5.190839694656488,2.3206106870229006,-1.1603053435114503,0.0703125,-0.183837890625,-0.584716796875,1.3294
5.297709923664122,2.045801526717557,-1.0534351145038168,0.067138671875,-0.185546875,-0.583984375,1.3311
5.114503816793893,2.1374045801526718,-0.8396946564885496,0.068603515625,-0.18896484375,-0.58544921875,1.3328
5.297709923664122,2.198473282442748,-0.7938931297709924,0.067626953125,-0.18310546875,-0.58203125,1.3345
5.251908396946565,2.4580152671755724,-1.0381679389312977,0.069091796875,-0.183837890625,-0.587890625,1.3361999999999998
4.961832061068702,2.3053435114503817,-0.8091603053435115,0.065185546875,-0.182861328125,-0.588134765625,1.3378999999999999
4.931297709923665,2.2900763358778624,-0.732824427480916,0.0673828125,-0.183349609375,-0.594970703125,1.3396
4.427480916030534,2.33587786259542,-0.22900763358778625,0.0693359375,-0.189453125,-0.589111328125,1.3413
4.320610687022901,2.3969465648854964,-0.2900763358778626,0.072021484375,-0.185791015625,-0.591064453125,1.343
4.641221374045801,2.3206106870229006,-0.15267175572519084,0.06591796875,-0.180908203125,-0.5869140625,1.3447
4.2748091603053435,2.351145038167939,-0.07633587786259542,0.0654296875,-0.1845703125,-0.58154296875,1.3463999999999998
4.412213740458015,2.3206106870229006,0.24427480916030533,0.069580078125,-0.1826171875,-0.576171875,1.3480999999999999
4.488549618320611,2.3053435114503817,0.0916030534351145,0.064697265625,-0.1845703125,-0.575927734375,1.3497999999999999
4.564885496183206,2.213740458015267,0.3969465648854962,0.063232421875,-0.184814453125,-0.579345703125,1.3515
4.442748091603053,2.1374045801526718,0.12213740458015267,0.061279296875,-0.18310546875,-0.58740234375,1.3532
4.396946564885496,2.2442748091603053,0.3969465648854962,0.070068359375,-0.184326171875,-0.586669921875,1.3549
4.67175572519084,1.9694656488549618,0.2900763358778626,0.070068359375,-0.18701171875,-0.579345703125,1.3566
4.793893129770993,2.045801526717557,0.3969465648854962,0.068115234375,-0.18505859375,-0.585205078125,1.3582999999999998
4.595419847328245,1.8931297709923665,0.33587786259541985,0.07275390625,-0.188232421875,-0.582275390625,1.3599999999999999
4.564885496183206,2.0610687022900764,0.5954198473282443,0.0673828125,-0.188232421875,-0.584228515625,1.3617
4.9465648854961835,1.816793893129771,0.42748091603053434,0.067626953125,-0.183349609375,-0.591064453125,1.3634
4.748091603053435,1.8625954198473282,0.5343511450381679,0.06640625,-0.188720703125,-0.5830078125,1.3651
4.870229007633588,1.816793893129771,0.48854961832061067,0.06591796875,-0.1845703125,-0.58642578125,1.3668
5.114503816793893,1.8473282442748091,0.7175572519083969,0.06884765625,-0.186767578125,-0.57373046875,1.3684999999999998
5.511450381679389,1.8625954198473282,0.5343511450381679,0.066650390625,-0.188232421875,-0.578125,1.3701999999999999
5.4961832061068705,1.8473282442748091,0.5343511450381679,0.0673828125,-0.1904296875,-0.58203125,1.3719
5.557251908396947,1.8015267175572518,0.6564885496183206,0.064453125,-0.1875,-0.5927734375,1.3736
5.648854961832061,1.9389312977099236,0.6564885496183206,0.062744140625,-0.192138671875,-0.581298828125,1.3753
5.572519083969466,1.984732824427481,0.5190839694656488,0.06005859375,-0.18896484375,-0.578857421875,1.377
5.633587786259542,2.213740458015267,0.732824427480916,0.064208984375,-0.187744140625,-0.58251953125,1.3786999999999998
5.572519083969466,2.3206106870229006,0.5343511450381679,0.055419921875,-0.184814453125,-0.586669921875,1.3803999999999998
5.374045801526718,2.5801526717557253,0.5648854961832062,0.05859375,-0.1845703125,-0.58837890625,1.3820999999999999
5.541984732824427,2.7022900763358777,0.44274809160305345,0.057373046875,-0.1865234375,-0.58349609375,1.3838
5.404580152671755,2.854961832061069,0.3816793893129771,0.05810546875,-0.183837890625,-0.591064453125,1.3855
5.221374045801527,2.9618320610687023,0.2748091603053435,0.058349609375,-0.189208984375,-0.590087890625,1.3872
5.221374045801527,2.900763358778626,0.3816793893129771,0.059326171875,-0.18798828125,-0.588623046875,1.3889
5.129770992366412,2.946564885496183,0.2748091603053435,0.06005859375,-0.1884765625,-0.5830078125,1.3905999999999998
5.145038167938932,3.053435114503817,0.2900763358778626,0.060546875,-0.1875,-0.585693359375,1.3922999999999999
5.038167938931298,3.068702290076336,0.22900763358778625,0.0615234375,-0.190673828125,-0.590087890625,1.394
5.251908396946565,3.2977099236641223,0.16793893129770993,0.063232421875,-0.186279296875,-0.58837890625,1.3957
5.404580152671755,3.3740458015267176,0.07633587786259542,0.05712890625,-0.189453125,-0.59326171875,1.3974
5.419847328244275,3.5572519083969465,0.183206106870229,0.05859375,-0.18505859375,-0.589599609375,1.3991
5.465648854961832,3.7404580152671754,0.22900763358778625,0.066162109375,-0.189453125,-0.5869140625,1.4007999999999998
5.587786259541985,3.7404580152671754,0.21374045801526717,0.061767578125,-0.186279296875,-0.590576171875,1.4024999999999999
5.541984732824427,3.954198473282443,0.13740458015267176,0.058837890625,-0.18310546875,-0.591796875,1.4042
5.6183206106870225,3.969465648854962,0.4732824427480916,0.060546875,-0.186767578125,-0.586669921875,1.4059
5.7251908396946565,3.9083969465648853,0.2748091603053435,0.064208984375,-0.185791015625,-0.573486328125,1.4076
5.877862595419847,3.7557251908396947,0.4122137404580153,0.06640625,-0.18505859375,-0.580810546875,1.4093
6.122137404580153,3.7709923664122136,0.3816793893129771,0.066162109375,-0.184814453125,-0.580078125,1.411
6.015267175572519,3.83206106870229,0.5801526717557252,0.060791015625,-0.1875,-0.588134765625,1.4126999999999998
6.137404580152672,3.5419847328244276,0.7480916030534351,0.062255859375,-0.179443359375,-0.58154296875,1.4143999999999999
6.290076335877862,3.6030534351145036,0.9618320610687023,0.06396484375,-0.183837890625,-0.5859375,1.4161
6.412213740458015,3.618320610687023,1.0229007633587786,0.0673828125,-0.18359375,-0.572265625,1.4178
6.442748091603053,3.480916030534351,1.0229007633587786,0.065185546875,-0.182373046875,-0.583740234375,1.4195
6.595419847328245,3.3893129770992365,1.1908396946564885,0.065673828125,-0.1806640625,-0.584716796875,1.4212
6.99236641221374,3.2213740458015265,1.5725190839694656,0.063720703125,-0.188232421875,-0.57861328125,1.4228999999999998
6.900763358778626,3.1755725190839694,1.618320610687023,0.06103515625,-0.18994140625,-0.57568359375,1.4245999999999999
7.129770992366412,3.114503816793893,1.8015267175572518,0.062744140625,-0.188232421875,-0.572998046875,1.4263
7.511450381679389,3.0076335877862594,1.8778625954198473,0.069091796875,-0.185302734375,-0.582275390625,1.428
7.6183206106870225,2.7480916030534353,1.8473282442748091,0.06494140625,-0.18603515625,-0.57763671875,1.4297
7.770992366412214,2.732824427480916,1.7404580152671756,0.062744140625,-0.185302734375,-0.585205078125,1.4314
8.076335877862595,2.6412213740458017,2.0,0.0595703125,-0.18603515625,-0.5810546875,1.4330999999999998
8.213740458015268,2.6259541984732824,1.6793893129770991,0.060791015625,-0.190185546875,-0.586181640625,1.4347999999999999
8.290076335877863,2.687022900763359,1.5419847328244274,0.065185546875,-0.191162109375,-0.578125,1.4364999999999999
8.122137404580153,2.6717557251908395,1.6641221374045803,0.061279296875,-0.186767578125,-0.581298828125,1.4382
8.229007633587786,2.6259541984732824,1.6946564885496183,0.06201171875,-0.190673828125,-0.582763671875,1.4399
8.351145038167939,2.7480916030534353,1.4045801526717556,0.05419921875,-0.185302734375,-0.588623046875,1.4416
8.320610687022901,2.7022900763358777,1.3893129770992367,0.063720703125,-0.19091796875,-0.590087890625,1.4433
8.320610687022901,2.6717557251908395,1.4351145038167938,0.060546875,-0.192626953125,-0.584228515625,1.4449999999999998
8.15267175572519,2.763358778625954,1.5877862595419847,0.061767578125,-0.1943359375,-0.584716796875,1.4466999999999999
8.106870229007633,2.6717557251908395,1.1450381679389312,0.060546875,-0.197021484375,-0.578369140625,1.4484
7.893129770992366,2.8396946564885495,1.1908396946564885,0.062744140625,-0.196044921875,-0.578125,1.4501
7.786259541984733,3.145038167938931,1.0381679389312977,0.06005859375,-0.192138671875,-0.58447265625,1.4518
7.648854961832061,2.9160305343511452,1.1450381679389312,0.057861328125,-0.197021484375,-0.586181640625,1.4535
7.755725190839694,2.8091603053435112,0.7175572519083969,0.05615234375,-0.19775390625,-0.585205078125,1.4551999999999998
7.3893129770992365,3.2213740458015265,0.8854961832061069,0.057861328125,-0.191162109375,-0.586669921875,1.4568999999999999
7.022900763358779,3.6030534351145036,0.6259541984732825,0.058349609375,-0.197021484375,-0.58544921875,1.4586
6.732824427480916,3.4198473282442747,0.44274809160305345,0.055419921875,-0.197021484375,-0.584716796875,1.4603
6.5038167938931295,3.5877862595419847,0.44274809160305345,0.05859375,-0.20068359375,-0.58349609375,1.462
6.427480916030534,3.633587786259542,0.16793893129770993,0.056396484375,-0.200439453125,-0.583984375,1.4637
6.305343511450381,3.801526717557252,0.04580152671755725,0.058349609375,-0.194580078125,-0.585693359375,1.4653999999999998
6.2748091603053435,3.7404580152671754,0.22900763358778625,0.0634765625,-0.20068359375,-0.5869140625,1.4670999999999998
5.709923664122138,3.801526717557252,-0.030534351145038167,0.0556640625,-0.1962890625,-0.591796875,1.4687999999999999
5.648854961832061,3.984732824427481,-0.16793893129770993,0.0576171875,-0.1982421875,-0.595947265625,1.4705
5.358778625954199,3.984732824427481,-0.1984732824427481,0.0595703125,-0.193359375,-0.583740234375,1.4722
5.374045801526718,4.061068702290076,-0.22900763358778625,0.06201171875,-0.204345703125,-0.57470703125,1.4739
5.0534351145038165,3.816793893129771,-0.3053435114503817,0.065673828125,-0.200439453125,-0.580078125,1.4756
4.931297709923665,3.66412213740458,-0.3969465648854962,0.0615234375,-0.197509765625,-0.58203125,1.4772999999999998
4.885496183206107,3.66412213740458,-0.4580152671755725,0.060791015625,-0.195068359375,-0.583984375,1.4789999999999999
4.778625954198473,3.7251908396946565,-0.4732824427480916,0.06787109375,-0.2021484375,-0.578125,1.4807
4.702290076335878,3.66412213740458,-0.6564885496183206,0.064697265625,-0.200927734375,-0.583251953125,1.4824
4.732824427480916,3.5267175572519083,-0.6564885496183206,0.064453125,-0.196044921875,-0.580322265625,1.4841
4.8396946564885495,3.480916030534351,-1.0076335877862594,0.06103515625,-0.193603515625,-0.58642578125,1.4858
4.67175572519084,3.236641221374046,-0.9007633587786259,0.06103515625,-0.197265625,-0.585693359375,1.4874999999999998
4.8396946564885495,2.9923664122137406,-0.9312977099236641,0.0625,-0.198974609375,-0.586181640625,1.4891999999999999
5.282442748091603,2.9923664122137406,-1.0229007633587786,0.061767578125,-0.195068359375,-0.583984375,1.4909
5.145038167938932,2.7480916030534353,-1.0534351145038168,0.06103515625,-0.197021484375,-0.5810546875,1.4926
5.129770992366412,2.8244274809160306,-1.1603053435114503,0.065185546875,-0.197509765625,-0.582275390625,1.4943
5.038167938931298,2.687022900763359,-1.0229007633587786,0.061279296875,-0.19677734375,-0.58642578125,1.496
5.145038167938932,2.6412213740458017,-1.1450381679389312,0.06494140625,-0.195068359375,-0.5712890625,1.4976999999999998
5.251908396946565,2.4732824427480917,-1.3435114503816794,0.069091796875,-0.1923828125,-0.57568359375,1.4993999999999998
5.175572519083969,2.4122137404580153,-1.1297709923664123,0.059326171875,-0.190185546875,-0.585205078125,1.5010999999999999
5.129770992366412,2.2595419847328246,-0.9770992366412213,0.06640625,-0.190673828125,-0.58056640625,1.5028
5.312977099236641,2.2290076335877864,-1.0229007633587786,0.063720703125,-0.192138671875,-0.580322265625,1.5045
4.961832061068702,2.4122137404580153,-0.7938931297709924,0.06396484375,-0.18896484375,-0.579833984375,1.5062
5.0534351145038165,2.351145038167939,-0.7480916030534351,0.06201171875,-0.191162109375,-0.5751953125,1.5079
5.175572519083969,2.2290076335877864,-0.7633587786259542,0.06201171875,-0.1884765625,-0.5830078125,1.5095999999999998
5.114503816793893,2.2595419847328246,-0.7022900763358778,0.065185546875,-0.189208984375,-0.5830078125,1.5112999999999999
5.206106870229007,2.33587786259542,-0.7480916030534351,0.062255859375,-0.19189453125,-0.58154296875,1.513
5.221374045801527,2.381679389312977,-0.7175572519083969,0.06494140625,-0.193603515625,-0.58154296875,1.5147
5.465648854961832,2.564885496183206,-0.5648854961832062,0.064208984375,-0.19287109375,-0.5810546875,1.5164
5.480916030534351,2.6717557251908395,-0.5801526717557252,0.0625,-0.190185546875,-0.591796875,1.5181
5.679389312977099,2.6564885496183206,-0.7175572519083969,0.061767578125,-0.193359375,-0.591796875,1.5197999999999998
5.923664122137405,2.6106870229007635,-0.7633587786259542,0.0634765625,-0.195556640625,-0.59033203125,1.5214999999999999
6.0458015267175576,2.6106870229007635,-0.8091603053435115,0.059326171875,-0.197998046875,-0.584716796875,1.5231999999999999
6.091603053435114,2.854961832061069,-0.6717557251908397,0.05712890625,-0.193603515625,-0.5810546875,1.5249
6.183206106870229,2.854961832061069,-0.7175572519083969,0.06201171875,-0.195068359375,-0.577880859375,1.5266
6.061068702290076,2.9618320610687023,-0.7175572519083969,0.062744140625,-0.189697265625,-0.592529296875,1.5283
5.862595419847328,3.145038167938931,-0.8396946564885496,0.060791015625,-0.195556640625,-0.583251953125,1.5299999999999998
5.770992366412214,3.2519083969465647,-0.7938931297709924,0.063720703125,-0.196044921875,-0.59619140625,1.5316999999999998
5.587786259541985,3.5572519083969465,-0.8854961832061069,0.066650390625,-0.19091796875,-0.5888671875,1.5333999999999999
5.603053435114504,3.5267175572519083,-0.9312977099236641,0.06103515625,-0.19677734375,-0.589599609375,1.5351
5.587786259541985,3.6030534351145036,-0.8854961832061069,0.0634765625,-0.197509765625,-0.58447265625,1.5368
5.526717557251908,3.7404580152671754,-0.7786259541984732,0.063232421875,-0.196044921875,-0.57958984375,1.5385
5.6183206106870225,3.954198473282443,-1.0229007633587786,0.056396484375,-0.197998046875,-0.581787109375,1.5402
5.66412213740458,3.877862595419847,-1.2061068702290076,0.06298828125,-0.200439453125,-0.58544921875,1.5418999999999998
5.297709923664122,4.030534351145038,-0.9312977099236641,0.0625,-0.197998046875,-0.580322265625,1.5435999999999999
5.190839694656488,4.1679389312977095,-1.297709923664122,0.060546875,-0.205322265625,-0.593017578125,1.5453
5.251908396946565,4.061068702290076,-1.1297709923664123,0.057861328125,-0.20166015625,-0.586181640625,1.547
5.038167938931298,4.2748091603053435,-1.3893129770992367,0.062744140625,-0.201904296875,-0.594970703125,1.5487
5.190839694656488,4.290076335877862,-1.5877862595419847,0.066650390625,-0.203125,-0.5927734375,1.5504
5.282442748091603,4.198473282442748,-1.786259541984733,0.06494140625,-0.198486328125,-0.58447265625,1.5520999999999998
5.374045801526718,4.091603053435114,-1.5419847328244274,0.064697265625,-0.2001953125,-0.58154296875,1.5537999999999998
5.511450381679389,4.198473282442748,-1.7557251908396947,0.0625,-0.198974609375,-0.5791015625,1.5554999999999999
5.450381679389313,4.213740458015267,-1.7251908396946565,0.06201171875,-0.198486328125,-0.5791015625,1.5572
5.374045801526718,3.969465648854962,-1.984732824427481,0.064697265625,-0.20361328125,-0.58251953125,1.5589
5.175572519083969,4.0458015267175576,-2.1526717557251906,0.065185546875,-0.201904296875,-0.5712890625,1.5606
5.175572519083969,4.0,-2.427480916030534,0.063232421875,-0.19677734375,-0.580810546875,1.5623
4.977099236641221,3.9389312977099236,-2.427480916030534,0.064453125,-0.196533203125,-0.58056640625,1.5639999999999998
5.00763358778626,3.816793893129771,-2.427480916030534,0.064208984375,-0.201171875,-0.58056640625,1.5656999999999999
4.854961832061068,3.83206106870229,-2.549618320610687,0.06103515625,-0.196044921875,-0.576171875,1.5674
4.244274809160306,4.106870229007634,-2.595419847328244,0.0673828125,-0.197509765625,-0.5732421875,1.5691
4.122137404580153,4.030534351145038,-2.4580152671755724,0.06787109375,-0.197021484375,-0.583740234375,1.5708
3.83206106870229,3.786259541984733,-2.5343511450381677,0.064697265625,-0.191162109375,-0.57958984375,1.5725
3.6030534351145036,3.6946564885496183,-2.2900763358778624,0.066650390625,-0.19775390625,-0.583251953125,1.5741999999999998
3.480916030534351,3.7099236641221376,-2.519083969465649,0.060791015625,-0.193603515625,-0.5751953125,1.5758999999999999
3.282442748091603,3.6793893129770994,-2.3053435114503817,0.065185546875,-0.19287109375,-0.578125,1.5776
3.2061068702290076,3.404580152671756,-2.427480916030534,0.06884765625,-0.197021484375,-0.57421875,1.5793
2.9618320610687023,3.114503816793893,-2.0916030534351147,0.068115234375,-0.192626953125,-0.57421875,1.581
2.763358778625954,2.900763358778626,-2.0916030534351147,0.066162109375,-0.19189453125,-0.57666015625,1.5827
2.9618320610687023,2.6106870229007635,-2.16793893129771,0.0712890625,-0.197998046875,-0.57177734375,1.5843999999999998
2.9923664122137406,2.549618320610687,-2.0763358778625953,0.0634765625,-0.19775390625,-0.572021484375,1.5860999999999998
2.7786259541984735,2.2595419847328246,-1.9389312977099236,0.066650390625,-0.19677734375,-0.56689453125,1.5877999999999999
2.6106870229007635,2.16793893129771,-2.0763358778625953,0.065673828125,-0.197021484375,-0.572998046875,1.5895
2.854961832061069,2.1526717557251906,-1.9694656488549618,0.0654296875,-0.191162109375,-0.576171875,1.5912
2.8396946564885495,2.045801526717557,-2.0,0.068603515625,-0.189208984375,-0.5771484375,1.5929
2.6717557251908395,1.9389312977099236,-1.7099236641221374,0.068603515625,-0.187255859375,-0.57666015625,1.5946
2.8396946564885495,1.5877862595419847,-1.984732824427481,0.07275390625,-0.194091796875,-0.57373046875,1.5962999999999998
3.0381679389312977,1.5419847328244274,-1.8931297709923665,0.069091796875,-0.189697265625,-0.574951171875,1.5979999999999999
3.3740458015267176,1.7099236641221374,-1.984732824427481,0.064208984375,-0.19287109375,-0.58203125,1.5997
3.618320610687023,1.6946564885496183,-1.7099236641221374,0.06591796875,-0.188720703125,-0.579345703125,1.6014
3.83206106870229,1.6488549618320612,-1.9541984732824427,0.066162109375,-0.195556640625,-0.569091796875,1.6031
4.091603053435114,1.5114503816793894,-1.8778625954198473,0.06640625,-0.197021484375,-0.576904296875,1.6048
4.122137404580153,1.618320610687023,-1.8473282442748091,0.0654296875,-0.19140625,-0.5830078125,1.6064999999999998
4.213740458015267,1.8778625954198473,-1.618320610687023,0.06494140625,-0.19482421875,-0.57080078125,1.6081999999999999
4.6106870229007635,1.7251908396946565,-1.8625954198473282,0.064697265625,-0.198486328125,-0.58154296875,1.6098999999999999
4.809160305343512,1.8625954198473282,-1.8015267175572518,0.065673828125,-0.198486328125,-0.57568359375,1.6116
4.824427480916031,1.984732824427481,-1.9694656488549618,0.064697265625,-0.19921875,-0.582763671875,1.6133
4.870229007633588,2.0,-1.9236641221374047,0.06689453125,-0.199951171875,-0.583740234375,1.615
4.900763358778626,2.1374045801526718,-2.0610687022900764,0.0654296875,-0.19580078125,-0.578369140625,1.6166999999999998
4.793893129770993,2.366412213740458,-1.984732824427481,0.06591796875,-0.19970703125,-0.577392578125,1.6183999999999998
4.809160305343512,2.5801526717557253,-2.030534351145038,0.067626953125,-0.199951171875,-0.572265625,1.6200999999999999
4.717557251908397,2.5801526717557253,-1.8625954198473282,0.06787109375,-0.197021484375,-0.578369140625,1.6218
4.656488549618321,2.8702290076335877,-2.0916030534351147,0.064697265625,-0.197265625,-0.578125,1.6235
4.625954198473282,3.145038167938931,-1.9389312977099236,0.0654296875,-0.197509765625,-0.578369140625,1.6252
4.305343511450381,3.2977099236641223,-1.9083969465648856,0.0673828125,-0.19921875,-0.5830078125,1.6269
4.366412213740458,3.5267175572519083,-1.9541984732824427,0.06103515625,-0.2001953125,-0.58056640625,1.6285999999999998
4.106870229007634,3.633587786259542,-2.030534351145038,0.0673828125,-0.201904296875,-0.578857421875,1.6302999999999999
4.137404580152672,3.7404580152671754,-2.0916030534351147,0.059814453125,-0.19970703125,-0.58984375,1.632
4.244274809160306,3.816793893129771,-2.0610687022900764,0.05810546875,-0.20068359375,-0.5830078125,1.6337
3.8625954198473282,4.030534351145038,-1.83206106870229,0.0673828125,-0.205322265625,-0.58349609375,1.6354
3.8931297709923665,3.969465648854962,-1.8778625954198473,0.067626953125,-0.194580078125,-0.580322265625,1.6371
3.9389312977099236,3.8473282442748094,-2.16793893129771,0.07177734375,-0.197265625,-0.57080078125,1.6387999999999998
4.061068702290076,3.9236641221374047,-2.2595419847328246,0.06591796875,-0.201904296875,-0.578857421875,1.6404999999999998
3.9083969465648853,3.801526717557252,-1.9236641221374047,0.068603515625,-0.19921875,-0.5830078125,1.6421999999999999
3.877862595419847,3.8625954198473282,-2.198473282442748,0.066162109375,-0.20263671875,-0.58056640625,1.6439
4.030534351145038,3.801526717557252,-2.198473282442748,0.06689453125,-0.201416015625,-0.5771484375,1.6456
3.8625954198473282,3.5877862595419847,-2.427480916030534,0.072021484375,-0.199951171875,-0.584716796875,1.6473
3.786259541984733,3.5877862595419847,-2.4732824427480917,0.06787109375,-0.196044921875,-0.58837890625,1.6489999999999998
3.954198473282443,3.5419847328244276,-2.6564885496183206,0.06787109375,-0.190673828125,-0.57958984375,1.6506999999999998
3.7251908396946565,3.618320610687023,-2.732824427480916,0.06884765625,-0.19873046875,-0.568115234375,1.6523999999999999
3.5267175572519083,3.4198473282442747,-2.7022900763358777,0.069580078125,-0.198486328125,-0.572265625,1.6541
3.49618320610687,3.3740458015267176,-2.732824427480916,0.067626953125,-0.1982421875,-0.56982421875,1.6558
3.49618320610687,3.2519083969465647,-3.0229007633587788,0.063232421875,-0.19775390625,-0.58251953125,1.6575
3.3893129770992365,3.053435114503817,-3.0076335877862594,0.067626953125,-0.19482421875,-0.577880859375,1.6592
3.3587786259541983,3.0229007633587788,-3.1297709923664123,0.06982421875,-0.198486328125,-0.575439453125,1.6608999999999998
3.435114503816794,3.0839694656488548,-2.9923664122137406,0.069580078125,-0.197021484375,-0.5771484375,1.6625999999999999
3.3587786259541983,3.312977099236641,-2.854961832061069,0.063720703125,-0.19384765625,-0.582763671875,1.6643
3.267175572519084,3.1755725190839694,-2.9160305343511452,0.0693359375,-0.192626953125,-0.577392578125,1.666
3.2977099236641223,3.1908396946564888,-3.053435114503817,0.066650390625,-0.18994140625,-0.574462890625,1.6677
3.0381679389312977,3.312977099236641,-2.6106870229007635,0.06591796875,-0.20068359375,-0.580810546875,1.6694
3.114503816793893,3.4198473282442747,-2.885496183206107,0.07421875,-0.19677734375,-0.582275390625,1.6710999999999998
3.3282442748091605,3.4656488549618323,-2.6717557251908395,0.070068359375,-0.1962890625,-0.59130859375,1.6727999999999998
3.404580152671756,3.3282442748091605,-2.4580152671755724,0.065185546875,-0.196044921875,-0.581787109375,1.6744999999999999
3.5877862595419847,3.2519083969465647,-2.3969465648854964,0.068603515625,-0.195556640625,-0.577880859375,1.6762
3.7099236641221376,3.2977099236641223,-2.366412213740458,0.072509765625,-0.196044921875,-0.58740234375,1.6779
3.7251908396946565,3.3893129770992365,-2.1068702290076335,0.06884765625,-0.1943359375,-0.58447265625,1.6796
3.9389312977099236,3.099236641221374,-1.984732824427481,0.067626953125,-0.194580078125,-0.579345703125,1.6813
4.213740458015267,3.053435114503817,-1.9389312977099236,0.06640625,-0.193359375,-0.57763671875,1.6829999999999998
4.015267175572519,2.9160305343511452,-2.045801526717557,0.0703125,-0.193115234375,-0.5810546875,1.6846999999999999
3.9083969465648853,2.9770992366412212,-1.7251908396946565,0.068359375,-0.19580078125,-0.58154296875,1.6864
3.7557251908396947,2.7480916030534353,-1.83206106870229,0.072021484375,-0.19677734375,-0.57568359375,1.6881
3.7557251908396947,2.595419847328244,-1.7709923664122138,0.072021484375,-0.1953125,-0.571533203125,1.6898
4.091603053435114,2.4732824427480917,-1.5114503816793894,0.06884765625,-0.196533203125,-0.57421875,1.6915
3.9236641221374047,2.5343511450381677,-1.6030534351145038,0.06787109375,-0.19873046875,-0.572265625,1.6931999999999998
4.076335877862595,2.33587786259542,-1.6641221374045803,0.07080078125,-0.196044921875,-0.581787109375,1.6948999999999999
4.0,2.2900763358778624,-1.465648854961832,0.071533203125,-0.200439453125,-0.576416015625,1.6965999999999999
3.9236641221374047,2.2595419847328246,-1.4961832061068703,0.0673828125,-0.1962890625,-0.578369140625,1.6983
3.984732824427481,2.1374045801526718,-1.4961832061068703,0.06787109375,-0.196533203125,-0.58056640625,1.7
4.076335877862595,2.183206106870229,-1.618320610687023,0.0712890625,-0.19921875,-0.578857421875,1.7017
4.137404580152672,2.213740458015267,-1.465648854961832,0.072021484375,-0.20068359375,-0.579833984375,1.7033999999999998
3.984732824427481,2.2290076335877864,-1.5419847328244274,0.071044921875,-0.19775390625,-0.583251953125,1.7050999999999998
4.091603053435114,2.0610687022900764,-1.6946564885496183,0.070556640625,-0.19873046875,-0.587158203125,1.7067999999999999
4.015267175572519,2.015267175572519,-1.816793893129771,0.07177734375,-0.199462890625,-0.576171875,1.7085
3.8931297709923665,2.2290076335877864,-1.7251908396946565,0.065185546875,-0.19921875,-0.5849609375,1.7102
3.7709923664122136,2.0610687022900764,-1.786259541984733,0.068603515625,-0.1943359375,-0.5849609375,1.7119
3.6793893129770994,2.0,-1.7099236641221374,0.070068359375,-0.19482421875,-0.577880859375,1.7136
3.5114503816793894,1.9389312977099236,-1.83206106870229,0.06884765625,-0.1943359375,-0.579833984375,1.7152999999999998
3.480916030534351,2.0610687022900764,-1.8625954198473282,0.06787109375,-0.19921875,-0.578857421875,1.7169999999999999
3.6946564885496183,2.0763358778625953,-1.9083969465648856,0.06689453125,-0.19580078125,-0.583740234375,1.7187
3.49618320610687,1.984732824427481,-1.7099236641221374,0.061279296875,-0.201416015625,-0.585693359375,1.7204
3.435114503816794,1.9083969465648856,-2.015267175572519,0.065185546875,-0.199462890625,-0.587890625,1.7221
3.450381679389313,1.984732824427481,-1.8778625954198473,0.067626953125,-0.19873046875,-0.578125,1.7238
3.3435114503816794,2.122137404580153,-1.6946564885496183,0.069580078125,-0.19970703125,-0.579833984375,1.7254999999999998
3.0229007633587788,2.0610687022900764,-1.6030534351145038,0.067138671875,-0.2001953125,-0.57666015625,1.7271999999999998
3.053435114503817,2.0916030534351147,-1.816793893129771,0.06787109375,-0.197998046875,-0.58154296875,1.7288999999999999
3.1297709923664123,1.9389312977099236,-1.8015267175572518,0.06884765625,-0.20556640625,-0.576416015625,1.7306
2.8396946564885495,1.9389312977099236,-1.8931297709923665,0.067138671875,-0.197509765625,-0.57763671875,1.7323
2.687022900763359,1.8931297709923665,-1.633587786259542,0.071533203125,-0.198974609375,-0.574951171875,1.734
2.5343511450381677,1.83206106870229,-1.8778625954198473,0.071533203125,-0.20263671875,-0.58642578125,1.7356999999999998
2.427480916030534,1.8778625954198473,-2.0,0.07177734375,-0.201904296875,-0.58251953125,1.7373999999999998
2.045801526717557,2.030534351145038,-2.0763358778625953,0.0693359375,-0.198974609375,-0.583984375,1.7390999999999999
1.9083969465648856,1.6793893129770991,-2.0,0.073486328125,-0.198974609375,-0.5849609375,1.7408
1.786259541984733,1.7709923664122138,-2.198473282442748,0.0693359375,-0.20068359375,-0.58447265625,1.7425
1.6793893129770991,1.7709923664122138,-2.122137404580153,0.072021484375,-0.200439453125,-0.588134765625,1.7442
1.7404580152671756,1.83206106870229,-2.1068702290076335,0.0712890625,-0.19873046875,-0.578857421875,1.7459
1.3129770992366412,1.6793893129770991,-2.2290076335877864,0.072998046875,-0.2001953125,-0.578857421875,1.7475999999999998
1.465648854961832,1.5267175572519085,-2.183206106870229,0.07080078125,-0.20361328125,-0.575439453125,1.7492999999999999
1.297709923664122,1.4961832061068703,-2.030534351145038,0.0693359375,-0.203369140625,-0.57861328125,1.751
1.2671755725190839,1.3282442748091603,-2.183206106870229,0.07373046875,-0.198486328125,-0.583740234375,1.7527
1.2671755725190839,1.2671755725190839,-2.2900763358778624,0.07080078125,-0.1982421875,-0.580810546875,1.7544
1.1603053435114503,1.3129770992366412,-2.0610687022900764,0.07080078125,-0.202880859375,-0.580810546875,1.7561
0.9618320610687023,1.2213740458015268,-1.9236641221374047,0.068115234375,-0.201416015625,-0.5830078125,1.7577999999999998
0.8549618320610687,0.916030534351145,-2.045801526717557,0.070068359375,-0.193359375,-0.582275390625,1.7594999999999998
0.8091603053435115,0.9923664122137404,-1.8625954198473282,0.07568359375,-0.196044921875,-0.5791015625,1.7611999999999999
0.7175572519083969,1.0076335877862594,-1.633587786259542,0.072021484375,-0.197509765625,-0.578857421875,1.7629
0.6106870229007634,0.9465648854961832,-1.6946564885496183,0.073974609375,-0.1953125,-0.584716796875,1.7646
0.6106870229007634,0.9923664122137404,-1.5267175572519085,0.071533203125,-0.1962890625,-0.5771484375,1.7663
0.366412213740458,0.9465648854961832,-1.633587786259542,0.072998046875,-0.19287109375,-0.582763671875,1.7679999999999998
0.4122137404580153,0.8244274809160306,-1.5267175572519085,0.07421875,-0.194091796875,-0.581787109375,1.7696999999999998
0.3969465648854962,0.8091603053435115,-1.5114503816793894,0.07080078125,-0.1943359375,-0.57958984375,1.7713999999999999
0.183206106870229,0.7633587786259542,-1.4045801526717556,0.068115234375,-0.19384765625,-0.576904296875,1.7731
0.3053435114503817,0.5343511450381679,-1.3435114503816794,0.069091796875,-0.19775390625,-0.57177734375,1.7748
0.33587786259541985,0.6412213740458015,-1.3587786259541985,0.073486328125,-0.203369140625,-0.578125,1.7765
0.3511450381679389,0.5648854961832062,-1.1145038167938932,0.06982421875,-0.203369140625,-0.572509765625,1.7782
0.12213740458015267,0.4580152671755725,-1.1145038167938932,0.072509765625,-0.19873046875,-0.5771484375,1.7798999999999998
0.015267175572519083,0.4580152671755725,-1.297709923664122,0.07177734375,-0.197998046875,-0.573974609375,1.7815999999999999
0.21374045801526717,0.366412213740458,-1.2061068702290076,0.068603515625,-0.197998046875,-0.574462890625,1.7832999999999999
-0.12213740458015267,0.33587786259541985,-1.2213740458015268,0.066162109375,-0.19921875,-0.57861328125,1.785
0.0,0.2900763358778626,-1.251908396946565,0.070068359375,-0.202880859375,-0.578125,1.7867
0.015267175572519083,0.07633587786259542,-1.3740458015267176,0.06689453125,-0.19921875,-0.577880859375,1.7884
-0.10687022900763359,0.0916030534351145,-1.2671755725190839,0.074462890625,-0.197509765625,-0.575439453125,1.7900999999999998
-0.366412213740458,0.13740458015267176,-1.251908396946565,0.07470703125,-0.199462890625,-0.579833984375,1.7917999999999998
-0.15267175572519084,0.07633587786259542,-1.465648854961832,0.07080078125,-0.201171875,-0.56396484375,1.7934999999999999
-0.24427480916030533,0.015267175572519083,-1.3740458015267176,0.073486328125,-0.200927734375,-0.56494140625,1.7952
-0.2900763358778626,-0.15267175572519084,-1.3740458015267176,0.06640625,-0.199462890625,-0.567626953125,1.7969
-0.4732824427480916,-0.2595419847328244,-1.3893129770992367,0.0693359375,-0.199951171875,-0.57666015625,1.7986
-0.42748091603053434,-0.22900763358778625,-1.3435114503816794,0.071044921875,-0.200439453125,-0.57861328125,1.8002999999999998
-0.6564885496183206,-0.22900763358778625,-1.4961832061068703,0.07421875,-0.20068359375,-0.5791015625,1.8019999999999998
-0.9770992366412213,-0.21374045801526717,-1.450381679389313,0.072021484375,-0.201904296875,-0.5771484375,1.8036999999999999
-0.8091603053435115,-0.24427480916030533,-1.5725190839694656,0.07373046875,-0.20263671875,-0.580810546875,1.8054
-1.0534351145038168,-0.6717557251908397,-1.4961832061068703,0.0703125,-0.20654296875,-0.570556640625,1.8071
-0.916030534351145,-0.6412213740458015,-1.4809160305343512,0.068359375,-0.197509765625,-0.58154296875,1.8088
