gyrox1,gyroy1,gyroz1,accelx1,accely1,accelz1,Time
0.8244274809160306,0.48854961832061067,-0.42748091603053434,0.017822265625,0.032470703125,-0.614013671875,0.0
1.0381679389312977,0.5648854961832062,-0.366412213740458,0.009765625,0.030029296875,-0.615478515625,0.0017
1.0381679389312977,0.5648854961832062,-0.32061068702290074,0.01416015625,0.032958984375,-0.61328125,0.0034
1.0687022900763359,0.5801526717557252,-0.21374045801526717,0.012451171875,0.03173828125,-0.608642578125,0.0050999999999999995
1.0381679389312977,0.732824427480916,-0.33587786259541985,0.014892578125,0.029296875,-0.60595703125,0.0068
1.1297709923664123,0.6564885496183206,-0.2595419847328244,0.01416015625,0.0341796875,-0.609619140625,0.008499999999999999
1.2366412213740459,0.6259541984732825,-0.183206106870229,0.014404296875,0.03125,-0.61572265625,0.010199999999999999
1.1297709923664123,0.6717557251908397,0.030534351145038167,0.013916015625,0.03515625,-0.611328125,0.011899999999999999
1.1145038167938932,0.7022900763358778,-0.21374045801526717,0.01220703125,0.029541015625,-0.6201171875,0.0136
1.1755725190839694,0.8396946564885496,-0.13740458015267176,0.01123046875,0.031005859375,-0.61474609375,0.0153
1.297709923664122,0.9007633587786259,-0.183206106870229,0.013671875,0.02978515625,-0.617431640625,0.016999999999999998
1.3129770992366412,0.916030534351145,-0.015267175572519083,0.008056640625,0.032470703125,-0.61865234375,0.018699999999999998
1.3893129770992367,0.9618320610687023,-0.1984732824427481,0.01416015625,0.033935546875,-0.61328125,0.020399999999999998
1.5725190839694656,0.9312977099236641,0.015267175572519083,0.0107421875,0.0322265625,-0.616455078125,0.022099999999999998
1.5725190839694656,0.9618320610687023,0.0,0.015869140625,0.029052734375,-0.611083984375,0.023799999999999998
1.633587786259542,1.0534351145038168,-0.04580152671755725,0.01025390625,0.031005859375,-0.611083984375,0.0255
1.6793893129770991,1.1450381679389312,-0.2595419847328244,0.015869140625,0.03369140625,-0.62109375,0.0272
1.8778625954198473,1.099236641221374,-0.030534351145038167,0.011962890625,0.02978515625,-0.61328125,0.0289
1.8625954198473282,0.9770992366412213,-0.12213740458015267,0.013671875,0.02978515625,-0.61279296875,0.0306
2.015267175572519,1.1603053435114503,0.0,0.022216796875,0.03466796875,-0.611572265625,0.032299999999999995
2.16793893129771,1.1297709923664123,-0.3053435114503817,0.009765625,0.033935546875,-0.61669921875,0.033999999999999996
2.427480916030534,1.0534351145038168,-0.061068702290076333,0.018310546875,0.033203125,-0.61767578125,0.035699999999999996
2.4885496183206106,1.083969465648855,-0.15267175572519084,0.017822265625,0.030029296875,-0.61181640625,0.037399999999999996
2.381679389312977,0.9312977099236641,-0.061068702290076333,0.0126953125,0.035400390625,-0.615234375,0.039099999999999996
2.519083969465649,1.0687022900763359,-0.183206106870229,0.012451171875,0.037841796875,-0.608642578125,0.040799999999999996
2.4580152671755724,0.8091603053435115,0.183206106870229,0.01318359375,0.032470703125,-0.6142578125,0.042499999999999996
2.4885496183206106,0.6259541984732825,0.030534351145038167,0.018310546875,0.03515625,-0.60986328125,0.044199999999999996
2.351145038167939,0.7633587786259542,-0.030534351145038167,0.016845703125,0.034423828125,-0.6171875,0.045899999999999996
2.4732824427480917,0.6412213740458015,0.015267175572519083,0.0185546875,0.033447265625,-0.618896484375,0.047599999999999996
2.519083969465649,0.5190839694656488,-0.24427480916030533,0.011474609375,0.0322265625,-0.607177734375,0.0493
2.4885496183206106,0.6717557251908397,-0.5190839694656488,0.010498046875,0.03564453125,-0.60888671875,0.051
2.4732824427480917,0.6259541984732825,-0.183206106870229,0.0087890625,0.03369140625,-0.613525390625,0.0527
2.366412213740458,0.6717557251908397,-0.32061068702290074,0.0087890625,0.0302734375,-0.6005859375,0.0544
2.381679389312977,0.732824427480916,-0.5190839694656488,0.010498046875,0.031494140625,-0.60302734375,0.0561
2.213740458015267,0.8244274809160306,-0.6564885496183206,0.0126953125,0.02880859375,-0.599609375,0.0578
2.2595419847328246,0.8396946564885496,-0.6259541984732825,0.006103515625,0.02587890625,-0.604736328125,0.0595
2.351145038167939,0.8702290076335878,-0.7938931297709924,0.009033203125,0.03076171875,-0.609375,0.0612
2.427480916030534,0.732824427480916,-0.8702290076335878,0.00439453125,0.029541015625,-0.603759765625,0.0629
2.4885496183206106,0.7786259541984732,-0.8396946564885496,0.009521484375,0.01904296875,-0.608642578125,0.06459999999999999
2.595419847328244,1.0534351145038168,-0.8244274809160306,0.010498046875,0.029296875,-0.61376953125,0.0663
2.5343511450381677,1.1603053435114503,-1.1908396946564885,0.010498046875,0.023681640625,-0.60302734375,0.06799999999999999
2.7786259541984735,1.0687022900763359,-1.1908396946564885,0.009765625,0.025146484375,-0.604248046875,0.0697
2.4427480916030535,1.2213740458015268,-1.282442748091603,0.0107421875,0.023681640625,-0.607666015625,0.07139999999999999
2.6106870229007635,1.099236641221374,-1.2061068702290076,0.010498046875,0.02587890625,-0.60693359375,0.0731
2.4580152671755724,1.1297709923664123,-1.297709923664122,0.004638671875,0.025634765625,-0.6044921875,0.07479999999999999
2.6412213740458017,1.1603053435114503,-1.1450381679389312,0.00439453125,0.02392578125,-0.606689453125,0.0765
2.3206106870229006,1.1908396946564885,-1.3587786259541985,0.013671875,0.024169921875,-0.617431640625,0.07819999999999999
2.4885496183206106,1.0687022900763359,-1.2213740458015268,0.0107421875,0.01904296875,-0.61376953125,0.0799
2.2748091603053435,1.2213740458015268,-1.1603053435114503,0.00830078125,0.022216796875,-0.605712890625,0.08159999999999999
2.0610687022900764,1.297709923664122,-1.1450381679389312,0.0126953125,0.02099609375,-0.60498046875,0.0833
2.198473282442748,1.1450381679389312,-1.3129770992366412,0.014404296875,0.0234375,-0.612548828125,0.08499999999999999
1.984732824427481,1.282442748091603,-1.297709923664122,0.013427734375,0.018310546875,-0.614990234375,0.0867
2.015267175572519,1.2213740458015268,-0.9618320610687023,0.017822265625,0.0205078125,-0.607421875,0.08839999999999999
1.786259541984733,1.1755725190839694,-0.9007633587786259,0.011474609375,0.01953125,-0.61865234375,0.0901
2.015267175572519,1.1908396946564885,-1.0229007633587786,0.01318359375,0.020751953125,-0.614990234375,0.09179999999999999
2.0916030534351147,1.2671755725190839,-1.083969465648855,0.012451171875,0.02099609375,-0.6142578125,0.0935
2.015267175572519,1.0076335877862594,-1.1297709923664123,0.0126953125,0.021484375,-0.615478515625,0.09519999999999999
1.9389312977099236,1.0229007633587786,-0.9618320610687023,0.008544921875,0.014892578125,-0.617431640625,0.0969
2.0610687022900764,1.0076335877862594,-0.9312977099236641,0.01220703125,0.0166015625,-0.61328125,0.0986
1.9694656488549618,1.0381679389312977,-1.0076335877862594,0.017333984375,0.017822265625,-0.612060546875,0.1003
1.7709923664122138,0.7938931297709924,-0.9770992366412213,0.015625,0.021728515625,-0.617431640625,0.102
1.5419847328244274,0.8549618320610687,-0.9007633587786259,0.01708984375,0.02392578125,-0.615966796875,0.1037
1.4045801526717556,0.7633587786259542,-1.1297709923664123,0.012939453125,0.0205078125,-0.611328125,0.1054
1.2061068702290076,0.5801526717557252,-1.0687022900763359,0.0126953125,0.024658203125,-0.611083984375,0.1071
1.083969465648855,0.6564885496183206,-1.1603053435114503,0.00927734375,0.023681640625,-0.608642578125,0.1088
1.0229007633587786,0.6412213740458015,-0.9465648854961832,0.016357421875,0.0263671875,-0.6171875,0.11049999999999999
0.7175572519083969,0.6259541984732825,-1.099236641221374,0.013671875,0.0322265625,-0.61767578125,0.1122
0.7480916030534351,0.5190839694656488,-0.8396946564885496,0.01123046875,0.029052734375,-0.611572265625,0.11389999999999999
0.5954198473282443,0.48854961832061067,-0.8702290076335878,0.01513671875,0.032470703125,-0.61181640625,0.1156
0.366412213740458,0.366412213740458,-0.7480916030534351,0.009521484375,0.02587890625,-0.61474609375,0.11729999999999999
0.2900763358778626,0.549618320610687,-0.7175572519083969,0.00537109375,0.0302734375,-0.61376953125,0.119
0.183206106870229,0.5801526717557252,-0.6564885496183206,0.01220703125,0.0283203125,-0.610595703125,0.12069999999999999
0.12213740458015267,0.5190839694656488,-0.6870229007633588,0.01025390625,0.034423828125,-0.618896484375,0.1224
0.2748091603053435,0.4580152671755725,-0.6106870229007634,0.0087890625,0.0341796875,-0.616455078125,0.12409999999999999
0.32061068702290074,0.6259541984732825,-0.6870229007633588,0.005859375,0.037109375,-0.6142578125,0.1258
0.4732824427480916,0.3969465648854962,-0.6717557251908397,0.0068359375,0.0341796875,-0.609375,0.1275
0.6106870229007634,0.9007633587786259,-0.9007633587786259,0.0146484375,0.035888671875,-0.616455078125,0.12919999999999998
0.7633587786259542,0.7480916030534351,-0.7938931297709924,0.006103515625,0.03466796875,-0.61669921875,0.1309
0.916030534351145,0.9312977099236641,-0.7175572519083969,0.010498046875,0.035400390625,-0.61767578125,0.1326
0.9465648854961832,0.9312977099236641,-0.6106870229007634,0.008544921875,0.031494140625,-0.61083984375,0.1343
0.9770992366412213,0.9465648854961832,-0.8854961832061069,0.009521484375,0.027099609375,-0.605224609375,0.13599999999999998
1.297709923664122,1.1755725190839694,-0.9923664122137404,0.0078125,0.03662109375,-0.60986328125,0.1377
1.0534351145038168,1.1450381679389312,-1.0381679389312977,0.010986328125,0.0341796875,-0.607421875,0.1394
1.0229007633587786,1.3587786259541985,-0.9312977099236641,0.001953125,0.032958984375,-0.61328125,0.1411
1.251908396946565,1.4351145038167938,-1.1755725190839694,0.005859375,0.03369140625,-0.602783203125,0.14279999999999998
1.251908396946565,1.4198473282442747,-1.2213740458015268,0.0068359375,0.03515625,-0.612060546875,0.1445
1.1755725190839694,1.5267175572519085,-1.2671755725190839,0.009033203125,0.033203125,-0.607666015625,0.1462
1.4045801526717556,1.5419847328244274,-0.9923664122137404,0.009765625,0.033447265625,-0.613525390625,0.1479
1.5267175572519085,1.8473282442748091,-1.1297709923664123,0.006103515625,0.033935546875,-0.614013671875,0.14959999999999998
1.450381679389313,2.015267175572519,-1.3587786259541985,0.0078125,0.032958984375,-0.62353515625,0.1513
1.4809160305343512,1.9541984732824427,-1.4351145038167938,0.010009765625,0.032958984375,-0.61865234375,0.153
1.4351145038167938,2.0,-1.1755725190839694,0.00927734375,0.03759765625,-0.620849609375,0.1547
1.618320610687023,1.9541984732824427,-1.4198473282442747,0.009033203125,0.030517578125,-0.616455078125,0.15639999999999998
1.618320610687023,1.984732824427481,-1.3282442748091603,0.012451171875,0.024169921875,-0.611328125,0.1581
1.9389312977099236,2.1374045801526718,-1.5267175572519085,0.014404296875,0.027587890625,-0.610595703125,0.1598
1.8625954198473282,2.1068702290076335,-1.5725190839694656,0.012451171875,0.0322265625,-0.60595703125,0.1615
1.9083969465648856,1.9083969465648856,-1.5725190839694656,0.009033203125,0.033203125,-0.610107421875,0.16319999999999998
1.8015267175572518,1.8015267175572518,-1.6030534351145038,0.008056640625,0.029541015625,-0.609619140625,0.1649
1.9083969465648856,1.786259541984733,-1.9541984732824427,0.012939453125,0.027587890625,-0.611083984375,0.1666
1.9083969465648856,1.9083969465648856,-1.618320610687023,0.01220703125,0.02490234375,-0.615478515625,0.16829999999999998
2.2748091603053435,2.015267175572519,-1.9389312977099236,0.0087890625,0.029052734375,-0.61083984375,0.16999999999999998
1.9389312977099236,1.8625954198473282,-2.0916030534351147,0.009033203125,0.032470703125,-0.607177734375,0.1717
1.786259541984733,1.8778625954198473,-1.9389312977099236,0.0107421875,0.0302734375,-0.611328125,0.1734
1.8473282442748091,1.83206106870229,-2.1374045801526718,0.00830078125,0.027099609375,-0.62548828125,0.17509999999999998
1.6946564885496183,1.83206106870229,-2.0763358778625953,0.01611328125,0.02490234375,-0.619140625,0.17679999999999998
1.6946564885496183,2.0,-2.0763358778625953,0.008544921875,0.029296875,-0.61376953125,0.1785
1.4351145038167938,2.015267175572519,-2.0610687022900764,0.0068359375,0.027587890625,-0.61279296875,0.1802
1.618320610687023,2.122137404580153,-1.9694656488549618,0.009521484375,0.0302734375,-0.61279296875,0.18189999999999998
1.450381679389313,2.0916030534351147,-1.7557251908396947,0.006591796875,0.02783203125,-0.62060546875,0.18359999999999999
1.2366412213740459,2.015267175572519,-1.8778625954198473,0.00390625,0.031005859375,-0.6201171875,0.1853
1.1603053435114503,2.2595419847328246,-1.8931297709923665,0.010986328125,0.03125,-0.623046875,0.187
1.1908396946564885,2.198473282442748,-1.83206106870229,0.011962890625,0.036865234375,-0.6220703125,0.18869999999999998
1.1603053435114503,2.366412213740458,-1.7557251908396947,0.012451171875,0.033203125,-0.615966796875,0.19039999999999999
1.2213740458015268,2.549618320610687,-1.6030534351145038,0.013427734375,0.0322265625,-0.610595703125,0.1921
0.9923664122137404,2.4732824427480917,-1.7404580152671756,0.0078125,0.033203125,-0.609375,0.1938
0.7480916030534351,2.6106870229007635,-1.6488549618320612,0.013671875,0.027099609375,-0.613525390625,0.19549999999999998
0.8396946564885496,2.595419847328244,-1.5267175572519085,0.010498046875,0.036865234375,-0.613525390625,0.1972
0.7022900763358778,2.5343511450381677,-1.5419847328244274,0.0078125,0.03564453125,-0.619140625,0.1989
0.4122137404580153,2.381679389312977,-1.6030534351145038,0.015380859375,0.03173828125,-0.620849609375,0.2006
0.3816793893129771,2.549618320610687,-1.4045801526717556,0.012939453125,0.031982421875,-0.61328125,0.20229999999999998
0.2900763358778626,2.7480916030534353,-1.282442748091603,0.013916015625,0.02880859375,-0.60888671875,0.204
0.44274809160305345,2.4885496183206106,-1.3282442748091603,0.013671875,0.0283203125,-0.61572265625,0.2057
0.4732824427480916,2.366412213740458,-1.4198473282442747,0.014404296875,0.02880859375,-0.616455078125,0.2074
0.2900763358778626,2.2900763358778624,-1.4045801526717556,0.013671875,0.031982421875,-0.615966796875,0.20909999999999998
0.4122137404580153,2.2595419847328246,-1.4045801526717556,0.01416015625,0.0263671875,-0.607421875,0.2108
0.3816793893129771,2.213740458015267,-1.282442748091603,0.020263671875,0.023193359375,-0.61083984375,0.2125
0.5954198473282443,2.015267175572519,-1.4809160305343512,0.01904296875,0.029052734375,-0.609375,0.2142
0.6870229007633588,1.8473282442748091,-1.633587786259542,0.0166015625,0.028564453125,-0.61328125,0.21589999999999998
0.8396946564885496,1.7404580152671756,-1.5572519083969465,0.0166015625,0.032470703125,-0.61279296875,0.2176
0.6717557251908397,1.7404580152671756,-1.4809160305343512,0.017822265625,0.027099609375,-0.607177734375,0.2193
0.9312977099236641,1.6641221374045803,-1.5572519083969465,0.016357421875,0.03271484375,-0.6201171875,0.22099999999999997
0.7938931297709924,1.465648854961832,-1.83206106870229,0.01708984375,0.033203125,-0.617919921875,0.22269999999999998
0.7786259541984732,1.4198473282442747,-1.6641221374045803,0.016845703125,0.03271484375,-0.61328125,0.2244
0.549618320610687,1.3587786259541985,-1.6641221374045803,0.016357421875,0.02978515625,-0.614013671875,0.2261
0.549618320610687,1.2366412213740459,-1.4961832061068703,0.01611328125,0.03173828125,-0.617919921875,0.22779999999999997
0.5343511450381679,1.0687022900763359,-1.5725190839694656,0.010986328125,0.0263671875,-0.612548828125,0.22949999999999998
0.32061068702290074,1.1297709923664123,-1.3435114503816794,0.01025390625,0.033935546875,-0.6123046875,0.2312
0.4122137404580153,1.1603053435114503,-1.3587786259541985,0.01025390625,0.03173828125,-0.615966796875,0.2329
0.0916030534351145,1.3740458015267176,-1.2213740458015268,0.00830078125,0.028564453125,-0.61376953125,0.23459999999999998
0.12213740458015267,1.1450381679389312,-1.5267175572519085,0.014404296875,0.028564453125,-0.610107421875,0.23629999999999998
0.16793893129770993,0.9923664122137404,-1.3435114503816794,0.019287109375,0.02978515625,-0.611572265625,0.238
0.16793893129770993,1.1603053435114503,-1.3893129770992367,0.013916015625,0.036865234375,-0.6123046875,0.2397
0.32061068702290074,0.9312977099236641,-1.297709923664122,0.01708984375,0.031982421875,-0.615234375,0.24139999999999998
0.33587786259541985,1.0076335877862594,-1.4045801526717556,0.014404296875,0.03662109375,-0.621826171875,0.24309999999999998
0.22900763358778625,1.0687022900763359,-1.0534351145038168,0.01513671875,0.029541015625,-0.61669921875,0.2448
0.3816793893129771,1.1450381679389312,-1.3282442748091603,0.015625,0.033447265625,-0.61865234375,0.2465
0.3511450381679389,1.1908396946564885,-1.2366412213740459,0.01123046875,0.032958984375,-0.61572265625,0.24819999999999998
0.5954198473282443,1.1755725190839694,-1.1755725190839694,0.005859375,0.03271484375,-0.6123046875,0.24989999999999998
0.7175572519083969,1.1450381679389312,-1.3282442748091603,0.012939453125,0.03271484375,-0.614990234375,0.2516
0.6564885496183206,1.1908396946564885,-1.4351145038167938,0.008544921875,0.033935546875,-0.62353515625,0.25329999999999997
0.549618320610687,1.2213740458015268,-1.297709923664122,0.0107421875,0.03173828125,-0.610595703125,0.255
0.732824427480916,1.4351145038167938,-1.3740458015267176,0.0078125,0.03271484375,-0.6201171875,0.2567
0.6870229007633588,1.4198473282442747,-1.2061068702290076,0.013671875,0.03271484375,-0.612060546875,0.25839999999999996
0.9465648854961832,1.3435114503816794,-1.4198473282442747,0.009521484375,0.03271484375,-0.6103515625,0.2601
1.0076335877862594,1.450381679389313,-1.1603053435114503,0.010498046875,0.033935546875,-0.618408203125,0.2618
0.8396946564885496,1.3893129770992367,-1.3587786259541985,0.0126953125,0.03515625,-0.618408203125,0.2635
0.8702290076335878,1.3740458015267176,-1.0076335877862594,0.011474609375,0.03369140625,-0.617431640625,0.2652
1.1145038167938932,1.6030534351145038,-1.1297709923664123,0.012939453125,0.031494140625,-0.615478515625,0.26689999999999997
1.099236641221374,1.816793893129771,-0.9770992366412213,0.001708984375,0.0380859375,-0.6171875,0.2686
1.1755725190839694,1.633587786259542,-1.2671755725190839,0.009765625,0.033203125,-0.62060546875,0.2703
1.1603053435114503,1.7099236641221374,-1.0534351145038168,0.010009765625,0.0400390625,-0.6142578125,0.27199999999999996
1.0381679389312977,1.7709923664122138,-0.9312977099236641,0.008056640625,0.028564453125,-0.616455078125,0.2737
1.251908396946565,1.7404580152671756,-1.083969465648855,0.0087890625,0.0380859375,-0.62451171875,0.2754
1.0229007633587786,1.7404580152671756,-1.1450381679389312,0.01220703125,0.032958984375,-0.614013671875,0.27709999999999996
0.8549618320610687,2.015267175572519,-1.2213740458015268,0.007080078125,0.0341796875,-0.61376953125,0.2788
0.916030534351145,1.8778625954198473,-1.3282442748091603,0.0107421875,0.033447265625,-0.6162109375,0.28049999999999997
0.8549618320610687,2.015267175572519,-1.3435114503816794,0.01318359375,0.03076171875,-0.616455078125,0.2822
0.6870229007633588,1.9389312977099236,-1.4961832061068703,0.011474609375,0.037109375,-0.61572265625,0.2839
0.3816793893129771,2.045801526717557,-1.5267175572519085,0.009033203125,0.03271484375,-0.623291015625,0.28559999999999997
0.4122137404580153,2.015267175572519,-1.7404580152671756,0.007080078125,0.033447265625,-0.609619140625,0.2873
0.48854961832061067,1.9541984732824427,-1.9236641221374047,0.009033203125,0.033447265625,-0.613525390625,0.289
0.3816793893129771,1.8625954198473282,-1.7251908396946565,0.008544921875,0.03369140625,-0.61962890625,0.29069999999999996
0.42748091603053434,2.0610687022900764,-1.7404580152671756,0.011962890625,0.033203125,-0.613037109375,0.2924
0.5648854961832062,1.9694656488549618,-1.83206106870229,0.011962890625,0.0322265625,-0.619140625,0.2941
0.366412213740458,1.8931297709923665,-1.6641221374045803,0.010986328125,0.029296875,-0.616943359375,0.2958
0.42748091603053434,1.83206106870229,-1.83206106870229,0.016357421875,0.035400390625,-0.611572265625,0.2975
0.732824427480916,1.9541984732824427,-1.6488549618320612,0.008544921875,0.03125,-0.61865234375,0.29919999999999997
0.5801526717557252,2.015267175572519,-1.7099236641221374,0.00927734375,0.0361328125,-0.6142578125,0.3009
0.6106870229007634,1.9694656488549618,-1.5572519083969465,0.011962890625,0.036376953125,-0.609375,0.3026
0.5038167938931297,1.9389312977099236,-1.7099236641221374,0.011474609375,0.03466796875,-0.614990234375,0.30429999999999996
0.33587786259541985,1.8931297709923665,-1.7099236641221374,0.0087890625,0.0341796875,-0.622802734375,0.306
0.5190839694656488,2.0,-1.6030534351145038,0.0126953125,0.0341796875,-0.6103515625,0.3077
0.3511450381679389,1.9541984732824427,-1.450381679389313,0.012451171875,0.0380859375,-0.61181640625,0.3094
0.366412213740458,1.9083969465648856,-1.618320610687023,0.010986328125,0.03076171875,-0.616455078125,0.3111
0.7480916030534351,1.83206106870229,-1.465648854961832,0.01611328125,0.033203125,-0.613037109375,0.31279999999999997
0.8396946564885496,1.8015267175572518,-1.618320610687023,0.0107421875,0.03271484375,-0.614990234375,0.3145
0.8244274809160306,1.7557251908396947,-1.4809160305343512,0.009033203125,0.031005859375,-0.612060546875,0.3162
0.9770992366412213,1.8473282442748091,-1.6030534351145038,0.01416015625,0.027587890625,-0.609619140625,0.31789999999999996
0.9007633587786259,1.8473282442748091,-1.5267175572519085,0.01318359375,0.02880859375,-0.6025390625,0.3196
0.9923664122137404,1.8473282442748091,-1.5419847328244274,0.0146484375,0.03271484375,-0.61279296875,0.3213
1.4198473282442747,1.8015267175572518,-1.3893129770992367,0.0078125,0.028564453125,-0.61474609375,0.323
1.251908396946565,1.633587786259542,-1.6793893129770991,0.008056640625,0.03466796875,-0.61181640625,0.3247
1.1755725190839694,1.7251908396946565,-1.5267175572519085,0.009521484375,0.031494140625,-0.609130859375,0.32639999999999997
1.5114503816793894,1.8931297709923665,-1.6030534351145038,0.0078125,0.02685546875,-0.611328125,0.3281
1.4351145038167938,1.8625954198473282,-1.633587786259542,0.01318359375,0.026611328125,-0.614501953125,0.3298
1.251908396946565,1.6641221374045803,-1.6488549618320612,0.010986328125,0.029052734375,-0.615478515625,0.33149999999999996
1.282442748091603,1.465648854961832,-1.633587786259542,0.009765625,0.031982421875,-0.614990234375,0.3332
1.297709923664122,1.6946564885496183,-1.7099236641221374,0.01220703125,0.025390625,-0.61865234375,0.3349
0.9770992366412213,1.5725190839694656,-1.6488549618320612,0.01953125,0.027587890625,-0.619384765625,0.33659999999999995
0.8244274809160306,1.5114503816793894,-1.6030534351145038,0.01123046875,0.0283203125,-0.61376953125,0.3383
0.7480916030534351,1.4045801526717556,-1.5572519083969465,0.01513671875,0.02734375,-0.6181640625,0.33999999999999997
0.4732824427480916,1.4809160305343512,-1.7557251908396947,0.01220703125,0.031494140625,-0.61279296875,0.3417
0.5801526717557252,1.5419847328244274,-1.3740458015267176,0.012939453125,0.030517578125,-0.612548828125,0.3434
0.6259541984732825,1.5572519083969465,-1.7404580152671756,0.011962890625,0.02685546875,-0.609130859375,0.34509999999999996
0.5038167938931297,1.3129770992366412,-1.4198473282442747,0.014892578125,0.0263671875,-0.6044921875,0.3468
0.549618320610687,1.3893129770992367,-1.465648854961832,0.012939453125,0.025390625,-0.61767578125,0.3485
0.5190839694656488,1.3282442748091603,-1.6793893129770991,0.01220703125,0.024169921875,-0.609619140625,0.35019999999999996
0.2900763358778626,1.1297709923664123,-1.8625954198473282,0.011474609375,0.024658203125,-0.61279296875,0.3519
0.6412213740458015,1.0076335877862594,-1.4351145038167938,0.017578125,0.029541015625,-0.61328125,0.35359999999999997
0.7938931297709924,1.0381679389312977,-1.5572519083969465,0.016357421875,0.02783203125,-0.623046875,0.3553
0.5190839694656488,1.1145038167938932,-1.5725190839694656,0.021240234375,0.030029296875,-0.613525390625,0.357
0.6870229007633588,1.0229007633587786,-1.633587786259542,0.01708984375,0.028564453125,-0.612060546875,0.35869999999999996
0.48854961832061067,1.0687022900763359,-1.3587786259541985,0.016357421875,0.027587890625,-0.609375,0.3604
0.7786259541984732,0.9007633587786259,-1.3740458015267176,0.010498046875,0.031982421875,-0.60888671875,0.3621
0.549618320610687,0.8854961832061069,-1.3129770992366412,0.01220703125,0.0283203125,-0.606689453125,0.36379999999999996
0.3511450381679389,0.916030534351145,-1.465648854961832,0.013671875,0.030029296875,-0.609619140625,0.3655
0.42748091603053434,0.7938931297709924,-1.251908396946565,0.0126953125,0.031005859375,-0.613525390625,0.36719999999999997
0.5801526717557252,0.8549618320610687,-1.3740458015267176,0.01025390625,0.03466796875,-0.614990234375,0.3689
0.5038167938931297,0.8854961832061069,-1.2671755725190839,0.00732421875,0.03076171875,-0.610107421875,0.3706
0.5190839694656488,0.9312977099236641,-1.450381679389313,0.0146484375,0.032470703125,-0.614990234375,0.37229999999999996
0.2595419847328244,0.7022900763358778,-1.282442748091603,0.010986328125,0.030517578125,-0.61669921875,0.374
0.3511450381679389,0.9465648854961832,-1.4809160305343512,0.005859375,0.028564453125,-0.61328125,0.3757
0.3053435114503817,0.916030534351145,-1.2061068702290076,0.0048828125,0.027099609375,-0.614990234375,0.37739999999999996
0.3969465648854962,0.9465648854961832,-1.2671755725190839,0.004150390625,0.031005859375,-0.6123046875,0.3791
0.42748091603053434,0.9465648854961832,-1.3435114503816794,0.014892578125,0.033447265625,-0.60791015625,0.38079999999999997
0.16793893129770993,0.8549618320610687,-1.2061068702290076,0.013427734375,0.03076171875,-0.613525390625,0.38249999999999995
0.32061068702290074,1.0076335877862594,-1.3282442748091603,0.00732421875,0.030517578125,-0.610595703125,0.3842
0.3511450381679389,1.1145038167938932,-1.2671755725190839,0.011962890625,0.034423828125,-0.611572265625,0.38589999999999997
0.1984732824427481,0.916030534351145,-1.4351145038167938,0.008056640625,0.03125,-0.61376953125,0.3876
0.1984732824427481,1.0687022900763359,-1.297709923664122,0.006591796875,0.029052734375,-0.612060546875,0.3893
0.16793893129770993,1.0381679389312977,-1.4809160305343512,0.005859375,0.032470703125,-0.614013671875,0.39099999999999996
0.4122137404580153,1.083969465648855,-1.3587786259541985,0.00830078125,0.0302734375,-0.61328125,0.3927
0.1984732824427481,0.9923664122137404,-1.282442748091603,0.008056640625,0.031005859375,-0.61279296875,0.3944
0.2900763358778626,0.9923664122137404,-1.3893129770992367,0.01513671875,0.030517578125,-0.605224609375,0.39609999999999995
0.3816793893129771,0.9923664122137404,-1.4351145038167938,0.011962890625,0.031005859375,-0.608154296875,0.3978
0.48854961832061067,1.0687022900763359,-1.5877862595419847,0.008056640625,0.031005859375,-0.60986328125,0.39949999999999997
0.15267175572519084,1.1450381679389312,-1.6641221374045803,0.008544921875,0.03076171875,-0.617919921875,0.4012
0.3816793893129771,1.1145038167938932,-1.7251908396946565,0.008056640625,0.034423828125,-0.61376953125,0.4029
0.4732824427480916,0.9618320610687023,-1.83206106870229,0.01220703125,0.035400390625,-0.605224609375,0.40459999999999996
0.2595419847328244,1.0076335877862594,-1.7251908396946565,0.00927734375,0.033447265625,-0.60302734375,0.4063
0.42748091603053434,0.9770992366412213,-1.7251908396946565,0.0087890625,0.027587890625,-0.61376953125,0.408
0.4580152671755725,0.8396946564885496,-1.7099236641221374,0.01318359375,0.0302734375,-0.61474609375,0.40969999999999995
0.4580152671755725,0.7175572519083969,-1.7251908396946565,0.00927734375,0.034423828125,-0.617919921875,0.4114
0.549618320610687,1.0534351145038168,-1.7557251908396947,0.0107421875,0.0341796875,-0.608154296875,0.41309999999999997
0.7633587786259542,0.8244274809160306,-1.8931297709923665,0.010009765625,0.03125,-0.610595703125,0.4148
0.3511450381679389,0.8549618320610687,-1.816793893129771,0.00927734375,0.0322265625,-0.609130859375,0.4165
0.48854961832061067,0.7480916030534351,-1.83206106870229,0.01220703125,0.035888671875,-0.601318359375,0.41819999999999996
0.4580152671755725,0.9923664122137404,-1.6946564885496183,0.01123046875,0.03466796875,-0.61376953125,0.4199
0.6717557251908397,1.0534351145038168,-1.8015267175572518,0.0126953125,0.03173828125,-0.614501953125,0.4216
0.3816793893129771,0.7786259541984732,-1.5725190839694656,0.008056640625,0.03369140625,-0.621826171875,0.42329999999999995
0.549618320610687,0.9923664122137404,-1.6793893129770991,0.0068359375,0.03759765625,-0.614013671875,0.425
0.8702290076335878,0.9923664122137404,-1.5267175572519085,0.010498046875,0.031005859375,-0.6123046875,0.42669999999999997
0.8396946564885496,1.1755725190839694,-1.3282442748091603,0.011474609375,0.029052734375,-0.61865234375,0.4284
0.7938931297709924,1.2671755725190839,-1.465648854961832,0.009765625,0.03515625,-0.609619140625,0.4301
0.9312977099236641,1.282442748091603,-1.4198473282442747,0.0068359375,0.03857421875,-0.6083984375,0.43179999999999996
1.0381679389312977,1.251908396946565,-1.3435114503816794,0.005859375,0.036865234375,-0.608154296875,0.4335
1.282442748091603,1.1603053435114503,-1.5877862595419847,0.0166015625,0.0322265625,-0.6142578125,0.4352
1.1450381679389312,1.297709923664122,-1.3435114503816794,0.009521484375,0.031494140625,-0.603271484375,0.43689999999999996
1.1755725190839694,1.2213740458015268,-1.4198473282442747,0.009765625,0.033203125,-0.602783203125,0.4386
1.282442748091603,0.9923664122137404,-1.5725190839694656,0.011474609375,0.028564453125,-0.61083984375,0.44029999999999997
1.4809160305343512,1.2366412213740459,-1.450381679389313,0.01025390625,0.033447265625,-0.603759765625,0.44199999999999995
1.5267175572519085,1.3740458015267176,-1.4809160305343512,0.013427734375,0.035400390625,-0.610107421875,0.4437
1.465648854961832,1.2061068702290076,-1.786259541984733,0.0146484375,0.0361328125,-0.6083984375,0.44539999999999996
1.4961832061068703,1.1755725190839694,-1.5877862595419847,0.01318359375,0.028076171875,-0.61279296875,0.4471
1.5877862595419847,1.1450381679389312,-1.6641221374045803,0.0107421875,0.029541015625,-0.6083984375,0.4488
1.3435114503816794,1.2213740458015268,-1.7251908396946565,0.01708984375,0.029541015625,-0.604736328125,0.45049999999999996
1.2213740458015268,1.2671755725190839,-1.7099236641221374,0.0068359375,0.031494140625,-0.613525390625,0.4522
1.3740458015267176,1.2671755725190839,-1.7709923664122138,0.01416015625,0.030517578125,-0.61376953125,0.45389999999999997
1.2366412213740459,1.282442748091603,-1.6946564885496183,0.01025390625,0.033447265625,-0.607666015625,0.45559999999999995
0.9770992366412213,1.1450381679389312,-1.6793893129770991,0.008056640625,0.039306640625,-0.617431640625,0.4573
0.7938931297709924,1.2213740458015268,-1.7099236641221374,0.01416015625,0.0361328125,-0.6142578125,0.45899999999999996
0.916030534351145,1.282442748091603,-1.5725190839694656,0.013916015625,0.032958984375,-0.612060546875,0.4607
0.8396946564885496,1.2366412213740459,-1.4809160305343512,0.013671875,0.02880859375,-0.608642578125,0.4624
0.7480916030534351,1.099236641221374,-1.4045801526717556,0.010498046875,0.031494140625,-0.607421875,0.46409999999999996
0.6564885496183206,1.083969465648855,-1.4351145038167938,0.011962890625,0.02978515625,-0.6142578125,0.4658
0.48854961832061067,1.1755725190839694,-1.2061068702290076,0.00927734375,0.03466796875,-0.616455078125,0.46749999999999997
0.42748091603053434,1.083969465648855,-1.450381679389313,0.01025390625,0.034912109375,-0.616943359375,0.46919999999999995
0.4580152671755725,0.9923664122137404,-1.3587786259541985,0.015869140625,0.032470703125,-0.61328125,0.4709
0.5648854961832062,0.8396946564885496,-1.3282442748091603,0.01025390625,0.03125,-0.606689453125,0.47259999999999996
0.5343511450381679,0.7938931297709924,-1.251908396946565,0.012451171875,0.028076171875,-0.614501953125,0.4743
0.7022900763358778,0.7938931297709924,-1.3740458015267176,0.01611328125,0.024658203125,-0.61328125,0.476
0.7175572519083969,0.7938931297709924,-1.4045801526717556,0.01611328125,0.02880859375,-0.612060546875,0.47769999999999996
0.5038167938931297,0.6259541984732825,-1.4045801526717556,0.019287109375,0.03369140625,-0.608642578125,0.4794
0.8244274809160306,0.6106870229007634,-1.5114503816793894,0.014404296875,0.02685546875,-0.61474609375,0.48109999999999997
0.6870229007633588,0.5954198473282443,-1.4198473282442747,0.012451171875,0.03369140625,-0.616943359375,0.48279999999999995
0.8702290076335878,0.3511450381679389,-1.4045801526717556,0.01171875,0.029296875,-0.61279296875,0.4845
0.9923664122137404,0.12213740458015267,-1.4045801526717556,0.013916015625,0.026123046875,-0.60888671875,0.48619999999999997
1.3435114503816794,0.1984732824427481,-1.5267175572519085,0.008544921875,0.0322265625,-0.609130859375,0.4879
1.1145038167938932,0.15267175572519084,-1.5725190839694656,0.010009765625,0.03466796875,-0.60595703125,0.4896
1.1908396946564885,0.10687022900763359,-1.4809160305343512,0.01220703125,0.03173828125,-0.609619140625,0.49129999999999996
1.3587786259541985,0.24427480916030533,-1.5114503816793894,0.011962890625,0.02734375,-0.615234375,0.493
1.1908396946564885,0.15267175572519084,-1.297709923664122,0.010498046875,0.02978515625,-0.61474609375,0.4947
1.4198473282442747,0.16793893129770993,-1.5114503816793894,0.010009765625,0.0390625,-0.60546875,0.49639999999999995
1.251908396946565,0.12213740458015267,-1.251908396946565,0.008056640625,0.0380859375,-0.614990234375,0.4981
1.282442748091603,0.16793893129770993,-1.5572519083969465,0.00927734375,0.03125,-0.6083984375,0.49979999999999997
1.083969465648855,0.07633587786259542,-1.282442748091603,0.0068359375,0.029052734375,-0.6044921875,0.5015
1.1145038167938932,0.3053435114503817,-1.3435114503816794,0.012451171875,0.027099609375,-0.60693359375,0.5032
1.1297709923664123,0.366412213740458,-1.1145038167938932,0.007568359375,0.027587890625,-0.607666015625,0.5049
1.0687022900763359,0.3053435114503817,-1.3282442748091603,0.0078125,0.0283203125,-0.61181640625,0.5065999999999999
1.1603053435114503,0.4732824427480916,-1.2213740458015268,0.013671875,0.029541015625,-0.60693359375,0.5083
1.099236641221374,0.42748091603053434,-1.1908396946564885,0.011474609375,0.03466796875,-0.610595703125,0.51
1.1603053435114503,0.6412213740458015,-1.3282442748091603,0.013671875,0.03125,-0.607177734375,0.5116999999999999
0.9618320610687023,0.5038167938931297,-1.5114503816793894,0.000732421875,0.034912109375,-0.614501953125,0.5134
0.9312977099236641,0.5648854961832062,-1.2671755725190839,0.0078125,0.0322265625,-0.614990234375,0.5151
1.0381679389312977,0.732824427480916,-1.4198473282442747,0.009765625,0.0283203125,-0.606689453125,0.5167999999999999
0.9007633587786259,0.7022900763358778,-1.2671755725190839,0.009765625,0.025634765625,-0.60498046875,0.5185
0.7938931297709924,0.9007633587786259,-1.4809160305343512,0.011474609375,0.02734375,-0.61181640625,0.5202
0.9770992366412213,0.8396946564885496,-1.3587786259541985,0.00439453125,0.031494140625,-0.615234375,0.5218999999999999
0.7633587786259542,0.7938931297709924,-1.5725190839694656,0.0087890625,0.0263671875,-0.610595703125,0.5236
0.7022900763358778,0.6717557251908397,-1.3129770992366412,0.011474609375,0.031494140625,-0.6103515625,0.5253
0.9618320610687023,0.8244274809160306,-1.4809160305343512,0.010498046875,0.028564453125,-0.614501953125,0.527
0.8244274809160306,0.6870229007633588,-1.5572519083969465,0.005126953125,0.03173828125,-0.61181640625,0.5287
0.6412213740458015,0.9007633587786259,-1.7099236641221374,0.012939453125,0.031494140625,-0.609619140625,0.5304
0.732824427480916,0.7480916030534351,-1.6030534351145038,0.013916015625,0.032958984375,-0.6162109375,0.5321
0.8549618320610687,0.8091603053435115,-1.8015267175572518,0.01025390625,0.03173828125,-0.614501953125,0.5337999999999999
0.8702290076335878,0.9770992366412213,-1.8015267175572518,0.007568359375,0.03515625,-0.61669921875,0.5355
0.732824427480916,0.9312977099236641,-2.015267175572519,0.00732421875,0.029541015625,-0.61767578125,0.5372
0.6412213740458015,0.6412213740458015,-1.786259541984733,0.01220703125,0.027587890625,-0.61376953125,0.5388999999999999
0.7938931297709924,0.916030534351145,-1.816793893129771,0.009765625,0.033935546875,-0.61328125,0.5406
0.6870229007633588,1.0229007633587786,-1.816793893129771,0.01123046875,0.029541015625,-0.610107421875,0.5423
0.8549618320610687,0.8091603053435115,-1.9389312977099236,0.006103515625,0.028564453125,-0.61328125,0.5439999999999999
0.6259541984732825,0.916030534351145,-1.5725190839694656,0.006103515625,0.032470703125,-0.610595703125,0.5457
0.6870229007633588,0.8702290076335878,-2.0916030534351147,0.011962890625,0.028564453125,-0.608642578125,0.5474
0.5648854961832062,0.7480916030534351,-1.8473282442748091,0.006103515625,0.029296875,-0.61767578125,0.5490999999999999
0.7480916030534351,0.9007633587786259,-1.9389312977099236,0.00732421875,0.0361328125,-0.61083984375,0.5508
0.6870229007633588,0.7480916030534351,-1.9541984732824427,0.00927734375,0.03076171875,-0.618408203125,0.5525
0.3969465648854962,0.8549618320610687,-2.045801526717557,0.00634765625,0.032470703125,-0.609375,0.5541999999999999
0.3969465648854962,0.7786259541984732,-1.816793893129771,0.0107421875,0.026123046875,-0.609130859375,0.5559
0.44274809160305345,0.8702290076335878,-1.9236641221374047,0.00732421875,0.027587890625,-0.6083984375,0.5576
0.3053435114503817,0.7786259541984732,-1.816793893129771,0.014404296875,0.033935546875,-0.609619140625,0.5593
0.16793893129770993,0.7633587786259542,-1.816793893129771,0.006591796875,0.032470703125,-0.61865234375,0.5609999999999999
0.2900763358778626,0.7938931297709924,-1.9236641221374047,0.010986328125,0.029296875,-0.61865234375,0.5627
0.12213740458015267,0.5648854961832062,-2.015267175572519,0.015625,0.030517578125,-0.608642578125,0.5644
0.2595419847328244,0.6106870229007634,-1.618320610687023,0.015625,0.032958984375,-0.61376953125,0.5660999999999999
0.16793893129770993,0.8854961832061069,-1.8625954198473282,0.01025390625,0.03369140625,-0.617431640625,0.5678
0.183206106870229,0.8854961832061069,-1.816793893129771,0.008056640625,0.03515625,-0.615478515625,0.5695
0.2595419847328244,0.9007633587786259,-1.7404580152671756,0.009765625,0.035888671875,-0.61865234375,0.5711999999999999
0.4732824427480916,0.8549618320610687,-1.5267175572519085,0.014404296875,0.031982421875,-0.616943359375,0.5729
0.3816793893129771,0.8854961832061069,-1.5877862595419847,0.01416015625,0.03466796875,-0.61279296875,0.5746
0.2748091603053435,0.8549618320610687,-1.3740458015267176,0.010009765625,0.033447265625,-0.611083984375,0.5762999999999999
0.5801526717557252,0.9618320610687023,-1.6488549618320612,0.009765625,0.0361328125,-0.612060546875,0.578
0.5038167938931297,0.916030534351145,-1.5725190839694656,0.01220703125,0.0400390625,-0.6181640625,0.5797
0.6412213740458015,0.7633587786259542,-1.6946564885496183,0.01904296875,0.03515625,-0.60693359375,0.5813999999999999
1.2213740458015268,0.9007633587786259,-1.450381679389313,0.013671875,0.03662109375,-0.60986328125,0.5831
1.2061068702290076,0.9007633587786259,-1.5419847328244274,0.01318359375,0.039306640625,-0.6162109375,0.5848
1.0381679389312977,0.732824427480916,-1.282442748091603,0.011962890625,0.037841796875,-0.61181640625,0.5865
1.450381679389313,0.5343511450381679,-1.5419847328244274,0.007568359375,0.03564453125,-0.608154296875,0.5882
1.4351145038167938,0.6564885496183206,-1.5267175572519085,0.0078125,0.03466796875,-0.60693359375,0.5899
1.5877862595419847,0.5038167938931297,-1.3740458015267176,0.013916015625,0.032470703125,-0.610595703125,0.5916
1.6030534351145038,0.2595419847328244,-1.4961832061068703,0.01171875,0.03515625,-0.62109375,0.5932999999999999
1.9083969465648856,0.4580152671755725,-1.5267175572519085,0.013671875,0.036865234375,-0.603759765625,0.595
1.9083969465648856,0.3053435114503817,-1.450381679389313,0.015625,0.038330078125,-0.615478515625,0.5967
1.8778625954198473,0.33587786259541985,-1.465648854961832,0.008056640625,0.0341796875,-0.61279296875,0.5983999999999999
2.0610687022900764,0.366412213740458,-1.3587786259541985,0.012451171875,0.034912109375,-0.61962890625,0.6001
2.3969465648854964,0.4580152671755725,-1.4351145038167938,0.006591796875,0.03759765625,-0.6044921875,0.6018
2.2748091603053435,0.5038167938931297,-1.3282442748091603,0.010498046875,0.029296875,-0.616455078125,0.6034999999999999
2.2442748091603053,0.42748091603053434,-1.3587786259541985,0.00927734375,0.033935546875,-0.61181640625,0.6052
2.3053435114503817,0.44274809160305345,-1.5267175572519085,0.0087890625,0.033447265625,-0.614990234375,0.6069
2.4732824427480917,0.3053435114503817,-1.3587786259541985,0.011474609375,0.03466796875,-0.611083984375,0.6085999999999999
2.3969465648854964,0.4122137404580153,-1.3435114503816794,0.008056640625,0.037109375,-0.605224609375,0.6103
2.4885496183206106,0.4580152671755725,-1.3893129770992367,0.010986328125,0.031982421875,-0.60693359375,0.612
2.4732824427480917,0.5801526717557252,-1.1450381679389312,0.015869140625,0.03466796875,-0.609619140625,0.6136999999999999
2.2595419847328246,0.549618320610687,-1.3282442748091603,0.011962890625,0.03564453125,-0.6181640625,0.6154
2.3969465648854964,0.5038167938931297,-1.282442748091603,0.00830078125,0.02978515625,-0.615234375,0.6171
2.33587786259542,0.6106870229007634,-1.297709923664122,0.006591796875,0.037109375,-0.60986328125,0.6188
2.2442748091603053,0.5954198473282443,-1.251908396946565,0.0107421875,0.034912109375,-0.612060546875,0.6204999999999999
2.2900763358778624,0.7480916030534351,-1.282442748091603,0.0078125,0.030029296875,-0.615966796875,0.6222
1.9541984732824427,0.7938931297709924,-1.0229007633587786,0.014404296875,0.02783203125,-0.61181640625,0.6239
2.0610687022900764,0.7175572519083969,-1.0534351145038168,0.005615234375,0.02978515625,-0.6142578125,0.6255999999999999
2.030534351145038,0.916030534351145,-1.251908396946565,0.009033203125,0.03173828125,-0.6064453125,0.6273
1.816793893129771,0.916030534351145,-1.083969465648855,0.012939453125,0.03271484375,-0.618896484375,0.629
1.7251908396946565,0.8702290076335878,-0.9923664122137404,0.005859375,0.030029296875,-0.611572265625,0.6306999999999999
1.5877862595419847,0.9312977099236641,-1.1908396946564885,0.009765625,0.0302734375,-0.6240234375,0.6324
1.6793893129770991,0.9312977099236641,-1.1145038167938932,0.009521484375,0.027099609375,-0.6171875,0.6341
1.3129770992366412,0.8244274809160306,-1.0229007633587786,0.01611328125,0.03076171875,-0.611328125,0.6357999999999999
1.297709923664122,0.6870229007633588,-1.1755725190839694,0.010498046875,0.029052734375,-0.605224609375,0.6375
1.0687022900763359,0.916030534351145,-1.2213740458015268,0.00830078125,0.033935546875,-0.609130859375,0.6392
0.9923664122137404,0.916030534351145,-1.297709923664122,0.015380859375,0.02783203125,-0.6201171875,0.6408999999999999
0.9618320610687023,0.6870229007633588,-1.3129770992366412,0.01171875,0.028076171875,-0.615478515625,0.6426
0.8091603053435115,0.7938931297709924,-1.5267175572519085,0.014404296875,0.03125,-0.607177734375,0.6443
0.6564885496183206,0.9465648854961832,-1.3587786259541985,0.008056640625,0.02880859375,-0.607421875,0.646
0.6564885496183206,0.916030534351145,-1.3435114503816794,0.010986328125,0.029296875,-0.6103515625,0.6476999999999999
0.7633587786259542,0.8702290076335878,-1.465648854961832,0.016357421875,0.033203125,-0.6142578125,0.6494
0.6717557251908397,1.1145038167938932,-1.3740458015267176,0.011962890625,0.033203125,-0.617431640625,0.6511
0.7938931297709924,1.0229007633587786,-1.2366412213740459,0.010986328125,0.033447265625,-0.609375,0.6527999999999999
0.6717557251908397,1.0229007633587786,-1.2366412213740459,0.013916015625,0.036865234375,-0.60595703125,0.6545
0.916030534351145,0.9770992366412213,-1.3435114503816794,0.008544921875,0.033203125,-0.6083984375,0.6562
0.8702290076335878,1.1297709923664123,-1.0687022900763359,0.010986328125,0.033203125,-0.61181640625,0.6578999999999999
0.8244274809160306,1.0381679389312977,-1.2366412213740459,0.01318359375,0.030029296875,-0.607421875,0.6596
0.916030534351145,1.083969465648855,-1.1297709923664123,0.01025390625,0.03955078125,-0.616455078125,0.6613
0.9465648854961832,1.0534351145038168,-0.916030534351145,0.0087890625,0.032470703125,-0.615234375,0.6629999999999999
1.083969465648855,0.9312977099236641,-1.0076335877862594,0.012939453125,0.0380859375,-0.615478515625,0.6647
1.1145038167938932,1.0381679389312977,-1.0076335877862594,0.009765625,0.038330078125,-0.61474609375,0.6664
0.8396946564885496,0.8396946564885496,-0.9465648854961832,0.009765625,0.03466796875,-0.6142578125,0.6680999999999999
1.2213740458015268,0.6870229007633588,-0.7938931297709924,0.013916015625,0.03076171875,-0.61328125,0.6698
1.465648854961832,0.6717557251908397,-0.916030534351145,0.009521484375,0.03662109375,-0.6171875,0.6715
1.3893129770992367,0.6412213740458015,-1.0076335877862594,0.010009765625,0.037841796875,-0.6123046875,0.6731999999999999
1.5725190839694656,0.7633587786259542,-1.083969465648855,0.010009765625,0.036865234375,-0.6083984375,0.6748999999999999
1.7099236641221374,0.5648854961832062,-1.1297709923664123,0.01171875,0.03564453125,-0.61474609375,0.6766
1.83206106870229,0.6412213740458015,-1.1297709923664123,0.009521484375,0.032470703125,-0.6142578125,0.6783
2.1374045801526718,0.5801526717557252,-1.2213740458015268,0.009033203125,0.036376953125,-0.612060546875,0.6799999999999999
2.16793893129771,0.6870229007633588,-1.251908396946565,0.0087890625,0.031982421875,-0.61767578125,0.6817
2.198473282442748,0.6870229007633588,-1.2061068702290076,0.007568359375,0.036376953125,-0.615966796875,0.6834
2.2595419847328246,0.6259541984732825,-1.3435114503816794,0.012939453125,0.0322265625,-0.60986328125,0.6850999999999999
2.4122137404580153,0.8396946564885496,-1.4351145038167938,0.014404296875,0.033447265625,-0.611572265625,0.6868
2.366412213740458,0.7938931297709924,-1.4809160305343512,0.011962890625,0.0322265625,-0.61328125,0.6885
2.2290076335877864,0.8244274809160306,-1.3129770992366412,0.00927734375,0.027587890625,-0.619140625,0.6901999999999999
2.2595419847328246,0.9465648854961832,-1.4961832061068703,0.014404296875,0.03271484375,-0.610107421875,0.6919
2.1526717557251906,0.6717557251908397,-1.1450381679389312,0.008544921875,0.0322265625,-0.61865234375,0.6936
2.366412213740458,0.7938931297709924,-1.3282442748091603,0.007080078125,0.030517578125,-0.6103515625,0.6952999999999999
2.183206106870229,0.8396946564885496,-1.2671755725190839,0.009765625,0.033935546875,-0.613525390625,0.697
2.1526717557251906,0.8702290076335878,-0.9770992366412213,0.008056640625,0.036865234375,-0.6083984375,0.6987
2.1526717557251906,1.0229007633587786,-1.0381679389312977,0.015869140625,0.0283203125,-0.611572265625,0.7003999999999999
2.183206106870229,0.916030534351145,-0.9923664122137404,0.007568359375,0.03125,-0.612060546875,0.7021
2.1374045801526718,1.099236641221374,-0.7633587786259542,0.008544921875,0.031005859375,-0.6083984375,0.7038
1.9083969465648856,1.1603053435114503,-0.8549618320610687,0.0087890625,0.02978515625,-0.606201171875,0.7055
1.8625954198473282,1.1755725190839694,-0.6564885496183206,0.01123046875,0.028076171875,-0.61181640625,0.7071999999999999
1.9083969465648856,1.2671755725190839,-0.8702290076335878,0.00537109375,0.032958984375,-0.61181640625,0.7089
1.816793893129771,1.2366412213740459,-0.7938931297709924,0.010498046875,0.031982421875,-0.608154296875,0.7106
1.7557251908396947,1.2213740458015268,-0.916030534351145,0.010986328125,0.033447265625,-0.609130859375,0.7122999999999999
1.3587786259541985,1.3740458015267176,-0.7633587786259542,0.009765625,0.03125,-0.615234375,0.714
1.3740458015267176,1.2671755725190839,-1.0229007633587786,0.010498046875,0.03466796875,-0.612548828125,0.7157
1.2366412213740459,1.2213740458015268,-0.8702290076335878,0.01171875,0.02587890625,-0.60546875,0.7173999999999999
1.1297709923664123,1.297709923664122,-1.083969465648855,0.01220703125,0.027587890625,-0.6044921875,0.7191
1.251908396946565,1.4351145038167938,-1.0076335877862594,0.01708984375,0.02880859375,-0.610107421875,0.7208
1.2671755725190839,1.3740458015267176,-1.1145038167938932,0.00927734375,0.033447265625,-0.614501953125,0.7224999999999999
1.0381679389312977,1.3129770992366412,-1.0076335877862594,0.009765625,0.03173828125,-0.6162109375,0.7242
0.8854961832061069,1.2366412213740459,-1.1145038167938932,0.010986328125,0.03076171875,-0.603759765625,0.7259
1.0687022900763359,1.2213740458015268,-0.9618320610687023,0.008056640625,0.02587890625,-0.6142578125,0.7275999999999999
0.916030534351145,1.4045801526717556,-0.9465648854961832,0.011474609375,0.025146484375,-0.611328125,0.7293
0.9770992366412213,1.251908396946565,-0.8854961832061069,0.011474609375,0.02978515625,-0.609130859375,0.731
0.8549618320610687,1.4961832061068703,-0.8702290076335878,0.007080078125,0.02685546875,-0.60498046875,0.7326999999999999
0.9007633587786259,1.3435114503816794,-0.9618320610687023,0.009765625,0.028564453125,-0.6103515625,0.7343999999999999
0.8702290076335878,1.3282442748091603,-0.9007633587786259,0.0146484375,0.028076171875,-0.6103515625,0.7361
0.9007633587786259,1.251908396946565,-0.7480916030534351,0.0107421875,0.03173828125,-0.6103515625,0.7378
0.8702290076335878,1.3587786259541985,-0.6564885496183206,0.01171875,0.028076171875,-0.6142578125,0.7394999999999999
1.1603053435114503,1.4045801526717556,-0.7022900763358778,0.01220703125,0.02978515625,-0.614990234375,0.7412
1.2366412213740459,1.5572519083969465,-0.6870229007633588,0.016845703125,0.031982421875,-0.61474609375,0.7429
1.2213740458015268,1.5267175572519085,-0.6412213740458015,0.0087890625,0.029052734375,-0.617919921875,0.7445999999999999
1.251908396946565,1.6488549618320612,-0.7175572519083969,0.013427734375,0.029052734375,-0.614990234375,0.7463
1.2366412213740459,1.5114503816793894,-0.3969465648854962,0.012451171875,0.029296875,-0.60498046875,0.748
1.5572519083969465,1.6030534351145038,-0.5648854961832062,0.014404296875,0.033203125,-0.615966796875,0.7496999999999999
1.816793893129771,1.5877862595419847,-0.42748091603053434,0.010498046875,0.03125,-0.60888671875,0.7514
2.0763358778625953,1.4351145038167938,-0.48854961832061067,0.01318359375,0.034912109375,-0.607421875,0.7531
2.122137404580153,1.3893129770992367,-0.366412213740458,0.00732421875,0.03662109375,-0.609619140625,0.7547999999999999
2.16793893129771,1.2213740458015268,-0.32061068702290074,0.0107421875,0.034423828125,-0.61181640625,0.7565
2.1068702290076335,1.3435114503816794,-0.32061068702290074,0.0126953125,0.031494140625,-0.61083984375,0.7582
2.366412213740458,1.465648854961832,-0.3816793893129771,0.0107421875,0.030029296875,-0.611083984375,0.7598999999999999
2.427480916030534,1.4045801526717556,-0.22900763358778625,0.009765625,0.037109375,-0.614501953125,0.7615999999999999
2.595419847328244,1.251908396946565,-0.5343511450381679,0.01123046875,0.03173828125,-0.616455078125,0.7633
2.6259541984732824,1.3129770992366412,-0.183206106870229,0.0126953125,0.027099609375,-0.605712890625,0.7649999999999999
2.6564885496183206,1.3893129770992367,-0.4122137404580153,0.012939453125,0.03173828125,-0.614013671875,0.7666999999999999
2.946564885496183,1.2671755725190839,-0.33587786259541985,0.011474609375,0.03515625,-0.620849609375,0.7684
2.9618320610687023,1.282442748091603,-0.3816793893129771,0.01220703125,0.033935546875,-0.60498046875,0.7701
3.2213740458015265,1.2213740458015268,-0.32061068702290074,0.009521484375,0.029052734375,-0.62060546875,0.7717999999999999
3.2977099236641223,1.2061068702290076,-0.42748091603053434,0.007568359375,0.030517578125,-0.6083984375,0.7735
3.2213740458015265,1.083969465648855,-0.4732824427480916,0.0078125,0.02734375,-0.62158203125,0.7752
3.3740458015267176,1.0381679389312977,-0.3511450381679389,0.009521484375,0.03466796875,-0.607666015625,0.7768999999999999
3.435114503816794,1.0534351145038168,-0.22900763358778625,0.011474609375,0.03369140625,-0.607421875,0.7786
3.2977099236641223,0.916030534351145,-0.3969465648854962,0.00830078125,0.034912109375,-0.61181640625,0.7803
3.282442748091603,1.0229007633587786,-0.4122137404580153,0.00927734375,0.03125,-0.606201171875,0.7819999999999999
3.114503816793893,0.8854961832061069,-0.4580152671755725,0.01123046875,0.0302734375,-0.61767578125,0.7837
3.2977099236641223,0.9312977099236641,-0.21374045801526717,0.00830078125,0.032470703125,-0.61865234375,0.7854
3.099236641221374,1.0076335877862594,-0.5038167938931297,0.01220703125,0.029296875,-0.611328125,0.7870999999999999
2.9770992366412212,0.9465648854961832,-0.3816793893129771,0.00927734375,0.031494140625,-0.617919921875,0.7888
2.8244274809160306,1.0229007633587786,-0.3816793893129771,0.00732421875,0.029052734375,-0.61376953125,0.7905
2.6259541984732824,1.0687022900763359,-0.32061068702290074,0.011962890625,0.037353515625,-0.6162109375,0.7921999999999999
2.351145038167939,0.9770992366412213,-0.6412213740458015,0.005615234375,0.02685546875,-0.605712890625,0.7938999999999999
2.2595419847328246,1.0076335877862594,-0.44274809160305345,0.008056640625,0.028076171875,-0.614990234375,0.7956
2.0610687022900764,1.083969465648855,-0.7175572519083969,0.01171875,0.0322265625,-0.614990234375,0.7973
1.9694656488549618,1.1603053435114503,-0.5801526717557252,0.010009765625,0.031982421875,-0.613037109375,0.7989999999999999
1.6793893129770991,1.3129770992366412,-0.6870229007633588,0.00830078125,0.029541015625,-0.61279296875,0.8007
1.4045801526717556,1.2213740458015268,-0.7175572519083969,0.011474609375,0.03271484375,-0.612060546875,0.8024
1.5877862595419847,1.1603053435114503,-0.8396946564885496,0.008544921875,0.0283203125,-0.603271484375,0.8040999999999999
1.4961832061068703,1.251908396946565,-0.7480916030534351,0.006103515625,0.037841796875,-0.609619140625,0.8058
1.2671755725190839,1.297709923664122,-1.0076335877862594,0.008544921875,0.0341796875,-0.61767578125,0.8075
1.1755725190839694,1.3435114503816794,-1.0687022900763359,0.010009765625,0.0302734375,-0.614013671875,0.8091999999999999
1.083969465648855,1.5114503816793894,-1.1297709923664123,0.009765625,0.031005859375,-0.61328125,0.8109
1.0381679389312977,1.465648854961832,-0.7480916030534351,0.009033203125,0.03125,-0.620849609375,0.8126
1.1755725190839694,1.5725190839694656,-0.9770992366412213,0.010009765625,0.0302734375,-0.6162109375,0.8142999999999999
0.9312977099236641,1.4351145038167938,-0.9923664122137404,0.009765625,0.03173828125,-0.616943359375,0.816
0.8091603053435115,1.6641221374045803,-1.1297709923664123,0.012939453125,0.034912109375,-0.609130859375,0.8177
0.9770992366412213,1.8015267175572518,-1.0381679389312977,0.01220703125,0.033203125,-0.61083984375,0.8193999999999999
0.916030534351145,1.7557251908396947,-0.9465648854961832,0.0068359375,0.0341796875,-0.61767578125,0.8210999999999999
0.8702290076335878,1.5877862595419847,-1.0381679389312977,0.0068359375,0.031494140625,-0.61865234375,0.8228
0.8091603053435115,1.6030534351145038,-1.083969465648855,0.00830078125,0.03076171875,-0.6142578125,0.8244999999999999
1.0687022900763359,1.7709923664122138,-0.8091603053435115,0.01025390625,0.02734375,-0.6103515625,0.8261999999999999
0.6870229007633588,1.786259541984733,-0.9007633587786259,0.013916015625,0.035400390625,-0.616943359375,0.8279
0.7480916030534351,1.6946564885496183,-0.7480916030534351,0.010009765625,0.037841796875,-0.616455078125,0.8296
1.1755725190839694,1.5419847328244274,-1.0076335877862594,0.010986328125,0.03466796875,-0.621337890625,0.8312999999999999
1.1450381679389312,1.8473282442748091,-0.9770992366412213,0.009521484375,0.03271484375,-0.604248046875,0.833
1.0381679389312977,1.618320610687023,-1.0076335877862594,0.015380859375,0.032958984375,-0.6171875,0.8347
1.2061068702290076,1.5725190839694656,-1.0687022900763359,0.009521484375,0.033935546875,-0.612060546875,0.8363999999999999
1.1297709923664123,1.4351145038167938,-1.1297709923664123,0.015625,0.0361328125,-0.614990234375,0.8381
1.3893129770992367,1.3587786259541985,-1.1450381679389312,0.015625,0.03564453125,-0.619384765625,0.8398
1.3435114503816794,1.3129770992366412,-1.3587786259541985,0.010986328125,0.03515625,-0.613525390625,0.8414999999999999
1.465648854961832,1.251908396946565,-1.1603053435114503,0.0126953125,0.03759765625,-0.613525390625,0.8432
1.633587786259542,1.083969465648855,-1.3129770992366412,0.01318359375,0.037109375,-0.61962890625,0.8449
1.633587786259542,1.083969465648855,-1.251908396946565,0.01220703125,0.036865234375,-0.61962890625,0.8465999999999999
1.7099236641221374,1.1450381679389312,-1.1145038167938932,0.01025390625,0.0361328125,-0.610107421875,0.8482999999999999
1.9083969465648856,1.099236641221374,-1.1145038167938932,0.01513671875,0.039306640625,-0.616455078125,0.85
2.0916030534351147,0.9770992366412213,-1.2213740458015268,0.012939453125,0.03662109375,-0.61083984375,0.8516999999999999
2.0763358778625953,0.7022900763358778,-1.1603053435114503,0.011474609375,0.03271484375,-0.61376953125,0.8533999999999999
2.0763358778625953,0.6259541984732825,-1.0229007633587786,0.014892578125,0.03076171875,-0.615234375,0.8551
1.9541984732824427,0.8854961832061069,-1.0076335877862594,0.0126953125,0.032958984375,-0.61962890625,0.8568
2.3206106870229006,0.8396946564885496,-0.9923664122137404,0.013916015625,0.032470703125,-0.611572265625,0.8584999999999999
2.183206106870229,0.6870229007633588,-0.9923664122137404,0.01220703125,0.031005859375,-0.614990234375,0.8602
1.9541984732824427,0.7938931297709924,-0.916030534351145,0.012451171875,0.033447265625,-0.61865234375,0.8619
2.1374045801526718,0.5190839694656488,-0.7938931297709924,0.0087890625,0.03515625,-0.6103515625,0.8635999999999999
2.0763358778625953,0.4580152671755725,-0.6564885496183206,0.01123046875,0.03466796875,-0.60791015625,0.8653
2.183206106870229,0.7175572519083969,-0.7175572519083969,0.0078125,0.03515625,-0.60888671875,0.867
2.3206106870229006,0.3816793893129771,-0.6259541984732825,0.013427734375,0.033935546875,-0.612060546875,0.8686999999999999
2.1068702290076335,0.48854961832061067,-0.6870229007633588,0.014892578125,0.033203125,-0.618896484375,0.8704
2.2442748091603053,0.3816793893129771,-0.732824427480916,0.0068359375,0.031494140625,-0.609619140625,0.8721
2.1526717557251906,0.32061068702290074,-0.8854961832061069,0.012939453125,0.034423828125,-0.609375,0.8737999999999999
2.213740458015267,0.3816793893129771,-0.5801526717557252,0.016357421875,0.0341796875,-0.614501953125,0.8755
2.122137404580153,0.6259541984732825,-0.8396946564885496,0.01123046875,0.030029296875,-0.61474609375,0.8772
2.0763358778625953,0.3816793893129771,-0.916030534351145,0.007568359375,0.033203125,-0.608154296875,0.8788999999999999
2.0763358778625953,0.3969465648854962,-0.8244274809160306,0.009033203125,0.031005859375,-0.604736328125,0.8805999999999999
2.0916030534351147,0.6259541984732825,-0.7175572519083969,0.013427734375,0.025146484375,-0.61376953125,0.8823
2.015267175572519,0.7786259541984732,-1.0076335877862594,0.010986328125,0.03125,-0.625244140625,0.8839999999999999
1.7099236641221374,0.5954198473282443,-1.1755725190839694,0.0087890625,0.032470703125,-0.614501953125,0.8856999999999999
1.4961832061068703,0.7786259541984732,-1.251908396946565,0.010986328125,0.029296875,-0.619140625,0.8874
1.4961832061068703,0.8702290076335878,-1.0534351145038168,0.005126953125,0.034423828125,-0.6123046875,0.8891
1.2061068702290076,0.7633587786259542,-1.099236641221374,0.006591796875,0.03466796875,-0.615966796875,0.8907999999999999
1.1603053435114503,0.8702290076335878,-1.083969465648855,0.008056640625,0.0283203125,-0.61181640625,0.8925
1.0381679389312977,1.0076335877862594,-1.2213740458015268,0.010009765625,0.031982421875,-0.60986328125,0.8942
0.7480916030534351,0.8396946564885496,-1.083969465648855,0.00927734375,0.02490234375,-0.6181640625,0.8958999999999999
0.9007633587786259,0.9923664122137404,-1.0229007633587786,0.00830078125,0.02490234375,-0.61474609375,0.8976
0.6870229007633588,1.0381679389312977,-1.1297709923664123,0.0087890625,0.03076171875,-0.61474609375,0.8993
0.6564885496183206,1.0076335877862594,-0.9923664122137404,0.013671875,0.032470703125,-0.621826171875,0.9009999999999999
0.8549618320610687,1.099236641221374,-0.8244274809160306,0.009765625,0.035400390625,-0.620361328125,0.9027
0.6870229007633588,1.0534351145038168,-0.8549618320610687,0.0087890625,0.032470703125,-0.62060546875,0.9044
0.6106870229007634,1.099236641221374,-0.9007633587786259,0.00927734375,0.035400390625,-0.61474609375,0.9060999999999999
0.8396946564885496,1.1450381679389312,-0.7022900763358778,0.010498046875,0.03271484375,-0.613037109375,0.9077999999999999
0.7633587786259542,0.9770992366412213,-0.5954198473282443,0.011474609375,0.031005859375,-0.61328125,0.9095
0.8549618320610687,1.1908396946564885,-0.8091603053435115,0.012451171875,0.033203125,-0.62060546875,0.9111999999999999
0.732824427480916,1.1908396946564885,-0.7175572519083969,0.009765625,0.03466796875,-0.627685546875,0.9128999999999999
0.6870229007633588,0.9618320610687023,-0.549618320610687,0.0068359375,0.026123046875,-0.61865234375,0.9146
0.7938931297709924,1.083969465648855,-0.8091603053435115,0.00830078125,0.026611328125,-0.617431640625,0.9163
0.8549618320610687,1.1145038167938932,-0.8244274809160306,0.01171875,0.03369140625,-0.622802734375,0.9179999999999999
0.8549618320610687,1.0076335877862594,-0.48854961832061067,0.016357421875,0.032958984375,-0.614501953125,0.9197
1.3435114503816794,0.9312977099236641,-0.7633587786259542,0.011474609375,0.03369140625,-0.617919921875,0.9214
1.5267175572519085,0.9312977099236641,-0.7938931297709924,0.010498046875,0.0322265625,-0.61376953125,0.9230999999999999
1.3435114503816794,0.9923664122137404,-0.732824427480916,0.007568359375,0.030029296875,-0.618896484375,0.9248
1.6488549618320612,1.099236641221374,-0.9312977099236641,0.01806640625,0.0322265625,-0.6142578125,0.9265
1.465648854961832,1.1603053435114503,-1.1755725190839694,0.0107421875,0.030517578125,-0.619140625,0.9281999999999999
1.7099236641221374,1.0534351145038168,-1.0687022900763359,0.007080078125,0.0302734375,-0.61376953125,0.9299
1.7709923664122138,1.0076335877862594,-0.9465648854961832,0.0126953125,0.034912109375,-0.61865234375,0.9316
1.618320610687023,0.9312977099236641,-1.1908396946564885,0.0068359375,0.033203125,-0.61474609375,0.9332999999999999
1.4351145038167938,0.9770992366412213,-0.9465648854961832,0.01220703125,0.037353515625,-0.61474609375,0.9349999999999999
1.7404580152671756,1.1145038167938932,-0.8549618320610687,0.01123046875,0.029296875,-0.61474609375,0.9367
1.633587786259542,0.9618320610687023,-0.9312977099236641,0.010498046875,0.03076171875,-0.618896484375,0.9383999999999999
1.5419847328244274,1.1603053435114503,-0.9923664122137404,0.006591796875,0.039306640625,-0.613525390625,0.9400999999999999
1.3435114503816794,1.2061068702290076,-1.0381679389312977,0.011962890625,0.032470703125,-0.6142578125,0.9418
1.1450381679389312,1.2671755725190839,-0.7480916030534351,0.009521484375,0.0302734375,-0.620361328125,0.9434999999999999
1.251908396946565,1.2671755725190839,-1.0534351145038168,0.007080078125,0.02880859375,-0.61669921875,0.9451999999999999
1.2366412213740459,1.2213740458015268,-1.0687022900763359,0.0087890625,0.02587890625,-0.62060546875,0.9469
1.1908396946564885,1.3129770992366412,-1.1297709923664123,0.0087890625,0.03466796875,-0.616455078125,0.9486
1.1755725190839694,1.282442748091603,-1.0534351145038168,0.01025390625,0.0263671875,-0.615234375,0.9502999999999999
1.083969465648855,1.2213740458015268,-1.3587786259541985,0.004638671875,0.031494140625,-0.61328125,0.952
1.1908396946564885,1.3282442748091603,-1.297709923664122,0.010986328125,0.0341796875,-0.615966796875,0.9537
1.099236641221374,1.3435114503816794,-1.0381679389312977,0.007080078125,0.029296875,-0.61328125,0.9553999999999999
1.0687022900763359,1.5572519083969465,-1.3282442748091603,0.00927734375,0.03076171875,-0.61865234375,0.9571
1.1297709923664123,1.2671755725190839,-1.282442748091603,0.0087890625,0.031005859375,-0.613037109375,0.9588
0.9618320610687023,1.3740458015267176,-1.1297709923664123,0.01123046875,0.029296875,-0.611083984375,0.9604999999999999
0.7633587786259542,1.5877862595419847,-1.2061068702290076,0.011962890625,0.033203125,-0.615478515625,0.9621999999999999
0.916030534351145,1.5877862595419847,-1.0076335877862594,0.014892578125,0.033935546875,-0.619384765625,0.9639
0.6106870229007634,1.618320610687023,-0.9770992366412213,0.006591796875,0.030029296875,-0.60791015625,0.9655999999999999
0.7938931297709924,1.6641221374045803,-0.7480916030534351,0.009521484375,0.0341796875,-0.619873046875,0.9672999999999999
0.7633587786259542,1.7099236641221374,-0.9618320610687023,0.01171875,0.030029296875,-0.621337890625,0.969
0.7938931297709924,1.6030534351145038,-0.8091603053435115,0.009033203125,0.028564453125,-0.62060546875,0.9706999999999999
0.7633587786259542,1.6030534351145038,-0.7480916030534351,0.008056640625,0.033447265625,-0.61572265625,0.9723999999999999
0.7480916030534351,1.8015267175572518,-0.6717557251908397,0.017333984375,0.030517578125,-0.616455078125,0.9741
0.8702290076335878,1.8015267175572518,-0.916030534351145,0.01318359375,0.029052734375,-0.610107421875,0.9758
0.916030534351145,1.6946564885496183,-0.5801526717557252,0.00927734375,0.030029296875,-0.61328125,0.9774999999999999
0.6870229007633588,1.6641221374045803,-0.7786259541984732,0.011474609375,0.02880859375,-0.60498046875,0.9792
0.8091603053435115,1.8625954198473282,-0.7480916030534351,0.012939453125,0.031982421875,-0.61181640625,0.9809
1.0687022900763359,1.8625954198473282,-0.8702290076335878,0.007568359375,0.026611328125,-0.614013671875,0.9825999999999999
0.8091603053435115,1.8015267175572518,-0.7938931297709924,0.010498046875,0.02490234375,-0.619873046875,0.9843
0.7786259541984732,1.6946564885496183,-0.8549618320610687,0.01171875,0.02734375,-0.619384765625,0.986
0.916030534351145,1.633587786259542,-0.9007633587786259,0.011474609375,0.027587890625,-0.611083984375,0.9876999999999999
0.7175572519083969,1.4198473282442747,-0.8244274809160306,0.01220703125,0.0322265625,-0.614990234375,0.9894
0.6564885496183206,1.5725190839694656,-0.8854961832061069,0.0078125,0.028076171875,-0.6123046875,0.9911
0.8702290076335878,1.4045801526717556,-0.9465648854961832,0.010986328125,0.026611328125,-0.61181640625,0.9927999999999999
0.7633587786259542,1.3587786259541985,-1.1297709923664123,0.01025390625,0.0322265625,-0.613037109375,0.9944999999999999
0.8854961832061069,1.3587786259541985,-1.0687022900763359,0.009765625,0.03076171875,-0.612548828125,0.9962
0.7786259541984732,1.282442748091603,-1.0381679389312977,0.010986328125,0.02734375,-0.615478515625,0.9978999999999999
0.8091603053435115,1.2061068702290076,-1.083969465648855,0.01318359375,0.0302734375,-0.610107421875,0.9995999999999999
1.0381679389312977,1.2061068702290076,-1.0381679389312977,0.00830078125,0.028076171875,-0.6162109375,1.0012999999999999
0.9770992366412213,1.2213740458015268,-1.0687022900763359,0.011474609375,0.029541015625,-0.612548828125,1.003
0.9312977099236641,1.3282442748091603,-1.0076335877862594,0.00927734375,0.028564453125,-0.615966796875,1.0047
1.0534351145038168,1.3893129770992367,-1.2061068702290076,0.00927734375,0.032470703125,-0.614501953125,1.0064
1.1755725190839694,1.450381679389313,-0.7938931297709924,0.008544921875,0.0341796875,-0.614501953125,1.0081
0.8702290076335878,1.3282442748091603,-0.8702290076335878,0.017578125,0.03271484375,-0.607666015625,1.0098
1.1145038167938932,1.3435114503816794,-0.8244274809160306,0.00830078125,0.035888671875,-0.607177734375,1.0114999999999998
1.2061068702290076,1.450381679389313,-0.8091603053435115,0.0126953125,0.029296875,-0.610595703125,1.0131999999999999
0.8702290076335878,1.3435114503816794,-0.4732824427480916,0.013427734375,0.027587890625,-0.612548828125,1.0149
1.0381679389312977,1.2213740458015268,-0.5648854961832062,0.01318359375,0.037841796875,-0.617431640625,1.0166
0.8854961832061069,1.1450381679389312,-0.5954198473282443,0.012451171875,0.03564453125,-0.60986328125,1.0183
0.8396946564885496,1.450381679389313,-0.5038167938931297,0.011474609375,0.03173828125,-0.611083984375,1.02
1.0076335877862594,1.5419847328244274,-0.4122137404580153,0.016357421875,0.03369140625,-0.612548828125,1.0217
0.7480916030534351,1.3129770992366412,-0.5954198473282443,0.009765625,0.03271484375,-0.612548828125,1.0233999999999999
0.8702290076335878,1.3740458015267176,-0.4732824427480916,0.006103515625,0.029052734375,-0.609619140625,1.0251
0.9312977099236641,1.251908396946565,-0.6564885496183206,0.013427734375,0.0302734375,-0.607177734375,1.0268
0.7786259541984732,1.1908396946564885,-0.7480916030534351,0.00927734375,0.03271484375,-0.605712890625,1.0285
0.8549618320610687,1.2213740458015268,-0.732824427480916,0.0166015625,0.02783203125,-0.613037109375,1.0302
0.9465648854961832,1.2213740458015268,-0.9312977099236641,0.012451171875,0.026123046875,-0.6162109375,1.0319
1.0229007633587786,1.1755725190839694,-0.8854961832061069,0.012939453125,0.030029296875,-0.610595703125,1.0335999999999999
0.7786259541984732,0.9923664122137404,-0.8396946564885496,0.007080078125,0.03466796875,-0.607421875,1.0352999999999999
0.7022900763358778,1.1603053435114503,-1.0076335877862594,0.013427734375,0.030517578125,-0.612060546875,1.037
0.6717557251908397,1.2213740458015268,-1.083969465648855,0.01171875,0.036865234375,-0.610107421875,1.0387
0.732824427480916,1.1297709923664123,-1.1145038167938932,0.013671875,0.031005859375,-0.6044921875,1.0404
0.6717557251908397,1.099236641221374,-1.1603053435114503,0.0078125,0.032958984375,-0.603759765625,1.0421
0.6564885496183206,1.3587786259541985,-1.1450381679389312,0.01123046875,0.03271484375,-0.61669921875,1.0437999999999998
0.5038167938931297,1.083969465648855,-1.083969465648855,0.01220703125,0.030517578125,-0.610107421875,1.0454999999999999
0.6412213740458015,1.1145038167938932,-1.1145038167938932,0.0068359375,0.0322265625,-0.615234375,1.0472
0.916030534351145,1.1908396946564885,-1.0076335877862594,0.0107421875,0.035400390625,-0.61376953125,1.0489
0.5648854961832062,1.083969465648855,-1.2366412213740459,0.010986328125,0.0302734375,-0.624267578125,1.0506
0.6106870229007634,1.3435114503816794,-1.1450381679389312,0.01220703125,0.03466796875,-0.6181640625,1.0523
0.732824427480916,1.3587786259541985,-0.9618320610687023,0.015380859375,0.0322265625,-0.6181640625,1.054
0.7022900763358778,1.3129770992366412,-0.9923664122137404,0.015380859375,0.03515625,-0.621826171875,1.0556999999999999
0.8244274809160306,1.3893129770992367,-1.0076335877862594,0.01318359375,0.027587890625,-0.619140625,1.0574
0.8549618320610687,1.297709923664122,-1.0076335877862594,0.01025390625,0.02978515625,-0.614990234375,1.0591
0.9618320610687023,1.3893129770992367,-0.9770992366412213,0.014404296875,0.033203125,-0.61083984375,1.0608
0.6870229007633588,1.4961832061068703,-0.9007633587786259,0.015625,0.02978515625,-0.609130859375,1.0625
0.8702290076335878,1.5267175572519085,-1.1297709923664123,0.01220703125,0.027099609375,-0.603515625,1.0642
0.9923664122137404,1.450381679389313,-0.9465648854961832,0.010009765625,0.03076171875,-0.60791015625,1.0658999999999998
0.8549618320610687,1.5725190839694656,-0.9923664122137404,0.010498046875,0.03369140625,-0.6123046875,1.0675999999999999
0.916030534351145,1.4198473282442747,-1.0381679389312977,0.009765625,0.034423828125,-0.611083984375,1.0693
1.099236641221374,1.450381679389313,-1.0381679389312977,0.009765625,0.03369140625,-0.61279296875,1.071
0.9770992366412213,1.465648854961832,-1.2213740458015268,0.010986328125,0.02880859375,-0.611328125,1.0727
0.8396946564885496,1.465648854961832,-1.1145038167938932,0.010498046875,0.032958984375,-0.602783203125,1.0744
1.0381679389312977,1.450381679389313,-1.0381679389312977,0.00927734375,0.03759765625,-0.610595703125,1.0760999999999998
0.9312977099236641,1.4961832061068703,-1.297709923664122,0.017333984375,0.02587890625,-0.606689453125,1.0777999999999999
0.9007633587786259,1.282442748091603,-1.0381679389312977,0.01123046875,0.03125,-0.612548828125,1.0795
0.8244274809160306,1.5725190839694656,-0.9923664122137404,0.010498046875,0.0341796875,-0.61328125,1.0812
0.5648854961832062,1.6030534351145038,-0.8702290076335878,0.014404296875,0.029541015625,-0.603759765625,1.0829
0.6717557251908397,1.5114503816793894,-0.9618320610687023,0.00634765625,0.02978515625,-0.612060546875,1.0846
0.6564885496183206,1.6030534351145038,-0.9007633587786259,0.0078125,0.03076171875,-0.611083984375,1.0863
0.6564885496183206,1.7251908396946565,-0.9312977099236641,0.012451171875,0.03076171875,-0.615478515625,1.0879999999999999
0.7938931297709924,1.618320610687023,-0.732824427480916,0.009521484375,0.034423828125,-0.617431640625,1.0897
0.7633587786259542,1.6030534351145038,-0.8396946564885496,0.014404296875,0.032470703125,-0.6162109375,1.0914
0.6717557251908397,1.633587786259542,-0.732824427480916,0.01171875,0.026611328125,-0.60888671875,1.0931
0.6412213740458015,1.7404580152671756,-0.6564885496183206,0.014404296875,0.030029296875,-0.6279296875,1.0948
0.7480916030534351,1.5419847328244274,-0.6412213740458015,0.01123046875,0.025390625,-0.6123046875,1.0965
0.8396946564885496,1.633587786259542,-0.4732824427480916,0.00830078125,0.02978515625,-0.611328125,1.0981999999999998
1.0229007633587786,1.633587786259542,-0.4580152671755725,0.013916015625,0.031494140625,-0.61279296875,1.0998999999999999
1.0687022900763359,1.5572519083969465,-0.5954198473282443,0.009521484375,0.032470703125,-0.60595703125,1.1016
1.251908396946565,1.5267175572519085,-0.44274809160305345,0.009765625,0.031494140625,-0.608642578125,1.1033
1.3435114503816794,1.6641221374045803,-0.42748091603053434,0.005859375,0.027099609375,-0.608642578125,1.105
1.099236641221374,1.7557251908396947,-0.5648854961832062,0.0107421875,0.02880859375,-0.607666015625,1.1067
1.1450381679389312,1.5877862595419847,-0.44274809160305345,0.00927734375,0.031005859375,-0.611572265625,1.1083999999999998
1.1145038167938932,1.6946564885496183,-0.48854961832061067,0.015625,0.029296875,-0.61572265625,1.1100999999999999
1.0534351145038168,1.6030534351145038,-0.549618320610687,0.010498046875,0.026611328125,-0.615478515625,1.1118
1.099236641221374,1.450381679389313,-0.7022900763358778,0.012451171875,0.0322265625,-0.613037109375,1.1135
0.9770992366412213,1.4351145038167938,-0.5343511450381679,0.0146484375,0.0322265625,-0.60888671875,1.1152
1.1755725190839694,1.4351145038167938,-0.5038167938931297,0.016357421875,0.0322265625,-0.612548828125,1.1169
0.8854961832061069,1.465648854961832,-0.42748091603053434,0.010009765625,0.032958984375,-0.608154296875,1.1186
1.2213740458015268,1.3587786259541985,-0.4580152671755725,0.008056640625,0.03564453125,-0.611572265625,1.1202999999999999
1.1908396946564885,1.5114503816793894,-0.5801526717557252,0.01025390625,0.035400390625,-0.61181640625,1.1219999999999999
1.1755725190839694,1.5877862595419847,-0.4580152671755725,0.012939453125,0.029541015625,-0.61279296875,1.1237
1.450381679389313,1.3129770992366412,-0.3969465648854962,0.010986328125,0.02978515625,-0.60693359375,1.1254
1.5114503816793894,1.4809160305343512,-0.3816793893129771,0.01611328125,0.03173828125,-0.61572265625,1.1271
1.4809160305343512,1.5419847328244274,-0.3969465648854962,0.010986328125,0.032470703125,-0.6103515625,1.1288
1.3282442748091603,1.4351145038167938,-0.42748091603053434,0.015869140625,0.032470703125,-0.615478515625,1.1304999999999998
1.5114503816793894,1.3435114503816794,-0.5954198473282443,0.011962890625,0.031982421875,-0.606201171875,1.1321999999999999
1.5725190839694656,1.3435114503816794,-0.5190839694656488,0.014404296875,0.033447265625,-0.61181640625,1.1339
1.5267175572519085,1.297709923664122,-0.4580152671755725,0.0126953125,0.0322265625,-0.61865234375,1.1356
1.6030534351145038,1.3740458015267176,-0.6259541984732825,0.012451171875,0.0341796875,-0.6123046875,1.1373
1.6641221374045803,1.251908396946565,-0.4580152671755725,0.01123046875,0.02685546875,-0.615478515625,1.139
1.816793893129771,1.2671755725190839,-0.6259541984732825,0.00830078125,0.031005859375,-0.6162109375,1.1407
1.786259541984733,1.450381679389313,-0.7022900763358778,0.013916015625,0.025146484375,-0.609130859375,1.1423999999999999
1.7251908396946565,1.3282442748091603,-0.732824427480916,0.014404296875,0.02880859375,-0.609619140625,1.1441
2.0,1.4961832061068703,-0.7480916030534351,0.0126953125,0.0322265625,-0.609619140625,1.1458
1.9236641221374047,1.3893129770992367,-0.8396946564885496,0.012939453125,0.03466796875,-0.6220703125,1.1475
1.8931297709923665,1.3435114503816794,-0.7480916030534351,0.009521484375,0.031982421875,-0.62451171875,1.1492
2.0763358778625953,1.0229007633587786,-0.7022900763358778,0.012939453125,0.028564453125,-0.616455078125,1.1509
1.8625954198473282,1.1755725190839694,-0.6717557251908397,0.014404296875,0.033203125,-0.616943359375,1.1525999999999998
1.7099236641221374,1.083969465648855,-0.9770992366412213,0.01025390625,0.0302734375,-0.6142578125,1.1542999999999999
1.9541984732824427,1.282442748091603,-0.732824427480916,0.014892578125,0.02880859375,-0.619384765625,1.156
1.6641221374045803,1.099236641221374,-0.9923664122137404,0.005859375,0.03173828125,-0.614990234375,1.1577
1.5267175572519085,0.9770992366412213,-0.9923664122137404,0.0087890625,0.035400390625,-0.611328125,1.1594
1.5267175572519085,1.0687022900763359,-0.9770992366412213,0.015869140625,0.02978515625,-0.6181640625,1.1611
1.2061068702290076,1.1297709923664123,-0.8702290076335878,0.010498046875,0.03125,-0.6201171875,1.1627999999999998
1.1450381679389312,0.9770992366412213,-0.9770992366412213,0.009521484375,0.033935546875,-0.615234375,1.1644999999999999
1.3282442748091603,0.9770992366412213,-0.8549618320610687,0.00634765625,0.031982421875,-0.609130859375,1.1662
1.1450381679389312,1.0534351145038168,-0.8549618320610687,0.009521484375,0.0283203125,-0.616455078125,1.1679
1.099236641221374,0.9465648854961832,-0.916030534351145,0.014404296875,0.033203125,-0.61181640625,1.1696
1.1145038167938932,1.0076335877862594,-1.0229007633587786,0.012451171875,0.03369140625,-0.6201171875,1.1713
1.083969465648855,0.7938931297709924,-0.9312977099236641,0.015380859375,0.031005859375,-0.6123046875,1.173
1.1603053435114503,0.7786259541984732,-1.0381679389312977,0.015380859375,0.026611328125,-0.6220703125,1.1746999999999999
1.1450381679389312,0.916030534351145,-1.0687022900763359,0.01123046875,0.03173828125,-0.611328125,1.1764
1.1450381679389312,0.9465648854961832,-1.297709923664122,0.016845703125,0.03466796875,-0.611328125,1.1781
0.9770992366412213,1.0534351145038168,-1.0229007633587786,0.01123046875,0.03076171875,-0.61376953125,1.1798
0.9465648854961832,0.9923664122137404,-1.297709923664122,0.010498046875,0.0322265625,-0.61865234375,1.1815
0.7480916030534351,0.8702290076335878,-1.3282442748091603,0.0126953125,0.03369140625,-0.614990234375,1.1832
0.7786259541984732,0.9465648854961832,-1.1145038167938932,0.010009765625,0.035400390625,-0.61376953125,1.1848999999999998
0.5801526717557252,1.0381679389312977,-1.0534351145038168,0.014404296875,0.036865234375,-0.616455078125,1.1865999999999999
0.5190839694656488,1.0076335877862594,-0.9923664122137404,0.011474609375,0.032470703125,-0.62060546875,1.1883
0.5038167938931297,1.099236641221374,-0.9312977099236641,0.012939453125,0.033203125,-0.615966796875,1.19
0.2900763358778626,1.0381679389312977,-1.0687022900763359,0.013427734375,0.033203125,-0.61376953125,1.1917
0.4122137404580153,1.1603053435114503,-1.0687022900763359,0.013916015625,0.03076171875,-0.61328125,1.1934
0.42748091603053434,1.1145038167938932,-1.083969465648855,0.014404296875,0.027587890625,-0.61474609375,1.1950999999999998
0.6259541984732825,0.9770992366412213,-0.8396946564885496,0.0068359375,0.0341796875,-0.609619140625,1.1967999999999999
0.5190839694656488,1.0687022900763359,-0.9007633587786259,0.0087890625,0.03515625,-0.613525390625,1.1985
0.5801526717557252,1.2213740458015268,-0.9007633587786259,0.017333984375,0.03173828125,-0.619873046875,1.2002
0.7175572519083969,1.251908396946565,-0.9923664122137404,0.01318359375,0.031982421875,-0.619140625,1.2019
0.7633587786259542,1.083969465648855,-1.0229007633587786,0.01416015625,0.034423828125,-0.6142578125,1.2036
0.8091603053435115,1.1297709923664123,-1.0381679389312977,0.013916015625,0.031005859375,-0.6162109375,1.2053
1.0076335877862594,1.1450381679389312,-1.083969465648855,0.01318359375,0.031494140625,-0.609375,1.2069999999999999
1.2213740458015268,1.099236641221374,-1.3282442748091603,0.007080078125,0.0400390625,-0.614013671875,1.2086999999999999
1.2213740458015268,1.1145038167938932,-1.099236641221374,0.004638671875,0.03759765625,-0.610107421875,1.2104
1.251908396946565,1.2671755725190839,-1.282442748091603,0.007080078125,0.03564453125,-0.6064453125,1.2121
1.450381679389313,0.9923664122137404,-1.3435114503816794,0.0126953125,0.031005859375,-0.608154296875,1.2138
1.297709923664122,0.9923664122137404,-1.3435114503816794,0.0126953125,0.031982421875,-0.6123046875,1.2155
1.5725190839694656,1.1145038167938932,-1.3740458015267176,0.009521484375,0.031982421875,-0.617919921875,1.2171999999999998
1.5877862595419847,1.1297709923664123,-1.5114503816793894,0.01123046875,0.034912109375,-0.607177734375,1.2188999999999999
1.6488549618320612,1.1297709923664123,-1.297709923664122,0.01123046875,0.0322265625,-0.606689453125,1.2206
1.4351145038167938,0.9465648854961832,-1.4045801526717556,0.01025390625,0.030029296875,-0.623291015625,1.2223
1.5725190839694656,0.9770992366412213,-1.282442748091603,0.011474609375,0.02685546875,-0.6123046875,1.224
1.5419847328244274,1.1297709923664123,-1.297709923664122,0.012939453125,0.031494140625,-0.60693359375,1.2257
1.4045801526717556,0.9618320610687023,-1.099236641221374,0.014404296875,0.02880859375,-0.603759765625,1.2273999999999998
1.4809160305343512,1.2213740458015268,-1.2061068702290076,0.014892578125,0.027099609375,-0.62109375,1.2290999999999999
1.3893129770992367,0.9465648854961832,-1.1145038167938932,0.01123046875,0.029296875,-0.609130859375,1.2308
1.3435114503816794,1.1145038167938932,-1.1908396946564885,0.010986328125,0.0302734375,-0.61279296875,1.2325
1.3435114503816794,1.0076335877862594,-1.1145038167938932,0.012451171875,0.032958984375,-0.610595703125,1.2342
1.4198473282442747,0.9465648854961832,-1.1908396946564885,0.0146484375,0.038330078125,-0.617919921875,1.2359
1.4045801526717556,0.8396946564885496,-1.2366412213740459,0.011474609375,0.03515625,-0.613037109375,1.2376
1.6030534351145038,0.7938931297709924,-1.083969465648855,0.009765625,0.030517578125,-0.615478515625,1.2392999999999998
1.2671755725190839,0.8702290076335878,-1.2061068702290076,0.01513671875,0.030029296875,-0.621337890625,1.2409999999999999
1.4961832061068703,0.8549618320610687,-1.5114503816793894,0.010009765625,0.0283203125,-0.610107421875,1.2427
1.5114503816793894,0.8244274809160306,-1.3129770992366412,0.013916015625,0.02978515625,-0.605712890625,1.2444
1.282442748091603,0.732824427480916,-1.4198473282442747,0.01220703125,0.03125,-0.615478515625,1.2461
1.7404580152671756,0.6259541984732825,-1.465648854961832,0.01513671875,0.0341796875,-0.611083984375,1.2478
1.5267175572519085,0.7022900763358778,-1.6946564885496183,0.015625,0.034423828125,-0.61279296875,1.2494999999999998
1.4809160305343512,0.5801526717557252,-1.5419847328244274,0.00732421875,0.035400390625,-0.615966796875,1.2511999999999999
1.465648854961832,0.6717557251908397,-1.4809160305343512,0.01123046875,0.03125,-0.60693359375,1.2529
1.5419847328244274,0.5801526717557252,-1.5267175572519085,0.01123046875,0.033203125,-0.611572265625,1.2546
1.4809160305343512,0.366412213740458,-1.6946564885496183,0.012939453125,0.029541015625,-0.609619140625,1.2563
1.6641221374045803,0.42748091603053434,-1.6641221374045803,0.01416015625,0.037353515625,-0.60009765625,1.258
1.7404580152671756,0.3969465648854962,-1.83206106870229,0.016357421875,0.0341796875,-0.61181640625,1.2596999999999998
1.618320610687023,0.33587786259541985,-1.618320610687023,0.013916015625,0.035400390625,-0.610107421875,1.2613999999999999
1.633587786259542,0.2900763358778626,-1.4198473282442747,0.0146484375,0.036376953125,-0.61474609375,1.2631
1.5877862595419847,0.0,-1.450381679389313,0.01123046875,0.033935546875,-0.613525390625,1.2648
1.7099236641221374,0.16793893129770993,-1.618320610687023,0.012939453125,0.035888671875,-0.61376953125,1.2665
1.6488549618320612,0.16793893129770993,-1.618320610687023,0.0087890625,0.03271484375,-0.62060546875,1.2682
1.6641221374045803,0.15267175572519084,-1.6030534351145038,0.01904296875,0.031005859375,-0.608642578125,1.2699
1.8473282442748091,0.061068702290076333,-1.3282442748091603,0.019287109375,0.028076171875,-0.607666015625,1.2715999999999998
1.5725190839694656,0.07633587786259542,-1.633587786259542,0.008544921875,0.030517578125,-0.6162109375,1.2732999999999999
1.5114503816793894,0.3053435114503817,-1.465648854961832,0.0068359375,0.032470703125,-0.607666015625,1.275
1.7557251908396947,0.21374045801526717,-1.6488549618320612,0.015380859375,0.032470703125,-0.610595703125,1.2767
1.5877862595419847,0.04580152671755725,-1.6488549618320612,0.0146484375,0.029052734375,-0.611328125,1.2784
1.4198473282442747,0.15267175572519084,-1.7099236641221374,0.0087890625,0.03515625,-0.613525390625,1.2801
1.4961832061068703,0.33587786259541985,-1.5419847328244274,0.009765625,0.032958984375,-0.610595703125,1.2817999999999998
1.450381679389313,0.13740458015267176,-1.6641221374045803,0.009765625,0.03271484375,-0.617431640625,1.2834999999999999
1.2671755725190839,0.16793893129770993,-1.7557251908396947,0.01416015625,0.02685546875,-0.61865234375,1.2852
1.297709923664122,0.366412213740458,-1.6641221374045803,0.010498046875,0.0361328125,-0.61279296875,1.2869
1.1603053435114503,0.1984732824427481,-1.6946564885496183,0.00634765625,0.03369140625,-0.614013671875,1.2886
1.1450381679389312,0.3511450381679389,-1.8473282442748091,0.0107421875,0.03369140625,-0.618408203125,1.2903
0.9923664122137404,0.2595419847328244,-1.7557251908396947,0.009765625,0.031494140625,-0.61279296875,1.292
0.8854961832061069,0.3511450381679389,-1.8015267175572518,0.00927734375,0.033447265625,-0.611083984375,1.2936999999999999
1.0076335877862594,0.4732824427480916,-1.8931297709923665,0.013671875,0.0322265625,-0.61328125,1.2953999999999999
1.0381679389312977,0.6259541984732825,-1.7709923664122138,0.015380859375,0.03564453125,-0.617431640625,1.2971
0.9312977099236641,0.5801526717557252,-1.7099236641221374,0.018310546875,0.03125,-0.616943359375,1.2988
0.9312977099236641,0.6259541984732825,-1.6030534351145038,0.00732421875,0.031494140625,-0.60693359375,1.3005
1.0687022900763359,0.6564885496183206,-1.5419847328244274,0.0126953125,0.035400390625,-0.618896484375,1.3022
1.0229007633587786,0.7938931297709924,-1.618320610687023,0.0087890625,0.032470703125,-0.615234375,1.3038999999999998
0.9923664122137404,0.8244274809160306,-1.5419847328244274,0.01123046875,0.032470703125,-0.610595703125,1.3055999999999999
1.0229007633587786,0.7022900763358778,-1.450381679389313,0.01123046875,0.037841796875,-0.618896484375,1.3073
0.916030534351145,0.8396946564885496,-1.450381679389313,0.00732421875,0.0341796875,-0.615478515625,1.309
0.9465648854961832,0.7480916030534351,-1.450381679389313,0.010009765625,0.033935546875,-0.610107421875,1.3107
0.9465648854961832,0.9007633587786259,-1.4045801526717556,0.014404296875,0.03076171875,-0.61669921875,1.3124
0.9312977099236641,0.916030534351145,-1.7099236641221374,0.015625,0.02587890625,-0.629150390625,1.3140999999999998
0.8854961832061069,0.9007633587786259,-1.3587786259541985,0.01025390625,0.031982421875,-0.623779296875,1.3157999999999999
0.9465648854961832,0.916030534351145,-1.3740458015267176,0.006103515625,0.037841796875,-0.615966796875,1.3175
1.083969465648855,0.7786259541984732,-1.297709923664122,0.017333984375,0.032470703125,-0.616943359375,1.3192
1.2671755725190839,1.099236641221374,-1.450381679389313,0.013916015625,0.031494140625,-0.612060546875,1.3209
1.1145038167938932,1.099236641221374,-1.1450381679389312,0.009521484375,0.033203125,-0.60791015625,1.3226
1.1145038167938932,1.0229007633587786,-1.1908396946564885,0.0087890625,0.031982421875,-0.60986328125,1.3243
1.1297709923664123,1.2061068702290076,-1.297709923664122,0.0166015625,0.031982421875,-0.61474609375,1.3259999999999998
1.3893129770992367,0.9312977099236641,-1.3129770992366412,0.013427734375,0.032958984375,-0.61181640625,1.3276999999999999
1.4961832061068703,1.0229007633587786,-1.450381679389313,0.01025390625,0.03662109375,-0.6171875,1.3294
1.450381679389313,1.1145038167938932,-1.450381679389313,0.013671875,0.03515625,-0.61376953125,1.3311
1.5725190839694656,1.0076335877862594,-1.4045801526717556,0.007568359375,0.0341796875,-0.6123046875,1.3328
1.4198473282442747,1.1297709923664123,-1.450381679389313,0.010498046875,0.030517578125,-0.61083984375,1.3345
1.450381679389313,1.083969465648855,-1.3893129770992367,0.01171875,0.03173828125,-0.6142578125,1.3361999999999998
1.5114503816793894,1.1908396946564885,-1.5419847328244274,0.00927734375,0.035400390625,-0.60888671875,1.3378999999999999
1.5114503816793894,1.0381679389312977,-1.5877862595419847,0.012451171875,0.029296875,-0.6201171875,1.3396
1.6030534351145038,1.0229007633587786,-1.7251908396946565,0.009765625,0.034423828125,-0.619873046875,1.3413
1.6488549618320612,1.2213740458015268,-1.6488549618320612,0.010498046875,0.035400390625,-0.61669921875,1.343
1.786259541984733,1.3129770992366412,-1.5114503816793894,0.010009765625,0.038818359375,-0.622802734375,1.3447
1.7099236641221374,1.3129770992366412,-1.465648854961832,0.010986328125,0.033203125,-0.61181640625,1.3463999999999998
1.633587786259542,1.3435114503816794,-1.5114503816793894,0.00439453125,0.03076171875,-0.614501953125,1.3480999999999999
1.8473282442748091,1.3893129770992367,-1.450381679389313,0.010009765625,0.029541015625,-0.614990234375,1.3497999999999999
1.7404580152671756,1.5725190839694656,-1.3282442748091603,0.007080078125,0.035400390625,-0.61328125,1.3515
1.8625954198473282,1.4045801526717556,-1.5267175572519085,0.014892578125,0.03271484375,-0.617431640625,1.3532
1.984732824427481,1.4351145038167938,-1.3129770992366412,0.015380859375,0.03076171875,-0.620849609375,1.3549
2.0610687022900764,1.2061068702290076,-1.251908396946565,0.0107421875,0.030029296875,-0.61474609375,1.3566
2.1374045801526718,1.251908396946565,-1.251908396946565,0.010986328125,0.032958984375,-0.616943359375,1.3582999999999998
2.030534351145038,1.4198473282442747,-1.2061068702290076,0.0126953125,0.03662109375,-0.615234375,1.3599999999999999
2.0763358778625953,1.282442748091603,-1.1450381679389312,0.0146484375,0.028564453125,-0.61181640625,1.3617
2.015267175572519,1.282442748091603,-1.2061068702290076,0.008544921875,0.033935546875,-0.615478515625,1.3634
2.0,1.4198473282442747,-1.1755725190839694,0.0126953125,0.026611328125,-0.609130859375,1.3651
2.198473282442748,1.1450381679389312,-1.297709923664122,0.011962890625,0.02880859375,-0.607177734375,1.3668
2.0610687022900764,1.1755725190839694,-1.3587786259541985,0.009521484375,0.0302734375,-0.609619140625,1.3684999999999998
1.9694656488549618,1.2061068702290076,-1.251908396946565,0.01318359375,0.029296875,-0.620849609375,1.3701999999999999
1.8625954198473282,1.282442748091603,-1.4809160305343512,0.0146484375,0.030517578125,-0.61376953125,1.3719
1.7404580152671756,1.083969465648855,-1.618320610687023,0.0068359375,0.030029296875,-0.611083984375,1.3736
1.7709923664122138,0.9770992366412213,-1.5725190839694656,0.0126953125,0.03271484375,-0.615234375,1.3753
1.9236641221374047,1.0229007633587786,-1.5114503816793894,0.012939453125,0.035400390625,-0.6083984375,1.377
1.8473282442748091,1.0534351145038168,-1.5419847328244274,0.01416015625,0.031982421875,-0.609619140625,1.3786999999999998
1.8015267175572518,1.1755725190839694,-1.7099236641221374,0.012451171875,0.0341796875,-0.6123046875,1.3803999999999998
1.8778625954198473,1.0687022900763359,-1.4809160305343512,0.008544921875,0.027099609375,-0.611083984375,1.3820999999999999
1.633587786259542,0.9770992366412213,-1.5877862595419847,0.01171875,0.0302734375,-0.606689453125,1.3838
1.8778625954198473,1.0076335877862594,-1.6030534351145038,0.008544921875,0.031005859375,-0.61474609375,1.3855
1.8473282442748091,0.9770992366412213,-1.5725190839694656,0.012939453125,0.0361328125,-0.609619140625,1.3872
1.9389312977099236,0.9007633587786259,-1.450381679389313,0.01171875,0.037353515625,-0.612060546875,1.3889
2.015267175572519,0.9923664122137404,-1.3740458015267176,0.014404296875,0.030517578125,-0.614990234375,1.3905999999999998
1.9541984732824427,1.1450381679389312,-1.1603053435114503,0.01025390625,0.02978515625,-0.610107421875,1.3922999999999999
1.83206106870229,1.2213740458015268,-1.3129770992366412,0.01220703125,0.035400390625,-0.613037109375,1.394
1.83206106870229,1.1297709923664123,-1.2061068702290076,0.00732421875,0.030517578125,-0.60693359375,1.3957
1.9389312977099236,1.0687022900763359,-1.282442748091603,0.014404296875,0.035400390625,-0.60986328125,1.3974
1.83206106870229,1.1145038167938932,-1.099236641221374,0.01025390625,0.03564453125,-0.609619140625,1.3991
2.0,1.1450381679389312,-1.2671755725190839,0.009033203125,0.029052734375,-0.610595703125,1.4007999999999998
1.9083969465648856,1.1755725190839694,-1.3435114503816794,0.015380859375,0.031494140625,-0.614990234375,1.4024999999999999
1.9083969465648856,1.0381679389312977,-1.3282442748091603,0.01416015625,0.02880859375,-0.61279296875,1.4042
1.5572519083969465,1.0534351145038168,-1.4045801526717556,0.00830078125,0.033203125,-0.613525390625,1.4059
1.984732824427481,0.9923664122137404,-1.4351145038167938,0.009521484375,0.027587890625,-0.60888671875,1.4076
1.786259541984733,1.0076335877862594,-1.4809160305343512,0.009521484375,0.027587890625,-0.6181640625,1.4093
1.8473282442748091,1.0687022900763359,-1.786259541984733,0.00830078125,0.028564453125,-0.6171875,1.411
1.8931297709923665,1.0076335877862594,-1.6641221374045803,0.01025390625,0.0302734375,-0.620361328125,1.4126999999999998
1.7099236641221374,1.0381679389312977,-1.6488549618320612,0.0166015625,0.0302734375,-0.61962890625,1.4143999999999999
1.7404580152671756,1.1450381679389312,-1.5725190839694656,0.01171875,0.02685546875,-0.615966796875,1.4161
1.6488549618320612,1.2061068702290076,-1.5114503816793894,0.008056640625,0.028564453125,-0.617919921875,1.4178
1.5877862595419847,1.2671755725190839,-1.4351145038167938,0.007568359375,0.026611328125,-0.612060546875,1.4195
1.5419847328244274,1.251908396946565,-1.3893129770992367,0.011474609375,0.0244140625,-0.6162109375,1.4212
1.5725190839694656,1.2671755725190839,-1.3435114503816794,0.012451171875,0.02392578125,-0.61572265625,1.4228999999999998
1.4351145038167938,1.251908396946565,-1.4045801526717556,0.0126953125,0.02490234375,-0.615478515625,1.4245999999999999
1.2366412213740459,1.3282442748091603,-1.1908396946564885,0.0126953125,0.029541015625,-0.609619140625,1.4263
1.083969465648855,1.251908396946565,-1.083969465648855,0.01318359375,0.0302734375,-0.6123046875,1.428
1.1603053435114503,1.2061068702290076,-1.1755725190839694,0.008056640625,0.0244140625,-0.6171875,1.4297
0.9465648854961832,1.3129770992366412,-1.282442748091603,0.00830078125,0.033447265625,-0.616455078125,1.4314
0.7480916030534351,1.3740458015267176,-1.1450381679389312,0.010986328125,0.034423828125,-0.615234375,1.4330999999999998
0.7480916030534351,1.251908396946565,-1.2061068702290076,0.00634765625,0.02685546875,-0.61279296875,1.4347999999999999
0.732824427480916,1.1450381679389312,-1.083969465648855,0.01123046875,0.028076171875,-0.61279296875,1.4364999999999999
0.7633587786259542,1.1755725190839694,-1.1145038167938932,0.01220703125,0.028076171875,-0.6103515625,1.4382
0.9312977099236641,1.1145038167938932,-1.3587786259541985,0.00439453125,0.0322265625,-0.61962890625,1.4399
0.5343511450381679,1.282442748091603,-1.3129770992366412,0.0126953125,0.02783203125,-0.614013671875,1.4416
0.5343511450381679,1.083969465648855,-1.3893129770992367,0.012939453125,0.035400390625,-0.607421875,1.4433
0.7633587786259542,0.9923664122137404,-1.7251908396946565,0.0087890625,0.035400390625,-0.60986328125,1.4449999999999998
0.7938931297709924,1.0076335877862594,-1.4198473282442747,0.01171875,0.0341796875,-0.618408203125,1.4466999999999999
0.7938931297709924,1.0229007633587786,-1.5419847328244274,0.00634765625,0.035888671875,-0.613037109375,1.4484
0.6259541984732825,1.1145038167938932,-1.5877862595419847,0.008544921875,0.028564453125,-0.61767578125,1.4501
0.8244274809160306,1.1297709923664123,-1.7404580152671756,0.00927734375,0.031494140625,-0.614501953125,1.4518
0.9618320610687023,1.2671755725190839,-1.6488549618320612,0.013427734375,0.033203125,-0.619384765625,1.4535
0.9312977099236641,1.282442748091603,-1.633587786259542,0.01318359375,0.03125,-0.614501953125,1.4551999999999998
0.9923664122137404,1.251908396946565,-1.6946564885496183,0.0087890625,0.0400390625,-0.620361328125,1.4568999999999999
0.9312977099236641,1.450381679389313,-1.7251908396946565,0.009765625,0.0361328125,-0.618896484375,1.4586
0.8854961832061069,1.4809160305343512,-1.4045801526717556,0.00439453125,0.035888671875,-0.615234375,1.4603
1.3435114503816794,1.5877862595419847,-1.4045801526717556,0.0078125,0.028564453125,-0.6142578125,1.462
1.3740458015267176,1.3893129770992367,-1.3740458015267176,0.0087890625,0.040283203125,-0.617431640625,1.4637
1.3587786259541985,1.5114503816793894,-1.3893129770992367,0.0078125,0.035888671875,-0.606689453125,1.4653999999999998
1.633587786259542,1.5572519083969465,-1.4045801526717556,0.009765625,0.033447265625,-0.610107421875,1.4670999999999998
1.7099236641221374,1.4809160305343512,-1.5725190839694656,0.010986328125,0.03759765625,-0.615478515625,1.4687999999999999
2.015267175572519,1.4809160305343512,-1.297709923664122,0.015380859375,0.033935546875,-0.60498046875,1.4705
2.3206106870229006,1.5419847328244274,-1.5114503816793894,0.014892578125,0.02880859375,-0.609619140625,1.4722
2.427480916030534,1.450381679389313,-1.3740458015267176,0.0107421875,0.030029296875,-0.605224609375,1.4739
2.4427480916030535,1.4198473282442747,-1.4045801526717556,0.0078125,0.035400390625,-0.61083984375,1.4756
2.4732824427480917,1.4045801526717556,-1.282442748091603,0.011474609375,0.031005859375,-0.610595703125,1.4772999999999998
2.4122137404580153,1.1450381679389312,-1.2213740458015268,0.01318359375,0.032470703125,-0.61572265625,1.4789999999999999
2.6106870229007635,1.1297709923664123,-1.3893129770992367,0.008544921875,0.028564453125,-0.6083984375,1.4807
2.717557251908397,1.3282442748091603,-1.3282442748091603,0.01123046875,0.033203125,-0.615234375,1.4824
2.6259541984732824,1.2366412213740459,-1.282442748091603,0.00830078125,0.032470703125,-0.615966796875,1.4841
2.4580152671755724,1.1755725190839694,-1.5725190839694656,0.009521484375,0.030517578125,-0.618896484375,1.4858
2.6259541984732824,1.1297709923664123,-1.3129770992366412,0.008544921875,0.028564453125,-0.6171875,1.4874999999999998
2.717557251908397,1.1450381679389312,-1.4961832061068703,0.008544921875,0.028564453125,-0.615234375,1.4891999999999999
2.8244274809160306,1.1297709923664123,-1.4961832061068703,0.008056640625,0.027587890625,-0.613525390625,1.4909
2.519083969465649,1.0687022900763359,-1.633587786259542,0.00830078125,0.024169921875,-0.608642578125,1.4926
2.33587786259542,1.1297709923664123,-1.6030534351145038,0.0078125,0.030029296875,-0.601318359375,1.4943
2.549618320610687,1.099236641221374,-1.633587786259542,0.008544921875,0.033203125,-0.6171875,1.496
2.2748091603053435,1.1450381679389312,-1.633587786259542,0.0068359375,0.033935546875,-0.614990234375,1.4976999999999998
2.2748091603053435,1.1450381679389312,-1.83206106870229,0.01904296875,0.030517578125,-0.611083984375,1.4993999999999998
2.213740458015267,1.1603053435114503,-1.7404580152671756,0.015625,0.031005859375,-0.619140625,1.5010999999999999
2.0763358778625953,1.297709923664122,-1.6946564885496183,0.009521484375,0.026123046875,-0.6142578125,1.5028
1.83206106870229,1.2213740458015268,-1.4809160305343512,0.0107421875,0.033447265625,-0.61572265625,1.5045
1.7099236641221374,1.1908396946564885,-1.5877862595419847,0.009521484375,0.0302734375,-0.61328125,1.5062
1.8015267175572518,1.282442748091603,-1.5419847328244274,0.00634765625,0.031982421875,-0.612548828125,1.5079
1.3893129770992367,1.2213740458015268,-1.3435114503816794,0.007080078125,0.03173828125,-0.607666015625,1.5095999999999998
1.4961832061068703,1.2366412213740459,-1.3129770992366412,0.010009765625,0.02587890625,-0.61669921875,1.5112999999999999
1.465648854961832,1.3893129770992367,-1.3435114503816794,0.014404296875,0.029296875,-0.611328125,1.513
1.5267175572519085,1.1755725190839694,-1.251908396946565,0.00927734375,0.0302734375,-0.604248046875,1.5147
1.2366412213740459,1.4351145038167938,-1.099236641221374,0.01220703125,0.036865234375,-0.611083984375,1.5164
1.2061068702290076,1.4045801526717556,-1.083969465648855,0.013916015625,0.032470703125,-0.6142578125,1.5181
0.8854961832061069,1.2366412213740459,-1.2671755725190839,0.013671875,0.03125,-0.607421875,1.5197999999999998
1.3435114503816794,1.2366412213740459,-0.9618320610687023,0.01220703125,0.03466796875,-0.619873046875,1.5214999999999999
1.0381679389312977,1.4045801526717556,-1.1297709923664123,0.010498046875,0.037109375,-0.615966796875,1.5231999999999999
0.9007633587786259,1.2671755725190839,-1.297709923664122,0.011474609375,0.036865234375,-0.609619140625,1.5249
0.8854961832061069,1.3740458015267176,-1.1603053435114503,0.009765625,0.0322265625,-0.6142578125,1.5266
0.8854961832061069,1.3587786259541985,-1.0076335877862594,0.008544921875,0.031494140625,-0.625,1.5283
0.5954198473282443,1.3129770992366412,-1.0076335877862594,0.0087890625,0.033203125,-0.619873046875,1.5299999999999998
0.6259541984732825,1.4045801526717556,-1.2366412213740459,0.01318359375,0.034912109375,-0.61181640625,1.5316999999999998
0.7480916030534351,1.4198473282442747,-1.3129770992366412,0.0087890625,0.030029296875,-0.61328125,1.5333999999999999
0.5648854961832062,1.5267175572519085,-1.0229007633587786,0.011474609375,0.03271484375,-0.616943359375,1.5351
0.5190839694656488,1.5419847328244274,-1.1450381679389312,0.0078125,0.02734375,-0.62060546875,1.5368
0.6870229007633588,1.450381679389313,-1.1603053435114503,0.012939453125,0.032470703125,-0.612548828125,1.5385
0.6717557251908397,1.7557251908396947,-1.3129770992366412,0.01025390625,0.02734375,-0.6123046875,1.5402
0.48854961832061067,1.5725190839694656,-1.2061068702290076,0.01123046875,0.030517578125,-0.606201171875,1.5418999999999998
0.6412213740458015,1.6488549618320612,-1.1145038167938932,0.014892578125,0.03369140625,-0.615234375,1.5435999999999999
0.8396946564885496,1.6946564885496183,-1.2061068702290076,0.010009765625,0.031494140625,-0.611083984375,1.5453
0.5343511450381679,1.6946564885496183,-1.083969465648855,0.01025390625,0.035888671875,-0.613525390625,1.547
0.7022900763358778,1.7557251908396947,-0.9618320610687023,0.0107421875,0.027587890625,-0.618896484375,1.5487
0.6106870229007634,1.816793893129771,-1.0076335877862594,0.01220703125,0.032470703125,-0.623779296875,1.5504
0.549618320610687,1.7557251908396947,-0.9312977099236641,0.009521484375,0.03173828125,-0.61181640625,1.5520999999999998
0.8854961832061069,1.7404580152671756,-1.0229007633587786,0.013671875,0.03857421875,-0.611083984375,1.5537999999999998
1.0229007633587786,1.8931297709923665,-0.916030534351145,0.01318359375,0.030517578125,-0.61279296875,1.5554999999999999
0.9770992366412213,1.8778625954198473,-1.0076335877862594,0.011962890625,0.037109375,-0.614990234375,1.5572
1.1755725190839694,1.9694656488549618,-0.8702290076335878,0.009033203125,0.031982421875,-0.606201171875,1.5589
1.3129770992366412,1.8473282442748091,-0.9465648854961832,0.013916015625,0.034912109375,-0.61474609375,1.5606
1.5114503816793894,1.9694656488549618,-1.0687022900763359,0.0126953125,0.033935546875,-0.60888671875,1.5623
1.7099236641221374,1.8778625954198473,-1.2061068702290076,0.0126953125,0.031982421875,-0.613525390625,1.5639999999999998
1.83206106870229,1.984732824427481,-1.0534351145038168,0.013916015625,0.032470703125,-0.610595703125,1.5656999999999999
1.9083969465648856,1.9541984732824427,-1.3740458015267176,0.011962890625,0.0341796875,-0.61376953125,1.5674
2.213740458015267,2.0,-1.251908396946565,0.01513671875,0.03955078125,-0.614990234375,1.5691
2.33587786259542,1.9694656488549618,-1.4198473282442747,0.00927734375,0.029296875,-0.598876953125,1.5708
2.2900763358778624,2.030534351145038,-1.4198473282442747,0.007080078125,0.03173828125,-0.60498046875,1.5725
2.427480916030534,1.9236641221374047,-1.4198473282442747,0.013916015625,0.030029296875,-0.61328125,1.5741999999999998
2.549618320610687,2.030534351145038,-1.4198473282442747,0.010498046875,0.036376953125,-0.61376953125,1.5758999999999999
2.5343511450381677,2.045801526717557,-1.2366412213740459,0.014892578125,0.029296875,-0.618408203125,1.5776
2.717557251908397,2.045801526717557,-1.0381679389312977,0.014892578125,0.033935546875,-0.617431640625,1.5793
2.7480916030534353,2.198473282442748,-1.3129770992366412,0.007080078125,0.029541015625,-0.61279296875,1.581
2.732824427480916,2.030534351145038,-1.0687022900763359,0.01318359375,0.033203125,-0.60986328125,1.5827
2.8091603053435112,2.122137404580153,-1.0687022900763359,0.0126953125,0.031494140625,-0.609619140625,1.5843999999999998
2.8091603053435112,2.0610687022900764,-0.9007633587786259,0.0146484375,0.029296875,-0.6083984375,1.5860999999999998
2.549618320610687,2.3053435114503817,-0.7480916030534351,0.009765625,0.028076171875,-0.609619140625,1.5877999999999999
2.8091603053435112,2.1526717557251906,-0.6717557251908397,0.01220703125,0.030029296875,-0.617431640625,1.5895
2.732824427480916,1.9541984732824427,-0.6717557251908397,0.0126953125,0.02880859375,-0.617431640625,1.5912
2.7480916030534353,2.2290076335877864,-0.8091603053435115,0.012451171875,0.030029296875,-0.618896484375,1.5929
2.763358778625954,2.030534351145038,-0.6106870229007634,0.014404296875,0.02490234375,-0.611572265625,1.5946
2.519083969465649,2.1374045801526718,-0.6259541984732825,0.01123046875,0.02978515625,-0.61181640625,1.5962999999999998
2.366412213740458,2.3206106870229006,-0.7175572519083969,0.013916015625,0.0302734375,-0.615966796875,1.5979999999999999
2.351145038167939,2.2595419847328246,-0.7786259541984732,0.01318359375,0.026123046875,-0.618896484375,1.5997
2.045801526717557,2.045801526717557,-0.7938931297709924,0.015380859375,0.0283203125,-0.621826171875,1.6014
1.9389312977099236,2.1374045801526718,-0.9312977099236641,0.010009765625,0.02587890625,-0.606201171875,1.6031
1.8015267175572518,2.045801526717557,-1.0229007633587786,0.01220703125,0.026611328125,-0.616455078125,1.6048
1.816793893129771,2.0763358778625953,-1.0229007633587786,0.01123046875,0.026611328125,-0.613037109375,1.6064999999999998
1.7709923664122138,2.1374045801526718,-0.9770992366412213,0.01123046875,0.02587890625,-0.60791015625,1.6081999999999999
1.3893129770992367,2.2900763358778624,-1.0381679389312977,0.01416015625,0.02734375,-0.610107421875,1.6098999999999999
1.2671755725190839,2.2290076335877864,-1.0229007633587786,0.012451171875,0.031005859375,-0.61865234375,1.6116
1.2061068702290076,2.16793893129771,-1.2213740458015268,0.011962890625,0.027099609375,-0.610595703125,1.6133
1.1908396946564885,2.2290076335877864,-1.0076335877862594,0.01123046875,0.02734375,-0.612060546875,1.615
1.0076335877862594,2.427480916030534,-1.099236641221374,0.01025390625,0.03125,-0.611083984375,1.6166999999999998
1.282442748091603,2.3053435114503817,-1.0076335877862594,0.011962890625,0.032470703125,-0.609619140625,1.6183999999999998
1.251908396946565,2.4732824427480917,-0.9312977099236641,0.01171875,0.030029296875,-0.6171875,1.6200999999999999
1.1908396946564885,2.595419847328244,-0.7938931297709924,0.0126953125,0.03759765625,-0.615966796875,1.6218
1.2061068702290076,2.427480916030534,-0.7480916030534351,0.0126953125,0.032470703125,-0.61376953125,1.6235
1.3435114503816794,2.5801526717557253,-0.5954198473282443,0.010498046875,0.030029296875,-0.614501953125,1.6252
1.1603053435114503,2.7022900763358777,-0.42748091603053434,0.0107421875,0.03564453125,-0.620849609375,1.6269
1.1145038167938932,2.5801526717557253,-0.366412213740458,0.0166015625,0.03125,-0.615234375,1.6285999999999998
1.0076335877862594,2.7786259541984735,-0.6564885496183206,0.00927734375,0.032958984375,-0.61376953125,1.6302999999999999
0.9465648854961832,3.0076335877862594,-0.2748091603053435,0.015625,0.030517578125,-0.613525390625,1.632
0.8244274809160306,3.053435114503817,-0.3969465648854962,0.01123046875,0.03125,-0.613525390625,1.6337
0.7786259541984732,2.931297709923664,-0.549618320610687,0.006103515625,0.03515625,-0.608642578125,1.6354
0.8549618320610687,3.1297709923664123,-0.3816793893129771,0.011474609375,0.02685546875,-0.614501953125,1.6371
0.9312977099236641,2.854961832061069,-0.5190839694656488,0.00927734375,0.031982421875,-0.61279296875,1.6387999999999998
0.9312977099236641,2.519083969465649,-0.4580152671755725,0.009765625,0.03271484375,-0.615966796875,1.6404999999999998
0.9007633587786259,2.7786259541984735,-0.6106870229007634,0.007080078125,0.02587890625,-0.6142578125,1.6421999999999999
1.099236641221374,2.6717557251908395,-0.8702290076335878,0.011962890625,0.030029296875,-0.61328125,1.6439
1.099236641221374,2.4732824427480917,-0.7480916030534351,0.01123046875,0.029541015625,-0.6083984375,1.6456
1.5419847328244274,2.6106870229007635,-0.9618320610687023,0.013671875,0.0302734375,-0.61279296875,1.6473
1.297709923664122,2.366412213740458,-0.9007633587786259,0.014404296875,0.03125,-0.61083984375,1.6489999999999998
1.450381679389313,2.4580152671755724,-0.9923664122137404,0.013671875,0.026123046875,-0.61328125,1.6506999999999998
1.6488549618320612,2.2442748091603053,-1.2671755725190839,0.01123046875,0.03369140625,-0.60546875,1.6523999999999999
1.6793893129770991,2.2290076335877864,-1.2213740458015268,0.013671875,0.0341796875,-0.6064453125,1.6541
1.7099236641221374,2.2900763358778624,-1.0687022900763359,0.014404296875,0.03662109375,-0.6044921875,1.6558
1.9694656488549618,2.1068702290076335,-1.2366412213740459,0.013671875,0.03759765625,-0.607421875,1.6575
1.8931297709923665,2.213740458015267,-1.099236641221374,0.015625,0.0283203125,-0.616455078125,1.6592
1.8015267175572518,2.2290076335877864,-1.2366412213740459,0.017333984375,0.029296875,-0.61279296875,1.6608999999999998
1.7251908396946565,2.1526717557251906,-1.1297709923664123,0.01171875,0.0302734375,-0.614501953125,1.6625999999999999
1.465648854961832,2.2442748091603053,-1.2213740458015268,0.0107421875,0.031494140625,-0.609375,1.6643
1.3893129770992367,2.33587786259542,-1.0687022900763359,0.01123046875,0.032470703125,-0.62158203125,1.666
1.5419847328244274,2.2442748091603053,-1.0687022900763359,0.012939453125,0.02783203125,-0.614013671875,1.6677
1.786259541984733,2.0916030534351147,-0.8549618320610687,0.017333984375,0.03466796875,-0.60595703125,1.6694
1.633587786259542,2.045801526717557,-0.9618320610687023,0.012939453125,0.03466796875,-0.615966796875,1.6710999999999998
1.5877862595419847,2.198473282442748,-0.9465648854961832,0.0126953125,0.029541015625,-0.618896484375,1.6727999999999998
1.6030534351145038,2.015267175572519,-1.0381679389312977,0.011962890625,0.03369140625,-0.6103515625,1.6744999999999999
1.9389312977099236,1.8931297709923665,-0.9618320610687023,0.0126953125,0.0341796875,-0.613037109375,1.6762
1.8778625954198473,1.9083969465648856,-1.0229007633587786,0.01318359375,0.031982421875,-0.603759765625,1.6779
1.9236641221374047,1.9236641221374047,-0.8549618320610687,0.01708984375,0.029052734375,-0.614501953125,1.6796
1.8931297709923665,1.83206106870229,-1.0381679389312977,0.011474609375,0.028564453125,-0.61328125,1.6813
2.045801526717557,1.7251908396946565,-0.9312977099236641,0.015380859375,0.031005859375,-0.621337890625,1.6829999999999998
2.0916030534351147,1.7557251908396947,-1.0687022900763359,0.01171875,0.028564453125,-0.61572265625,1.6846999999999999
1.984732824427481,1.7557251908396947,-1.0229007633587786,0.015625,0.031982421875,-0.61865234375,1.6864
1.984732824427481,1.5725190839694656,-1.0534351145038168,0.010498046875,0.027587890625,-0.60791015625,1.6881
2.030534351145038,1.4961832061068703,-1.1297709923664123,0.0185546875,0.029541015625,-0.610595703125,1.6898
1.83206106870229,1.6030534351145038,-1.2671755725190839,0.013427734375,0.02880859375,-0.609130859375,1.6915
1.633587786259542,1.6488549618320612,-0.8854961832061069,0.01220703125,0.0283203125,-0.604248046875,1.6931999999999998
1.786259541984733,1.633587786259542,-0.9923664122137404,0.0126953125,0.02783203125,-0.60888671875,1.6948999999999999
1.7251908396946565,1.5267175572519085,-1.1297709923664123,0.014404296875,0.0302734375,-0.6171875,1.6965999999999999
1.6946564885496183,1.450381679389313,-1.1603053435114503,0.0078125,0.025390625,-0.611328125,1.6983
1.5572519083969465,1.5572519083969465,-0.916030534351145,0.01416015625,0.027587890625,-0.61328125,1.7
1.6488549618320612,1.618320610687023,-1.1145038167938932,0.013916015625,0.035400390625,-0.609375,1.7017
1.6030534351145038,1.465648854961832,-1.1145038167938932,0.0078125,0.031982421875,-0.615478515625,1.7033999999999998
1.450381679389313,1.3893129770992367,-0.9770992366412213,0.006591796875,0.038330078125,-0.62109375,1.7050999999999998
1.5267175572519085,1.4045801526717556,-0.8091603053435115,0.01123046875,0.032958984375,-0.614990234375,1.7067999999999999
1.4045801526717556,1.297709923664122,-1.1145038167938932,0.012451171875,0.0322265625,-0.611328125,1.7085
1.3435114503816794,1.4045801526717556,-1.0534351145038168,0.0146484375,0.03515625,-0.616455078125,1.7102
1.5725190839694656,1.282442748091603,-0.916030534351145,0.01318359375,0.0302734375,-0.61328125,1.7119
1.3282442748091603,1.2366412213740459,-1.099236641221374,0.01318359375,0.035888671875,-0.618896484375,1.7136
1.2061068702290076,1.3893129770992367,-1.2366412213740459,0.011474609375,0.0302734375,-0.617431640625,1.7152999999999998
1.3435114503816794,1.3893129770992367,-0.9923664122137404,0.01220703125,0.029296875,-0.6162109375,1.7169999999999999
1.4351145038167938,1.3129770992366412,-1.2671755725190839,0.01025390625,0.03125,-0.619140625,1.7187
1.099236641221374,1.5877862595419847,-1.2061068702290076,0.013671875,0.031494140625,-0.61279296875,1.7204
0.9923664122137404,1.3740458015267176,-1.297709923664122,0.013916015625,0.03369140625,-0.611328125,1.7221
1.1145038167938932,1.4809160305343512,-1.2061068702290076,0.00634765625,0.034912109375,-0.616455078125,1.7238
1.3587786259541985,1.5419847328244274,-1.4198473282442747,0.01318359375,0.029541015625,-0.621337890625,1.7254999999999998
1.1603053435114503,1.251908396946565,-1.5419847328244274,0.018310546875,0.035400390625,-0.61328125,1.7271999999999998
1.1908396946564885,1.1755725190839694,-1.465648854961832,0.013916015625,0.037841796875,-0.609375,1.7288999999999999
1.3893129770992367,1.3587786259541985,-1.2213740458015268,0.015380859375,0.031982421875,-0.61572265625,1.7306
1.6946564885496183,1.0687022900763359,-1.3893129770992367,0.017333984375,0.0341796875,-0.619140625,1.7323
1.618320610687023,1.1755725190839694,-1.4045801526717556,0.011474609375,0.03466796875,-0.621826171875,1.734
1.5877862595419847,1.2671755725190839,-1.3129770992366412,0.01220703125,0.029296875,-0.6171875,1.7356999999999998
1.9083969465648856,1.2671755725190839,-1.2366412213740459,0.010498046875,0.0302734375,-0.607177734375,1.7373999999999998
1.984732824427481,1.1908396946564885,-1.4809160305343512,0.017578125,0.0361328125,-0.618408203125,1.7390999999999999
1.8473282442748091,1.099236641221374,-1.2213740458015268,0.013671875,0.031494140625,-0.613525390625,1.7408
2.2290076335877864,1.1450381679389312,-1.3282442748091603,0.007568359375,0.0341796875,-0.609619140625,1.7425
1.8931297709923665,0.8702290076335878,-1.465648854961832,0.012451171875,0.036376953125,-0.614501953125,1.7442
2.045801526717557,0.9465648854961832,-1.3587786259541985,0.01513671875,0.035400390625,-0.612060546875,1.7459
1.786259541984733,0.8091603053435115,-1.297709923664122,0.014404296875,0.029052734375,-0.616455078125,1.7475999999999998
1.9541984732824427,1.083969465648855,-1.3587786259541985,0.011474609375,0.036865234375,-0.623046875,1.7492999999999999
1.83206106870229,0.9770992366412213,-1.2366412213740459,0.010498046875,0.035888671875,-0.611572265625,1.751
1.83206106870229,0.8091603053435115,-1.3129770992366412,0.015625,0.031982421875,-0.616455078125,1.7527
1.8778625954198473,0.7786259541984732,-1.251908396946565,0.01611328125,0.031982421875,-0.61279296875,1.7544
1.5572519083969465,0.9312977099236641,-1.2061068702290076,0.012939453125,0.029296875,-0.61572265625,1.7561
1.6946564885496183,0.7938931297709924,-1.297709923664122,0.015625,0.03369140625,-0.6171875,1.7577999999999998
1.7404580152671756,0.6870229007633588,-1.251908396946565,0.009521484375,0.0244140625,-0.61572265625,1.7594999999999998
1.5725190839694656,0.6717557251908397,-1.1145038167938932,0.008056640625,0.031494140625,-0.60693359375,1.7611999999999999
1.6488549618320612,0.6870229007633588,-1.3129770992366412,0.013427734375,0.0302734375,-0.609375,1.7629
1.4961832061068703,0.8244274809160306,-1.3893129770992367,0.0166015625,0.030029296875,-0.6083984375,1.7646
1.6030534351145038,0.7786259541984732,-1.4198473282442747,0.0146484375,0.02783203125,-0.61669921875,1.7663
1.5572519083969465,0.7022900763358778,-1.297709923664122,0.0126953125,0.028076171875,-0.615234375,1.7679999999999998
1.6030534351145038,0.8244274809160306,-1.5267175572519085,0.012451171875,0.029541015625,-0.607421875,1.7696999999999998
1.5267175572519085,0.8396946564885496,-1.4045801526717556,0.011962890625,0.031982421875,-0.60791015625,1.7713999999999999
1.618320610687023,0.8244274809160306,-1.465648854961832,0.008056640625,0.031005859375,-0.616455078125,1.7731
1.7251908396946565,0.7938931297709924,-1.3129770992366412,0.008056640625,0.034423828125,-0.608154296875,1.7748
1.5725190839694656,0.8396946564885496,-1.3435114503816794,0.01708984375,0.030029296875,-0.613037109375,1.7765
1.633587786259542,1.0076335877862594,-1.5725190839694656,0.0126953125,0.027587890625,-0.612548828125,1.7782
1.83206106870229,0.8702290076335878,-1.4351145038167938,0.01416015625,0.032958984375,-0.6044921875,1.7798999999999998
1.6641221374045803,0.7938931297709924,-1.5419847328244274,0.014404296875,0.03515625,-0.613037109375,1.7815999999999999
1.6488549618320612,0.9465648854961832,-1.3587786259541985,0.01025390625,0.03369140625,-0.619873046875,1.7832999999999999
1.6793893129770991,0.9007633587786259,-1.465648854961832,0.011474609375,0.028076171875,-0.61083984375,1.785
1.633587786259542,0.9618320610687023,-1.282442748091603,0.012939453125,0.029052734375,-0.61181640625,1.7867
1.4045801526717556,1.0229007633587786,-1.0687022900763359,0.007080078125,0.02880859375,-0.610595703125,1.7884
1.4198473282442747,1.0687022900763359,-1.1755725190839694,0.009033203125,0.03759765625,-0.6064453125,1.7900999999999998
1.3435114503816794,0.9618320610687023,-1.251908396946565,0.0107421875,0.03466796875,-0.608642578125,1.7917999999999998
1.3282442748091603,1.1908396946564885,-1.2061068702290076,0.010986328125,0.028076171875,-0.611572265625,1.7934999999999999
1.0687022900763359,1.2366412213740459,-1.1603053435114503,0.014404296875,0.02490234375,-0.61181640625,1.7952
1.0687022900763359,1.1297709923664123,-1.1908396946564885,0.01123046875,0.02880859375,-0.61572265625,1.7969
1.2213740458015268,1.2366412213740459,-1.0687022900763359,0.012451171875,0.0341796875,-0.612060546875,1.7986
1.1145038167938932,1.1145038167938932,-1.2671755725190839,0.0107421875,0.0302734375,-0.614501953125,1.8002999999999998
1.2366412213740459,1.2366412213740459,-1.2671755725190839,0.012451171875,0.036376953125,-0.617919921875,1.8019999999999998
1.1450381679389312,1.2213740458015268,-1.2061068702290076,0.00537109375,0.02978515625,-0.61181640625,1.8036999999999999
0.9923664122137404,0.9923664122137404,-1.450381679389313,0.012939453125,0.03125,-0.61328125,1.8054
1.083969465648855,1.1145038167938932,-1.5114503816793894,0.008056640625,0.033447265625,-0.609375,1.8071
1.0381679389312977,0.9923664122137404,-1.4961832061068703,0.015380859375,0.031005859375,-0.6240234375,1.8088
1.099236641221374,0.9923664122137404,-1.633587786259542,0.01171875,0.02685546875,-0.61279296875,1.8105
1.1908396946564885,0.9770992366412213,-1.4045801526717556,0.012939453125,0.03271484375,-0.61572265625,1.8121999999999998
1.099236641221374,0.8702290076335878,-1.5114503816793894,0.013671875,0.0263671875,-0.62255859375,1.8138999999999998
1.3435114503816794,0.8396946564885496,-1.465648854961832,0.0146484375,0.03369140625,-0.61767578125,1.8155999999999999
1.282442748091603,0.8854961832061069,-1.633587786259542,0.017333984375,0.03466796875,-0.609375,1.8173
1.4809160305343512,0.8244274809160306,-1.5877862595419847,0.014892578125,0.031494140625,-0.6201171875,1.819
1.7404580152671756,0.8549618320610687,-1.6946564885496183,0.015625,0.032958984375,-0.615478515625,1.8207
