gyrox1,gyroy1,gyroz1,accelx1,accely1,accelz1,Time
2.2442748091603053,1.0534351145038168,-2.4580152671755724,-0.461181640625,-0.03466796875,-0.13916015625,0.0
2.2442748091603053,1.1755725190839694,-2.4580152671755724,-0.46044921875,-0.04052734375,-0.140380859375,0.0017
1.9694656488549618,1.0076335877862594,-2.7938931297709924,-0.462646484375,-0.0390625,-0.140380859375,0.0034
2.1068702290076335,0.9923664122137404,-2.7022900763358777,-0.4560546875,-0.0361328125,-0.134521484375,0.0050999999999999995
2.1068702290076335,0.8702290076335878,-2.6564885496183206,-0.455810546875,-0.038330078125,-0.134033203125,0.0068
2.030534351145038,0.8549618320610687,-2.7786259541984735,-0.458984375,-0.033203125,-0.135498046875,0.008499999999999999
1.9694656488549618,0.9770992366412213,-3.0229007633587788,-0.456787109375,-0.0361328125,-0.135009765625,0.010199999999999999
1.8625954198473282,0.8854961832061069,-3.0381679389312977,-0.45849609375,-0.039306640625,-0.134521484375,0.011899999999999999
1.7404580152671756,0.9465648854961832,-3.236641221374046,-0.458740234375,-0.038330078125,-0.135498046875,0.0136
1.6488549618320612,0.916030534351145,-3.1755725190839694,-0.46044921875,-0.035400390625,-0.136474609375,0.0153
1.1603053435114503,0.9312977099236641,-3.3435114503816794,-0.460205078125,-0.03466796875,-0.130126953125,0.016999999999999998
1.4809160305343512,0.8091603053435115,-3.312977099236641,-0.4619140625,-0.033447265625,-0.127197265625,0.018699999999999998
1.251908396946565,0.732824427480916,-3.0381679389312977,-0.4580078125,-0.03759765625,-0.145263671875,0.020399999999999998
1.0687022900763359,0.6412213740458015,-3.1755725190839694,-0.45703125,-0.0341796875,-0.1396484375,0.022099999999999998
0.9923664122137404,0.6412213740458015,-3.404580152671756,-0.450927734375,-0.037109375,-0.140869140625,0.023799999999999998
1.0534351145038168,0.5801526717557252,-3.1755725190839694,-0.457763671875,-0.033203125,-0.138916015625,0.0255
1.0534351145038168,0.5648854961832062,-3.1755725190839694,-0.4609375,-0.031494140625,-0.143310546875,0.0272
1.083969465648855,0.3816793893129771,-3.0839694656488548,-0.456787109375,-0.03076171875,-0.140380859375,0.0289
1.1450381679389312,0.3969465648854962,-3.053435114503817,-0.45166015625,-0.034423828125,-0.14453125,0.0306
0.9923664122137404,0.22900763358778625,-2.9160305343511452,-0.4580078125,-0.0302734375,-0.13720703125,0.032299999999999995
0.916030534351145,0.1984732824427481,-3.1908396946564888,-0.459716796875,-0.031005859375,-0.1318359375,0.033999999999999996
1.1145038167938932,0.3511450381679389,-2.900763358778626,-0.453857421875,-0.032470703125,-0.131103515625,0.035699999999999996
1.1908396946564885,0.061068702290076333,-2.8702290076335877,-0.457763671875,-0.028564453125,-0.135986328125,0.037399999999999996
1.282442748091603,0.12213740458015267,-2.9160305343511452,-0.451904296875,-0.027099609375,-0.140625,0.039099999999999996
1.2213740458015268,-0.24427480916030533,-2.854961832061069,-0.455322265625,-0.024658203125,-0.143798828125,0.040799999999999996
1.5267175572519085,-0.1984732824427481,-2.854961832061069,-0.452880859375,-0.02685546875,-0.142333984375,0.042499999999999996
1.6488549618320612,-0.21374045801526717,-2.8244274809160306,-0.45068359375,-0.0224609375,-0.134033203125,0.044199999999999996
1.6030534351145038,-0.5648854961832062,-2.7480916030534353,-0.44873046875,-0.021728515625,-0.130615234375,0.045899999999999996
1.7557251908396947,-0.5648854961832062,-2.946564885496183,-0.4541015625,-0.023193359375,-0.13916015625,0.047599999999999996
2.0610687022900764,-0.44274809160305345,-2.7022900763358777,-0.45166015625,-0.02197265625,-0.135986328125,0.0493
2.122137404580153,-0.8549618320610687,-2.8396946564885495,-0.452392578125,-0.02587890625,-0.1376953125,0.051
2.0916030534351147,-1.099236641221374,-2.6106870229007635,-0.45068359375,-0.0244140625,-0.1396484375,0.0527
2.183206106870229,-1.1755725190839694,-2.8396946564885495,-0.452880859375,-0.029541015625,-0.1435546875,0.0544
2.427480916030534,-1.4045801526717556,-2.854961832061069,-0.45361328125,-0.02197265625,-0.13671875,0.0561
2.4732824427480917,-1.6030534351145038,-2.931297709923664,-0.44873046875,-0.0263671875,-0.14404296875,0.0578
2.381679389312977,-1.7709923664122138,-3.0839694656488548,-0.457275390625,-0.025634765625,-0.14013671875,0.0595
2.6106870229007635,-1.9236641221374047,-3.1297709923664123,-0.453369140625,-0.026611328125,-0.141357421875,0.0612
2.4885496183206106,-1.9389312977099236,-3.0839694656488548,-0.455322265625,-0.024169921875,-0.13525390625,0.0629
2.6564885496183206,-2.045801526717557,-3.2519083969465647,-0.4541015625,-0.029541015625,-0.14697265625,0.06459999999999999
2.6717557251908395,-2.3053435114503817,-3.1908396946564888,-0.458740234375,-0.030517578125,-0.143798828125,0.0663
2.6106870229007635,-2.366412213740458,-3.3587786259541983,-0.452880859375,-0.029296875,-0.143798828125,0.06799999999999999
2.854961832061069,-2.33587786259542,-3.5114503816793894,-0.4560546875,-0.02734375,-0.136962890625,0.0697
2.8702290076335877,-2.519083969465649,-3.49618320610687,-0.45849609375,-0.028076171875,-0.1484375,0.07139999999999999
2.8396946564885495,-2.33587786259542,-3.618320610687023,-0.4609375,-0.030029296875,-0.14306640625,0.0731
2.9923664122137406,-2.4885496183206106,-3.648854961832061,-0.463623046875,-0.03076171875,-0.1416015625,0.07479999999999999
3.0229007633587788,-2.381679389312977,-3.7251908396946565,-0.461669921875,-0.02783203125,-0.138671875,0.0765
3.1603053435114505,-2.198473282442748,-3.816793893129771,-0.459716796875,-0.034423828125,-0.155517578125,0.07819999999999999
3.435114503816794,-2.2748091603053435,-3.8473282442748094,-0.464599609375,-0.0263671875,-0.147705078125,0.0799
3.450381679389313,-2.0763358778625953,-4.0458015267175576,-0.462646484375,-0.033935546875,-0.1435546875,0.08159999999999999
3.618320610687023,-1.9236641221374047,-3.9083969465648853,-0.46337890625,-0.0380859375,-0.144775390625,0.0833
4.213740458015267,-1.4045801526717556,-3.9389312977099236,-0.4658203125,-0.03515625,-0.146728515625,0.08499999999999999
4.412213740458015,-0.9007633587786259,-3.8625954198473282,-0.4619140625,-0.03125,-0.150146484375,0.0867
4.625954198473282,-0.5801526717557252,-4.015267175572519,-0.468017578125,-0.034423828125,-0.146728515625,0.08839999999999999
5.175572519083969,-0.32061068702290074,-3.969465648854962,-0.46630859375,-0.0263671875,-0.154296875,0.0901
5.557251908396947,0.12213740458015267,-4.076335877862595,-0.47021484375,-0.030029296875,-0.14794921875,0.09179999999999999
5.9541984732824424,0.3053435114503817,-4.061068702290076,-0.46484375,-0.033447265625,-0.143798828125,0.0935
6.015267175572519,0.42748091603053434,-4.244274809160306,-0.46630859375,-0.031982421875,-0.144287109375,0.09519999999999999
6.412213740458015,0.6106870229007634,-4.33587786259542,-0.4677734375,-0.0322265625,-0.150634765625,0.0969
7.038167938931298,0.5801526717557252,-4.061068702290076,-0.46484375,-0.03271484375,-0.138916015625,0.0986
7.190839694656488,0.6259541984732825,-3.877862595419847,-0.46875,-0.03125,-0.143798828125,0.1003
7.480916030534351,0.7938931297709924,-4.061068702290076,-0.4677734375,-0.03466796875,-0.1416015625,0.102
7.6183206106870225,0.7022900763358778,-3.7404580152671754,-0.469482421875,-0.03564453125,-0.14892578125,0.1037
8.091603053435115,0.6717557251908397,-4.0,-0.4638671875,-0.03173828125,-0.143798828125,0.1054
8.290076335877863,0.8244274809160306,-3.969465648854962,-0.463134765625,-0.031005859375,-0.136474609375,0.1071
8.732824427480915,0.6870229007633588,-3.8931297709923665,-0.463134765625,-0.033447265625,-0.142333984375,0.1088
8.65648854961832,0.6412213740458015,-3.816793893129771,-0.46923828125,-0.03076171875,-0.149658203125,0.11049999999999999
8.564885496183207,0.5190839694656488,-3.8473282442748094,-0.4638671875,-0.035400390625,-0.140625,0.1122
8.870229007633588,0.366412213740458,-3.6946564885496183,-0.464599609375,-0.033935546875,-0.140625,0.11389999999999999
9.16030534351145,0.48854961832061067,-3.572519083969466,-0.468017578125,-0.044189453125,-0.14501953125,0.1156
9.16030534351145,0.22900763358778625,-3.450381679389313,-0.46826171875,-0.03955078125,-0.1376953125,0.11729999999999999
9.145038167938932,0.10687022900763359,-3.4198473282442747,-0.4677734375,-0.038330078125,-0.14306640625,0.119
8.67175572519084,0.07633587786259542,-3.1297709923664123,-0.468017578125,-0.042724609375,-0.138916015625,0.12069999999999999
8.687022900763358,-0.07633587786259542,-3.2213740458015265,-0.473388671875,-0.04443359375,-0.139892578125,0.1224
8.717557251908397,-0.22900763358778625,-3.053435114503817,-0.47265625,-0.0419921875,-0.134033203125,0.12409999999999999
8.15267175572519,-0.3969465648854962,-3.0381679389312977,-0.4677734375,-0.043701171875,-0.145263671875,0.1258
7.862595419847328,-0.7633587786259542,-2.717557251908397,-0.4697265625,-0.045166015625,-0.134033203125,0.1275
7.32824427480916,-0.9770992366412213,-2.6717557251908395,-0.469482421875,-0.046630859375,-0.140869140625,0.12919999999999998
7.068702290076335,-1.0534351145038168,-2.549618320610687,-0.47021484375,-0.04443359375,-0.148193359375,0.1309
6.687022900763359,-1.1603053435114503,-2.5343511450381677,-0.46728515625,-0.048095703125,-0.14306640625,0.1326
6.137404580152672,-1.4809160305343512,-2.33587786259542,-0.470947265625,-0.050537109375,-0.138427734375,0.1343
5.694656488549619,-1.6946564885496183,-2.3206106870229006,-0.474365234375,-0.0576171875,-0.141845703125,0.13599999999999998
5.114503816793893,-1.6793893129770991,-2.015267175572519,-0.470703125,-0.052490234375,-0.13427734375,0.1377
4.854961832061068,-1.7099236641221374,-1.8931297709923665,-0.4755859375,-0.046875,-0.14404296875,0.1394
3.9389312977099236,-1.5572519083969465,-1.8473282442748091,-0.475341796875,-0.051025390625,-0.140380859375,0.1411
3.877862595419847,-1.5877862595419847,-1.6488549618320612,-0.4814453125,-0.05322265625,-0.130859375,0.14279999999999998
3.236641221374046,-1.5419847328244274,-1.450381679389313,-0.47314453125,-0.05810546875,-0.144287109375,0.1445
2.519083969465649,-1.465648854961832,-1.4045801526717556,-0.477294921875,-0.056884765625,-0.1396484375,0.1462
2.366412213740458,-1.5419847328244274,-1.1145038167938932,-0.474365234375,-0.054443359375,-0.133056640625,0.1479
2.045801526717557,-1.4351145038167938,-0.916030534351145,-0.4736328125,-0.051513671875,-0.143310546875,0.14959999999999998
1.4045801526717556,-1.3282442748091603,-0.7786259541984732,-0.480712890625,-0.0546875,-0.1337890625,0.1513
1.2061068702290076,-1.2671755725190839,-0.8396946564885496,-0.476318359375,-0.0576171875,-0.133544921875,0.153
0.8396946564885496,-1.0687022900763359,-0.6259541984732825,-0.478271484375,-0.055419921875,-0.139404296875,0.1547
0.7022900763358778,-1.0229007633587786,-0.549618320610687,-0.478759765625,-0.057861328125,-0.14306640625,0.15639999999999998
0.5190839694656488,-0.8396946564885496,-0.3969465648854962,-0.476806640625,-0.056640625,-0.1376953125,0.1581
0.13740458015267176,-0.916030534351145,-0.2900763358778626,-0.474365234375,-0.053466796875,-0.14306640625,0.1598
0.030534351145038167,-0.9923664122137404,-0.030534351145038167,-0.476318359375,-0.053955078125,-0.12646484375,0.1615
-0.4122137404580153,-0.916030534351145,0.030534351145038167,-0.4755859375,-0.055908203125,-0.123046875,0.16319999999999998
-0.8702290076335878,-0.916030534351145,0.183206106870229,-0.478759765625,-0.052490234375,-0.133056640625,0.1649
-1.1145038167938932,-1.0229007633587786,0.22900763358778625,-0.47607421875,-0.05712890625,-0.130615234375,0.1666
-1.3893129770992367,-0.5801526717557252,0.2748091603053435,-0.4697265625,-0.051513671875,-0.133544921875,0.16829999999999998
-2.0,-0.7175572519083969,0.2595419847328244,-0.47509765625,-0.0537109375,-0.13330078125,0.16999999999999998
-2.183206106870229,-0.8244274809160306,0.2595419847328244,-0.4765625,-0.05029296875,-0.129638671875,0.1717
-2.687022900763359,-0.7938931297709924,0.366412213740458,-0.47216796875,-0.051025390625,-0.133056640625,0.1734
-2.946564885496183,-0.8396946564885496,0.4122137404580153,-0.471923828125,-0.04736328125,-0.13232421875,0.17509999999999998
-3.4198473282442747,-0.8091603053435115,0.4580152671755725,-0.472900390625,-0.0478515625,-0.135498046875,0.17679999999999998
-3.633587786259542,-0.5801526717557252,0.4732824427480916,-0.474853515625,-0.047607421875,-0.14208984375,0.1785
-4.076335877862595,-0.5954198473282443,0.366412213740458,-0.47705078125,-0.04638671875,-0.135986328125,0.1802
-4.183206106870229,-0.6259541984732825,0.5343511450381679,-0.476318359375,-0.0498046875,-0.1328125,0.18189999999999998
-4.33587786259542,-0.3816793893129771,0.2748091603053435,-0.4736328125,-0.0458984375,-0.13671875,0.18359999999999999
-4.442748091603053,-0.3816793893129771,0.2748091603053435,-0.471923828125,-0.044921875,-0.134521484375,0.1853
-4.702290076335878,-0.1984732824427481,0.2595419847328244,-0.469482421875,-0.047607421875,-0.132568359375,0.187
-4.717557251908397,-0.366412213740458,0.24427480916030533,-0.4736328125,-0.051025390625,-0.13671875,0.18869999999999998
-4.534351145038168,-0.1984732824427481,0.10687022900763359,-0.4716796875,-0.048095703125,-0.13818359375,0.19039999999999999
-4.564885496183206,-0.21374045801526717,-0.12213740458015267,-0.4755859375,-0.0439453125,-0.138671875,0.1921
-4.351145038167939,-0.13740458015267176,0.061068702290076333,-0.4736328125,-0.043212890625,-0.130615234375,0.1938
-4.229007633587786,0.015267175572519083,0.0916030534351145,-0.4697265625,-0.04345703125,-0.1435546875,0.19549999999999998
-4.213740458015267,-0.15267175572519084,-0.07633587786259542,-0.471435546875,-0.0400390625,-0.13720703125,0.1972
-4.091603053435114,0.061068702290076333,-0.2595419847328244,-0.474609375,-0.043701171875,-0.14404296875,0.1989
-3.9083969465648853,0.24427480916030533,-0.1984732824427481,-0.47314453125,-0.0458984375,-0.134521484375,0.2006
-3.5572519083969465,0.32061068702290074,-0.3969465648854962,-0.472900390625,-0.03955078125,-0.139404296875,0.20229999999999998
-3.5877862595419847,0.366412213740458,-0.2595419847328244,-0.474609375,-0.03515625,-0.143798828125,0.204
-3.145038167938931,0.44274809160305345,-0.2748091603053435,-0.465087890625,-0.041748046875,-0.137939453125,0.2057
-2.900763358778626,0.7022900763358778,-0.16793893129770993,-0.46435546875,-0.040283203125,-0.1435546875,0.2074
-2.687022900763359,0.549618320610687,-0.3511450381679389,-0.468994140625,-0.0361328125,-0.134765625,0.20909999999999998
-2.6564885496183206,0.8854961832061069,-0.13740458015267176,-0.46484375,-0.040283203125,-0.13818359375,0.2108
-2.33587786259542,1.2213740458015268,-0.366412213740458,-0.469970703125,-0.03515625,-0.133056640625,0.2125
-1.9083969465648856,1.2061068702290076,-0.15267175572519084,-0.46533203125,-0.03662109375,-0.134765625,0.2142
-1.816793893129771,1.2061068702290076,-0.3511450381679389,-0.460693359375,-0.036865234375,-0.138916015625,0.21589999999999998
-1.8015267175572518,1.3282442748091603,-0.2595419847328244,-0.4697265625,-0.034912109375,-0.135009765625,0.2176
-1.6641221374045803,1.5572519083969465,-0.12213740458015267,-0.463134765625,-0.036865234375,-0.137939453125,0.2193
-1.4198473282442747,1.4809160305343512,-0.2900763358778626,-0.466552734375,-0.03515625,-0.133056640625,0.22099999999999997
-1.3587786259541985,1.3435114503816794,-0.04580152671755725,-0.466552734375,-0.032958984375,-0.134521484375,0.22269999999999998
-1.2671755725190839,1.4198473282442747,-0.13740458015267176,-0.46533203125,-0.03125,-0.1357421875,0.2244
-1.083969465648855,1.1908396946564885,-0.21374045801526717,-0.46142578125,-0.031494140625,-0.129150390625,0.2261
-1.0381679389312977,1.1145038167938932,-0.16793893129770993,-0.46630859375,-0.02587890625,-0.126708984375,0.22779999999999997
-1.099236641221374,1.1908396946564885,-0.33587786259541985,-0.460693359375,-0.02685546875,-0.13134765625,0.22949999999999998
-0.9770992366412213,0.9923664122137404,-0.04580152671755725,-0.466796875,-0.02587890625,-0.127197265625,0.2312
-0.9465648854961832,0.9465648854961832,-0.1984732824427481,-0.46630859375,-0.0234375,-0.1298828125,0.2329
-1.0534351145038168,1.0687022900763359,-0.07633587786259542,-0.468505859375,-0.021728515625,-0.131591796875,0.23459999999999998
-1.0687022900763359,0.9618320610687023,-0.2595419847328244,-0.46484375,-0.025146484375,-0.124755859375,0.23629999999999998
-1.1908396946564885,0.8396946564885496,0.0,-0.46875,-0.0263671875,-0.133056640625,0.238
-1.1908396946564885,1.0076335877862594,-0.1984732824427481,-0.465087890625,-0.02392578125,-0.126708984375,0.2397
-1.0229007633587786,0.8854961832061069,-0.3053435114503817,-0.465576171875,-0.029052734375,-0.129638671875,0.24139999999999998
-1.3282442748091603,1.0229007633587786,-0.2900763358778626,-0.47119140625,-0.032958984375,-0.13623046875,0.24309999999999998
-1.3587786259541985,0.9923664122137404,-0.07633587786259542,-0.468994140625,-0.030029296875,-0.1298828125,0.2448
-1.2671755725190839,1.2061068702290076,-0.3053435114503817,-0.46728515625,-0.029052734375,-0.1318359375,0.2465
-1.2671755725190839,1.1297709923664123,0.030534351145038167,-0.463623046875,-0.02734375,-0.130615234375,0.24819999999999998
-1.2061068702290076,1.2366412213740459,-0.33587786259541985,-0.465087890625,-0.028076171875,-0.13525390625,0.24989999999999998
-1.251908396946565,1.6030534351145038,-0.15267175572519084,-0.465087890625,-0.030517578125,-0.131591796875,0.2516
-1.3587786259541985,1.6641221374045803,-0.24427480916030533,-0.462646484375,-0.02734375,-0.125,0.25329999999999997
-1.2366412213740459,1.7557251908396947,0.0,-0.462158203125,-0.031494140625,-0.13671875,0.255
-1.3893129770992367,1.83206106870229,-0.21374045801526717,-0.46630859375,-0.0283203125,-0.12939453125,0.2567
-1.083969465648855,2.0,-0.24427480916030533,-0.468505859375,-0.025390625,-0.13037109375,0.25839999999999996
-0.9007633587786259,2.015267175572519,-0.3969465648854962,-0.460693359375,-0.028076171875,-0.13232421875,0.2601
-1.0381679389312977,2.045801526717557,-0.13740458015267176,-0.462646484375,-0.031005859375,-0.13818359375,0.2618
-0.9465648854961832,1.9083969465648856,-0.183206106870229,-0.467041015625,-0.03076171875,-0.12744140625,0.2635
-0.5801526717557252,1.8473282442748091,-0.16793893129770993,-0.46435546875,-0.024658203125,-0.122314453125,0.2652
-0.5038167938931297,1.8473282442748091,-0.3969465648854962,-0.46728515625,-0.027099609375,-0.128662109375,0.26689999999999997
-0.4122137404580153,1.9236641221374047,-0.015267175572519083,-0.4658203125,-0.0283203125,-0.135009765625,0.2686
-0.12213740458015267,1.5267175572519085,-0.07633587786259542,-0.4638671875,-0.033447265625,-0.1298828125,0.2703
0.04580152671755725,1.5877862595419847,0.04580152671755725,-0.462646484375,-0.02734375,-0.1298828125,0.27199999999999996
0.3969465648854962,1.7251908396946565,-0.24427480916030533,-0.4658203125,-0.027587890625,-0.13232421875,0.2737
0.6717557251908397,1.633587786259542,0.030534351145038167,-0.464599609375,-0.0302734375,-0.134765625,0.2754
0.6870229007633588,1.786259541984733,-0.16793893129770993,-0.46240234375,-0.023193359375,-0.144287109375,0.27709999999999996
0.8854961832061069,1.83206106870229,-0.183206106870229,-0.461181640625,-0.022705078125,-0.13916015625,0.2788
0.9312977099236641,1.8778625954198473,-0.1984732824427481,-0.4619140625,-0.024169921875,-0.135498046875,0.28049999999999997
0.9923664122137404,1.8473282442748091,-0.07633587786259542,-0.456787109375,-0.02392578125,-0.13232421875,0.2822
1.3129770992366412,2.1068702290076335,-0.33587786259541985,-0.46044921875,-0.02734375,-0.129638671875,0.2839
1.2213740458015268,2.122137404580153,-0.030534351145038167,-0.460205078125,-0.02685546875,-0.130126953125,0.28559999999999997
1.1908396946564885,2.0763358778625953,-0.42748091603053434,-0.46142578125,-0.028076171875,-0.128662109375,0.2873
1.1908396946564885,2.1374045801526718,-0.2900763358778626,-0.46044921875,-0.0244140625,-0.134521484375,0.289
1.618320610687023,2.2595419847328246,-0.42748091603053434,-0.46630859375,-0.025634765625,-0.13134765625,0.29069999999999996
1.6030534351145038,2.366412213740458,-0.5954198473282443,-0.458251953125,-0.030029296875,-0.130126953125,0.2924
1.3893129770992367,2.030534351145038,-0.7022900763358778,-0.458984375,-0.02783203125,-0.132080078125,0.2941
1.5877862595419847,2.0763358778625953,-0.6412213740458015,-0.459716796875,-0.0244140625,-0.13232421875,0.2958
1.7404580152671756,2.198473282442748,-0.8091603053435115,-0.462158203125,-0.026123046875,-0.1298828125,0.2975
1.9541984732824427,2.2442748091603053,-0.7938931297709924,-0.456298828125,-0.033447265625,-0.13623046875,0.29919999999999997
1.9083969465648856,2.0763358778625953,-1.0229007633587786,-0.456787109375,-0.02294921875,-0.135986328125,0.3009
2.16793893129771,2.1374045801526718,-1.0076335877862594,-0.457763671875,-0.030029296875,-0.123046875,0.3026
2.3053435114503817,2.1068702290076335,-1.1145038167938932,-0.45849609375,-0.0244140625,-0.1474609375,0.30429999999999996
2.4580152671755724,2.0610687022900764,-1.1908396946564885,-0.4638671875,-0.0263671875,-0.13134765625,0.306
2.6259541984732824,2.1526717557251906,-1.450381679389313,-0.455322265625,-0.02392578125,-0.12890625,0.3077
2.7938931297709924,2.3053435114503817,-1.3129770992366412,-0.457763671875,-0.02734375,-0.126708984375,0.3094
2.7786259541984735,2.183206106870229,-1.4351145038167938,-0.46142578125,-0.024658203125,-0.144287109375,0.3111
2.9923664122137406,2.4732824427480917,-1.450381679389313,-0.4599609375,-0.028076171875,-0.130615234375,0.31279999999999997
3.0381679389312977,2.4885496183206106,-1.4045801526717556,-0.46435546875,-0.025390625,-0.13720703125,0.3145
3.282442748091603,2.4122137404580153,-1.465648854961832,-0.462890625,-0.031982421875,-0.130859375,0.3162
3.3282442748091605,2.6412213740458017,-1.5572519083969465,-0.460205078125,-0.026611328125,-0.136962890625,0.31789999999999996
3.435114503816794,2.7786259541984735,-1.1908396946564885,-0.4609375,-0.031494140625,-0.13623046875,0.3196
3.5572519083969465,2.6564885496183206,-1.7709923664122138,-0.4658203125,-0.0322265625,-0.13427734375,0.3213
3.480916030534351,2.6106870229007635,-1.5725190839694656,-0.459228515625,-0.032958984375,-0.133056640625,0.323
3.3893129770992365,2.381679389312977,-1.6946564885496183,-0.462158203125,-0.02880859375,-0.1298828125,0.3247
3.5267175572519083,2.427480916030534,-1.786259541984733,-0.45654296875,-0.0380859375,-0.13037109375,0.32639999999999997
3.5114503816793894,2.381679389312977,-1.816793893129771,-0.4609375,-0.03125,-0.131591796875,0.3281
3.5267175572519083,2.2595419847328246,-1.9694656488549618,-0.465576171875,-0.037353515625,-0.134521484375,0.3298
3.572519083969466,2.2748091603053435,-1.984732824427481,-0.462646484375,-0.03271484375,-0.12939453125,0.33149999999999996
3.648854961832061,2.366412213740458,-1.8625954198473282,-0.4658203125,-0.03564453125,-0.1240234375,0.3332
3.572519083969466,2.1068702290076335,-1.8625954198473282,-0.469970703125,-0.03564453125,-0.1279296875,0.3349
3.3740458015267176,1.9541984732824427,-1.9389312977099236,-0.46728515625,-0.0390625,-0.1279296875,0.33659999999999995
3.6030534351145036,2.0763358778625953,-2.015267175572519,-0.465576171875,-0.038330078125,-0.123779296875,0.3383
3.4198473282442747,1.7251908396946565,-2.0916030534351147,-0.463623046875,-0.031494140625,-0.1220703125,0.33999999999999997
3.1603053435114505,1.7709923664122138,-1.984732824427481,-0.46484375,-0.0322265625,-0.12841796875,0.3417
3.4198473282442747,1.7099236641221374,-1.9541984732824427,-0.46875,-0.037841796875,-0.127197265625,0.3434
3.114503816793893,1.6641221374045803,-1.9236641221374047,-0.46435546875,-0.03955078125,-0.130859375,0.34509999999999996
3.0839694656488548,1.6946564885496183,-1.984732824427481,-0.47021484375,-0.0390625,-0.1318359375,0.3468
2.854961832061069,1.5877862595419847,-1.9236641221374047,-0.47021484375,-0.04248046875,-0.134765625,0.3485
2.763358778625954,1.4809160305343512,-1.8473282442748091,-0.46728515625,-0.0439453125,-0.125244140625,0.35019999999999996
2.8396946564885495,1.7404580152671756,-1.8473282442748091,-0.466552734375,-0.044677734375,-0.1357421875,0.3519
2.7022900763358777,1.6946564885496183,-1.83206106870229,-0.465576171875,-0.04248046875,-0.130859375,0.35359999999999997
2.5801526717557253,1.618320610687023,-1.9236641221374047,-0.46826171875,-0.04443359375,-0.125732421875,0.3553
2.2290076335877864,1.6030534351145038,-1.8931297709923665,-0.4697265625,-0.04248046875,-0.13330078125,0.357
2.2290076335877864,1.7709923664122138,-1.8931297709923665,-0.467529296875,-0.040283203125,-0.133544921875,0.35869999999999996
2.213740458015267,1.7404580152671756,-2.015267175572519,-0.468505859375,-0.046142578125,-0.135986328125,0.3604
2.0763358778625953,1.6641221374045803,-1.9083969465648856,-0.4638671875,-0.03955078125,-0.13037109375,0.3621
1.83206106870229,1.5267175572519085,-1.8015267175572518,-0.468017578125,-0.044921875,-0.1298828125,0.36379999999999996
1.8473282442748091,1.5114503816793894,-1.8015267175572518,-0.469482421875,-0.037353515625,-0.135009765625,0.3655
1.633587786259542,1.5114503816793894,-1.7557251908396947,-0.466064453125,-0.0380859375,-0.1318359375,0.36719999999999997
1.3282442748091603,1.3435114503816794,-1.8015267175572518,-0.469970703125,-0.0380859375,-0.1318359375,0.3689
1.5572519083969465,1.4045801526717556,-1.6793893129770991,-0.4716796875,-0.038330078125,-0.137451171875,0.3706
1.5572519083969465,1.3435114503816794,-1.6946564885496183,-0.4697265625,-0.03857421875,-0.133056640625,0.37229999999999996
1.2366412213740459,1.2366412213740459,-1.8473282442748091,-0.46630859375,-0.041748046875,-0.135498046875,0.374
1.1297709923664123,1.1603053435114503,-1.6641221374045803,-0.4697265625,-0.037841796875,-0.1455078125,0.3757
1.297709923664122,1.1450381679389312,-1.6793893129770991,-0.4638671875,-0.040771484375,-0.1318359375,0.37739999999999996
1.0229007633587786,1.1145038167938932,-1.5877862595419847,-0.471435546875,-0.03466796875,-0.135009765625,0.3791
0.9618320610687023,1.1297709923664123,-1.6641221374045803,-0.47021484375,-0.033935546875,-0.1376953125,0.38079999999999997
1.0381679389312977,1.0687022900763359,-1.618320610687023,-0.470703125,-0.035888671875,-0.1435546875,0.38249999999999995
0.7786259541984732,1.1450381679389312,-1.83206106870229,-0.46484375,-0.03076171875,-0.142333984375,0.3842
0.8702290076335878,1.1603053435114503,-1.8778625954198473,-0.46875,-0.03271484375,-0.137939453125,0.38589999999999997
0.916030534351145,1.0381679389312977,-1.9083969465648856,-0.466552734375,-0.03271484375,-0.1357421875,0.3876
0.6259541984732825,1.1603053435114503,-1.8625954198473282,-0.46728515625,-0.03515625,-0.137939453125,0.3893
0.7022900763358778,1.1145038167938932,-1.8015267175572518,-0.4697265625,-0.035888671875,-0.136474609375,0.39099999999999996
0.6717557251908397,0.9770992366412213,-1.618320610687023,-0.46728515625,-0.035888671875,-0.13818359375,0.3927
0.549618320610687,1.1603053435114503,-1.8778625954198473,-0.471923828125,-0.03173828125,-0.13232421875,0.3944
0.1984732824427481,1.1145038167938932,-1.6030534351145038,-0.467041015625,-0.03173828125,-0.13134765625,0.39609999999999995
0.22900763358778625,0.9007633587786259,-1.5725190839694656,-0.466552734375,-0.033447265625,-0.13623046875,0.3978
0.44274809160305345,1.0381679389312977,-1.6946564885496183,-0.46875,-0.033447265625,-0.126220703125,0.39949999999999997
0.3511450381679389,1.0534351145038168,-1.7557251908396947,-0.4609375,-0.029296875,-0.13232421875,0.4012
0.0916030534351145,0.8244274809160306,-1.816793893129771,-0.46875,-0.03271484375,-0.135009765625,0.4029
0.33587786259541985,0.8091603053435115,-1.8473282442748091,-0.46875,-0.033203125,-0.142578125,0.40459999999999996
0.5038167938931297,0.9923664122137404,-1.6946564885496183,-0.464599609375,-0.034912109375,-0.128173828125,0.4063
0.4580152671755725,1.0229007633587786,-1.786259541984733,-0.45849609375,-0.030517578125,-0.13623046875,0.408
0.2748091603053435,1.2366412213740459,-1.7099236641221374,-0.460693359375,-0.03173828125,-0.135986328125,0.40969999999999995
0.4580152671755725,0.8854961832061069,-1.6946564885496183,-0.471435546875,-0.03466796875,-0.133544921875,0.4114
0.7633587786259542,0.9770992366412213,-1.6488549618320612,-0.4638671875,-0.0361328125,-0.12841796875,0.41309999999999997
0.8549618320610687,1.1297709923664123,-1.6030534351145038,-0.4677734375,-0.0361328125,-0.12939453125,0.4148
1.0229007633587786,0.9923664122137404,-1.6030534351145038,-0.464599609375,-0.037109375,-0.128662109375,0.4165
1.2366412213740459,1.1755725190839694,-1.6030534351145038,-0.46728515625,-0.034912109375,-0.1298828125,0.41819999999999996
1.5725190839694656,1.0381679389312977,-1.5877862595419847,-0.467529296875,-0.033447265625,-0.12744140625,0.4199
1.618320610687023,1.083969465648855,-1.83206106870229,-0.460205078125,-0.03759765625,-0.130859375,0.4216
2.1526717557251906,1.1297709923664123,-1.4351145038167938,-0.461181640625,-0.034423828125,-0.132568359375,0.42329999999999995
1.9694656488549618,0.9770992366412213,-1.7709923664122138,-0.46630859375,-0.0361328125,-0.13623046875,0.425
2.183206106870229,1.2061068702290076,-1.7099236641221374,-0.462158203125,-0.04443359375,-0.13916015625,0.42669999999999997
2.564885496183206,1.1603053435114503,-1.83206106870229,-0.467529296875,-0.038330078125,-0.13037109375,0.4284
2.50381679389313,1.1145038167938932,-1.83206106870229,-0.460693359375,-0.032958984375,-0.135009765625,0.4301
2.595419847328244,0.732824427480916,-1.9083969465648856,-0.45849609375,-0.034423828125,-0.1279296875,0.43179999999999996
2.381679389312977,0.9618320610687023,-1.7557251908396947,-0.461181640625,-0.0390625,-0.14013671875,0.4335
2.6106870229007635,0.8244274809160306,-2.16793893129771,-0.464111328125,-0.03173828125,-0.12841796875,0.4352
2.687022900763359,0.5954198473282443,-2.030534351145038,-0.469970703125,-0.038330078125,-0.138916015625,0.43689999999999996
2.595419847328244,0.7022900763358778,-1.984732824427481,-0.46728515625,-0.036865234375,-0.125244140625,0.4386
2.519083969465649,0.5954198473282443,-2.213740458015267,-0.4638671875,-0.040771484375,-0.1279296875,0.44029999999999997
2.5801526717557253,0.5190839694656488,-2.4580152671755724,-0.459228515625,-0.03466796875,-0.138671875,0.44199999999999995
2.595419847328244,0.44274809160305345,-2.366412213740458,-0.46044921875,-0.03662109375,-0.135498046875,0.4437
2.763358778625954,0.44274809160305345,-2.3206106870229006,-0.464111328125,-0.036376953125,-0.134521484375,0.44539999999999996
2.50381679389313,0.42748091603053434,-2.2748091603053435,-0.466796875,-0.037353515625,-0.14306640625,0.4471
2.351145038167939,0.3969465648854962,-2.519083969465649,-0.4658203125,-0.036865234375,-0.148681640625,0.4488
2.6106870229007635,0.3511450381679389,-2.381679389312977,-0.469482421875,-0.03662109375,-0.145751953125,0.45049999999999996
2.4732824427480917,0.5038167938931297,-2.4427480916030535,-0.460205078125,-0.0361328125,-0.144775390625,0.4522
2.351145038167939,0.44274809160305345,-2.351145038167939,-0.4609375,-0.03564453125,-0.134765625,0.45389999999999997
2.50381679389313,0.6259541984732825,-2.33587786259542,-0.465087890625,-0.037109375,-0.139404296875,0.45559999999999995
2.564885496183206,0.48854961832061067,-2.4122137404580153,-0.46728515625,-0.038818359375,-0.140869140625,0.4573
2.6259541984732824,0.6412213740458015,-2.3969465648854964,-0.46728515625,-0.035400390625,-0.1435546875,0.45899999999999996
2.519083969465649,0.549618320610687,-2.4732824427480917,-0.462890625,-0.033203125,-0.146484375,0.4607
2.6564885496183206,0.4732824427480916,-2.5343511450381677,-0.464599609375,-0.0361328125,-0.14453125,0.4624
2.8244274809160306,0.5954198473282443,-2.4732824427480917,-0.46142578125,-0.03173828125,-0.135009765625,0.46409999999999996
2.946564885496183,0.6106870229007634,-2.595419847328244,-0.459716796875,-0.030517578125,-0.13818359375,0.4658
2.717557251908397,0.366412213740458,-2.2442748091603053,-0.46630859375,-0.038818359375,-0.1376953125,0.46749999999999997
2.7480916030534353,0.5801526717557252,-2.519083969465649,-0.470947265625,-0.031494140625,-0.13037109375,0.46919999999999995
2.8244274809160306,0.6259541984732825,-2.519083969465649,-0.46435546875,-0.033935546875,-0.13232421875,0.4709
2.6259541984732824,0.3969465648854962,-2.4122137404580153,-0.468994140625,-0.032470703125,-0.144287109375,0.47259999999999996
2.4122137404580153,0.33587786259541985,-2.351145038167939,-0.472900390625,-0.035888671875,-0.1376953125,0.4743
2.2900763358778624,0.48854961832061067,-2.381679389312977,-0.470458984375,-0.035400390625,-0.13818359375,0.476
2.030534351145038,0.6106870229007634,-2.198473282442748,-0.46875,-0.038330078125,-0.135986328125,0.47769999999999996
1.7709923664122138,0.33587786259541985,-2.3053435114503817,-0.47119140625,-0.03515625,-0.132080078125,0.4794
1.5877862595419847,0.44274809160305345,-2.0,-0.4677734375,-0.03955078125,-0.138916015625,0.48109999999999997
1.297709923664122,0.5038167938931297,-2.2595419847328246,-0.466552734375,-0.037109375,-0.139404296875,0.48279999999999995
1.3740458015267176,0.5801526717557252,-2.0,-0.468505859375,-0.029296875,-0.138916015625,0.4845
0.916030534351145,0.732824427480916,-1.984732824427481,-0.469482421875,-0.035888671875,-0.14111328125,0.48619999999999997
0.6717557251908397,0.6870229007633588,-1.6488549618320612,-0.4697265625,-0.03759765625,-0.13232421875,0.4879
0.48854961832061067,0.8091603053435115,-1.9694656488549618,-0.471923828125,-0.032958984375,-0.138671875,0.4896
0.5954198473282443,0.7786259541984732,-1.8931297709923665,-0.4677734375,-0.031005859375,-0.13720703125,0.49129999999999996
0.5038167938931297,0.9007633587786259,-1.8931297709923665,-0.4697265625,-0.03369140625,-0.138427734375,0.493
0.4580152671755725,1.1297709923664123,-1.6641221374045803,-0.4697265625,-0.033203125,-0.139404296875,0.4947
0.3816793893129771,1.1145038167938932,-1.7557251908396947,-0.46923828125,-0.037841796875,-0.14013671875,0.49639999999999995
0.3816793893129771,1.083969465648855,-1.5572519083969465,-0.478515625,-0.038330078125,-0.13525390625,0.4981
0.5343511450381679,1.3893129770992367,-1.7099236641221374,-0.47119140625,-0.035400390625,-0.139404296875,0.49979999999999997
0.3511450381679389,1.3435114503816794,-1.816793893129771,-0.4697265625,-0.037353515625,-0.135986328125,0.5015
0.32061068702290074,1.1908396946564885,-1.7557251908396947,-0.4716796875,-0.040283203125,-0.132568359375,0.5032
0.48854961832061067,1.4198473282442747,-1.8625954198473282,-0.46630859375,-0.03564453125,-0.1318359375,0.5049
0.8396946564885496,1.4809160305343512,-2.015267175572519,-0.47509765625,-0.0361328125,-0.140869140625,0.5065999999999999
0.7022900763358778,1.5114503816793894,-1.9083969465648856,-0.47314453125,-0.03564453125,-0.13671875,0.5083
1.0229007633587786,1.6641221374045803,-1.83206106870229,-0.4736328125,-0.037109375,-0.144775390625,0.51
1.2213740458015268,1.8015267175572518,-1.984732824427481,-0.4716796875,-0.033447265625,-0.139892578125,0.5116999999999999
1.5114503816793894,1.8473282442748091,-2.16793893129771,-0.47412109375,-0.036376953125,-0.139892578125,0.5134
2.015267175572519,1.786259541984733,-2.33587786259542,-0.47412109375,-0.03759765625,-0.1376953125,0.5151
2.3206106870229006,2.030534351145038,-2.6106870229007635,-0.470947265625,-0.0400390625,-0.140869140625,0.5167999999999999
2.7786259541984735,2.2442748091603053,-2.7022900763358777,-0.467041015625,-0.03564453125,-0.13427734375,0.5185
2.7786259541984735,2.2748091603053435,-2.885496183206107,-0.470458984375,-0.037109375,-0.146484375,0.5202
3.2977099236641223,2.4885496183206106,-3.1908396946564888,-0.4697265625,-0.037841796875,-0.141845703125,0.5218999999999999
3.5267175572519083,2.6259541984732824,-3.2977099236641223,-0.473388671875,-0.03759765625,-0.1396484375,0.5236
3.7251908396946565,2.6412213740458017,-3.450381679389313,-0.47216796875,-0.03759765625,-0.141357421875,0.5253
3.984732824427481,2.595419847328244,-3.7099236641221376,-0.469482421875,-0.041015625,-0.136474609375,0.527
4.1679389312977095,2.717557251908397,-4.030534351145038,-0.47412109375,-0.0361328125,-0.139404296875,0.5287
4.1679389312977095,2.717557251908397,-4.5038167938931295,-0.4716796875,-0.03955078125,-0.13232421875,0.5304
4.473282442748092,2.427480916030534,-4.641221374045801,-0.46923828125,-0.03857421875,-0.135498046875,0.5321
4.534351145038168,2.4122137404580153,-4.763358778625954,-0.468994140625,-0.036376953125,-0.144775390625,0.5337999999999999
4.717557251908397,2.4122137404580153,-5.0534351145038165,-0.472412109375,-0.0419921875,-0.142333984375,0.5355
4.778625954198473,2.366412213740458,-5.358778625954199,-0.468505859375,-0.036865234375,-0.134765625,0.5372
4.8396946564885495,2.427480916030534,-5.450381679389313,-0.46484375,-0.03564453125,-0.139892578125,0.5388999999999999
5.00763358778626,2.50381679389313,-5.557251908396947,-0.465576171875,-0.035888671875,-0.14111328125,0.5406
5.0534351145038165,2.427480916030534,-5.877862595419847,-0.46484375,-0.034423828125,-0.140380859375,0.5423
5.175572519083969,2.519083969465649,-6.015267175572519,-0.468017578125,-0.03857421875,-0.144287109375,0.5439999999999999
5.175572519083969,2.6412213740458017,-5.908396946564886,-0.463134765625,-0.035400390625,-0.135009765625,0.5457
5.236641221374046,2.5801526717557253,-6.152671755725191,-0.462890625,-0.036865234375,-0.134033203125,0.5474
5.480916030534351,2.687022900763359,-6.213740458015267,-0.462890625,-0.033935546875,-0.1318359375,0.5490999999999999
5.526717557251908,2.8702290076335877,-6.351145038167939,-0.4638671875,-0.037109375,-0.134765625,0.5508
5.648854961832061,2.6564885496183206,-6.5038167938931295,-0.46533203125,-0.0361328125,-0.1376953125,0.5525
5.755725190839694,2.717557251908397,-6.6106870229007635,-0.467529296875,-0.03515625,-0.1416015625,0.5541999999999999
5.877862595419847,2.854961832061069,-6.595419847328245,-0.46826171875,-0.037353515625,-0.140869140625,0.5559
5.801526717557252,2.9770992366412212,-6.67175572519084,-0.46435546875,-0.032958984375,-0.1357421875,0.5576
5.7251908396946565,2.9770992366412212,-6.6106870229007635,-0.465087890625,-0.0283203125,-0.138916015625,0.5593
5.908396946564886,2.8702290076335877,-6.473282442748092,-0.471923828125,-0.02294921875,-0.135498046875,0.5609999999999999
5.7251908396946565,3.099236641221374,-6.580152671755725,-0.464599609375,-0.026123046875,-0.13427734375,0.5627
5.7251908396946565,3.0839694656488548,-6.473282442748092,-0.47412109375,-0.029296875,-0.1328125,0.5644
5.9541984732824424,2.9770992366412212,-6.534351145038168,-0.468505859375,-0.02685546875,-0.135009765625,0.5660999999999999
5.893129770992366,2.946564885496183,-6.320610687022901,-0.46484375,-0.03173828125,-0.135498046875,0.5678
5.755725190839694,3.0076335877862594,-6.305343511450381,-0.468017578125,-0.0302734375,-0.13134765625,0.5695
6.030534351145038,3.0839694656488548,-6.106870229007634,-0.469970703125,-0.032958984375,-0.13916015625,0.5711999999999999
5.969465648854962,3.0076335877862594,-6.137404580152672,-0.4658203125,-0.0302734375,-0.133544921875,0.5729
6.1679389312977095,3.0839694656488548,-5.923664122137405,-0.46826171875,-0.033447265625,-0.13671875,0.5746
6.015267175572519,2.9923664122137406,-5.969465648854962,-0.46728515625,-0.0283203125,-0.133544921875,0.5762999999999999
6.1679389312977095,3.053435114503817,-5.694656488549619,-0.46533203125,-0.02978515625,-0.126708984375,0.578
6.488549618320611,3.0076335877862594,-5.603053435114504,-0.4638671875,-0.030029296875,-0.12646484375,0.5797
6.473282442748092,2.900763358778626,-5.557251908396947,-0.470458984375,-0.029052734375,-0.134033203125,0.5813999999999999
6.625954198473282,2.8396946564885495,-5.404580152671755,-0.466064453125,-0.026611328125,-0.134033203125,0.5831
6.687022900763359,2.854961832061069,-5.3893129770992365,-0.462158203125,-0.032470703125,-0.132568359375,0.5848
6.687022900763359,2.8244274809160306,-5.404580152671755,-0.46337890625,-0.029052734375,-0.131103515625,0.5865
6.793893129770993,2.717557251908397,-4.9465648854961835,-0.465087890625,-0.02685546875,-0.133544921875,0.5882
6.8396946564885495,2.687022900763359,-5.251908396946565,-0.46630859375,-0.030517578125,-0.13037109375,0.5899
6.824427480916031,2.8244274809160306,-5.0534351145038165,-0.46875,-0.035400390625,-0.134765625,0.5916
6.702290076335878,2.6717557251908395,-5.129770992366412,-0.464599609375,-0.03759765625,-0.129638671875,0.5932999999999999
6.641221374045801,2.5343511450381677,-4.916030534351145,-0.464599609375,-0.033447265625,-0.131591796875,0.595
6.702290076335878,2.732824427480916,-5.251908396946565,-0.467529296875,-0.037841796875,-0.132080078125,0.5967
6.702290076335878,2.8091603053435112,-4.870229007633588,-0.465087890625,-0.032958984375,-0.13427734375,0.5983999999999999
6.702290076335878,2.8091603053435112,-5.00763358778626,-0.468505859375,-0.035400390625,-0.135986328125,0.6001
6.442748091603053,2.8091603053435112,-4.9465648854961835,-0.46923828125,-0.037353515625,-0.134033203125,0.6018
6.290076335877862,3.0381679389312977,-5.0534351145038165,-0.466552734375,-0.03662109375,-0.134033203125,0.6034999999999999
6.442748091603053,3.3435114503816794,-4.9465648854961835,-0.462890625,-0.037353515625,-0.138916015625,0.6052
6.229007633587786,3.404580152671756,-5.114503816793893,-0.466064453125,-0.042236328125,-0.13671875,0.6069
6.091603053435114,3.3587786259541983,-4.854961832061068,-0.466064453125,-0.037353515625,-0.14013671875,0.6085999999999999
6.0,3.801526717557252,-5.068702290076335,-0.469970703125,-0.038330078125,-0.14453125,0.6103
6.015267175572519,3.984732824427481,-4.9465648854961835,-0.4716796875,-0.0439453125,-0.150390625,0.612
5.755725190839694,4.33587786259542,-5.206106870229007,-0.4697265625,-0.04296875,-0.142578125,0.6136999999999999
5.801526717557252,4.396946564885496,-4.870229007633588,-0.4716796875,-0.0439453125,-0.149169921875,0.6154
5.969465648854962,4.427480916030534,-4.900763358778626,-0.4658203125,-0.044677734375,-0.145263671875,0.6171
5.770992366412214,4.732824427480916,-5.0534351145038165,-0.466552734375,-0.044677734375,-0.148681640625,0.6188
5.526717557251908,4.8396946564885495,-5.00763358778626,-0.46435546875,-0.03564453125,-0.137939453125,0.6204999999999999
5.3893129770992365,4.916030534351145,-4.900763358778626,-0.463134765625,-0.04248046875,-0.146240234375,0.6222
5.374045801526718,4.809160305343512,-5.00763358778626,-0.459716796875,-0.042236328125,-0.1494140625,0.6239
5.358778625954199,4.702290076335878,-5.038167938931298,-0.466796875,-0.04345703125,-0.1435546875,0.6255999999999999
5.343511450381679,4.8396946564885495,-5.175572519083969,-0.46630859375,-0.0400390625,-0.149658203125,0.6273
5.221374045801527,4.748091603053435,-5.022900763358779,-0.464599609375,-0.03857421875,-0.136962890625,0.629
4.732824427480916,4.824427480916031,-5.083969465648855,-0.464599609375,-0.048583984375,-0.139892578125,0.6306999999999999
4.900763358778626,4.809160305343512,-4.977099236641221,-0.464111328125,-0.0478515625,-0.139892578125,0.6324
4.900763358778626,4.793893129770993,-5.022900763358779,-0.46044921875,-0.047119140625,-0.14404296875,0.6341
4.67175572519084,4.824427480916031,-4.793893129770993,-0.46337890625,-0.048095703125,-0.146728515625,0.6357999999999999
4.854961832061068,4.763358778625954,-4.916030534351145,-0.4580078125,-0.044677734375,-0.135009765625,0.6375
4.3816793893129775,5.00763358778626,-4.854961832061068,-0.461181640625,-0.044189453125,-0.134765625,0.6392
4.320610687022901,5.083969465648855,-4.809160305343512,-0.46240234375,-0.039306640625,-0.14111328125,0.6408999999999999
4.3816793893129775,5.0534351145038165,-4.656488549618321,-0.463623046875,-0.042724609375,-0.1376953125,0.6426
4.061068702290076,5.465648854961832,-4.6106870229007635,-0.4619140625,-0.047607421875,-0.133056640625,0.6443
3.877862595419847,5.297709923664122,-4.458015267175573,-0.46240234375,-0.0419921875,-0.134521484375,0.646
4.030534351145038,5.221374045801527,-4.33587786259542,-0.45947265625,-0.04248046875,-0.125732421875,0.6476999999999999
4.015267175572519,5.221374045801527,-4.152671755725191,-0.4609375,-0.037109375,-0.129638671875,0.6494
3.5419847328244276,5.00763358778626,-4.198473282442748,-0.454345703125,-0.033935546875,-0.13720703125,0.6511
3.7404580152671754,4.961832061068702,-3.969465648854962,-0.455810546875,-0.044189453125,-0.135009765625,0.6527999999999999
3.6030534351145036,4.748091603053435,-3.984732824427481,-0.461181640625,-0.04052734375,-0.13623046875,0.6545
3.114503816793893,4.793893129770993,-3.9083969465648853,-0.457763671875,-0.04345703125,-0.130859375,0.6562
3.114503816793893,4.641221374045801,-3.7557251908396947,-0.457763671875,-0.040771484375,-0.128173828125,0.6578999999999999
3.0839694656488548,4.33587786259542,-3.648854961832061,-0.4560546875,-0.044677734375,-0.135498046875,0.6596
3.0381679389312977,4.5038167938931295,-3.6030534351145036,-0.456298828125,-0.039306640625,-0.128662109375,0.6613
2.717557251908397,4.33587786259542,-3.3740458015267176,-0.4560546875,-0.04248046875,-0.134033203125,0.6629999999999999
2.6564885496183206,4.259541984732825,-3.5267175572519083,-0.451171875,-0.041748046875,-0.136962890625,0.6647
2.717557251908397,4.3816793893129775,-3.404580152671756,-0.4560546875,-0.037109375,-0.142822265625,0.6664
2.6259541984732824,4.33587786259542,-3.3893129770992365,-0.45263671875,-0.043212890625,-0.14111328125,0.6680999999999999
2.366412213740458,4.290076335877862,-3.4198473282442747,-0.45458984375,-0.040283203125,-0.13330078125,0.6698
2.6564885496183206,4.122137404580153,-3.5877862595419847,-0.458251953125,-0.044677734375,-0.135498046875,0.6715
2.7022900763358777,4.305343511450381,-3.3893129770992365,-0.461669921875,-0.048828125,-0.135009765625,0.6731999999999999
2.7480916030534353,4.229007633587786,-3.66412213740458,-0.45654296875,-0.047119140625,-0.136962890625,0.6748999999999999
3.0229007633587788,4.0458015267175576,-3.49618320610687,-0.4619140625,-0.050537109375,-0.13671875,0.6766
2.7480916030534353,4.152671755725191,-3.4198473282442747,-0.458740234375,-0.0498046875,-0.138427734375,0.6783
2.7938931297709924,4.0,-3.435114503816794,-0.45751953125,-0.04443359375,-0.1435546875,0.6799999999999999
3.2061068702290076,3.801526717557252,-3.572519083969466,-0.4599609375,-0.04833984375,-0.1396484375,0.6817
3.3282442748091605,3.83206106870229,-3.404580152671756,-0.45556640625,-0.048583984375,-0.135009765625,0.6834
3.450381679389313,3.786259541984733,-3.648854961832061,-0.460693359375,-0.052001953125,-0.1455078125,0.6850999999999999
3.3740458015267176,3.6946564885496183,-3.6793893129770994,-0.462646484375,-0.050537109375,-0.140380859375,0.6868
3.633587786259542,3.6946564885496183,-3.6946564885496183,-0.462890625,-0.052734375,-0.1474609375,0.6885
3.877862595419847,3.66412213740458,-3.7557251908396947,-0.4638671875,-0.055419921875,-0.130859375,0.6901999999999999
3.7404580152671754,3.5572519083969465,-3.6793893129770994,-0.45849609375,-0.052734375,-0.142333984375,0.6919
3.786259541984733,3.4656488549618323,-3.7709923664122136,-0.459716796875,-0.0517578125,-0.140380859375,0.6936
3.984732824427481,3.5419847328244276,-3.5114503816793894,-0.462158203125,-0.051513671875,-0.145263671875,0.6952999999999999
3.7709923664122136,3.572519083969466,-3.648854961832061,-0.460693359375,-0.054443359375,-0.146240234375,0.697
4.0,3.618320610687023,-3.7099236641221376,-0.46435546875,-0.05322265625,-0.14111328125,0.6987
3.7709923664122136,3.5877862595419847,-3.7709923664122136,-0.466552734375,-0.0537109375,-0.1416015625,0.7003999999999999
3.7404580152671754,3.435114503816794,-3.4656488549618323,-0.467041015625,-0.04833984375,-0.138427734375,0.7021
3.618320610687023,3.5572519083969465,-3.5267175572519083,-0.4580078125,-0.051513671875,-0.138427734375,0.7038
3.5877862595419847,3.435114503816794,-3.5572519083969465,-0.462646484375,-0.054443359375,-0.14111328125,0.7055
3.7404580152671754,3.435114503816794,-3.3435114503816794,-0.4609375,-0.05224609375,-0.130859375,0.7071999999999999
3.7557251908396947,3.5419847328244276,-3.3893129770992365,-0.461181640625,-0.05322265625,-0.13671875,0.7089
3.66412213740458,3.572519083969466,-3.1603053435114505,-0.462646484375,-0.05078125,-0.141845703125,0.7106
3.4656488549618323,3.5419847328244276,-3.1908396946564888,-0.465087890625,-0.048095703125,-0.13134765625,0.7122999999999999
3.618320610687023,3.5877862595419847,-3.0076335877862594,-0.460693359375,-0.04736328125,-0.139892578125,0.714
3.4656488549618323,3.572519083969466,-2.9923664122137406,-0.46533203125,-0.047119140625,-0.136962890625,0.7157
3.3435114503816794,3.618320610687023,-3.0839694656488548,-0.468017578125,-0.0517578125,-0.142333984375,0.7173999999999999
3.3282442748091605,3.6030534351145036,-2.8244274809160306,-0.4677734375,-0.052734375,-0.130859375,0.7191
3.099236641221374,3.7251908396946565,-2.7022900763358777,-0.466064453125,-0.0478515625,-0.13916015625,0.7208
3.1603053435114505,3.648854961832061,-2.5343511450381677,-0.4638671875,-0.047607421875,-0.13818359375,0.7224999999999999
3.068702290076336,3.83206106870229,-2.6259541984732824,-0.461669921875,-0.0478515625,-0.134765625,0.7242
2.854961832061069,3.7099236641221376,-2.3969465648854964,-0.46533203125,-0.044921875,-0.140625,0.7259
2.8702290076335877,3.49618320610687,-2.366412213740458,-0.468017578125,-0.043701171875,-0.1474609375,0.7275999999999999
2.5343511450381677,3.7404580152671754,-2.2442748091603053,-0.467041015625,-0.051513671875,-0.1416015625,0.7293
2.4732824427480917,3.66412213740458,-2.1526717557251906,-0.461181640625,-0.052978515625,-0.151611328125,0.731
2.2748091603053435,3.5572519083969465,-2.122137404580153,-0.464111328125,-0.04736328125,-0.145263671875,0.7326999999999999
2.2748091603053435,3.618320610687023,-2.0,-0.46484375,-0.04931640625,-0.144287109375,0.7343999999999999
1.7709923664122138,3.450381679389313,-1.9083969465648856,-0.462890625,-0.044921875,-0.14111328125,0.7361
1.6030534351145038,3.404580152671756,-1.8473282442748091,-0.46826171875,-0.04736328125,-0.13818359375,0.7378
1.465648854961832,3.2977099236641223,-1.5267175572519085,-0.466796875,-0.046875,-0.148193359375,0.7394999999999999
1.2366412213740459,2.885496183206107,-1.5419847328244274,-0.465087890625,-0.046630859375,-0.142578125,0.7412
0.9465648854961832,2.9770992366412212,-1.3282442748091603,-0.4658203125,-0.051025390625,-0.134521484375,0.7429
0.5343511450381679,2.7938931297709924,-1.3129770992366412,-0.463134765625,-0.047119140625,-0.13720703125,0.7445999999999999
0.7786259541984732,2.9618320610687023,-1.4198473282442747,-0.46923828125,-0.048095703125,-0.1318359375,0.7463
0.4732824427480916,2.5343511450381677,-1.282442748091603,-0.466064453125,-0.042236328125,-0.1318359375,0.748
0.07633587786259542,2.4885496183206106,-1.1603053435114503,-0.467041015625,-0.046875,-0.133056640625,0.7496999999999999
0.0,2.2595419847328246,-1.2366412213740459,-0.460693359375,-0.043212890625,-0.1396484375,0.7514
-0.22900763358778625,2.3206106870229006,-1.1297709923664123,-0.46484375,-0.04541015625,-0.13427734375,0.7531
-0.5038167938931297,2.16793893129771,-1.0381679389312977,-0.46435546875,-0.044677734375,-0.141357421875,0.7547999999999999
-0.5648854961832062,2.0763358778625953,-0.8549618320610687,-0.465576171875,-0.046875,-0.14208984375,0.7565
-0.5954198473282443,2.045801526717557,-0.9465648854961832,-0.468017578125,-0.048828125,-0.1435546875,0.7582
-0.5648854961832062,2.0916030534351147,-0.732824427480916,-0.462158203125,-0.048828125,-0.14404296875,0.7598999999999999
-0.9007633587786259,1.9083969465648856,-0.7938931297709924,-0.46826171875,-0.0458984375,-0.1396484375,0.7615999999999999
-0.9618320610687023,1.9694656488549618,-0.6412213740458015,-0.46533203125,-0.0498046875,-0.138916015625,0.7633
-0.7022900763358778,2.1374045801526718,-0.5343511450381679,-0.465576171875,-0.047119140625,-0.144775390625,0.7649999999999999
-0.4732824427480916,2.015267175572519,-0.4122137404580153,-0.466796875,-0.04296875,-0.13916015625,0.7666999999999999
-0.44274809160305345,2.0916030534351147,-0.6412213740458015,-0.466796875,-0.044189453125,-0.136962890625,0.7684
-0.48854961832061067,2.3206106870229006,-0.44274809160305345,-0.46923828125,-0.0458984375,-0.14111328125,0.7701
-0.07633587786259542,2.6717557251908395,-0.12213740458015267,-0.46484375,-0.042236328125,-0.13671875,0.7717999999999999
0.12213740458015267,2.854961832061069,0.0,-0.46435546875,-0.047607421875,-0.140625,0.7735
0.2595419847328244,2.9923664122137406,-0.2595419847328244,-0.4658203125,-0.0458984375,-0.1376953125,0.7752
0.5343511450381679,3.053435114503817,0.030534351145038167,-0.466796875,-0.044189453125,-0.13818359375,0.7768999999999999
0.7022900763358778,3.282442748091603,-0.15267175572519084,-0.463134765625,-0.046142578125,-0.135009765625,0.7786
1.1297709923664123,3.5877862595419847,-0.0916030534351145,-0.465576171875,-0.04443359375,-0.13671875,0.7803
1.4045801526717556,3.6793893129770994,-0.22900763358778625,-0.466064453125,-0.046142578125,-0.129638671875,0.7819999999999999
1.3893129770992367,3.7099236641221376,-0.15267175572519084,-0.463623046875,-0.0458984375,-0.13232421875,0.7837
1.450381679389313,3.572519083969466,-0.2748091603053435,-0.462646484375,-0.04931640625,-0.12841796875,0.7854
1.5267175572519085,3.633587786259542,-0.3816793893129771,-0.468994140625,-0.04833984375,-0.139404296875,0.7870999999999999
1.8473282442748091,3.435114503816794,-0.6259541984732825,-0.461669921875,-0.05078125,-0.138671875,0.7888
1.8473282442748091,3.3893129770992365,-0.5343511450381679,-0.466552734375,-0.047119140625,-0.138671875,0.7905
1.5267175572519085,3.145038167938931,-0.8396946564885496,-0.46875,-0.052001953125,-0.13427734375,0.7921999999999999
1.9083969465648856,2.885496183206107,-0.8702290076335878,-0.463134765625,-0.052734375,-0.132568359375,0.7938999999999999
2.030534351145038,2.6564885496183206,-0.8854961832061069,-0.460693359375,-0.047119140625,-0.135498046875,0.7956
1.9236641221374047,2.4885496183206106,-1.0076335877862594,-0.466064453125,-0.052734375,-0.138427734375,0.7973
1.9236641221374047,2.2290076335877864,-1.3129770992366412,-0.465087890625,-0.0498046875,-0.126220703125,0.7989999999999999
1.8473282442748091,1.9389312977099236,-1.1755725190839694,-0.46484375,-0.051025390625,-0.133544921875,0.8007
2.030534351145038,1.618320610687023,-1.465648854961832,-0.46240234375,-0.046630859375,-0.1298828125,0.8024
1.9083969465648856,1.5419847328244274,-1.4198473282442747,-0.46337890625,-0.049072265625,-0.135009765625,0.8040999999999999
1.633587786259542,1.4045801526717556,-1.6488549618320612,-0.46484375,-0.04443359375,-0.138916015625,0.8058
1.8625954198473282,1.1755725190839694,-1.5725190839694656,-0.46533203125,-0.051025390625,-0.14013671875,0.8075
1.8625954198473282,1.0534351145038168,-1.8625954198473282,-0.46630859375,-0.049072265625,-0.135986328125,0.8091999999999999
1.5572519083969465,1.0229007633587786,-1.6030534351145038,-0.467041015625,-0.05078125,-0.134521484375,0.8109
1.4809160305343512,0.9312977099236641,-1.6793893129770991,-0.473388671875,-0.0458984375,-0.1455078125,0.8126
1.5114503816793894,1.083969465648855,-1.6641221374045803,-0.466064453125,-0.048828125,-0.141357421875,0.8142999999999999
1.2671755725190839,1.1603053435114503,-1.7709923664122138,-0.4736328125,-0.04833984375,-0.14111328125,0.816
1.282442748091603,1.0229007633587786,-1.7099236641221374,-0.470947265625,-0.05029296875,-0.138427734375,0.8177
1.1755725190839694,1.1755725190839694,-1.7251908396946565,-0.468017578125,-0.052001953125,-0.149658203125,0.8193999999999999
1.0381679389312977,1.4351145038167938,-1.6488549618320612,-0.476806640625,-0.050048828125,-0.14990234375,0.8210999999999999
1.0381679389312977,1.465648854961832,-1.7557251908396947,-0.47265625,-0.050048828125,-0.150390625,0.8228
0.8549618320610687,1.5114503816793894,-1.5419847328244274,-0.473876953125,-0.044677734375,-0.14208984375,0.8244999999999999
0.8244274809160306,1.4809160305343512,-1.4961832061068703,-0.47119140625,-0.044189453125,-0.15234375,0.8261999999999999
0.7175572519083969,1.3435114503816794,-1.4809160305343512,-0.4736328125,-0.041015625,-0.14599609375,0.8279
0.6106870229007634,1.4809160305343512,-1.4198473282442747,-0.47119140625,-0.047119140625,-0.147705078125,0.8296
0.5190839694656488,1.6030534351145038,-1.3282442748091603,-0.46923828125,-0.0498046875,-0.1396484375,0.8312999999999999
0.3816793893129771,1.5267175572519085,-1.2671755725190839,-0.4697265625,-0.048095703125,-0.142578125,0.833
0.2748091603053435,1.4809160305343512,-1.1908396946564885,-0.47021484375,-0.048828125,-0.13720703125,0.8347
0.061068702290076333,1.3435114503816794,-1.1297709923664123,-0.473876953125,-0.047119140625,-0.13818359375,0.8363999999999999
0.1984732824427481,1.1908396946564885,-1.0534351145038168,-0.470458984375,-0.049560546875,-0.135986328125,0.8381
-0.015267175572519083,1.3129770992366412,-0.9312977099236641,-0.474365234375,-0.0498046875,-0.139404296875,0.8398
-0.5190839694656488,1.1450381679389312,-0.7786259541984732,-0.47412109375,-0.048095703125,-0.13720703125,0.8414999999999999
-0.4732824427480916,0.9465648854961832,-0.9312977099236641,-0.468017578125,-0.048828125,-0.144775390625,0.8432
-0.732824427480916,0.8244274809160306,-0.5801526717557252,-0.47119140625,-0.048095703125,-0.139404296875,0.8449
-1.2671755725190839,0.8549618320610687,-0.549618320610687,-0.468017578125,-0.048583984375,-0.140869140625,0.8465999999999999
-1.297709923664122,0.9465648854961832,-0.3816793893129771,-0.467529296875,-0.047607421875,-0.138427734375,0.8482999999999999
-1.7709923664122138,0.7786259541984732,-0.3969465648854962,-0.47314453125,-0.051513671875,-0.138671875,0.85
-2.3053435114503817,0.6259541984732825,-0.2595419847328244,-0.466552734375,-0.048828125,-0.141357421875,0.8516999999999999
-2.519083969465649,0.7022900763358778,-0.3511450381679389,-0.472900390625,-0.04443359375,-0.137451171875,0.8533999999999999
-2.900763358778626,0.6106870229007634,-0.10687022900763359,-0.469482421875,-0.046142578125,-0.130615234375,0.8551
-3.3893129770992365,0.5954198473282443,-0.13740458015267176,-0.47314453125,-0.04443359375,-0.13720703125,0.8568
-3.633587786259542,0.5801526717557252,-0.2595419847328244,-0.469970703125,-0.04833984375,-0.1328125,0.8584999999999999
-4.076335877862595,0.4732824427480916,-0.22900763358778625,-0.469970703125,-0.046630859375,-0.13623046875,0.8602
-4.488549618320611,0.4122137404580153,-0.183206106870229,-0.471923828125,-0.047119140625,-0.13134765625,0.8619
-4.625954198473282,0.48854961832061067,-0.15267175572519084,-0.470947265625,-0.047119140625,-0.128173828125,0.8635999999999999
-4.824427480916031,0.3816793893129771,-0.12213740458015267,-0.473388671875,-0.04931640625,-0.1318359375,0.8653
-5.1603053435114505,0.5801526717557252,-0.3511450381679389,-0.470947265625,-0.047607421875,-0.1298828125,0.867
-5.374045801526718,0.44274809160305345,-0.21374045801526717,-0.474609375,-0.0478515625,-0.1298828125,0.8686999999999999
-5.603053435114504,0.3969465648854962,-0.4122137404580153,-0.466552734375,-0.044677734375,-0.128662109375,0.8704
-5.694656488549619,0.4580152671755725,-0.42748091603053434,-0.468994140625,-0.046630859375,-0.129150390625,0.8721
-5.923664122137405,0.6564885496183206,-0.2900763358778626,-0.47216796875,-0.043701171875,-0.12548828125,0.8737999999999999
-5.877862595419847,0.8091603053435115,-0.5648854961832062,-0.46923828125,-0.042724609375,-0.132080078125,0.8755
-5.770992366412214,0.8549618320610687,-0.549618320610687,-0.46728515625,-0.048828125,-0.133056640625,0.8772
-5.893129770992366,0.9618320610687023,-0.7175572519083969,-0.46826171875,-0.046630859375,-0.13720703125,0.8788999999999999
-5.648854961832061,1.1755725190839694,-0.8396946564885496,-0.466552734375,-0.04345703125,-0.13037109375,0.8805999999999999
-5.557251908396947,1.3435114503816794,-0.8549618320610687,-0.47119140625,-0.042724609375,-0.134765625,0.8823
-5.557251908396947,1.6488549618320612,-1.1603053435114503,-0.470947265625,-0.044677734375,-0.13818359375,0.8839999999999999
-5.450381679389313,1.9694656488549618,-1.282442748091603,-0.472412109375,-0.04296875,-0.1298828125,0.8856999999999999
-5.465648854961832,2.1374045801526718,-1.3740458015267176,-0.472412109375,-0.037353515625,-0.136962890625,0.8874
-5.374045801526718,2.687022900763359,-1.6030534351145038,-0.47021484375,-0.037109375,-0.137939453125,0.8891
-4.961832061068702,2.885496183206107,-1.83206106870229,-0.470458984375,-0.04052734375,-0.13525390625,0.8907999999999999
-5.00763358778626,3.145038167938931,-2.030534351145038,-0.4716796875,-0.03564453125,-0.123779296875,0.8925
-5.068702290076335,3.2977099236641223,-2.122137404580153,-0.47021484375,-0.041259765625,-0.13671875,0.8942
-4.702290076335878,3.435114503816794,-2.5801526717557253,-0.470458984375,-0.033203125,-0.1318359375,0.8958999999999999
-4.641221374045801,3.5419847328244276,-2.6564885496183206,-0.462646484375,-0.032470703125,-0.135009765625,0.8976
-4.748091603053435,3.648854961832061,-2.854961832061069,-0.462646484375,-0.035888671875,-0.13134765625,0.8993
-4.641221374045801,3.801526717557252,-3.1297709923664123,-0.463623046875,-0.028076171875,-0.12890625,0.9009999999999999
-4.595419847328245,3.7099236641221376,-3.3587786259541983,-0.4619140625,-0.025634765625,-0.13427734375,0.9027
-4.549618320610687,3.633587786259542,-3.5267175572519083,-0.4619140625,-0.02734375,-0.134033203125,0.9044
-4.396946564885496,3.450381679389313,-3.801526717557252,-0.460693359375,-0.02734375,-0.138916015625,0.9060999999999999
-4.183206106870229,3.480916030534351,-4.106870229007634,-0.464111328125,-0.024658203125,-0.13232421875,0.9077999999999999
-4.122137404580153,3.3435114503816794,-4.229007633587786,-0.453369140625,-0.025390625,-0.13916015625,0.9095
-3.877862595419847,3.1755725190839694,-4.198473282442748,-0.4609375,-0.017822265625,-0.147216796875,0.9111999999999999
-3.3740458015267176,3.0229007633587788,-4.564885496183206,-0.454345703125,-0.01806640625,-0.143798828125,0.9128999999999999
-3.3587786259541983,2.9923664122137406,-4.702290076335878,-0.453857421875,-0.0126953125,-0.134521484375,0.9146
-3.0839694656488548,3.0229007633587788,-4.793893129770993,-0.45361328125,-0.01953125,-0.142578125,0.9163
-3.0076335877862594,3.053435114503817,-4.885496183206107,-0.456787109375,-0.017822265625,-0.138427734375,0.9179999999999999
-2.381679389312977,2.9160305343511452,-5.022900763358779,-0.45361328125,-0.01708984375,-0.140625,0.9197
-1.8473282442748091,2.9160305343511452,-5.0534351145038165,-0.450439453125,-0.016845703125,-0.146240234375,0.9214
-1.450381679389313,2.9160305343511452,-5.312977099236641,-0.450439453125,-0.0185546875,-0.1474609375,0.9230999999999999
-0.9465648854961832,2.9770992366412212,-5.190839694656488,-0.454833984375,-0.014892578125,-0.14306640625,0.9248
-0.5038167938931297,2.9923664122137406,-5.251908396946565,-0.447509765625,-0.01611328125,-0.14111328125,0.9265
0.061068702290076333,2.9770992366412212,-5.190839694656488,-0.4501953125,-0.019287109375,-0.135498046875,0.9281999999999999
0.7480916030534351,2.885496183206107,-5.206106870229007,-0.45361328125,-0.017578125,-0.14453125,0.9299
1.297709923664122,2.8702290076335877,-5.3893129770992365,-0.454833984375,-0.014892578125,-0.138916015625,0.9316
1.9694656488549618,3.2061068702290076,-5.374045801526718,-0.451904296875,-0.018310546875,-0.14599609375,0.9332999999999999
2.5801526717557253,2.9923664122137406,-5.480916030534351,-0.44970703125,-0.021240234375,-0.141845703125,0.9349999999999999
3.1908396946564888,3.0381679389312977,-5.206106870229007,-0.453369140625,-0.025146484375,-0.141357421875,0.9367
3.8625954198473282,3.0381679389312977,-5.358778625954199,-0.44970703125,-0.0205078125,-0.14404296875,0.9383999999999999
4.290076335877862,3.3893129770992365,-5.6183206106870225,-0.452880859375,-0.020751953125,-0.137451171875,0.9400999999999999
4.793893129770993,3.2977099236641223,-5.465648854961832,-0.453857421875,-0.02587890625,-0.143798828125,0.9418
5.435114503816794,3.3587786259541983,-5.465648854961832,-0.45556640625,-0.02294921875,-0.1455078125,0.9434999999999999
6.030534351145038,3.49618320610687,-5.557251908396947,-0.45263671875,-0.02490234375,-0.14697265625,0.9451999999999999
6.427480916030534,3.312977099236641,-5.557251908396947,-0.456298828125,-0.02783203125,-0.133056640625,0.9469
6.580152671755725,3.4656488549618323,-5.557251908396947,-0.4560546875,-0.023681640625,-0.12890625,0.9486
7.083969465648855,3.3587786259541983,-5.801526717557252,-0.452880859375,-0.031005859375,-0.1337890625,0.9502999999999999
7.374045801526718,3.2061068702290076,-5.6183206106870225,-0.456298828125,-0.02685546875,-0.135009765625,0.952
7.32824427480916,3.5114503816793894,-5.862595419847328,-0.455322265625,-0.027587890625,-0.14501953125,0.9537
7.679389312977099,3.5877862595419847,-5.801526717557252,-0.4580078125,-0.03369140625,-0.138916015625,0.9553999999999999
7.8320610687022905,3.3435114503816794,-6.091603053435114,-0.455078125,-0.030029296875,-0.13671875,0.9571
7.984732824427481,3.480916030534351,-6.0458015267175576,-0.458251953125,-0.033935546875,-0.14599609375,0.9588
7.893129770992366,3.5419847328244276,-6.183206106870229,-0.45361328125,-0.031982421875,-0.14306640625,0.9604999999999999
7.9541984732824424,3.4656488549618323,-6.076335877862595,-0.4541015625,-0.03564453125,-0.13427734375,0.9621999999999999
8.213740458015268,3.7709923664122136,-6.320610687022901,-0.457763671875,-0.03515625,-0.14013671875,0.9639
8.366412213740459,3.7557251908396947,-6.458015267175573,-0.45556640625,-0.039794921875,-0.141357421875,0.9655999999999999
8.213740458015268,3.7404580152671754,-6.732824427480916,-0.455810546875,-0.040771484375,-0.146728515625,0.9672999999999999
7.938931297709924,3.969465648854962,-6.809160305343512,-0.45751953125,-0.045654296875,-0.139892578125,0.969
7.8320610687022905,3.9389312977099236,-6.9465648854961835,-0.459716796875,-0.042236328125,-0.148681640625,0.9706999999999999
7.862595419847328,4.030534351145038,-6.732824427480916,-0.456298828125,-0.042724609375,-0.148681640625,0.9723999999999999
7.847328244274809,4.259541984732825,-7.068702290076335,-0.458984375,-0.04052734375,-0.14794921875,0.9741
7.908396946564886,4.396946564885496,-6.99236641221374,-0.46044921875,-0.048095703125,-0.145751953125,0.9758
7.648854961832061,4.106870229007634,-7.465648854961832,-0.458740234375,-0.046630859375,-0.148681640625,0.9774999999999999
7.267175572519084,4.305343511450381,-7.465648854961832,-0.460693359375,-0.04296875,-0.148193359375,0.9792
7.358778625954199,4.3816793893129775,-7.541984732824427,-0.46240234375,-0.048583984375,-0.150634765625,0.9809
7.465648854961832,4.305343511450381,-7.679389312977099,-0.45703125,-0.038818359375,-0.160888671875,0.9825999999999999
7.022900763358779,4.488549618320611,-8.13740458015267,-0.458740234375,-0.043212890625,-0.150390625,0.9843
7.083969465648855,4.412213740458015,-8.030534351145038,-0.46337890625,-0.047607421875,-0.14794921875,0.986
7.099236641221374,4.442748091603053,-8.091603053435115,-0.463134765625,-0.04052734375,-0.14208984375,0.9876999999999999
7.129770992366412,4.244274809160306,-7.984732824427481,-0.460693359375,-0.04443359375,-0.152587890625,0.9894
6.885496183206107,4.366412213740458,-8.244274809160306,-0.459228515625,-0.04833984375,-0.153564453125,0.9911
6.99236641221374,4.412213740458015,-7.938931297709924,-0.45458984375,-0.04443359375,-0.139892578125,0.9927999999999999
6.717557251908397,4.396946564885496,-7.908396946564886,-0.46728515625,-0.04833984375,-0.150390625,0.9944999999999999
6.748091603053435,4.458015267175573,-7.9541984732824424,-0.458251953125,-0.046630859375,-0.1494140625,0.9962
6.778625954198473,4.473282442748092,-7.969465648854962,-0.4580078125,-0.0458984375,-0.137451171875,0.9978999999999999
6.793893129770993,4.244274809160306,-7.709923664122138,-0.462158203125,-0.04541015625,-0.1484375,0.9995999999999999
6.641221374045801,4.3816793893129775,-7.893129770992366,-0.4609375,-0.045654296875,-0.14306640625,1.0012999999999999
6.67175572519084,4.305343511450381,-7.679389312977099,-0.459716796875,-0.0419921875,-0.15234375,1.003
6.748091603053435,4.091603053435114,-7.648854961832061,-0.462158203125,-0.050537109375,-0.147705078125,1.0047
6.793893129770993,4.488549618320611,-7.358778625954199,-0.465576171875,-0.051513671875,-0.147705078125,1.0064
6.977099236641221,4.488549618320611,-7.419847328244275,-0.4609375,-0.04541015625,-0.1484375,1.0081
7.038167938931298,4.427480916030534,-7.068702290076335,-0.461669921875,-0.049072265625,-0.15380859375,1.0098
7.1603053435114505,4.519083969465649,-7.022900763358779,-0.465576171875,-0.052001953125,-0.143798828125,1.0114999999999998
7.221374045801527,4.717557251908397,-7.00763358778626,-0.466552734375,-0.05322265625,-0.151123046875,1.0131999999999999
7.236641221374046,4.977099236641221,-7.129770992366412,-0.46240234375,-0.047119140625,-0.137451171875,1.0149
7.32824427480916,4.977099236641221,-6.9465648854961835,-0.461669921875,-0.052490234375,-0.151123046875,1.0166
7.465648854961832,4.99236641221374,-6.809160305343512,-0.461181640625,-0.0537109375,-0.14208984375,1.0183
7.435114503816794,5.068702290076335,-6.748091603053435,-0.462890625,-0.0556640625,-0.151611328125,1.02
7.511450381679389,5.099236641221374,-6.625954198473282,-0.466064453125,-0.054443359375,-0.142822265625,1.0217
7.297709923664122,5.022900763358779,-6.320610687022901,-0.4658203125,-0.05078125,-0.14990234375,1.0233999999999999
7.358778625954199,4.99236641221374,-6.442748091603053,-0.46728515625,-0.05517578125,-0.14404296875,1.0251
7.068702290076335,4.732824427480916,-6.137404580152672,-0.468505859375,-0.0556640625,-0.147216796875,1.0268
6.99236641221374,4.778625954198473,-6.030534351145038,-0.46875,-0.05712890625,-0.144287109375,1.0285
6.961832061068702,4.793893129770993,-5.984732824427481,-0.465087890625,-0.060791015625,-0.138427734375,1.0302
6.687022900763359,4.854961832061068,-6.061068702290076,-0.469970703125,-0.0556640625,-0.14111328125,1.0319
6.641221374045801,4.641221374045801,-5.786259541984733,-0.471923828125,-0.060302734375,-0.14892578125,1.0335999999999999
6.549618320610687,4.732824427480916,-5.8320610687022905,-0.471923828125,-0.05615234375,-0.153564453125,1.0352999999999999
6.122137404580153,4.717557251908397,-5.755725190839694,-0.4697265625,-0.0615234375,-0.153076171875,1.037
6.198473282442748,4.870229007633588,-5.7251908396946565,-0.4716796875,-0.064697265625,-0.14892578125,1.0387
5.908396946564886,4.854961832061068,-5.755725190839694,-0.468017578125,-0.060791015625,-0.150390625,1.0404
5.6183206106870225,4.702290076335878,-5.633587786259542,-0.46240234375,-0.06201171875,-0.15576171875,1.0421
5.587786259541985,4.793893129770993,-5.480916030534351,-0.467041015625,-0.063720703125,-0.152587890625,1.0437999999999998
5.419847328244275,4.732824427480916,-5.603053435114504,-0.468994140625,-0.0615234375,-0.14892578125,1.0454999999999999
5.236641221374046,4.427480916030534,-5.557251908396947,-0.470703125,-0.0634765625,-0.14501953125,1.0472
5.083969465648855,4.549618320610687,-5.4961832061068705,-0.46923828125,-0.063232421875,-0.15087890625,1.0489
4.854961832061068,4.534351145038168,-5.511450381679389,-0.468994140625,-0.06689453125,-0.15087890625,1.0506
4.687022900763359,4.259541984732825,-5.541984732824427,-0.46630859375,-0.065185546875,-0.1455078125,1.0523
4.473282442748092,3.954198473282443,-5.465648854961832,-0.471435546875,-0.06201171875,-0.1416015625,1.054
4.549618320610687,4.0,-5.648854961832061,-0.4677734375,-0.060791015625,-0.145263671875,1.0556999999999999
4.259541984732825,3.9236641221374047,-5.740458015267175,-0.462646484375,-0.057861328125,-0.14599609375,1.0574
4.030534351145038,3.5572519083969465,-5.572519083969466,-0.4716796875,-0.061767578125,-0.150390625,1.0591
3.9083969465648853,3.633587786259542,-5.435114503816794,-0.464599609375,-0.062255859375,-0.149169921875,1.0608
4.030534351145038,3.7404580152671754,-5.358778625954199,-0.4697265625,-0.05908203125,-0.14990234375,1.0625
3.8473282442748094,3.7404580152671754,-5.633587786259542,-0.4697265625,-0.057861328125,-0.14697265625,1.0642
3.8625954198473282,3.7099236641221376,-5.480916030534351,-0.471923828125,-0.064208984375,-0.150146484375,1.0658999999999998
3.648854961832061,3.66412213740458,-5.4961832061068705,-0.469482421875,-0.060791015625,-0.15625,1.0675999999999999
3.6946564885496183,3.6030534351145036,-5.4961832061068705,-0.465087890625,-0.056884765625,-0.148681640625,1.0693
3.404580152671756,3.7557251908396947,-5.358778625954199,-0.470458984375,-0.05908203125,-0.147216796875,1.071
3.6030534351145036,3.9389312977099236,-4.977099236641221,-0.4697265625,-0.0498046875,-0.153076171875,1.0727
3.6030534351145036,4.0,-5.00763358778626,-0.469482421875,-0.056640625,-0.144775390625,1.0744
3.2519083969465647,4.0458015267175576,-4.809160305343512,-0.466552734375,-0.05615234375,-0.15234375,1.0760999999999998
3.2061068702290076,4.030534351145038,-4.931297709923665,-0.470703125,-0.05517578125,-0.145751953125,1.0777999999999999
3.053435114503817,4.076335877862595,-5.114503816793893,-0.4716796875,-0.055908203125,-0.150146484375,1.0795
2.931297709923664,4.244274809160306,-4.9465648854961835,-0.4736328125,-0.052978515625,-0.14404296875,1.0812
2.8244274809160306,4.305343511450381,-4.732824427480916,-0.463623046875,-0.055419921875,-0.15185546875,1.0829
2.5343511450381677,4.122137404580153,-4.625954198473282,-0.466552734375,-0.052734375,-0.14794921875,1.0846
2.2900763358778624,4.259541984732825,-4.442748091603053,-0.47314453125,-0.051025390625,-0.144775390625,1.0863
2.2442748091603053,4.33587786259542,-4.5038167938931295,-0.46435546875,-0.047119140625,-0.145263671875,1.0879999999999999
1.9083969465648856,4.427480916030534,-4.213740458015267,-0.46435546875,-0.051025390625,-0.15576171875,1.0897
1.5267175572519085,4.488549618320611,-4.0458015267175576,-0.4599609375,-0.052490234375,-0.1552734375,1.0914
1.4351145038167938,4.33587786259542,-4.152671755725191,-0.46240234375,-0.04931640625,-0.145751953125,1.0931
1.1603053435114503,4.641221374045801,-3.984732824427481,-0.464111328125,-0.051513671875,-0.153076171875,1.0948
0.8549618320610687,4.778625954198473,-3.7099236641221376,-0.459228515625,-0.05078125,-0.1484375,1.0965
0.6870229007633588,4.549618320610687,-3.7709923664122136,-0.457275390625,-0.0537109375,-0.1455078125,1.0981999999999998
0.6106870229007634,4.595419847328245,-3.480916030534351,-0.460205078125,-0.052490234375,-0.160400390625,1.0998999999999999
0.5038167938931297,4.748091603053435,-3.480916030534351,-0.46044921875,-0.050537109375,-0.1572265625,1.1016
0.2900763358778626,4.534351145038168,-3.282442748091603,-0.461669921875,-0.048583984375,-0.151123046875,1.1033
0.24427480916030533,4.595419847328245,-3.282442748091603,-0.4599609375,-0.048828125,-0.14794921875,1.105
0.030534351145038167,4.534351145038168,-3.068702290076336,-0.463623046875,-0.052978515625,-0.1552734375,1.1067
0.061068702290076333,4.549618320610687,-2.854961832061069,-0.46240234375,-0.051513671875,-0.15283203125,1.1083999999999998
-0.061068702290076333,4.5038167938931295,-2.8702290076335877,-0.463623046875,-0.052490234375,-0.149658203125,1.1100999999999999
-0.061068702290076333,4.412213740458015,-2.595419847328244,-0.46240234375,-0.054931640625,-0.15380859375,1.1118
-0.21374045801526717,4.366412213740458,-2.6412213740458017,-0.461669921875,-0.0517578125,-0.152099609375,1.1135
-0.2595419847328244,4.442748091603053,-2.5801526717557253,-0.462890625,-0.05810546875,-0.145263671875,1.1152
-0.3511450381679389,4.213740458015267,-2.4122137404580153,-0.45703125,-0.05517578125,-0.1494140625,1.1169
-0.42748091603053434,4.33587786259542,-2.351145038167939,-0.456298828125,-0.055419921875,-0.154296875,1.1186
-0.5190839694656488,4.213740458015267,-2.122137404580153,-0.4638671875,-0.051513671875,-0.142578125,1.1202999999999999
-0.8091603053435115,3.954198473282443,-2.3053435114503817,-0.456298828125,-0.054443359375,-0.147216796875,1.1219999999999999
-0.8854961832061069,3.984732824427481,-2.0610687022900764,-0.462890625,-0.05126953125,-0.149658203125,1.1237
-0.8854961832061069,3.954198473282443,-2.0610687022900764,-0.46142578125,-0.052001953125,-0.14794921875,1.1254
-1.0534351145038168,4.1679389312977095,-1.6793893129770991,-0.454345703125,-0.0517578125,-0.152587890625,1.1271
-1.1603053435114503,4.305343511450381,-1.7251908396946565,-0.46435546875,-0.05419921875,-0.135498046875,1.1288
-1.1450381679389312,4.030534351145038,-1.5419847328244274,-0.462890625,-0.052490234375,-0.13818359375,1.1304999999999998
-1.1603053435114503,4.061068702290076,-1.7557251908396947,-0.4599609375,-0.05322265625,-0.141357421875,1.1321999999999999
-1.0381679389312977,4.1679389312977095,-1.3587786259541985,-0.4580078125,-0.056884765625,-0.155517578125,1.1339
-1.1603053435114503,4.305343511450381,-1.5419847328244274,-0.4541015625,-0.049560546875,-0.14990234375,1.1356
-1.099236641221374,4.488549618320611,-1.4961832061068703,-0.45166015625,-0.05029296875,-0.14599609375,1.1373
-0.9770992366412213,4.198473282442748,-1.5114503816793894,-0.454833984375,-0.053466796875,-0.13671875,1.139
-1.0381679389312977,4.1679389312977095,-1.450381679389313,-0.452880859375,-0.048828125,-0.142822265625,1.1407
-1.1450381679389312,4.2748091603053435,-1.6641221374045803,-0.457275390625,-0.047119140625,-0.135009765625,1.1423999999999999
-0.9465648854961832,4.213740458015267,-1.450381679389313,-0.450927734375,-0.048828125,-0.144775390625,1.1441
-0.9007633587786259,4.122137404580153,-1.4045801526717556,-0.45263671875,-0.047119140625,-0.14501953125,1.1458
-1.0687022900763359,4.0458015267175576,-1.450381679389313,-0.457275390625,-0.0537109375,-0.142822265625,1.1475
-0.9618320610687023,4.076335877862595,-1.6946564885496183,-0.45556640625,-0.052001953125,-0.1416015625,1.1492
-0.7938931297709924,3.984732824427481,-1.618320610687023,-0.45849609375,-0.052978515625,-0.15576171875,1.1509
-0.6717557251908397,3.8931297709923665,-1.7709923664122138,-0.45458984375,-0.05078125,-0.14990234375,1.1525999999999998
-0.8244274809160306,3.801526717557252,-1.786259541984733,-0.460205078125,-0.054931640625,-0.152099609375,1.1542999999999999
-0.7633587786259542,3.969465648854962,-2.045801526717557,-0.45361328125,-0.055419921875,-0.152587890625,1.156
-0.7022900763358778,4.015267175572519,-1.8473282442748091,-0.454345703125,-0.052734375,-0.1455078125,1.1577
-0.6259541984732825,3.83206106870229,-1.9694656488549618,-0.45703125,-0.051513671875,-0.146240234375,1.1594
-0.5954198473282443,3.877862595419847,-1.984732824427481,-0.457763671875,-0.0537109375,-0.1484375,1.1611
-0.6870229007633588,4.0,-2.0,-0.456787109375,-0.052490234375,-0.153564453125,1.1627999999999998
-0.24427480916030533,4.198473282442748,-2.0916030534351147,-0.457275390625,-0.046630859375,-0.154541015625,1.1644999999999999
-0.21374045801526717,4.076335877862595,-2.2900763358778624,-0.458251953125,-0.056884765625,-0.154052734375,1.1662
-0.3053435114503817,4.030534351145038,-2.183206106870229,-0.458984375,-0.061279296875,-0.1484375,1.1679
-0.2748091603053435,4.290076335877862,-2.3969465648854964,-0.457763671875,-0.054443359375,-0.147705078125,1.1696
-0.32061068702290074,4.137404580152672,-2.2595419847328246,-0.45849609375,-0.047607421875,-0.15380859375,1.1713
-0.13740458015267176,4.244274809160306,-2.519083969465649,-0.459228515625,-0.058349609375,-0.151123046875,1.173
0.061068702290076333,4.183206106870229,-2.381679389312977,-0.456298828125,-0.052734375,-0.158447265625,1.1746999999999999
0.16793893129770993,4.229007633587786,-2.549618320610687,-0.45947265625,-0.0546875,-0.14892578125,1.1764
0.12213740458015267,4.198473282442748,-2.4885496183206106,-0.4560546875,-0.055419921875,-0.149658203125,1.1781
0.24427480916030533,4.015267175572519,-2.519083969465649,-0.4580078125,-0.06005859375,-0.146484375,1.1798
0.2900763358778626,4.259541984732825,-2.4732824427480917,-0.461669921875,-0.057861328125,-0.15576171875,1.1815
0.366412213740458,4.213740458015267,-2.7938931297709924,-0.45361328125,-0.058837890625,-0.15478515625,1.1832
0.183206106870229,4.290076335877862,-2.4732824427480917,-0.462158203125,-0.05078125,-0.149658203125,1.1848999999999998
0.1984732824427481,4.076335877862595,-2.33587786259542,-0.46142578125,-0.052490234375,-0.14892578125,1.1865999999999999
0.2595419847328244,4.076335877862595,-2.213740458015267,-0.46484375,-0.058837890625,-0.162109375,1.1883
0.3969465648854962,4.2748091603053435,-2.4427480916030535,-0.462890625,-0.054443359375,-0.153076171875,1.19
0.33587786259541985,4.320610687022901,-2.183206106870229,-0.45703125,-0.051513671875,-0.154052734375,1.1917
0.16793893129770993,4.152671755725191,-2.213740458015267,-0.468505859375,-0.058837890625,-0.157958984375,1.1934
0.07633587786259542,4.320610687022901,-1.9236641221374047,-0.46240234375,-0.063720703125,-0.1552734375,1.1950999999999998
-0.030534351145038167,4.458015267175573,-2.015267175572519,-0.462646484375,-0.057861328125,-0.15625,1.1967999999999999
0.0916030534351145,4.2748091603053435,-1.9083969465648856,-0.46337890625,-0.065673828125,-0.14990234375,1.1985
0.015267175572519083,4.412213740458015,-1.9541984732824427,-0.462158203125,-0.060302734375,-0.157958984375,1.2002
-0.2595419847328244,4.473282442748092,-1.6488549618320612,-0.464599609375,-0.060791015625,-0.1533203125,1.2019
-0.22900763358778625,4.549618320610687,-1.6488549618320612,-0.46337890625,-0.06005859375,-0.15380859375,1.2036
-0.1984732824427481,4.458015267175573,-1.4961832061068703,-0.465087890625,-0.062744140625,-0.15625,1.2053
-0.5954198473282443,4.3816793893129775,-1.450381679389313,-0.458984375,-0.057373046875,-0.1513671875,1.2069999999999999
-0.6870229007633588,4.259541984732825,-1.282442748091603,-0.46044921875,-0.058349609375,-0.150146484375,1.2086999999999999
-0.6564885496183206,4.213740458015267,-1.083969465648855,-0.45751953125,-0.05859375,-0.14892578125,1.2104
-1.0381679389312977,4.030534351145038,-1.0076335877862594,-0.4619140625,-0.059814453125,-0.151611328125,1.2121
-1.099236641221374,3.8625954198473282,-0.9923664122137404,-0.462890625,-0.05908203125,-0.1513671875,1.2138
-1.2366412213740459,3.7709923664122136,-1.1603053435114503,-0.468017578125,-0.05908203125,-0.14453125,1.2155
-1.3435114503816794,3.6030534351145036,-0.8549618320610687,-0.46240234375,-0.056884765625,-0.150146484375,1.2171999999999998
-1.6793893129770991,3.3740458015267176,-0.8244274809160306,-0.46533203125,-0.060302734375,-0.14404296875,1.2188999999999999
-1.8625954198473282,3.1297709923664123,-0.7938931297709924,-0.4658203125,-0.059326171875,-0.145751953125,1.2206
-2.16793893129771,3.2977099236641223,-0.5954198473282443,-0.4638671875,-0.0517578125,-0.14794921875,1.2223
-2.366412213740458,3.0229007633587788,-0.6717557251908397,-0.462158203125,-0.05810546875,-0.142578125,1.224
-2.6412213740458017,2.8396946564885495,-0.6870229007633588,-0.462158203125,-0.05615234375,-0.142333984375,1.2257
-2.7938931297709924,2.8244274809160306,-0.7633587786259542,-0.464599609375,-0.055908203125,-0.13671875,1.2273999999999998
-3.0839694656488548,2.763358778625954,-0.6564885496183206,-0.46435546875,-0.054443359375,-0.15185546875,1.2290999999999999
-3.4656488549618323,2.8091603053435112,-0.6106870229007634,-0.468505859375,-0.048828125,-0.14697265625,1.2308
-3.450381679389313,2.549618320610687,-0.5343511450381679,-0.4658203125,-0.053466796875,-0.144287109375,1.2325
-3.786259541984733,2.4580152671755724,-0.6259541984732825,-0.463134765625,-0.05322265625,-0.14794921875,1.2342
-4.0,2.4580152671755724,-0.3053435114503817,-0.46435546875,-0.052001953125,-0.15625,1.2359
-4.473282442748092,2.519083969465649,-0.24427480916030533,-0.466552734375,-0.0537109375,-0.14794921875,1.2376
-4.809160305343512,2.519083969465649,-0.5954198473282443,-0.46533203125,-0.05517578125,-0.141845703125,1.2392999999999998
-4.99236641221374,2.3969465648854964,-0.5801526717557252,-0.466552734375,-0.055419921875,-0.14306640625,1.2409999999999999
-5.206106870229007,2.366412213740458,-0.44274809160305345,-0.471923828125,-0.04833984375,-0.13818359375,1.2427
-5.4961832061068705,2.381679389312977,-0.3511450381679389,-0.46533203125,-0.04541015625,-0.14794921875,1.2444
-5.801526717557252,2.4580152671755724,-0.32061068702290074,-0.46728515625,-0.047607421875,-0.13916015625,1.2461
-5.984732824427481,2.4885496183206106,-0.366412213740458,-0.4638671875,-0.051513671875,-0.13623046875,1.2478
-5.984732824427481,2.687022900763359,-0.5954198473282443,-0.470458984375,-0.0458984375,-0.14404296875,1.2494999999999998
-6.2748091603053435,2.9160305343511452,-0.549618320610687,-0.469970703125,-0.046142578125,-0.141845703125,1.2511999999999999
-6.320610687022901,2.9770992366412212,-0.4122137404580153,-0.4677734375,-0.049072265625,-0.1494140625,1.2529
-6.473282442748092,3.145038167938931,-0.3969465648854962,-0.466064453125,-0.049560546875,-0.144287109375,1.2546
-6.595419847328245,3.312977099236641,-0.5190839694656488,-0.466552734375,-0.0478515625,-0.139892578125,1.2563
-6.67175572519084,3.5419847328244276,-0.549618320610687,-0.46337890625,-0.04833984375,-0.1435546875,1.258
-6.488549618320611,3.7404580152671754,-0.6106870229007634,-0.46728515625,-0.046142578125,-0.146484375,1.2596999999999998
-6.564885496183206,3.6946564885496183,-0.44274809160305345,-0.463134765625,-0.047607421875,-0.14697265625,1.2613999999999999
-6.5038167938931295,3.801526717557252,-0.5648854961832062,-0.46435546875,-0.047607421875,-0.14794921875,1.2631
-5.9541984732824424,4.0,-0.6259541984732825,-0.458984375,-0.048828125,-0.147705078125,1.2648
-5.786259541984733,4.152671755725191,-0.7938931297709924,-0.465087890625,-0.051025390625,-0.154052734375,1.2665
-5.480916030534351,4.183206106870229,-0.7022900763358778,-0.456298828125,-0.046142578125,-0.14404296875,1.2682
-5.00763358778626,4.351145038167939,-0.7480916030534351,-0.458251953125,-0.047119140625,-0.154541015625,1.2699
-4.641221374045801,4.412213740458015,-1.0381679389312977,-0.461181640625,-0.0478515625,-0.14697265625,1.2715999999999998
-4.244274809160306,4.396946564885496,-0.9618320610687023,-0.458251953125,-0.051025390625,-0.155517578125,1.2732999999999999
-3.984732824427481,4.33587786259542,-1.0687022900763359,-0.457763671875,-0.053955078125,-0.147705078125,1.275
-3.572519083969466,4.458015267175573,-1.3282442748091603,-0.45361328125,-0.052978515625,-0.150390625,1.2767
-3.2061068702290076,4.427480916030534,-1.3587786259541985,-0.45458984375,-0.053466796875,-0.152099609375,1.2784
-2.717557251908397,4.3816793893129775,-1.4045801526717556,-0.454345703125,-0.053955078125,-0.149169921875,1.2801
-2.213740458015267,4.488549618320611,-1.3893129770992367,-0.456298828125,-0.052734375,-0.160400390625,1.2817999999999998
-1.8473282442748091,4.290076335877862,-1.6030534351145038,-0.455078125,-0.05029296875,-0.14794921875,1.2834999999999999
-1.6641221374045803,4.244274809160306,-1.5725190839694656,-0.46142578125,-0.052001953125,-0.16015625,1.2852
-1.3282442748091603,4.305343511450381,-1.6030534351145038,-0.4580078125,-0.0517578125,-0.151611328125,1.2869
-1.0229007633587786,3.969465648854962,-1.5114503816793894,-0.459716796875,-0.05126953125,-0.14697265625,1.2886
-0.6564885496183206,3.954198473282443,-1.7251908396946565,-0.45263671875,-0.052001953125,-0.15576171875,1.2903
-0.3816793893129771,3.954198473282443,-1.9083969465648856,-0.45703125,-0.054931640625,-0.1572265625,1.292
-0.07633587786259542,3.9083969465648853,-1.6946564885496183,-0.456787109375,-0.05224609375,-0.1533203125,1.2936999999999999
-0.04580152671755725,3.6793893129770994,-1.7404580152671756,-0.45751953125,-0.051513671875,-0.155517578125,1.2953999999999999
0.10687022900763359,3.5419847328244276,-1.816793893129771,-0.4560546875,-0.05224609375,-0.151123046875,1.2971
0.44274809160305345,3.3740458015267176,-1.7709923664122138,-0.45849609375,-0.052490234375,-0.158935546875,1.2988
0.6106870229007634,3.3435114503816794,-2.0,-0.459716796875,-0.05029296875,-0.153076171875,1.3005
0.3053435114503817,3.2061068702290076,-1.8778625954198473,-0.459716796875,-0.052978515625,-0.16162109375,1.3022
0.6717557251908397,3.0839694656488548,-1.8625954198473282,-0.455322265625,-0.05322265625,-0.15283203125,1.3038999999999998
0.7786259541984732,2.931297709923664,-1.5877862595419847,-0.458984375,-0.055419921875,-0.1572265625,1.3055999999999999
0.5801526717557252,2.9770992366412212,-1.9083969465648856,-0.4560546875,-0.051513671875,-0.1533203125,1.3073
0.6717557251908397,2.931297709923664,-2.030534351145038,-0.4541015625,-0.052001953125,-0.15283203125,1.309
0.9007633587786259,2.8244274809160306,-1.9236641221374047,-0.46044921875,-0.049560546875,-0.155517578125,1.3107
0.8702290076335878,2.6564885496183206,-1.7557251908396947,-0.45556640625,-0.052490234375,-0.15966796875,1.3124
0.6870229007633588,2.6259541984732824,-2.1526717557251906,-0.457275390625,-0.052734375,-0.15234375,1.3140999999999998
0.8091603053435115,2.732824427480916,-2.1374045801526718,-0.45556640625,-0.0478515625,-0.15625,1.3157999999999999
0.8702290076335878,2.763358778625954,-2.045801526717557,-0.455078125,-0.052734375,-0.151611328125,1.3175
0.9007633587786259,2.687022900763359,-2.0610687022900764,-0.45263671875,-0.0537109375,-0.160400390625,1.3192
0.9618320610687023,2.900763358778626,-2.2900763358778624,-0.454833984375,-0.05322265625,-0.150634765625,1.3209
1.0534351145038168,2.7022900763358777,-2.381679389312977,-0.449462890625,-0.054443359375,-0.15625,1.3226
1.0687022900763359,2.7786259541984735,-2.564885496183206,-0.454345703125,-0.049072265625,-0.15576171875,1.3243
1.083969465648855,2.7786259541984735,-2.5343511450381677,-0.45068359375,-0.048095703125,-0.14892578125,1.3259999999999998
1.3435114503816794,2.7480916030534353,-2.6717557251908395,-0.452880859375,-0.0546875,-0.15673828125,1.3276999999999999
1.0076335877862594,2.6564885496183206,-2.7480916030534353,-0.451171875,-0.0517578125,-0.143798828125,1.3294
1.099236641221374,2.6259541984732824,-2.8396946564885495,-0.45068359375,-0.0517578125,-0.144287109375,1.3311
1.1297709923664123,2.6106870229007635,-2.854961832061069,-0.4541015625,-0.046630859375,-0.151123046875,1.3328
1.0076335877862594,2.50381679389313,-3.1297709923664123,-0.45947265625,-0.052001953125,-0.15087890625,1.3345
1.0687022900763359,2.2595419847328246,-3.114503816793893,-0.4560546875,-0.04833984375,-0.150634765625,1.3361999999999998
1.0381679389312977,2.3206106870229006,-3.099236641221374,-0.456787109375,-0.048828125,-0.14794921875,1.3378999999999999
0.7175572519083969,2.183206106870229,-2.9770992366412212,-0.45458984375,-0.047119140625,-0.146240234375,1.3396
0.7633587786259542,2.0,-3.0229007633587788,-0.454345703125,-0.044921875,-0.146728515625,1.3413
0.9007633587786259,2.1068702290076335,-3.267175572519084,-0.45458984375,-0.043701171875,-0.143798828125,1.343
0.549618320610687,2.030534351145038,-3.1755725190839694,-0.453857421875,-0.0361328125,-0.154296875,1.3447
0.8091603053435115,2.2290076335877864,-3.053435114503817,-0.45361328125,-0.045166015625,-0.1533203125,1.3463999999999998
0.8244274809160306,2.1374045801526718,-3.1908396946564888,-0.456298828125,-0.0478515625,-0.151611328125,1.3480999999999999
0.8396946564885496,2.122137404580153,-3.114503816793893,-0.458251953125,-0.04638671875,-0.154052734375,1.3497999999999999
0.8396946564885496,2.16793893129771,-3.1603053435114505,-0.449951171875,-0.040283203125,-0.150634765625,1.3515
0.9618320610687023,2.2595419847328246,-3.267175572519084,-0.4609375,-0.040771484375,-0.153076171875,1.3532
1.099236641221374,2.4122137404580153,-3.236641221374046,-0.459716796875,-0.042724609375,-0.14501953125,1.3549
0.7938931297709924,2.519083969465649,-3.2213740458015265,-0.46142578125,-0.04248046875,-0.14599609375,1.3566
1.083969465648855,2.427480916030534,-3.3740458015267176,-0.46044921875,-0.048828125,-0.14990234375,1.3582999999999998
1.2366412213740459,2.4732824427480917,-3.312977099236641,-0.465576171875,-0.047119140625,-0.150146484375,1.3599999999999999
1.4045801526717556,2.4427480916030535,-3.49618320610687,-0.461181640625,-0.044677734375,-0.152099609375,1.3617
1.450381679389313,2.595419847328244,-3.4198473282442747,-0.45849609375,-0.0478515625,-0.147216796875,1.3634
1.6641221374045803,2.6564885496183206,-3.7251908396946565,-0.461669921875,-0.050537109375,-0.137939453125,1.3651
1.8015267175572518,2.7480916030534353,-3.6946564885496183,-0.453125,-0.04736328125,-0.150634765625,1.3668
2.045801526717557,2.6259541984732824,-3.5877862595419847,-0.457763671875,-0.048095703125,-0.1455078125,1.3684999999999998
2.213740458015267,2.7938931297709924,-3.877862595419847,-0.46337890625,-0.0498046875,-0.141845703125,1.3701999999999999
2.6564885496183206,2.7480916030534353,-3.7557251908396947,-0.46044921875,-0.046875,-0.156005859375,1.3719
2.9770992366412212,2.5801526717557253,-4.0458015267175576,-0.463134765625,-0.047119140625,-0.15771484375,1.3736
2.931297709923664,2.4732824427480917,-4.198473282442748,-0.462158203125,-0.042236328125,-0.154296875,1.3753
3.145038167938931,2.6259541984732824,-4.091603053435114,-0.4638671875,-0.03955078125,-0.152099609375,1.377
3.5114503816793894,2.549618320610687,-4.1679389312977095,-0.458740234375,-0.0478515625,-0.154052734375,1.3786999999999998
3.633587786259542,2.5801526717557253,-4.396946564885496,-0.46142578125,-0.045166015625,-0.151123046875,1.3803999999999998
3.8625954198473282,2.3206106870229006,-4.427480916030534,-0.46240234375,-0.043212890625,-0.150634765625,1.3820999999999999
4.183206106870229,2.1374045801526718,-4.305343511450381,-0.460693359375,-0.044189453125,-0.15087890625,1.3838
4.351145038167939,2.183206106870229,-4.33587786259542,-0.4580078125,-0.046142578125,-0.153564453125,1.3855
4.442748091603053,2.0610687022900764,-4.6106870229007635,-0.463134765625,-0.04345703125,-0.154296875,1.3872
4.702290076335878,2.213740458015267,-4.351145038167939,-0.46142578125,-0.04296875,-0.156005859375,1.3889
4.656488549618321,2.0916030534351147,-4.305343511450381,-0.462646484375,-0.044189453125,-0.15283203125,1.3905999999999998
4.763358778625954,1.8931297709923665,-4.351145038167939,-0.461181640625,-0.04052734375,-0.15234375,1.3922999999999999
4.900763358778626,1.9389312977099236,-4.33587786259542,-0.458984375,-0.0400390625,-0.154541015625,1.394
5.114503816793893,2.045801526717557,-4.3816793893129775,-0.46142578125,-0.039794921875,-0.153076171875,1.3957
5.099236641221374,2.045801526717557,-4.320610687022901,-0.461669921875,-0.041015625,-0.15087890625,1.3974
5.038167938931298,2.045801526717557,-4.320610687022901,-0.465576171875,-0.0400390625,-0.15771484375,1.3991
5.32824427480916,2.16793893129771,-4.259541984732825,-0.463623046875,-0.033447265625,-0.152099609375,1.4007999999999998
4.900763358778626,2.2442748091603053,-4.122137404580153,-0.4619140625,-0.03857421875,-0.1513671875,1.4024999999999999
4.961832061068702,2.213740458015267,-4.015267175572519,-0.46435546875,-0.044921875,-0.1533203125,1.4042
5.083969465648855,2.0763358778625953,-4.0,-0.458984375,-0.0458984375,-0.16015625,1.4059
4.885496183206107,1.9541984732824427,-3.8473282442748094,-0.46240234375,-0.044677734375,-0.151123046875,1.4076
5.00763358778626,1.9694656488549618,-3.816793893129771,-0.46484375,-0.0458984375,-0.15673828125,1.4093
5.0534351145038165,2.122137404580153,-3.969465648854962,-0.457275390625,-0.05078125,-0.15283203125,1.411
4.99236641221374,1.9389312977099236,-3.8931297709923665,-0.46240234375,-0.046875,-0.157958984375,1.4126999999999998
4.885496183206107,2.015267175572519,-3.6946564885496183,-0.4619140625,-0.04931640625,-0.1513671875,1.4143999999999999
5.068702290076335,1.7557251908396947,-3.7099236641221376,-0.466796875,-0.045654296875,-0.156005859375,1.4161
4.900763358778626,2.1068702290076335,-3.572519083969466,-0.464599609375,-0.053955078125,-0.151123046875,1.4178
4.854961832061068,1.9541984732824427,-3.3282442748091605,-0.46533203125,-0.04736328125,-0.149658203125,1.4195
4.717557251908397,1.633587786259542,-3.3282442748091605,-0.461181640625,-0.05126953125,-0.152587890625,1.4212
4.549618320610687,1.7251908396946565,-3.3282442748091605,-0.45556640625,-0.059326171875,-0.156982421875,1.4228999999999998
4.473282442748092,1.618320610687023,-3.3435114503816794,-0.463134765625,-0.057373046875,-0.150390625,1.4245999999999999
4.290076335877862,1.633587786259542,-3.236641221374046,-0.4599609375,-0.056640625,-0.14892578125,1.4263
4.137404580152672,1.4809160305343512,-3.1297709923664123,-0.462158203125,-0.055908203125,-0.14501953125,1.428
3.9389312977099236,1.4351145038167938,-3.1297709923664123,-0.464599609375,-0.055908203125,-0.148193359375,1.4297
4.0,1.5419847328244274,-2.8091603053435112,-0.46484375,-0.058837890625,-0.146484375,1.4314
3.7709923664122136,1.5267175572519085,-2.687022900763359,-0.46728515625,-0.0556640625,-0.150146484375,1.4330999999999998
3.450381679389313,1.5114503816793894,-2.687022900763359,-0.465576171875,-0.0576171875,-0.140869140625,1.4347999999999999
3.3435114503816794,1.5572519083969465,-2.5801526717557253,-0.4580078125,-0.06396484375,-0.148681640625,1.4364999999999999
3.3435114503816794,1.3282442748091603,-2.33587786259542,-0.467041015625,-0.05810546875,-0.15087890625,1.4382
3.0381679389312977,1.3435114503816794,-2.3969465648854964,-0.467041015625,-0.064453125,-0.14892578125,1.4399
2.8244274809160306,1.297709923664122,-2.549618320610687,-0.466064453125,-0.065185546875,-0.156005859375,1.4416
2.8091603053435112,1.1755725190839694,-2.427480916030534,-0.463134765625,-0.06298828125,-0.1474609375,1.4433
2.763358778625954,1.251908396946565,-2.381679389312977,-0.4677734375,-0.06005859375,-0.148193359375,1.4449999999999998
2.564885496183206,1.1450381679389312,-2.1526717557251906,-0.4619140625,-0.066650390625,-0.150634765625,1.4466999999999999
2.732824427480916,1.0229007633587786,-2.4580152671755724,-0.45947265625,-0.067138671875,-0.146240234375,1.4484
2.549618320610687,0.9312977099236641,-2.381679389312977,-0.46875,-0.067626953125,-0.150390625,1.4501
2.381679389312977,0.732824427480916,-2.2442748091603053,-0.464599609375,-0.063232421875,-0.147216796875,1.4518
2.2595419847328246,0.916030534351145,-2.2748091603053435,-0.46435546875,-0.064208984375,-0.1435546875,1.4535
2.213740458015267,0.5954198473282443,-2.1526717557251906,-0.458740234375,-0.069580078125,-0.1435546875,1.4551999999999998
2.198473282442748,0.5954198473282443,-2.3053435114503817,-0.4609375,-0.0654296875,-0.147216796875,1.4568999999999999
2.183206106870229,0.48854961832061067,-2.4122137404580153,-0.46435546875,-0.063232421875,-0.144287109375,1.4586
2.0610687022900764,0.22900763358778625,-2.3206106870229006,-0.458984375,-0.064208984375,-0.1455078125,1.4603
1.8931297709923665,0.4122137404580153,-2.3206106870229006,-0.461669921875,-0.06396484375,-0.13818359375,1.462
1.9389312977099236,0.33587786259541985,-2.2290076335877864,-0.462890625,-0.06396484375,-0.153076171875,1.4637
1.8778625954198473,0.2900763358778626,-2.381679389312977,-0.4658203125,-0.064208984375,-0.151611328125,1.4653999999999998
1.786259541984733,0.183206106870229,-2.351145038167939,-0.45947265625,-0.05712890625,-0.151611328125,1.4670999999999998
1.633587786259542,0.183206106870229,-2.549618320610687,-0.458984375,-0.06591796875,-0.153076171875,1.4687999999999999
1.3740458015267176,0.07633587786259542,-2.4427480916030535,-0.4619140625,-0.063720703125,-0.147216796875,1.4705
1.251908396946565,0.07633587786259542,-2.6412213740458017,-0.4619140625,-0.064697265625,-0.146240234375,1.4722
1.2061068702290076,-0.04580152671755725,-2.2748091603053435,-0.46044921875,-0.060302734375,-0.15234375,1.4739
0.7480916030534351,-0.1984732824427481,-2.6259541984732824,-0.462646484375,-0.056396484375,-0.153076171875,1.4756
0.6259541984732825,-0.4732824427480916,-2.6412213740458017,-0.462646484375,-0.0576171875,-0.148681640625,1.4772999999999998
0.21374045801526717,-0.44274809160305345,-2.6259541984732824,-0.4638671875,-0.056396484375,-0.14306640625,1.4789999999999999
-0.04580152671755725,-0.44274809160305345,-2.7480916030534353,-0.462158203125,-0.058349609375,-0.150634765625,1.4807
-0.22900763358778625,-0.44274809160305345,-2.717557251908397,-0.46630859375,-0.055419921875,-0.152099609375,1.4824
-0.4580152671755725,-0.48854961832061067,-2.6106870229007635,-0.463134765625,-0.055908203125,-0.158935546875,1.4841
-0.5801526717557252,-0.5343511450381679,-2.8396946564885495,-0.460693359375,-0.0576171875,-0.156005859375,1.4858
-0.8091603053435115,-0.6259541984732825,-2.6412213740458017,-0.4599609375,-0.055908203125,-0.156005859375,1.4874999999999998
-1.251908396946565,-0.5954198473282443,-2.763358778625954,-0.466552734375,-0.050537109375,-0.15625,1.4891999999999999
-1.2366412213740459,-0.5954198473282443,-2.564885496183206,-0.4619140625,-0.053466796875,-0.152099609375,1.4909
-1.5877862595419847,-0.5954198473282443,-2.7022900763358777,-0.46533203125,-0.0546875,-0.14453125,1.4926
-1.5877862595419847,-0.366412213740458,-2.4732824427480917,-0.462158203125,-0.052734375,-0.15234375,1.4943
-1.6641221374045803,-0.44274809160305345,-2.4580152671755724,-0.463623046875,-0.048583984375,-0.15380859375,1.496
-1.8778625954198473,-0.6412213740458015,-2.33587786259542,-0.463623046875,-0.05322265625,-0.15478515625,1.4976999999999998
-1.8931297709923665,-0.4580152671755725,-2.4885496183206106,-0.465576171875,-0.051513671875,-0.154541015625,1.4993999999999998
-2.045801526717557,-0.4122137404580153,-2.33587786259542,-0.456787109375,-0.047119140625,-0.16162109375,1.5010999999999999
-1.816793893129771,-0.33587786259541985,-2.1068702290076335,-0.463623046875,-0.041259765625,-0.157958984375,1.5028
-2.1068702290076335,-0.3816793893129771,-1.8931297709923665,-0.458740234375,-0.0498046875,-0.152587890625,1.5045
-2.1526717557251906,-0.42748091603053434,-2.122137404580153,-0.459228515625,-0.050048828125,-0.15869140625,1.5062
-1.9541984732824427,-0.5954198473282443,-1.816793893129771,-0.461669921875,-0.044921875,-0.152587890625,1.5079
-1.9694656488549618,-0.42748091603053434,-1.7557251908396947,-0.461181640625,-0.04638671875,-0.1494140625,1.5095999999999998
-1.9541984732824427,-0.5954198473282443,-1.5267175572519085,-0.460693359375,-0.050537109375,-0.157958984375,1.5112999999999999
-2.1068702290076335,-0.5343511450381679,-1.6030534351145038,-0.46044921875,-0.041748046875,-0.1572265625,1.513
-1.8778625954198473,-0.732824427480916,-1.2671755725190839,-0.46240234375,-0.04638671875,-0.149658203125,1.5147
-1.8778625954198473,-0.6717557251908397,-1.1603053435114503,-0.461181640625,-0.050537109375,-0.145263671875,1.5164
-1.8625954198473282,-0.4732824427480916,-0.9618320610687023,-0.461181640625,-0.052490234375,-0.159912109375,1.5181
-1.6030534351145038,-0.4122137404580153,-1.1297709923664123,-0.4580078125,-0.05029296875,-0.14794921875,1.5197999999999998
-1.5877862595419847,-0.4580152671755725,-0.9312977099236641,-0.461669921875,-0.0498046875,-0.152099609375,1.5214999999999999
-1.5877862595419847,-0.5343511450381679,-0.7480916030534351,-0.460693359375,-0.042724609375,-0.14990234375,1.5231999999999999
-1.5877862595419847,-0.5954198473282443,-0.8091603053435115,-0.45654296875,-0.042724609375,-0.14306640625,1.5249
-1.3740458015267176,-0.4732824427480916,-0.5801526717557252,-0.459228515625,-0.04736328125,-0.1484375,1.5266
-1.2366412213740459,-0.2748091603053435,-0.3816793893129771,-0.46484375,-0.0400390625,-0.14453125,1.5283
-1.251908396946565,-0.42748091603053434,-0.3969465648854962,-0.4560546875,-0.046142578125,-0.140625,1.5299999999999998
-1.450381679389313,-0.5801526717557252,-0.32061068702290074,-0.455078125,-0.05322265625,-0.14404296875,1.5316999999999998
-1.251908396946565,-0.8244274809160306,-0.33587786259541985,-0.455322265625,-0.0478515625,-0.147705078125,1.5333999999999999
-1.083969465648855,-0.6564885496183206,-0.13740458015267176,-0.459716796875,-0.045166015625,-0.152099609375,1.5351
-1.251908396946565,-0.6717557251908397,-0.0916030534351145,-0.45751953125,-0.0498046875,-0.14599609375,1.5368
-1.1450381679389312,-0.8549618320610687,-0.15267175572519084,-0.45751953125,-0.048095703125,-0.1455078125,1.5385
-1.1450381679389312,-0.732824427480916,-0.07633587786259542,-0.4560546875,-0.04736328125,-0.146484375,1.5402
-1.251908396946565,-0.8549618320610687,-0.030534351145038167,-0.459716796875,-0.048828125,-0.142578125,1.5418999999999998
-1.3282442748091603,-0.7633587786259542,-0.24427480916030533,-0.454833984375,-0.04833984375,-0.142333984375,1.5435999999999999
-1.1908396946564885,-0.6870229007633588,-0.07633587786259542,-0.45703125,-0.04931640625,-0.1416015625,1.5453
-1.251908396946565,-0.8549618320610687,-0.04580152671755725,-0.45458984375,-0.04736328125,-0.14990234375,1.547
-1.3893129770992367,-0.8091603053435115,-0.21374045801526717,-0.462890625,-0.05322265625,-0.150634765625,1.5487
-1.2671755725190839,-0.7022900763358778,-0.0916030534351145,-0.457275390625,-0.051025390625,-0.15234375,1.5504
-1.282442748091603,-0.5801526717557252,-0.2900763358778626,-0.462158203125,-0.055419921875,-0.14501953125,1.5520999999999998
-1.282442748091603,-0.5801526717557252,-0.549618320610687,-0.46533203125,-0.052734375,-0.14599609375,1.5537999999999998
-1.0229007633587786,-0.6412213740458015,-0.366412213740458,-0.460205078125,-0.05419921875,-0.142578125,1.5554999999999999
-0.9923664122137404,-0.5648854961832062,-0.5801526717557252,-0.46533203125,-0.05517578125,-0.144775390625,1.5572
-0.9465648854961832,-0.5038167938931297,-0.6564885496183206,-0.457763671875,-0.053466796875,-0.141357421875,1.5589
-0.9312977099236641,-0.5801526717557252,-0.8396946564885496,-0.4580078125,-0.0576171875,-0.1513671875,1.5606
-0.5801526717557252,-0.5648854961832062,-1.0076335877862594,-0.46484375,-0.055908203125,-0.142333984375,1.5623
-0.6259541984732825,-0.549618320610687,-1.2366412213740459,-0.4599609375,-0.052490234375,-0.15478515625,1.5639999999999998
-0.33587786259541985,-0.32061068702290074,-1.0534351145038168,-0.459228515625,-0.052734375,-0.1572265625,1.5656999999999999
-0.44274809160305345,-0.1984732824427481,-1.3893129770992367,-0.459716796875,-0.056396484375,-0.145263671875,1.5674
-0.13740458015267176,-0.04580152671755725,-1.6793893129770991,-0.457275390625,-0.0576171875,-0.14794921875,1.5691
0.10687022900763359,0.030534351145038167,-1.8473282442748091,-0.458984375,-0.05615234375,-0.141845703125,1.5708
-0.061068702290076333,0.015267175572519083,-1.8473282442748091,-0.45947265625,-0.055908203125,-0.1474609375,1.5725
-0.10687022900763359,0.10687022900763359,-1.6793893129770991,-0.45849609375,-0.049072265625,-0.1494140625,1.5741999999999998
-0.07633587786259542,0.030534351145038167,-1.9236641221374047,-0.463134765625,-0.053955078125,-0.153076171875,1.5758999999999999
-0.12213740458015267,0.183206106870229,-2.1374045801526718,-0.462158203125,-0.052734375,-0.15087890625,1.5776
0.0916030534351145,0.183206106870229,-2.1374045801526718,-0.458740234375,-0.047119140625,-0.14453125,1.5793
-0.04580152671755725,0.04580152671755725,-2.33587786259542,-0.45703125,-0.053466796875,-0.148681640625,1.581
-0.1984732824427481,0.15267175572519084,-2.1526717557251906,-0.462158203125,-0.0517578125,-0.149169921875,1.5827
-0.13740458015267176,0.15267175572519084,-2.366412213740458,-0.459716796875,-0.05322265625,-0.150390625,1.5843999999999998
-0.32061068702290074,0.12213740458015267,-2.4885496183206106,-0.457275390625,-0.049072265625,-0.14404296875,1.5860999999999998
-0.183206106870229,-0.04580152671755725,-2.4885496183206106,-0.45166015625,-0.05419921875,-0.151611328125,1.5877999999999999
-0.2748091603053435,-0.061068702290076333,-2.6106870229007635,-0.459716796875,-0.050048828125,-0.153564453125,1.5895
-0.183206106870229,-0.13740458015267176,-2.717557251908397,-0.4658203125,-0.05615234375,-0.1513671875,1.5912
-0.16793893129770993,-0.3511450381679389,-2.427480916030534,-0.46337890625,-0.049560546875,-0.154052734375,1.5929
-0.24427480916030533,-0.6259541984732825,-2.4122137404580153,-0.46484375,-0.05322265625,-0.144775390625,1.5946
-0.21374045801526717,-0.5038167938931297,-2.7022900763358777,-0.454833984375,-0.05126953125,-0.148193359375,1.5962999999999998
-0.04580152671755725,-0.6717557251908397,-2.595419847328244,-0.458740234375,-0.0517578125,-0.142822265625,1.5979999999999999
-0.2900763358778626,-0.5801526717557252,-2.4580152671755724,-0.461669921875,-0.04833984375,-0.150390625,1.5997
-0.32061068702290074,-0.8091603053435115,-2.50381679389313,-0.45947265625,-0.051025390625,-0.144287109375,1.6014
-0.13740458015267176,-0.9923664122137404,-2.564885496183206,-0.458251953125,-0.04736328125,-0.148193359375,1.6031
0.07633587786259542,-1.1755725190839694,-2.33587786259542,-0.4619140625,-0.045654296875,-0.151611328125,1.6048
-0.12213740458015267,-1.2061068702290076,-2.381679389312977,-0.466064453125,-0.052490234375,-0.146484375,1.6064999999999998
-0.030534351145038167,-1.2061068702290076,-2.3206106870229006,-0.461181640625,-0.052001953125,-0.140625,1.6081999999999999
0.12213740458015267,-1.297709923664122,-2.4122137404580153,-0.4638671875,-0.044921875,-0.145751953125,1.6098999999999999
0.030534351145038167,-1.1908396946564885,-2.183206106870229,-0.464599609375,-0.046630859375,-0.15625,1.6116
-0.030534351145038167,-1.3282442748091603,-2.1374045801526718,-0.459716796875,-0.044921875,-0.14794921875,1.6133
0.13740458015267176,-1.2213740458015268,-2.0,-0.458984375,-0.047607421875,-0.1435546875,1.615
0.10687022900763359,-1.1603053435114503,-2.045801526717557,-0.460205078125,-0.046875,-0.150146484375,1.6166999999999998
0.22900763358778625,-1.2366412213740459,-1.9236641221374047,-0.46044921875,-0.046142578125,-0.14990234375,1.6183999999999998
0.13740458015267176,-1.099236641221374,-2.015267175572519,-0.45849609375,-0.047119140625,-0.1484375,1.6200999999999999
0.015267175572519083,-1.0534351145038168,-1.7099236641221374,-0.463134765625,-0.04931640625,-0.150634765625,1.6218
0.12213740458015267,-0.9618320610687023,-1.7251908396946565,-0.46484375,-0.045654296875,-0.158447265625,1.6235
0.07633587786259542,-1.0534351145038168,-1.8473282442748091,-0.459228515625,-0.0419921875,-0.14892578125,1.6252
-0.0916030534351145,-0.9618320610687023,-1.5725190839694656,-0.459716796875,-0.04443359375,-0.1484375,1.6269
-0.061068702290076333,-0.9923664122137404,-1.5267175572519085,-0.464111328125,-0.046142578125,-0.151123046875,1.6285999999999998
-0.0916030534351145,-0.9007633587786259,-1.618320610687023,-0.46435546875,-0.047119140625,-0.144287109375,1.6302999999999999
-0.2748091603053435,-1.099236641221374,-1.4961832061068703,-0.464111328125,-0.043212890625,-0.151611328125,1.632
-0.366412213740458,-0.8702290076335878,-1.2213740458015268,-0.462158203125,-0.04443359375,-0.152587890625,1.6337
-0.32061068702290074,-0.6564885496183206,-1.297709923664122,-0.46826171875,-0.04638671875,-0.150390625,1.6354
-0.42748091603053434,-0.5343511450381679,-1.3893129770992367,-0.4677734375,-0.040283203125,-0.14306640625,1.6371
-0.6259541984732825,-0.6259541984732825,-1.1297709923664123,-0.463623046875,-0.0439453125,-0.142333984375,1.6387999999999998
-0.6259541984732825,-0.3969465648854962,-1.3435114503816794,-0.46630859375,-0.046630859375,-0.151123046875,1.6404999999999998
-0.4580152671755725,-0.5648854961832062,-1.3740458015267176,-0.4638671875,-0.044677734375,-0.144775390625,1.6421999999999999
-0.4580152671755725,-0.3816793893129771,-1.251908396946565,-0.46484375,-0.048828125,-0.146484375,1.6439
-0.366412213740458,-0.3053435114503817,-1.3282442748091603,-0.4638671875,-0.05517578125,-0.153564453125,1.6456
-0.33587786259541985,-0.07633587786259542,-1.3587786259541985,-0.46533203125,-0.046630859375,-0.144287109375,1.6473
-0.22900763358778625,-0.0916030534351145,-1.099236641221374,-0.46484375,-0.046142578125,-0.141845703125,1.6489999999999998
-0.13740458015267176,-0.32061068702290074,-1.4961832061068703,-0.46826171875,-0.048828125,-0.150146484375,1.6506999999999998
0.15267175572519084,0.0,-1.4961832061068703,-0.471435546875,-0.043701171875,-0.142578125,1.6523999999999999
0.183206106870229,0.015267175572519083,-1.5267175572519085,-0.466064453125,-0.047119140625,-0.146484375,1.6541
0.6259541984732825,0.061068702290076333,-1.4351145038167938,-0.468505859375,-0.05322265625,-0.146484375,1.6558
0.5801526717557252,0.04580152671755725,-1.633587786259542,-0.465087890625,-0.048095703125,-0.143798828125,1.6575
0.7633587786259542,-0.07633587786259542,-1.4961832061068703,-0.466064453125,-0.0478515625,-0.138671875,1.6592
1.0381679389312977,0.10687022900763359,-1.633587786259542,-0.46826171875,-0.050048828125,-0.143310546875,1.6608999999999998
1.0381679389312977,-0.015267175572519083,-1.4809160305343512,-0.466552734375,-0.051513671875,-0.139404296875,1.6625999999999999
1.1908396946564885,-0.015267175572519083,-1.8015267175572518,-0.467041015625,-0.051513671875,-0.14404296875,1.6643
1.5114503816793894,0.13740458015267176,-1.7099236641221374,-0.462890625,-0.048583984375,-0.138671875,1.666
1.5877862595419847,0.0,-1.6641221374045803,-0.4638671875,-0.042724609375,-0.1396484375,1.6677
1.6946564885496183,0.0916030534351145,-1.5419847328244274,-0.46533203125,-0.050537109375,-0.149658203125,1.6694
1.786259541984733,0.10687022900763359,-1.7557251908396947,-0.462646484375,-0.051025390625,-0.14404296875,1.6710999999999998
1.6641221374045803,-0.10687022900763359,-1.786259541984733,-0.4619140625,-0.05419921875,-0.14697265625,1.6727999999999998
1.5877862595419847,0.030534351145038167,-1.83206106870229,-0.46142578125,-0.049560546875,-0.153076171875,1.6744999999999999
1.83206106870229,-0.030534351145038167,-1.8015267175572518,-0.46044921875,-0.049072265625,-0.154541015625,1.6762
1.6488549618320612,-0.10687022900763359,-1.9541984732824427,-0.46533203125,-0.0458984375,-0.15478515625,1.6779
1.786259541984733,-0.04580152671755725,-2.0763358778625953,-0.459228515625,-0.0517578125,-0.1416015625,1.6796
1.6793893129770991,-0.0916030534351145,-2.16793893129771,-0.4638671875,-0.052001953125,-0.14208984375,1.6813
1.7709923664122138,-0.16793893129770993,-2.0763358778625953,-0.462646484375,-0.05419921875,-0.141845703125,1.6829999999999998
1.8015267175572518,-0.13740458015267176,-2.3969465648854964,-0.4580078125,-0.057861328125,-0.138671875,1.6846999999999999
1.7709923664122138,-0.2595419847328244,-2.183206106870229,-0.45654296875,-0.052734375,-0.147216796875,1.6864
1.9541984732824427,-0.4732824427480916,-2.213740458015267,-0.456298828125,-0.05419921875,-0.14013671875,1.6881
2.0916030534351147,-0.4580152671755725,-2.351145038167939,-0.4599609375,-0.054443359375,-0.1484375,1.6898
2.4885496183206106,-0.7175572519083969,-2.7480916030534353,-0.45654296875,-0.05712890625,-0.146240234375,1.6915
2.6106870229007635,-0.8091603053435115,-2.6564885496183206,-0.46142578125,-0.060791015625,-0.147705078125,1.6931999999999998
2.9160305343511452,-0.9465648854961832,-2.8244274809160306,-0.45654296875,-0.054443359375,-0.14794921875,1.6948999999999999
3.0076335877862594,-0.9007633587786259,-2.885496183206107,-0.464599609375,-0.05712890625,-0.14990234375,1.6965999999999999
3.450381679389313,-0.8396946564885496,-3.0839694656488548,-0.459716796875,-0.0546875,-0.1435546875,1.6983
3.618320610687023,-0.8244274809160306,-2.9923664122137406,-0.461669921875,-0.056396484375,-0.15673828125,1.7
3.969465648854962,-0.732824427480916,-3.1603053435114505,-0.4658203125,-0.052978515625,-0.142333984375,1.7017
4.137404580152672,-0.5801526717557252,-3.2213740458015265,-0.4658203125,-0.056640625,-0.160888671875,1.7033999999999998
4.137404580152672,-0.3053435114503817,-3.312977099236641,-0.458984375,-0.05810546875,-0.15380859375,1.7050999999999998
4.244274809160306,-0.5648854961832062,-3.236641221374046,-0.458984375,-0.052490234375,-0.14794921875,1.7067999999999999
4.305343511450381,-0.3816793893129771,-3.3740458015267176,-0.464111328125,-0.054931640625,-0.154296875,1.7085
4.473282442748092,-0.2748091603053435,-3.236641221374046,-0.466796875,-0.0546875,-0.15087890625,1.7102
4.290076335877862,-0.4122137404580153,-3.480916030534351,-0.465576171875,-0.056396484375,-0.152587890625,1.7119
4.259541984732825,-0.2900763358778626,-3.2519083969465647,-0.466552734375,-0.051513671875,-0.150634765625,1.7136
4.1679389312977095,-0.366412213740458,-3.5419847328244276,-0.463623046875,-0.054931640625,-0.143310546875,1.7152999999999998
4.33587786259542,-0.44274809160305345,-3.3587786259541983,-0.46240234375,-0.05322265625,-0.158935546875,1.7169999999999999
4.076335877862595,-0.366412213740458,-3.404580152671756,-0.464111328125,-0.0576171875,-0.1484375,1.7187
3.8625954198473282,-0.32061068702290074,-3.3435114503816794,-0.47216796875,-0.05712890625,-0.15673828125,1.7204
3.5114503816793894,-0.3969465648854962,-3.2061068702290076,-0.4716796875,-0.06005859375,-0.15478515625,1.7221
3.49618320610687,-0.2748091603053435,-2.946564885496183,-0.4697265625,-0.057373046875,-0.150390625,1.7238
3.145038167938931,-0.15267175572519084,-3.099236641221374,-0.46728515625,-0.0498046875,-0.15869140625,1.7254999999999998
2.9618320610687023,-0.12213740458015267,-3.068702290076336,-0.46923828125,-0.052001953125,-0.154296875,1.7271999999999998
2.5801526717557253,-0.12213740458015267,-2.8396946564885495,-0.4677734375,-0.054443359375,-0.1533203125,1.7288999999999999
2.16793893129771,0.0,-2.50381679389313,-0.474365234375,-0.0537109375,-0.1474609375,1.7306
2.030534351145038,0.24427480916030533,-2.732824427480916,-0.47119140625,-0.05712890625,-0.15234375,1.7323
1.5572519083969465,0.48854961832061067,-2.2442748091603053,-0.474853515625,-0.056640625,-0.1533203125,1.734
1.3740458015267176,0.5801526717557252,-2.1374045801526718,-0.4716796875,-0.0556640625,-0.154541015625,1.7356999999999998
1.0076335877862594,0.6564885496183206,-2.0610687022900764,-0.47216796875,-0.052978515625,-0.163818359375,1.7373999999999998
1.0076335877862594,0.7175572519083969,-1.8625954198473282,-0.47607421875,-0.052978515625,-0.1552734375,1.7390999999999999
0.42748091603053434,0.9312977099236641,-1.6030534351145038,-0.472900390625,-0.052978515625,-0.149658203125,1.7408
0.42748091603053434,0.9007633587786259,-1.7099236641221374,-0.47216796875,-0.05029296875,-0.146240234375,1.7425
0.24427480916030533,1.2061068702290076,-1.4351145038167938,-0.4697265625,-0.0517578125,-0.150146484375,1.7442
0.10687022900763359,1.282442748091603,-1.099236641221374,-0.47216796875,-0.055419921875,-0.14892578125,1.7459
-0.12213740458015267,1.1908396946564885,-1.1145038167938932,-0.47119140625,-0.05126953125,-0.14697265625,1.7475999999999998
-0.07633587786259542,1.3893129770992367,-1.0076335877862594,-0.47265625,-0.054443359375,-0.142822265625,1.7492999999999999
-0.22900763358778625,1.297709923664122,-0.732824427480916,-0.472900390625,-0.0556640625,-0.14111328125,1.751
-0.3969465648854962,1.251908396946565,-0.6717557251908397,-0.4677734375,-0.0517578125,-0.148193359375,1.7527
-0.33587786259541985,1.1450381679389312,-0.44274809160305345,-0.473876953125,-0.05322265625,-0.145751953125,1.7544
-0.2595419847328244,1.0687022900763359,-0.1984732824427481,-0.472412109375,-0.052978515625,-0.138671875,1.7561
-0.5343511450381679,1.1297709923664123,-0.015267175572519083,-0.470947265625,-0.062744140625,-0.13720703125,1.7577999999999998
-0.3969465648854962,1.0534351145038168,-0.21374045801526717,-0.466796875,-0.054931640625,-0.14404296875,1.7594999999999998
-0.4732824427480916,0.8549618320610687,-0.1984732824427481,-0.4736328125,-0.058349609375,-0.13818359375,1.7611999999999999
-0.6870229007633588,0.9618320610687023,0.12213740458015267,-0.464111328125,-0.056396484375,-0.145751953125,1.7629
-0.7633587786259542,0.8549618320610687,0.061068702290076333,-0.46533203125,-0.05419921875,-0.13818359375,1.7646
-0.4580152671755725,0.8244274809160306,-0.015267175572519083,-0.466796875,-0.0556640625,-0.145751953125,1.7663
-0.5648854961832062,0.916030534351145,-0.0916030534351145,-0.467529296875,-0.05908203125,-0.146484375,1.7679999999999998
-0.549618320610687,0.8854961832061069,-0.04580152671755725,-0.468505859375,-0.0556640625,-0.141357421875,1.7696999999999998
-0.2900763358778626,1.083969465648855,-0.061068702290076333,-0.461181640625,-0.0625,-0.141845703125,1.7713999999999999
-0.3816793893129771,0.9923664122137404,0.061068702290076333,-0.4609375,-0.059814453125,-0.141845703125,1.7731
-0.366412213740458,1.0076335877862594,-0.15267175572519084,-0.46240234375,-0.059326171875,-0.14404296875,1.7748
-0.42748091603053434,1.0229007633587786,-0.3816793893129771,-0.46630859375,-0.053466796875,-0.142578125,1.7765
-0.10687022900763359,1.083969465648855,-0.366412213740458,-0.465087890625,-0.055908203125,-0.139892578125,1.7782
-0.04580152671755725,1.1603053435114503,-0.3969465648854962,-0.46630859375,-0.05615234375,-0.142333984375,1.7798999999999998
-0.12213740458015267,1.2671755725190839,-0.48854961832061067,-0.46533203125,-0.051513671875,-0.139892578125,1.7815999999999999
0.07633587786259542,1.083969465648855,-0.6412213740458015,-0.460693359375,-0.058349609375,-0.142578125,1.7832999999999999
-0.13740458015267176,1.1297709923664123,-0.6870229007633588,-0.46337890625,-0.053955078125,-0.141357421875,1.785
0.32061068702290074,1.2671755725190839,-0.6717557251908397,-0.46533203125,-0.060546875,-0.14697265625,1.7867
0.44274809160305345,1.2366412213740459,-0.8854961832061069,-0.462890625,-0.060302734375,-0.15087890625,1.7884
0.3969465648854962,1.251908396946565,-0.8854961832061069,-0.460693359375,-0.0576171875,-0.1494140625,1.7900999999999998
