gyrox1,gyroy1,gyroz1,accelx1,accely1,accelz1,Time
-3.1297709923664123,65.23664122137404,-1.083969465648855,-0.3720703125,-0.044921875,-0.376708984375,0.0
-3.068702290076336,65.58778625954199,-1.0229007633587786,-0.37646484375,-0.043212890625,-0.378662109375,0.0017
-3.0076335877862594,65.61832061068702,-1.0534351145038168,-0.370361328125,-0.0419921875,-0.381591796875,0.0034
-3.1755725190839694,65.6793893129771,-0.9618320610687023,-0.366943359375,-0.044189453125,-0.3828125,0.0050999999999999995
-3.1908396946564888,65.96946564885496,-1.0076335877862594,-0.36572265625,-0.04296875,-0.385986328125,0.0068
-2.900763358778626,65.48091603053435,-1.1145038167938932,-0.36376953125,-0.0419921875,-0.38916015625,0.008499999999999999
-2.931297709923664,65.43511450381679,-1.099236641221374,-0.353515625,-0.040771484375,-0.387451171875,0.010199999999999999
-2.9160305343511452,65.41984732824427,-0.8244274809160306,-0.35791015625,-0.044677734375,-0.392578125,0.011899999999999999
-2.885496183206107,65.45038167938931,-0.732824427480916,-0.353271484375,-0.046875,-0.383056640625,0.0136
-2.8396946564885495,65.23664122137404,-0.9312977099236641,-0.352783203125,-0.0458984375,-0.3935546875,0.0153
-2.9618320610687023,64.87022900763358,-1.0687022900763359,-0.35009765625,-0.041015625,-0.38330078125,0.016999999999999998
-3.0229007633587788,64.76335877862596,-0.8396946564885496,-0.343505859375,-0.0419921875,-0.39453125,0.018699999999999998
-2.854961832061069,64.47328244274809,-0.8244274809160306,-0.341796875,-0.042236328125,-0.39794921875,0.020399999999999998
-2.946564885496183,64.21374045801527,-0.7480916030534351,-0.33984375,-0.04150390625,-0.401611328125,0.022099999999999998
-2.717557251908397,64.25954198473282,-0.916030534351145,-0.33740234375,-0.041748046875,-0.400634765625,0.023799999999999998
-2.7786259541984735,63.57251908396947,-0.7022900763358778,-0.334228515625,-0.040771484375,-0.391357421875,0.0255
-2.6564885496183206,63.221374045801525,-0.6717557251908397,-0.330810546875,-0.0439453125,-0.395263671875,0.0272
-2.50381679389313,62.900763358778626,-0.6717557251908397,-0.3291015625,-0.037841796875,-0.395263671875,0.0289
-2.351145038167939,62.25954198473283,-0.8549618320610687,-0.33203125,-0.0380859375,-0.402587890625,0.0306
-2.0763358778625953,61.847328244274806,-0.6717557251908397,-0.328857421875,-0.0439453125,-0.41357421875,0.032299999999999995
-2.16793893129771,61.221374045801525,-0.7938931297709924,-0.3291015625,-0.04833984375,-0.4150390625,0.033999999999999996
-2.122137404580153,60.595419847328245,-0.7175572519083969,-0.326416015625,-0.0380859375,-0.41357421875,0.035699999999999996
-2.0763358778625953,60.229007633587784,-0.8702290076335878,-0.32373046875,-0.044189453125,-0.40576171875,0.037399999999999996
-2.16793893129771,59.587786259541986,-0.8396946564885496,-0.321533203125,-0.037841796875,-0.407470703125,0.039099999999999996
-1.9541984732824427,58.85496183206107,-0.732824427480916,-0.320068359375,-0.03857421875,-0.404541015625,0.040799999999999996
-1.9541984732824427,58.396946564885496,-0.8549618320610687,-0.318359375,-0.041259765625,-0.4072265625,0.042499999999999996
-2.015267175572519,57.98473282442748,-0.7022900763358778,-0.3203125,-0.041259765625,-0.411865234375,0.044199999999999996
-1.9083969465648856,57.41984732824427,-0.7480916030534351,-0.3203125,-0.040771484375,-0.4091796875,0.045899999999999996
-1.6488549618320612,56.68702290076336,-0.9770992366412213,-0.316162109375,-0.04296875,-0.41162109375,0.047599999999999996
-1.6946564885496183,56.50381679389313,-0.9007633587786259,-0.31494140625,-0.038330078125,-0.413818359375,0.0493
-1.4809160305343512,55.770992366412216,-1.1603053435114503,-0.315673828125,-0.03515625,-0.406005859375,0.051
-1.3893129770992367,55.25190839694657,-1.0381679389312977,-0.321044921875,-0.03955078125,-0.40478515625,0.0527
-1.450381679389313,54.900763358778626,-0.9007633587786259,-0.315673828125,-0.0439453125,-0.407958984375,0.0544
-1.3587786259541985,54.30534351145038,-0.8854961832061069,-0.31982421875,-0.038818359375,-0.418212890625,0.0561
-1.1297709923664123,54.030534351145036,-1.2366412213740459,-0.326171875,-0.041748046875,-0.4169921875,0.0578
-1.099236641221374,53.41984732824427,-1.099236641221374,-0.3251953125,-0.041015625,-0.425048828125,0.0595
-1.2366412213740459,53.221374045801525,-1.2213740458015268,-0.325439453125,-0.04345703125,-0.425048828125,0.0612
-1.1297709923664123,52.778625954198475,-1.3893129770992367,-0.32373046875,-0.041748046875,-0.42041015625,0.0629
-1.282442748091603,52.68702290076336,-1.450381679389313,-0.33056640625,-0.044677734375,-0.419189453125,0.06459999999999999
-1.1297709923664123,52.51908396946565,-1.5114503816793894,-0.32861328125,-0.0419921875,-0.42138671875,0.0663
-1.1908396946564885,52.33587786259542,-1.7709923664122138,-0.33056640625,-0.03759765625,-0.41552734375,0.06799999999999999
-0.8549618320610687,52.30534351145038,-1.7404580152671756,-0.329345703125,-0.04296875,-0.427490234375,0.0697
-1.1755725190839694,52.33587786259542,-1.7404580152671756,-0.333740234375,-0.04052734375,-0.42138671875,0.07139999999999999
-1.2213740458015268,52.50381679389313,-1.8778625954198473,-0.335205078125,-0.0400390625,-0.427490234375,0.0731
-1.1297709923664123,52.274809160305345,-2.030534351145038,-0.33740234375,-0.043701171875,-0.427490234375,0.07479999999999999
-1.251908396946565,52.06106870229008,-2.0916030534351147,-0.3330078125,-0.043701171875,-0.41015625,0.0765
-0.8244274809160306,52.10687022900763,-2.213740458015267,-0.331298828125,-0.04541015625,-0.43212890625,0.07819999999999999
-1.0076335877862594,52.44274809160305,-2.213740458015267,-0.329345703125,-0.045654296875,-0.42919921875,0.0799
-1.1450381679389312,52.458015267175576,-2.2442748091603053,-0.33056640625,-0.03955078125,-0.419189453125,0.08159999999999999
-0.8244274809160306,52.51908396946565,-2.198473282442748,-0.3330078125,-0.041015625,-0.42041015625,0.0833
-0.6870229007633588,52.62595419847328,-2.213740458015267,-0.330322265625,-0.03857421875,-0.4208984375,0.08499999999999999
-0.8854961832061069,52.44274809160305,-2.33587786259542,-0.33251953125,-0.03662109375,-0.4140625,0.0867
-0.8396946564885496,52.36641221374046,-2.2900763358778624,-0.33056640625,-0.0439453125,-0.431640625,0.08839999999999999
-0.9770992366412213,52.3206106870229,-2.3206106870229006,-0.323486328125,-0.046630859375,-0.42578125,0.0901
-0.8091603053435115,52.274809160305345,-2.381679389312977,-0.32421875,-0.048583984375,-0.4208984375,0.09179999999999999
-0.6564885496183206,52.30534351145038,-2.213740458015267,-0.32080078125,-0.04833984375,-0.428466796875,0.0935
-0.6412213740458015,52.3206106870229,-2.6106870229007635,-0.318115234375,-0.044921875,-0.428955078125,0.09519999999999999
-0.8091603053435115,52.0,-2.519083969465649,-0.321533203125,-0.040771484375,-0.43212890625,0.0969
-0.7022900763358778,51.847328244274806,-2.4580152671755724,-0.3154296875,-0.042236328125,-0.435546875,0.0986
-0.8702290076335878,51.48091603053435,-2.50381679389313,-0.31689453125,-0.041748046875,-0.43408203125,0.1003
-0.7633587786259542,51.37404580152672,-2.4427480916030535,-0.31298828125,-0.043212890625,-0.4365234375,0.102
-0.6259541984732825,51.099236641221374,-2.6717557251908395,-0.3203125,-0.042724609375,-0.43212890625,0.1037
-0.5954198473282443,51.02290076335878,-2.4427480916030535,-0.31787109375,-0.04443359375,-0.4326171875,0.1054
-0.732824427480916,50.87022900763359,-2.4427480916030535,-0.312255859375,-0.042724609375,-0.43701171875,0.1071
-0.9007633587786259,50.48854961832061,-2.4122137404580153,-0.313232421875,-0.044921875,-0.43603515625,0.1088
-0.8702290076335878,50.61068702290076,-2.427480916030534,-0.31689453125,-0.0439453125,-0.439208984375,0.11049999999999999
-0.9312977099236641,50.47328244274809,-2.595419847328244,-0.31396484375,-0.0419921875,-0.43310546875,0.1122
-1.2213740458015268,49.969465648854964,-2.50381679389313,-0.3125,-0.0458984375,-0.43701171875,0.11389999999999999
-0.9618320610687023,49.87786259541985,-2.549618320610687,-0.312744140625,-0.048828125,-0.43701171875,0.1156
-1.1297709923664123,49.86259541984733,-2.5343511450381677,-0.310302734375,-0.0458984375,-0.4404296875,0.11729999999999999
-1.1755725190839694,49.6793893129771,-2.7938931297709924,-0.310791015625,-0.045654296875,-0.4462890625,0.119
-1.3282442748091603,49.37404580152672,-2.519083969465649,-0.315185546875,-0.0439453125,-0.442138671875,0.12069999999999999
-1.1450381679389312,49.52671755725191,-2.381679389312977,-0.317138671875,-0.042236328125,-0.435546875,0.1224
-1.099236641221374,49.49618320610687,-2.595419847328244,-0.315673828125,-0.046630859375,-0.43701171875,0.12409999999999999
-1.297709923664122,49.48091603053435,-2.427480916030534,-0.313232421875,-0.03955078125,-0.44091796875,0.1258
-1.4351145038167938,49.3587786259542,-2.5343511450381677,-0.314208984375,-0.041259765625,-0.440185546875,0.1275
-1.3282442748091603,49.19083969465649,-2.4580152671755724,-0.3095703125,-0.0419921875,-0.4443359375,0.12919999999999998
-1.3587786259541985,49.23664122137404,-2.4580152671755724,-0.312255859375,-0.05078125,-0.44091796875,0.1309
-1.3893129770992367,49.099236641221374,-2.4885496183206106,-0.31982421875,-0.04150390625,-0.44384765625,0.1326
-1.4809160305343512,49.343511450381676,-2.732824427480916,-0.314453125,-0.042236328125,-0.438720703125,0.1343
-1.618320610687023,49.25190839694657,-2.595419847328244,-0.3115234375,-0.049072265625,-0.45166015625,0.13599999999999998
-1.4351145038167938,49.404580152671755,-2.4732824427480917,-0.30859375,-0.043701171875,-0.4443359375,0.1377
-1.4961832061068703,49.11450381679389,-2.687022900763359,-0.315185546875,-0.046875,-0.443359375,0.1394
-1.1603053435114503,49.38931297709924,-2.7786259541984735,-0.318115234375,-0.04150390625,-0.435302734375,0.1411
-1.6488549618320612,49.343511450381676,-2.6412213740458017,-0.3115234375,-0.038330078125,-0.44384765625,0.14279999999999998
-1.4961832061068703,49.587786259541986,-2.7938931297709924,-0.314697265625,-0.042724609375,-0.446044921875,0.1445
-1.450381679389313,49.80152671755725,-2.8396946564885495,-0.309326171875,-0.04296875,-0.4462890625,0.1462
-1.4809160305343512,49.70992366412214,-3.068702290076336,-0.31689453125,-0.0380859375,-0.443115234375,0.1479
-1.5877862595419847,49.86259541984733,-2.9160305343511452,-0.3115234375,-0.041015625,-0.453857421875,0.14959999999999998
-1.4961832061068703,50.16793893129771,-2.900763358778626,-0.31005859375,-0.0390625,-0.455078125,0.1513
-1.4351145038167938,50.25954198473283,-2.9923664122137406,-0.3134765625,-0.038818359375,-0.449951171875,0.153
-1.1908396946564885,50.18320610687023,-3.0839694656488548,-0.310546875,-0.038818359375,-0.454345703125,0.1547
-1.4045801526717556,50.42748091603053,-3.1297709923664123,-0.310791015625,-0.037841796875,-0.44482421875,0.15639999999999998
-1.5572519083969465,50.274809160305345,-3.2061068702290076,-0.313232421875,-0.041748046875,-0.450439453125,0.1581
-1.6946564885496183,50.33587786259542,-3.068702290076336,-0.31005859375,-0.0419921875,-0.4521484375,0.1598
-1.3740458015267176,50.38167938931298,-2.9770992366412212,-0.3125,-0.039794921875,-0.453369140625,0.1615
-1.3282442748091603,50.56488549618321,-2.8091603053435112,-0.31396484375,-0.03759765625,-0.45654296875,0.16319999999999998
-1.297709923664122,50.732824427480914,-3.068702290076336,-0.31298828125,-0.0390625,-0.4521484375,0.1649
-1.1297709923664123,50.93129770992366,-2.9160305343511452,-0.317138671875,-0.03857421875,-0.448486328125,0.1666
-1.0229007633587786,51.16030534351145,-2.8244274809160306,-0.321533203125,-0.037841796875,-0.45458984375,0.16829999999999998
-0.8549618320610687,51.51145038167939,-2.8244274809160306,-0.322509765625,-0.041015625,-0.45166015625,0.16999999999999998
-0.9923664122137404,52.01526717557252,-2.7786259541984735,-0.32275390625,-0.0341796875,-0.45458984375,0.1717
-1.1297709923664123,52.30534351145038,-2.4580152671755724,-0.32666015625,-0.035888671875,-0.449951171875,0.1734
-0.7633587786259542,53.06870229007634,-2.564885496183206,-0.328125,-0.03466796875,-0.44384765625,0.17509999999999998
-0.6717557251908397,53.74045801526717,-2.6259541984732824,-0.331298828125,-0.0400390625,-0.444091796875,0.17679999999999998
-0.44274809160305345,54.458015267175576,-2.564885496183206,-0.33349609375,-0.03466796875,-0.446533203125,0.1785
-0.48854961832061067,55.17557251908397,-2.6412213740458017,-0.33349609375,-0.036376953125,-0.456787109375,0.1802
-0.22900763358778625,55.74045801526717,-2.5801526717557253,-0.335693359375,-0.035400390625,-0.4443359375,0.18189999999999998
-0.24427480916030533,56.6412213740458,-2.427480916030534,-0.335205078125,-0.03466796875,-0.44189453125,0.18359999999999999
-0.33587786259541985,57.74045801526717,-2.50381679389313,-0.3369140625,-0.035888671875,-0.44873046875,0.1853
-0.22900763358778625,58.33587786259542,-2.519083969465649,-0.3349609375,-0.0390625,-0.449951171875,0.187
-0.183206106870229,59.06870229007634,-2.519083969465649,-0.335693359375,-0.034423828125,-0.442626953125,0.18869999999999998
0.183206106870229,59.6793893129771,-2.6412213740458017,-0.328369140625,-0.038818359375,-0.43701171875,0.19039999999999999
0.24427480916030533,60.62595419847328,-2.6259541984732824,-0.329833984375,-0.03466796875,-0.4521484375,0.1921
0.12213740458015267,61.29770992366412,-2.5801526717557253,-0.32958984375,-0.036865234375,-0.441162109375,0.1938
0.32061068702290074,61.93893129770992,-2.885496183206107,-0.3271484375,-0.040283203125,-0.44677734375,0.19549999999999998
0.3511450381679389,62.74809160305343,-2.7480916030534353,-0.322021484375,-0.03564453125,-0.44384765625,0.1972
0.6564885496183206,63.41984732824427,-3.0381679389312977,-0.3212890625,-0.033935546875,-0.447265625,0.1989
0.6564885496183206,64.01526717557252,-2.8244274809160306,-0.320068359375,-0.03466796875,-0.44921875,0.2006
0.6412213740458015,64.42748091603053,-3.053435114503817,-0.3154296875,-0.03564453125,-0.455078125,0.20229999999999998
0.7633587786259542,65.00763358778626,-3.1755725190839694,-0.315185546875,-0.033935546875,-0.44873046875,0.204
0.7938931297709924,65.37404580152672,-3.114503816793893,-0.30908203125,-0.0361328125,-0.450927734375,0.2057
0.8854961832061069,65.72519083969466,-3.145038167938931,-0.303466796875,-0.039306640625,-0.447509765625,0.2074
0.9465648854961832,65.87786259541984,-3.404580152671756,-0.30419921875,-0.032958984375,-0.448974609375,0.20909999999999998
1.2366412213740459,66.2442748091603,-3.236641221374046,-0.300537109375,-0.0390625,-0.447509765625,0.2108
1.1145038167938932,66.33587786259542,-3.5419847328244276,-0.302001953125,-0.03515625,-0.456298828125,0.2125
1.1908396946564885,66.44274809160305,-3.5114503816793894,-0.296142578125,-0.030517578125,-0.449462890625,0.2142
1.1450381679389312,66.76335877862596,-3.5572519083969465,-0.297607421875,-0.042724609375,-0.447265625,0.21589999999999998
1.297709923664122,66.4885496183206,-3.4198473282442747,-0.2939453125,-0.03466796875,-0.464111328125,0.2176
1.633587786259542,66.2442748091603,-3.5267175572519083,-0.28857421875,-0.033935546875,-0.452880859375,0.2193
1.5572519083969465,66.3206106870229,-3.5877862595419847,-0.289794921875,-0.032958984375,-0.4580078125,0.22099999999999997
1.5572519083969465,66.12213740458016,-3.5572519083969465,-0.287353515625,-0.040283203125,-0.463623046875,0.22269999999999998
1.7251908396946565,65.95419847328245,-3.267175572519084,-0.285888671875,-0.042236328125,-0.461669921875,0.2244
1.618320610687023,65.98473282442748,-3.572519083969466,-0.28173828125,-0.037353515625,-0.463134765625,0.2261
1.6488549618320612,65.64885496183206,-3.618320610687023,-0.286865234375,-0.035888671875,-0.458251953125,0.22779999999999997
1.7557251908396947,65.6030534351145,-3.5114503816793894,-0.285400390625,-0.03662109375,-0.4677734375,0.22949999999999998
1.5419847328244274,65.64885496183206,-3.4198473282442747,-0.278076171875,-0.031982421875,-0.4609375,0.2312
1.8931297709923665,65.1145038167939,-3.6030534351145036,-0.276611328125,-0.036376953125,-0.470947265625,0.2329
2.1374045801526718,65.09923664122137,-3.5114503816793894,-0.273681640625,-0.0400390625,-0.4697265625,0.23459999999999998
1.9389312977099236,64.97709923664122,-3.5419847328244276,-0.2763671875,-0.041748046875,-0.465087890625,0.23629999999999998
2.1068702290076335,64.73282442748092,-3.267175572519084,-0.27783203125,-0.042236328125,-0.470947265625,0.238
1.8015267175572518,64.56488549618321,-3.4198473282442747,-0.273193359375,-0.041015625,-0.46435546875,0.2397
1.8015267175572518,64.68702290076335,-3.114503816793893,-0.275390625,-0.040283203125,-0.475341796875,0.24139999999999998
1.9541984732824427,64.74809160305344,-3.3740458015267176,-0.2734375,-0.044677734375,-0.471923828125,0.24309999999999998
1.984732824427481,64.53435114503817,-3.2061068702290076,-0.273193359375,-0.0439453125,-0.4775390625,0.2448
1.8015267175572518,64.41221374045801,-3.2977099236641223,-0.275390625,-0.042724609375,-0.474609375,0.2465
2.16793893129771,64.25954198473282,-3.114503816793893,-0.2685546875,-0.0400390625,-0.4814453125,0.24819999999999998
2.1068702290076335,64.19847328244275,-3.2213740458015265,-0.272216796875,-0.041259765625,-0.479736328125,0.24989999999999998
2.030534351145038,64.18320610687023,-3.1603053435114505,-0.26953125,-0.04296875,-0.47998046875,0.2516
2.0,64.09160305343511,-3.0839694656488548,-0.268798828125,-0.0419921875,-0.484375,0.25329999999999997
2.1374045801526718,63.969465648854964,-2.885496183206107,-0.267822265625,-0.050537109375,-0.476806640625,0.255
2.015267175572519,64.12213740458016,-3.099236641221374,-0.267333984375,-0.043212890625,-0.47998046875,0.2567
1.9694656488549618,64.30534351145039,-2.854961832061069,-0.263916015625,-0.04052734375,-0.486328125,0.25839999999999996
1.8931297709923665,64.13740458015268,-3.1297709923664123,-0.264892578125,-0.041259765625,-0.487548828125,0.2601
1.786259541984733,64.18320610687023,-2.9923664122137406,-0.260009765625,-0.0400390625,-0.488525390625,0.2618
2.030534351145038,63.9236641221374,-2.8091603053435112,-0.26171875,-0.042724609375,-0.494873046875,0.2635
2.015267175572519,63.786259541984734,-2.732824427480916,-0.254150390625,-0.047607421875,-0.490478515625,0.2652
2.2595419847328246,63.954198473282446,-2.7786259541984735,-0.254638671875,-0.04443359375,-0.4912109375,0.26689999999999997
2.213740458015267,63.93893129770992,-2.6412213740458017,-0.25146484375,-0.03955078125,-0.48974609375,0.2686
2.0610687022900764,63.70992366412214,-2.717557251908397,-0.250732421875,-0.044921875,-0.504150390625,0.2703
1.83206106870229,63.267175572519086,-2.4580152671755724,-0.247802734375,-0.04638671875,-0.4912109375,0.27199999999999996
2.0763358778625953,63.17557251908397,-2.4732824427480917,-0.2470703125,-0.045654296875,-0.504638671875,0.2737
2.0,63.12977099236641,-2.4732824427480917,-0.24462890625,-0.04736328125,-0.499267578125,0.2754
1.9389312977099236,63.221374045801525,-2.4580152671755724,-0.2412109375,-0.04443359375,-0.495849609375,0.27709999999999996
2.015267175572519,62.70229007633588,-2.381679389312977,-0.2431640625,-0.04443359375,-0.50244140625,0.2788
1.816793893129771,62.229007633587784,-2.4427480916030535,-0.24267578125,-0.043212890625,-0.5,0.28049999999999997
2.1068702290076335,62.19847328244275,-2.2748091603053435,-0.24072265625,-0.041015625,-0.492431640625,0.2822
1.83206106870229,62.01526717557252,-2.351145038167939,-0.233154296875,-0.043212890625,-0.496337890625,0.2839
1.9083969465648856,61.725190839694655,-2.2290076335877864,-0.23486328125,-0.046630859375,-0.502685546875,0.28559999999999997
2.2900763358778624,61.41984732824427,-2.16793893129771,-0.2294921875,-0.045166015625,-0.503173828125,0.2873
2.0610687022900764,60.961832061068705,-2.0763358778625953,-0.227294921875,-0.04736328125,-0.49560546875,0.289
2.030534351145038,60.458015267175576,-2.381679389312977,-0.225830078125,-0.048095703125,-0.505126953125,0.29069999999999996
1.9389312977099236,60.229007633587784,-2.0,-0.228759765625,-0.0458984375,-0.513427734375,0.2924
2.2442748091603053,59.80152671755725,-2.045801526717557,-0.227783203125,-0.04541015625,-0.501220703125,0.2941
2.351145038167939,59.49618320610687,-1.8931297709923665,-0.225830078125,-0.042724609375,-0.49951171875,0.2958
2.122137404580153,59.37404580152672,-1.9389312977099236,-0.22705078125,-0.045654296875,-0.5,0.2975
2.3969465648854964,58.80916030534351,-2.015267175572519,-0.22119140625,-0.045166015625,-0.50537109375,0.29919999999999997
2.366412213740458,58.58015267175573,-1.8625954198473282,-0.22314453125,-0.044921875,-0.500244140625,0.3009
2.4580152671755724,58.152671755725194,-1.8931297709923665,-0.217041015625,-0.041748046875,-0.50244140625,0.3026
2.366412213740458,57.7557251908397,-1.816793893129771,-0.220947265625,-0.04150390625,-0.50439453125,0.30429999999999996
2.122137404580153,57.3587786259542,-2.0610687022900764,-0.217529296875,-0.0390625,-0.51171875,0.306
2.2442748091603053,57.3587786259542,-1.8473282442748091,-0.215576171875,-0.044189453125,-0.5185546875,0.3077
2.381679389312977,56.94656488549618,-1.816793893129771,-0.218994140625,-0.043212890625,-0.503173828125,0.3094
2.3206106870229006,56.51908396946565,-1.6946564885496183,-0.2197265625,-0.04541015625,-0.50341796875,0.3111
2.366412213740458,56.29007633587786,-1.7099236641221374,-0.215576171875,-0.04736328125,-0.501220703125,0.31279999999999997
2.3053435114503817,56.091603053435115,-1.6946564885496183,-0.21923828125,-0.046875,-0.501220703125,0.3145
2.366412213740458,55.9236641221374,-1.6641221374045803,-0.222412109375,-0.04736328125,-0.504150390625,0.3162
2.4885496183206106,55.61832061068702,-1.5877862595419847,-0.21923828125,-0.049560546875,-0.511474609375,0.31789999999999996
2.427480916030534,55.51145038167939,-1.6030534351145038,-0.21630859375,-0.05029296875,-0.51171875,0.3196
2.4427480916030535,55.29770992366412,-1.297709923664122,-0.216552734375,-0.0458984375,-0.502685546875,0.3213
2.198473282442748,55.37404580152672,-1.5725190839694656,-0.221435546875,-0.04541015625,-0.5107421875,0.323
2.2595419847328246,55.02290076335878,-1.5725190839694656,-0.21630859375,-0.043212890625,-0.50927734375,0.3247
2.3206106870229006,54.67175572519084,-1.8015267175572518,-0.213623046875,-0.04736328125,-0.5048828125,0.32639999999999997
2.183206106870229,54.732824427480914,-1.5267175572519085,-0.21923828125,-0.048583984375,-0.505859375,0.3281
2.198473282442748,54.38167938931298,-1.2671755725190839,-0.218505859375,-0.048095703125,-0.51171875,0.3298
2.2442748091603053,54.19847328244275,-1.3435114503816794,-0.21484375,-0.046875,-0.505859375,0.33149999999999996
1.984732824427481,53.969465648854964,-1.5419847328244274,-0.21875,-0.05029296875,-0.50341796875,0.3332
1.8778625954198473,53.908396946564885,-1.3587786259541985,-0.216552734375,-0.052001953125,-0.506591796875,0.3349
1.7709923664122138,53.770992366412216,-1.618320610687023,-0.21728515625,-0.055419921875,-0.500244140625,0.33659999999999995
2.045801526717557,53.64885496183206,-1.251908396946565,-0.21044921875,-0.0419921875,-0.50439453125,0.3383
1.7557251908396947,53.3587786259542,-1.6030534351145038,-0.212158203125,-0.046875,-0.512939453125,0.33999999999999997
1.8015267175572518,53.25190839694657,-1.5725190839694656,-0.21435546875,-0.041259765625,-0.508056640625,0.3417
1.6030534351145038,52.76335877862596,-1.5572519083969465,-0.21728515625,-0.04443359375,-0.50830078125,0.3434
1.786259541984733,52.717557251908396,-1.4961832061068703,-0.221923828125,-0.0439453125,-0.506591796875,0.34509999999999996
1.5877862595419847,52.58015267175573,-1.786259541984733,-0.21337890625,-0.043701171875,-0.508544921875,0.3468
1.5267175572519085,52.3206106870229,-1.8015267175572518,-0.21337890625,-0.047119140625,-0.508056640625,0.3485
1.5114503816793894,52.030534351145036,-1.83206106870229,-0.2177734375,-0.04833984375,-0.501953125,0.35019999999999996
1.618320610687023,52.045801526717554,-1.8625954198473282,-0.21630859375,-0.050537109375,-0.50537109375,0.3519
1.3893129770992367,51.80152671755725,-1.8473282442748091,-0.215087890625,-0.04345703125,-0.5087890625,0.35359999999999997
1.4351145038167938,51.465648854961835,-1.8473282442748091,-0.2177734375,-0.0458984375,-0.508544921875,0.3553
1.3893129770992367,51.465648854961835,-2.198473282442748,-0.214599609375,-0.04833984375,-0.506103515625,0.357
1.3740458015267176,51.25190839694657,-2.0,-0.215576171875,-0.046875,-0.507080078125,0.35869999999999996
1.2671755725190839,51.05343511450382,-2.2442748091603053,-0.222900390625,-0.05224609375,-0.516845703125,0.3604
1.1755725190839694,50.80916030534351,-2.4427480916030535,-0.21826171875,-0.056396484375,-0.51025390625,0.3621
0.8854961832061069,50.62595419847328,-2.427480916030534,-0.21875,-0.0576171875,-0.51416015625,0.36379999999999996
0.9312977099236641,50.50381679389313,-2.381679389312977,-0.2216796875,-0.0556640625,-0.5166015625,0.3655
0.8091603053435115,50.33587786259542,-2.6717557251908395,-0.222900390625,-0.047119140625,-0.5146484375,0.36719999999999997
0.6259541984732825,50.030534351145036,-2.427480916030534,-0.224365234375,-0.046630859375,-0.50927734375,0.3689
0.4580152671755725,50.045801526717554,-2.6717557251908395,-0.224365234375,-0.056396484375,-0.50732421875,0.3706
0.42748091603053434,50.06106870229008,-2.4580152671755724,-0.2265625,-0.058349609375,-0.509765625,0.37229999999999996
0.33587786259541985,50.06106870229008,-2.7022900763358777,-0.222900390625,-0.057373046875,-0.51318359375,0.374
0.22900763358778625,49.98473282442748,-2.7786259541984735,-0.225341796875,-0.053955078125,-0.51318359375,0.3757
-0.015267175572519083,50.2442748091603,-2.931297709923664,-0.231201171875,-0.0556640625,-0.50439453125,0.37739999999999996
0.22900763358778625,50.25954198473283,-2.6412213740458017,-0.230712890625,-0.052978515625,-0.50634765625,0.3791
-0.16793893129770993,50.29007633587786,-2.6564885496183206,-0.231689453125,-0.051513671875,-0.50537109375,0.38079999999999997
-0.16793893129770993,50.396946564885496,-2.717557251908397,-0.233642578125,-0.052734375,-0.504638671875,0.38249999999999995
-0.549618320610687,50.68702290076336,-2.8244274809160306,-0.236572265625,-0.0556640625,-0.502685546875,0.3842
-0.5343511450381679,50.85496183206107,-2.549618320610687,-0.230712890625,-0.054443359375,-0.5029296875,0.38589999999999997
-0.4732824427480916,51.282442748091604,-2.900763358778626,-0.23486328125,-0.052001953125,-0.5029296875,0.3876
-0.8244274809160306,51.603053435114504,-2.6106870229007635,-0.225341796875,-0.048583984375,-0.5068359375,0.3893
-0.8549618320610687,51.83206106870229,-2.7786259541984735,-0.22998046875,-0.0498046875,-0.50341796875,0.39099999999999996
-1.0534351145038168,52.13740458015267,-2.7786259541984735,-0.231201171875,-0.04736328125,-0.50048828125,0.3927
-1.4045801526717556,52.213740458015266,-2.946564885496183,-0.238037109375,-0.05224609375,-0.50341796875,0.3944
-1.297709923664122,52.61068702290076,-2.519083969465649,-0.227783203125,-0.050537109375,-0.50390625,0.39609999999999995
-1.2671755725190839,53.17557251908397,-2.6717557251908395,-0.237548828125,-0.05322265625,-0.516357421875,0.3978
-1.5725190839694656,53.20610687022901,-2.763358778625954,-0.24072265625,-0.05419921875,-0.513427734375,0.39949999999999997
-1.6641221374045803,53.57251908396947,-2.6717557251908395,-0.23486328125,-0.050048828125,-0.50146484375,0.4012
-1.83206106870229,53.9236641221374,-2.50381679389313,-0.233642578125,-0.05029296875,-0.501220703125,0.4029
-1.7557251908396947,54.33587786259542,-2.6259541984732824,-0.243408203125,-0.04833984375,-0.50244140625,0.40459999999999996
-1.9389312977099236,54.732824427480914,-2.381679389312977,-0.23828125,-0.047607421875,-0.49853515625,0.4063
-2.183206106870229,55.12977099236641,-2.4580152671755724,-0.240966796875,-0.047119140625,-0.503662109375,0.408
-2.198473282442748,55.45038167938932,-2.0763358778625953,-0.243896484375,-0.0478515625,-0.509765625,0.40969999999999995
-2.1068702290076335,55.969465648854964,-2.0610687022900764,-0.236083984375,-0.044677734375,-0.515625,0.4114
-2.2442748091603053,56.58015267175573,-2.0916030534351147,-0.2392578125,-0.04736328125,-0.5185546875,0.41309999999999997
-2.366412213740458,57.083969465648856,-2.183206106870229,-0.23779296875,-0.0439453125,-0.510009765625,0.4148
-2.3969465648854964,57.80152671755725,-1.9694656488549618,-0.23583984375,-0.048828125,-0.512939453125,0.4165
-2.381679389312977,58.396946564885496,-2.015267175572519,-0.2431640625,-0.0419921875,-0.515380859375,0.41819999999999996
-2.33587786259542,58.99236641221374,-2.1374045801526718,-0.24072265625,-0.045166015625,-0.515869140625,0.4199
-2.183206106870229,59.770992366412216,-2.1526717557251906,-0.241455078125,-0.044921875,-0.509765625,0.4216
-2.3969465648854964,60.33587786259542,-1.9541984732824427,-0.239501953125,-0.044921875,-0.51904296875,0.42329999999999995
-2.33587786259542,61.267175572519086,-1.9694656488549618,-0.238037109375,-0.04150390625,-0.51708984375,0.425
-2.1526717557251906,62.13740458015267,-1.8473282442748091,-0.23681640625,-0.0361328125,-0.52587890625,0.42669999999999997
-1.8931297709923665,62.42748091603053,-1.9694656488549618,-0.227783203125,-0.037841796875,-0.512939453125,0.4284
-2.0610687022900764,63.02290076335878,-1.7251908396946565,-0.227783203125,-0.042236328125,-0.52685546875,0.4301
-2.1068702290076335,63.80152671755725,-1.618320610687023,-0.227294921875,-0.039794921875,-0.5244140625,0.43179999999999996
-1.8778625954198473,64.30534351145039,-1.7709923664122138,-0.221435546875,-0.03515625,-0.522216796875,0.4335
-1.5419847328244274,64.82442748091603,-1.83206106870229,-0.2177734375,-0.0341796875,-0.522216796875,0.4352
-1.5419847328244274,65.41984732824427,-1.6793893129770991,-0.21923828125,-0.03662109375,-0.52197265625,0.43689999999999996
-1.465648854961832,66.12213740458016,-1.83206106870229,-0.217041015625,-0.031494140625,-0.52734375,0.4386
-1.3435114503816794,66.59541984732824,-1.6793893129770991,-0.208251953125,-0.0390625,-0.5126953125,0.44029999999999997
-1.3740458015267176,66.82442748091603,-1.9236641221374047,-0.208984375,-0.038330078125,-0.5224609375,0.44199999999999995
-0.7786259541984732,67.20610687022901,-1.83206106870229,-0.211669921875,-0.037109375,-0.52783203125,0.4437
-1.0229007633587786,67.52671755725191,-2.0,-0.198974609375,-0.03515625,-0.520263671875,0.44539999999999996
-0.7480916030534351,67.69465648854961,-1.8625954198473282,-0.1953125,-0.038330078125,-0.5185546875,0.4471
-0.6870229007633588,67.72519083969466,-2.0763358778625953,-0.193359375,-0.03564453125,-0.525146484375,0.4488
-0.6564885496183206,67.86259541984732,-2.0,-0.194580078125,-0.036865234375,-0.52294921875,0.45049999999999996
-0.42748091603053434,67.66412213740458,-2.0763358778625953,-0.192626953125,-0.0341796875,-0.52685546875,0.4522
-0.5801526717557252,67.8473282442748,-2.030534351145038,-0.19140625,-0.03564453125,-0.530029296875,0.45389999999999997
-0.2900763358778626,67.8473282442748,-2.0610687022900764,-0.188720703125,-0.037109375,-0.523193359375,0.45559999999999995
-0.3053435114503817,67.87786259541984,-1.984732824427481,-0.1845703125,-0.04052734375,-0.531005859375,0.4573
-0.1984732824427481,68.12213740458016,-1.9083969465648856,-0.17919921875,-0.03173828125,-0.528076171875,0.45899999999999996
0.04580152671755725,67.8473282442748,-2.030534351145038,-0.177001953125,-0.0361328125,-0.53271484375,0.4607
0.0,67.61832061068702,-1.8625954198473282,-0.175537109375,-0.036376953125,-0.52685546875,0.4624
-0.061068702290076333,67.49618320610686,-1.984732824427481,-0.173583984375,-0.0380859375,-0.530517578125,0.46409999999999996
0.04580152671755725,67.55725190839695,-1.786259541984733,-0.177734375,-0.03955078125,-0.539794921875,0.4658
0.3053435114503817,67.08396946564885,-1.816793893129771,-0.17578125,-0.037109375,-0.535400390625,0.46749999999999997
0.1984732824427481,67.16030534351145,-1.7709923664122138,-0.17333984375,-0.034423828125,-0.528564453125,0.46919999999999995
0.1984732824427481,66.94656488549619,-1.8473282442748091,-0.171875,-0.0390625,-0.524169921875,0.4709
0.2900763358778626,66.91603053435115,-1.7099236641221374,-0.166259765625,-0.037109375,-0.533203125,0.47259999999999996
0.10687022900763359,66.70229007633588,-1.7099236641221374,-0.169189453125,-0.04150390625,-0.53125,0.4743
0.5038167938931297,66.58015267175573,-1.786259541984733,-0.1650390625,-0.038330078125,-0.530029296875,0.476
0.3511450381679389,66.38167938931298,-1.8473282442748091,-0.169677734375,-0.03662109375,-0.52978515625,0.47769999999999996
0.22900763358778625,66.30534351145039,-1.7099236641221374,-0.16943359375,-0.040283203125,-0.5341796875,0.4794
0.5038167938931297,66.44274809160305,-1.786259541984733,-0.1669921875,-0.041748046875,-0.52880859375,0.48109999999999997
0.4732824427480916,66.07633587786259,-1.633587786259542,-0.1640625,-0.0361328125,-0.53369140625,0.48279999999999995
0.366412213740458,65.96946564885496,-1.8778625954198473,-0.16455078125,-0.0380859375,-0.530517578125,0.4845
0.44274809160305345,65.7557251908397,-1.8931297709923665,-0.166015625,-0.03369140625,-0.534423828125,0.48619999999999997
0.3969465648854962,65.66412213740458,-2.0916030534351147,-0.1650390625,-0.034912109375,-0.534912109375,0.4879
0.6870229007633588,65.45038167938931,-1.8015267175572518,-0.162353515625,-0.0380859375,-0.538330078125,0.4896
0.7938931297709924,65.19083969465649,-2.045801526717557,-0.158935546875,-0.037109375,-0.531494140625,0.49129999999999996
0.48854961832061067,65.23664122137404,-2.2595419847328246,-0.159912109375,-0.04150390625,-0.540771484375,0.493
0.5648854961832062,65.16030534351145,-2.4580152671755724,-0.15478515625,-0.039794921875,-0.536865234375,0.4947
0.7938931297709924,64.77862595419847,-2.2748091603053435,-0.16162109375,-0.0400390625,-0.53564453125,0.49639999999999995
0.7480916030534351,64.77862595419847,-2.4885496183206106,-0.1650390625,-0.03466796875,-0.5419921875,0.4981
0.549618320610687,64.54961832061069,-2.6106870229007635,-0.159423828125,-0.04052734375,-0.543701171875,0.49979999999999997
0.9007633587786259,64.38167938931298,-2.6106870229007635,-0.15625,-0.0439453125,-0.532470703125,0.5015
1.0534351145038168,64.33587786259542,-2.6412213740458017,-0.159912109375,-0.038818359375,-0.545654296875,0.5032
0.7022900763358778,63.98473282442748,-2.7938931297709924,-0.15576171875,-0.039306640625,-0.548828125,0.5049
0.7938931297709924,64.01526717557252,-2.6717557251908395,-0.158447265625,-0.04248046875,-0.54541015625,0.5065999999999999
0.9007633587786259,64.07633587786259,-3.236641221374046,-0.151123046875,-0.0439453125,-0.54736328125,0.5083
0.8396946564885496,64.18320610687023,-3.1297709923664123,-0.1513671875,-0.040771484375,-0.544677734375,0.51
0.7175572519083969,64.16793893129771,-3.2519083969465647,-0.15673828125,-0.04296875,-0.541259765625,0.5116999999999999
0.732824427480916,64.1526717557252,-3.236641221374046,-0.154052734375,-0.046142578125,-0.5439453125,0.5134
0.8702290076335878,64.22900763358778,-3.435114503816794,-0.154296875,-0.04638671875,-0.54736328125,0.5151
0.6870229007633588,64.1526717557252,-3.2213740458015265,-0.15576171875,-0.046142578125,-0.55322265625,0.5167999999999999
0.6564885496183206,63.969465648854964,-3.3587786259541983,-0.150634765625,-0.04833984375,-0.5380859375,0.5185
0.48854961832061067,64.0,-3.5419847328244276,-0.1552734375,-0.054443359375,-0.550048828125,0.5202
0.5343511450381679,64.22900763358778,-3.3893129770992365,-0.151123046875,-0.04736328125,-0.546630859375,0.5218999999999999
0.5343511450381679,64.35114503816794,-3.3740458015267176,-0.150390625,-0.048095703125,-0.5517578125,0.5236
0.44274809160305345,64.04580152671755,-3.6030534351145036,-0.14794921875,-0.051513671875,-0.548583984375,0.5253
0.2900763358778626,64.3969465648855,-3.5267175572519083,-0.146728515625,-0.044921875,-0.542724609375,0.527
0.10687022900763359,64.3206106870229,-3.7251908396946565,-0.143798828125,-0.048095703125,-0.546142578125,0.5287
0.22900763358778625,64.38167938931298,-3.633587786259542,-0.140625,-0.047119140625,-0.5517578125,0.5304
0.13740458015267176,64.3206106870229,-3.5267175572519083,-0.13623046875,-0.046875,-0.554443359375,0.5321
-0.015267175572519083,64.21374045801527,-3.83206106870229,-0.136962890625,-0.049560546875,-0.5537109375,0.5337999999999999
0.07633587786259542,64.27480916030534,-3.877862595419847,-0.13525390625,-0.05224609375,-0.55126953125,0.5355
0.015267175572519083,63.9236641221374,-3.7709923664122136,-0.13818359375,-0.05126953125,-0.54833984375,0.5372
-0.015267175572519083,64.06106870229007,-4.0,-0.139404296875,-0.046142578125,-0.557861328125,0.5388999999999999
-0.33587786259541985,64.03053435114504,-4.030534351145038,-0.132080078125,-0.049072265625,-0.555419921875,0.5406
-0.4580152671755725,64.01526717557252,-4.152671755725191,-0.135986328125,-0.05029296875,-0.558349609375,0.5423
-0.44274809160305345,63.9236641221374,-4.091603053435114,-0.134033203125,-0.051513671875,-0.56396484375,0.5439999999999999
-0.366412213740458,63.83206106870229,-4.3816793893129775,-0.133544921875,-0.052734375,-0.551513671875,0.5457
-0.48854961832061067,63.725190839694655,-4.152671755725191,-0.130615234375,-0.052734375,-0.55419921875,0.5474
-0.42748091603053434,63.7557251908397,-4.458015267175573,-0.127685546875,-0.052978515625,-0.559326171875,0.5490999999999999
-0.7786259541984732,63.52671755725191,-4.412213740458015,-0.12548828125,-0.050537109375,-0.54638671875,0.5508
-0.7786259541984732,63.404580152671755,-4.6106870229007635,-0.126953125,-0.05126953125,-0.55029296875,0.5525
-0.5190839694656488,63.404580152671755,-4.732824427480916,-0.125,-0.052001953125,-0.56005859375,0.5541999999999999
-0.8702290076335878,63.49618320610687,-4.793893129770993,-0.127197265625,-0.052001953125,-0.560791015625,0.5559
-0.9465648854961832,63.083969465648856,-4.641221374045801,-0.125,-0.047607421875,-0.554443359375,0.5576
-0.916030534351145,63.05343511450382,-4.564885496183206,-0.1220703125,-0.052978515625,-0.554931640625,0.5593
-1.2213740458015268,63.12977099236641,-4.534351145038168,-0.12158203125,-0.050048828125,-0.56201171875,0.5609999999999999
-1.083969465648855,63.00763358778626,-4.702290076335878,-0.117431640625,-0.055419921875,-0.556396484375,0.5627
-1.251908396946565,62.76335877862596,-4.595419847328245,-0.1201171875,-0.05224609375,-0.55322265625,0.5644
-1.2366412213740459,62.88549618320611,-4.595419847328245,-0.115234375,-0.057373046875,-0.548095703125,0.5660999999999999
-1.4961832061068703,62.595419847328245,-4.488549618320611,-0.11083984375,-0.052001953125,-0.55322265625,0.5678
-1.83206106870229,62.47328244274809,-4.625954198473282,-0.115234375,-0.05810546875,-0.560791015625,0.5695
-1.83206106870229,62.51908396946565,-4.2748091603053435,-0.115966796875,-0.0556640625,-0.55859375,0.5711999999999999
-1.8625954198473282,62.13740458015267,-4.458015267175573,-0.114990234375,-0.053466796875,-0.551025390625,0.5729
-1.8625954198473282,62.18320610687023,-4.305343511450381,-0.111083984375,-0.051513671875,-0.556640625,0.5746
-1.9236641221374047,62.152671755725194,-4.473282442748092,-0.105712890625,-0.04931640625,-0.563232421875,0.5762999999999999
-2.33587786259542,62.16793893129771,-4.488549618320611,-0.11181640625,-0.05419921875,-0.557373046875,0.578
-2.50381679389313,61.770992366412216,-4.458015267175573,-0.110107421875,-0.047119140625,-0.550537109375,0.5797
-2.198473282442748,61.37404580152672,-4.305343511450381,-0.107177734375,-0.04736328125,-0.555908203125,0.5813999999999999
-2.33587786259542,61.20610687022901,-4.473282442748092,-0.11083984375,-0.0546875,-0.564697265625,0.5831
-2.6412213740458017,61.343511450381676,-4.412213740458015,-0.110595703125,-0.05126953125,-0.562744140625,0.5848
-2.900763358778626,61.06870229007634,-4.442748091603053,-0.102783203125,-0.052490234375,-0.5576171875,0.5865
-2.6412213740458017,60.88549618320611,-4.519083969465649,-0.107666015625,-0.04931640625,-0.55224609375,0.5882
-2.8091603053435112,60.900763358778626,-4.549618320610687,-0.109130859375,-0.04541015625,-0.564453125,0.5899
-3.2061068702290076,60.56488549618321,-4.427480916030534,-0.104248046875,-0.053466796875,-0.5615234375,0.5916
-3.0839694656488548,60.35114503816794,-4.213740458015267,-0.10498046875,-0.051513671875,-0.56298828125,0.5932999999999999
-3.312977099236641,60.47328244274809,-4.259541984732825,-0.104248046875,-0.0556640625,-0.563232421875,0.595
-2.8702290076335877,60.30534351145038,-4.473282442748092,-0.102783203125,-0.050048828125,-0.556396484375,0.5967
-3.312977099236641,60.38167938931298,-4.320610687022901,-0.09814453125,-0.047607421875,-0.560546875,0.5983999999999999
-3.267175572519084,60.045801526717554,-4.061068702290076,-0.1025390625,-0.0498046875,-0.566162109375,0.6001
-3.0839694656488548,59.770992366412216,-4.290076335877862,-0.101318359375,-0.048583984375,-0.565185546875,0.6018
-3.282442748091603,59.847328244274806,-4.091603053435114,-0.101806640625,-0.0478515625,-0.561767578125,0.6034999999999999
-3.2977099236641223,59.969465648854964,-4.106870229007634,-0.100341796875,-0.0458984375,-0.55908203125,0.6052
-3.3587786259541983,59.74045801526717,-4.2748091603053435,-0.1025390625,-0.043701171875,-0.574951171875,0.6069
-3.3893129770992365,59.61832061068702,-4.015267175572519,-0.099365234375,-0.052001953125,-0.55859375,0.6085999999999999
-3.618320610687023,59.87786259541985,-4.1679389312977095,-0.09912109375,-0.048095703125,-0.568603515625,0.6103
-3.49618320610687,59.587786259541986,-4.229007633587786,-0.09912109375,-0.049560546875,-0.55859375,0.612
-3.5114503816793894,59.45038167938932,-4.091603053435114,-0.09814453125,-0.045654296875,-0.57080078125,0.6136999999999999
-3.618320610687023,59.43511450381679,-4.213740458015267,-0.103515625,-0.04638671875,-0.57177734375,0.6154
-3.7557251908396947,59.267175572519086,-4.213740458015267,-0.0947265625,-0.044189453125,-0.57470703125,0.6171
-3.6946564885496183,59.20610687022901,-4.244274809160306,-0.08984375,-0.039794921875,-0.571044921875,0.6188
-3.8931297709923665,59.465648854961835,-4.488549618320611,-0.09423828125,-0.049560546875,-0.571044921875,0.6204999999999999
-4.1679389312977095,59.29770992366412,-4.564885496183206,-0.0966796875,-0.047607421875,-0.56884765625,0.6222
-3.7099236641221376,59.11450381679389,-4.534351145038168,-0.093017578125,-0.045654296875,-0.567138671875,0.6239
-3.83206106870229,59.17557251908397,-4.6106870229007635,-0.093505859375,-0.044921875,-0.561767578125,0.6255999999999999
-3.9236641221374047,59.06870229007634,-4.5038167938931295,-0.099609375,-0.045166015625,-0.564208984375,0.6273
-3.83206106870229,59.16030534351145,-4.519083969465649,-0.094482421875,-0.044189453125,-0.57177734375,0.629
-3.7709923664122136,59.14503816793893,-4.488549618320611,-0.09716796875,-0.045166015625,-0.564453125,0.6306999999999999
-3.8931297709923665,58.88549618320611,-4.458015267175573,-0.09423828125,-0.0439453125,-0.5703125,0.6324
-3.83206106870229,59.12977099236641,-4.320610687022901,-0.089599609375,-0.041748046875,-0.576171875,0.6341
-3.954198473282443,59.267175572519086,-4.5038167938931295,-0.09130859375,-0.04443359375,-0.57861328125,0.6357999999999999
-3.877862595419847,59.282442748091604,-4.458015267175573,-0.093994140625,-0.044189453125,-0.572998046875,0.6375
-3.7404580152671754,59.55725190839695,-4.412213740458015,-0.09375,-0.0400390625,-0.561767578125,0.6392
-3.9236641221374047,59.61832061068702,-4.320610687022901,-0.090087890625,-0.03955078125,-0.577880859375,0.6408999999999999
-3.5267175572519083,59.770992366412216,-4.3816793893129775,-0.09375,-0.04296875,-0.57568359375,0.6426
-3.618320610687023,59.87786259541985,-4.137404580152672,-0.08984375,-0.04638671875,-0.5673828125,0.6443
-3.7709923664122136,60.10687022900763,-4.3816793893129775,-0.09326171875,-0.043212890625,-0.573974609375,0.646
-3.801526717557252,60.42748091603053,-4.458015267175573,-0.093994140625,-0.0419921875,-0.57470703125,0.6476999999999999
-3.8931297709923665,60.717557251908396,-4.320610687022901,-0.092041015625,-0.03955078125,-0.5830078125,0.6494
-3.8473282442748094,60.87022900763359,-4.427480916030534,-0.087646484375,-0.037841796875,-0.583251953125,0.6511
-3.618320610687023,60.97709923664122,-4.6106870229007635,-0.087646484375,-0.037353515625,-0.57763671875,0.6527999999999999
-3.7099236641221376,61.00763358778626,-4.458015267175573,-0.086181640625,-0.04052734375,-0.577880859375,0.6545
-3.5114503816793894,61.404580152671755,-4.732824427480916,-0.091796875,-0.041259765625,-0.5771484375,0.6562
-3.6946564885496183,61.37404580152672,-4.564885496183206,-0.085693359375,-0.03955078125,-0.586669921875,0.6578999999999999
-3.801526717557252,61.51145038167939,-4.656488549618321,-0.08056640625,-0.03662109375,-0.581298828125,0.6596
-3.633587786259542,61.61832061068702,-4.67175572519084,-0.08447265625,-0.0390625,-0.574462890625,0.6613
-3.5114503816793894,61.74045801526717,-4.732824427480916,-0.082275390625,-0.037109375,-0.56787109375,0.6629999999999999
-3.5572519083969465,61.847328244274806,-4.778625954198473,-0.076416015625,-0.043212890625,-0.56787109375,0.6647
-3.3740458015267176,62.0763358778626,-4.824427480916031,-0.076416015625,-0.03857421875,-0.5771484375,0.6664
-3.5877862595419847,62.045801526717554,-4.6106870229007635,-0.07568359375,-0.03662109375,-0.585205078125,0.6680999999999999
-3.49618320610687,62.229007633587784,-4.625954198473282,-0.065673828125,-0.0390625,-0.580810546875,0.6698
-3.5267175572519083,62.2442748091603,-4.687022900763359,-0.071044921875,-0.02978515625,-0.582275390625,0.6715
-3.2519083969465647,61.969465648854964,-4.732824427480916,-0.06787109375,-0.03466796875,-0.58447265625,0.6731999999999999
-3.3435114503816794,61.786259541984734,-4.702290076335878,-0.066650390625,-0.037353515625,-0.5869140625,0.6748999999999999
-3.2519083969465647,61.954198473282446,-4.702290076335878,-0.06298828125,-0.031005859375,-0.58544921875,0.6766
-3.0381679389312977,61.69465648854962,-4.412213740458015,-0.06201171875,-0.031982421875,-0.58447265625,0.6783
-3.114503816793893,61.43511450381679,-4.33587786259542,-0.06005859375,-0.029541015625,-0.5859375,0.6799999999999999
-3.0381679389312977,61.29770992366412,-4.290076335877862,-0.0556640625,-0.03173828125,-0.5869140625,0.6817
-3.1297709923664123,61.17557251908397,-4.2748091603053435,-0.05322265625,-0.032958984375,-0.59033203125,0.6834
-2.900763358778626,61.02290076335878,-4.152671755725191,-0.05029296875,-0.036376953125,-0.579833984375,0.6850999999999999
-3.0381679389312977,60.35114503816794,-4.183206106870229,-0.0517578125,-0.03271484375,-0.58203125,0.6868
-2.885496183206107,60.38167938931298,-4.122137404580153,-0.05224609375,-0.033447265625,-0.582275390625,0.6885
-2.9770992366412212,60.152671755725194,-4.351145038167939,-0.04931640625,-0.03662109375,-0.5927734375,0.6901999999999999
-2.7480916030534353,59.70992366412214,-4.183206106870229,-0.05078125,-0.03076171875,-0.59228515625,0.6919
-2.9160305343511452,59.725190839694655,-4.152671755725191,-0.052978515625,-0.03662109375,-0.59033203125,0.6936
-3.0381679389312977,59.48091603053435,-4.122137404580153,-0.044189453125,-0.027587890625,-0.58740234375,0.6952999999999999
-2.6564885496183206,58.97709923664122,-4.290076335877862,-0.044189453125,-0.03125,-0.582275390625,0.697
-2.549618320610687,59.02290076335878,-4.0458015267175576,-0.041748046875,-0.033935546875,-0.588623046875,0.6987
-2.3969465648854964,58.6412213740458,-4.198473282442748,-0.043212890625,-0.033447265625,-0.581298828125,0.7003999999999999
-2.3969465648854964,58.61068702290076,-3.954198473282443,-0.041748046875,-0.029052734375,-0.584716796875,0.7021
-2.1374045801526718,58.595419847328245,-4.137404580152672,-0.0458984375,-0.029296875,-0.58251953125,0.7038
-2.0763358778625953,58.48854961832061,-3.9083969465648853,-0.03955078125,-0.02734375,-0.5849609375,0.7055
-1.9541984732824427,58.25954198473283,-3.954198473282443,-0.0419921875,-0.027099609375,-0.586669921875,0.7071999999999999
-2.0610687022900764,58.030534351145036,-3.7404580152671754,-0.03955078125,-0.02978515625,-0.588134765625,0.7089
-1.7557251908396947,58.18320610687023,-3.8625954198473282,-0.03564453125,-0.029052734375,-0.583251953125,0.7106
-1.5877862595419847,57.93893129770992,-3.8931297709923665,-0.031982421875,-0.026123046875,-0.580322265625,0.7122999999999999
-1.5419847328244274,57.7557251908397,-3.969465648854962,-0.0322265625,-0.0244140625,-0.588623046875,0.714
-1.5725190839694656,57.63358778625954,-3.786259541984733,-0.0302734375,-0.02490234375,-0.58837890625,0.7157
-1.5877862595419847,57.786259541984734,-3.83206106870229,-0.028076171875,-0.02392578125,-0.587158203125,0.7173999999999999
-1.251908396946565,57.38931297709924,-3.969465648854962,-0.0283203125,-0.029052734375,-0.59130859375,0.7191
-0.9312977099236641,57.11450381679389,-4.0458015267175576,-0.03125,-0.0263671875,-0.598388671875,0.7208
-1.1603053435114503,57.12977099236641,-4.122137404580153,-0.021728515625,-0.025634765625,-0.596923828125,0.7224999999999999
-1.1755725190839694,56.82442748091603,-4.030534351145038,-0.0224609375,-0.027099609375,-0.594482421875,0.7242
-0.6717557251908397,56.595419847328245,-3.9389312977099236,-0.023193359375,-0.02880859375,-0.59521484375,0.7259
-0.44274809160305345,56.29007633587786,-4.183206106870229,-0.0224609375,-0.0283203125,-0.597412109375,0.7275999999999999
-0.5343511450381679,55.98473282442748,-4.244274809160306,-0.02197265625,-0.029541015625,-0.6005859375,0.7293
-0.4122137404580153,55.66412213740458,-4.244274809160306,-0.01708984375,-0.028076171875,-0.60498046875,0.731
-0.04580152671755725,55.52671755725191,-4.351145038167939,-0.007568359375,-0.0302734375,-0.59716796875,0.7326999999999999
0.10687022900763359,55.02290076335878,-4.534351145038168,-0.013671875,-0.028564453125,-0.59912109375,0.7343999999999999
0.12213740458015267,54.47328244274809,-4.6106870229007635,-0.009033203125,-0.025634765625,-0.595947265625,0.7361
0.48854961832061067,54.396946564885496,-4.656488549618321,-0.009521484375,-0.024658203125,-0.59619140625,0.7378
0.6412213740458015,53.81679389312977,-4.625954198473282,-0.00244140625,-0.029541015625,-0.6025390625,0.7394999999999999
0.6259541984732825,53.05343511450382,-4.549618320610687,-0.004638671875,-0.028564453125,-0.603271484375,0.7412
0.8854961832061069,52.6412213740458,-4.641221374045801,0.00390625,-0.02880859375,-0.599853515625,0.7429
1.1755725190839694,52.42748091603053,-4.809160305343512,0.000732421875,-0.034423828125,-0.603759765625,0.7445999999999999
1.0229007633587786,51.786259541984734,-4.961832061068702,0.00048828125,-0.0302734375,-0.60546875,0.7463
1.0381679389312977,51.25190839694657,-5.190839694656488,-0.000732421875,-0.031982421875,-0.60302734375,0.748
1.282442748091603,50.70229007633588,-5.00763358778626,0.0,-0.036376953125,-0.5986328125,0.7496999999999999
1.297709923664122,50.35114503816794,-5.099236641221374,0.004150390625,-0.03662109375,-0.599365234375,0.7514
1.5572519083969465,49.954198473282446,-5.129770992366412,0.003662109375,-0.03173828125,-0.600341796875,0.7531
1.7404580152671756,49.61832061068702,-5.221374045801527,0.000732421875,-0.033203125,-0.602783203125,0.7547999999999999
1.9694656488549618,49.19083969465649,-5.297709923664122,0.004638671875,-0.034912109375,-0.608642578125,0.7565
1.7099236641221374,48.85496183206107,-5.6183206106870225,0.00830078125,-0.037109375,-0.60791015625,0.7582
2.0916030534351147,48.25954198473283,-5.572519083969466,0.007568359375,-0.03955078125,-0.60693359375,0.7598999999999999
2.1374045801526718,47.9236641221374,-5.572519083969466,0.00927734375,-0.033203125,-0.6123046875,0.7615999999999999
2.0916030534351147,47.6793893129771,-5.7251908396946565,0.01123046875,-0.03515625,-0.614501953125,0.7633
1.984732824427481,47.3587786259542,-5.694656488549619,0.008544921875,-0.032470703125,-0.603759765625,0.7649999999999999
2.0,47.19083969465649,-5.541984732824427,0.0068359375,-0.039794921875,-0.606689453125,0.7666999999999999
1.9541984732824427,46.85496183206107,-5.4961832061068705,0.005859375,-0.0361328125,-0.61279296875,0.7684
1.9541984732824427,46.44274809160305,-5.648854961832061,0.012451171875,-0.0439453125,-0.60791015625,0.7701
1.7251908396946565,46.38167938931298,-5.4961832061068705,0.012451171875,-0.043701171875,-0.61376953125,0.7717999999999999
1.4045801526717556,46.045801526717554,-5.572519083969466,0.0078125,-0.0380859375,-0.61279296875,0.7735
1.6488549618320612,45.9236641221374,-5.511450381679389,0.009521484375,-0.04443359375,-0.61328125,0.7752
1.6488549618320612,45.3587786259542,-5.526717557251908,0.014892578125,-0.046142578125,-0.608154296875,0.7768999999999999
1.618320610687023,44.97709923664122,-5.557251908396947,0.01220703125,-0.053955078125,-0.611328125,0.7786
1.2061068702290076,44.68702290076336,-5.190839694656488,0.013671875,-0.043701171875,-0.607421875,0.7803
1.1450381679389312,44.51908396946565,-5.068702290076335,0.020263671875,-0.04052734375,-0.616943359375,0.7819999999999999
1.0076335877862594,44.2442748091603,-4.870229007633588,0.018310546875,-0.04052734375,-0.620849609375,0.7837
1.0076335877862594,43.770992366412216,-4.99236641221374,0.019287109375,-0.043701171875,-0.613525390625,0.7854
0.8396946564885496,43.45038167938932,-4.977099236641221,0.018310546875,-0.03857421875,-0.612548828125,0.7870999999999999
0.7175572519083969,43.282442748091604,-4.885496183206107,0.02294921875,-0.0400390625,-0.61962890625,0.7888
0.6412213740458015,42.79389312977099,-4.748091603053435,0.027099609375,-0.041748046875,-0.614013671875,0.7905
0.3511450381679389,42.213740458015266,-4.595419847328245,0.024658203125,-0.042724609375,-0.606689453125,0.7921999999999999
0.5343511450381679,41.64885496183206,-4.656488549618321,0.02392578125,-0.037841796875,-0.61181640625,0.7938999999999999
0.32061068702290074,41.083969465648856,-4.488549618320611,0.026123046875,-0.04345703125,-0.606201171875,0.7956
-0.061068702290076333,40.80916030534351,-4.412213740458015,0.031494140625,-0.045654296875,-0.615234375,0.7973
-0.04580152671755725,40.50381679389313,-4.396946564885496,0.028564453125,-0.044189453125,-0.612060546875,0.7989999999999999
0.24427480916030533,39.908396946564885,-4.473282442748092,0.0302734375,-0.042236328125,-0.6171875,0.8007
-0.07633587786259542,39.38931297709924,-4.320610687022901,0.02734375,-0.041748046875,-0.61767578125,0.8024
0.15267175572519084,39.16030534351145,-4.213740458015267,0.026123046875,-0.036865234375,-0.6103515625,0.8040999999999999
0.24427480916030533,38.778625954198475,-4.122137404580153,0.025634765625,-0.0390625,-0.610107421875,0.8058
0.366412213740458,38.3206106870229,-4.137404580152672,0.03125,-0.0390625,-0.60791015625,0.8075
0.2900763358778626,37.93893129770992,-3.969465648854962,0.029541015625,-0.03759765625,-0.6005859375,0.8091999999999999
0.6564885496183206,37.725190839694655,-3.83206106870229,0.0263671875,-0.037109375,-0.6015625,0.8109
0.8396946564885496,37.19083969465649,-3.8931297709923665,0.0302734375,-0.034912109375,-0.61474609375,0.8126
1.0229007633587786,36.94656488549618,-3.9389312977099236,0.0302734375,-0.03857421875,-0.6103515625,0.8142999999999999
1.251908396946565,36.458015267175576,-3.7557251908396947,0.027099609375,-0.037353515625,-0.607421875,0.816
1.4198473282442747,36.25954198473283,-3.5572519083969465,0.0283203125,-0.042724609375,-0.608642578125,0.8177
1.4809160305343512,36.16793893129771,-3.633587786259542,0.026123046875,-0.044921875,-0.60986328125,0.8193999999999999
1.4809160305343512,35.908396946564885,-3.4198473282442747,0.025634765625,-0.03955078125,-0.6103515625,0.8210999999999999
1.6488549618320612,35.847328244274806,-3.5572519083969465,0.024658203125,-0.046875,-0.61328125,0.8228
1.9083969465648856,35.43511450381679,-3.2977099236641223,0.02587890625,-0.0498046875,-0.60693359375,0.8244999999999999
1.8015267175572518,35.343511450381676,-3.3282442748091605,0.026123046875,-0.051513671875,-0.603271484375,0.8261999999999999
1.9389312977099236,35.267175572519086,-3.236641221374046,0.026123046875,-0.0439453125,-0.603759765625,0.8279
1.9236641221374047,35.02290076335878,-3.1908396946564888,0.026123046875,-0.044677734375,-0.599853515625,0.8296
1.9694656488549618,34.76335877862596,-2.9770992366412212,0.02392578125,-0.050537109375,-0.609375,0.8312999999999999
1.984732824427481,34.67175572519084,-2.7938931297709924,0.0234375,-0.04931640625,-0.6015625,0.833
1.6641221374045803,34.16793893129771,-2.687022900763359,0.029052734375,-0.048583984375,-0.606689453125,0.8347
1.8015267175572518,34.16793893129771,-2.549618320610687,0.027587890625,-0.045166015625,-0.606201171875,0.8363999999999999
1.633587786259542,33.908396946564885,-2.213740458015267,0.028076171875,-0.045654296875,-0.60107421875,0.8381
1.3435114503816794,33.3587786259542,-2.0,0.030029296875,-0.04931640625,-0.60107421875,0.8398
0.9618320610687023,33.17557251908397,-2.1374045801526718,0.029052734375,-0.052978515625,-0.601806640625,0.8414999999999999
1.1755725190839694,32.656488549618324,-1.7099236641221374,0.03369140625,-0.04638671875,-0.60498046875,0.8432
1.1603053435114503,32.0763358778626,-1.6641221374045803,0.031494140625,-0.048828125,-0.605224609375,0.8449
0.8396946564885496,31.81679389312977,-1.3435114503816794,0.03564453125,-0.04443359375,-0.603759765625,0.8465999999999999
0.3816793893129771,31.51145038167939,-1.2671755725190839,0.033203125,-0.044189453125,-0.60400390625,0.8482999999999999
0.4580152671755725,30.885496183206108,-0.9465648854961832,0.0341796875,-0.0478515625,-0.601318359375,0.85
0.5190839694656488,30.442748091603054,-0.7938931297709924,0.037353515625,-0.050048828125,-0.60107421875,0.8516999999999999
0.2595419847328244,29.938931297709924,-0.2748091603053435,0.041015625,-0.04541015625,-0.61083984375,0.8533999999999999
0.015267175572519083,29.389312977099237,-0.030534351145038167,0.04296875,-0.044189453125,-0.60498046875,0.8551
-0.13740458015267176,28.732824427480917,0.24427480916030533,0.039794921875,-0.047119140625,-0.603271484375,0.8568
-0.183206106870229,28.076335877862597,0.549618320610687,0.035400390625,-0.046875,-0.609619140625,0.8584999999999999
-0.32061068702290074,27.404580152671755,0.9923664122137404,0.03955078125,-0.04248046875,-0.603271484375,0.8602
-0.2748091603053435,27.053435114503817,1.1145038167938932,0.0419921875,-0.043212890625,-0.5986328125,0.8619
-0.12213740458015267,26.442748091603054,1.297709923664122,0.041015625,-0.04052734375,-0.605224609375,0.8635999999999999
-0.2900763358778626,25.81679389312977,1.7404580152671756,0.042236328125,-0.039306640625,-0.606201171875,0.8653
-0.21374045801526717,25.480916030534353,2.1374045801526718,0.044677734375,-0.041748046875,-0.602294921875,0.867
-0.04580152671755725,24.870229007633586,2.3053435114503817,0.04150390625,-0.033935546875,-0.602294921875,0.8686999999999999
0.33587786259541985,24.27480916030534,2.5801526717557253,0.046142578125,-0.03369140625,-0.60009765625,0.8704
0.0,23.84732824427481,2.7786259541984735,0.045166015625,-0.03759765625,-0.603759765625,0.8721
0.15267175572519084,23.236641221374047,3.0381679389312977,0.041748046875,-0.03759765625,-0.6005859375,0.8737999999999999
0.3511450381679389,22.793893129770993,3.068702290076336,0.0458984375,-0.02490234375,-0.60986328125,0.8755
0.42748091603053434,22.412213740458014,3.282442748091603,0.04638671875,-0.02783203125,-0.60498046875,0.8772
0.5801526717557252,21.938931297709924,3.1908396946564888,0.0419921875,-0.035888671875,-0.603271484375,0.8788999999999999
0.732824427480916,21.557251908396946,3.282442748091603,0.040283203125,-0.02783203125,-0.607177734375,0.8805999999999999
0.5648854961832062,21.17557251908397,3.145038167938931,0.046875,-0.03076171875,-0.607666015625,0.8823
0.6259541984732825,20.717557251908396,3.1755725190839694,0.041748046875,-0.0302734375,-0.6064453125,0.8839999999999999
1.0687022900763359,20.290076335877863,2.9618320610687023,0.03759765625,-0.02685546875,-0.615966796875,0.8856999999999999
1.0381679389312977,20.061068702290076,3.0229007633587788,0.04150390625,-0.033203125,-0.61328125,0.8874
1.2213740458015268,19.64885496183206,2.595419847328244,0.04052734375,-0.033203125,-0.610595703125,0.8891
1.4198473282442747,19.404580152671755,2.900763358778626,0.034912109375,-0.033447265625,-0.609375,0.8907999999999999
1.1603053435114503,19.16030534351145,2.687022900763359,0.0380859375,-0.03515625,-0.612548828125,0.8925
1.4961832061068703,18.732824427480917,2.4580152671755724,0.039306640625,-0.029052734375,-0.610595703125,0.8942
1.3435114503816794,18.870229007633586,2.1526717557251906,0.0341796875,-0.031005859375,-0.609619140625,0.8958999999999999
1.5114503816793894,18.717557251908396,2.183206106870229,0.036376953125,-0.03125,-0.6123046875,0.8976
1.5419847328244274,18.53435114503817,1.8931297709923665,0.033935546875,-0.029541015625,-0.616455078125,0.8993
1.7099236641221374,18.580152671755727,1.5877862595419847,0.02978515625,-0.033203125,-0.615234375,0.9009999999999999
1.9236641221374047,18.748091603053435,1.5419847328244274,0.030517578125,-0.02685546875,-0.61474609375,0.9027
1.5877862595419847,18.85496183206107,1.450381679389313,0.02685546875,-0.028076171875,-0.6123046875,0.9044
1.5572519083969465,18.595419847328245,1.0076335877862594,0.03369140625,-0.031982421875,-0.607177734375,0.9060999999999999
1.5572519083969465,18.641221374045802,0.9923664122137404,0.02783203125,-0.028564453125,-0.60400390625,0.9077999999999999
1.9236641221374047,18.85496183206107,0.7633587786259542,0.032470703125,-0.032470703125,-0.61328125,0.9095
1.8625954198473282,18.946564885496183,0.5038167938931297,0.02880859375,-0.0361328125,-0.612060546875,0.9111999999999999
1.8778625954198473,18.870229007633586,0.3816793893129771,0.030517578125,-0.030517578125,-0.605224609375,0.9128999999999999
2.2595419847328246,19.114503816793892,0.32061068702290074,0.03466796875,-0.029541015625,-0.60595703125,0.9146
2.16793893129771,19.236641221374047,-0.10687022900763359,0.035400390625,-0.026123046875,-0.6064453125,0.9163
2.564885496183206,19.358778625954198,-0.0916030534351145,0.0322265625,-0.0224609375,-0.604248046875,0.9179999999999999
2.4580152671755724,19.17557251908397,-0.4732824427480916,0.038330078125,-0.029541015625,-0.609619140625,0.9197
2.8091603053435112,19.31297709923664,-0.8396946564885496,0.03369140625,-0.0263671875,-0.61376953125,0.9214
3.2213740458015265,19.221374045801525,-1.0381679389312977,0.032470703125,-0.02490234375,-0.61474609375,0.9230999999999999
3.236641221374046,18.900763358778626,-1.083969465648855,0.041015625,-0.02587890625,-0.6181640625,0.9248
3.404580152671756,18.793893129770993,-1.4351145038167938,0.040771484375,-0.025390625,-0.6064453125,0.9265
3.6946564885496183,18.458015267175572,-1.7404580152671756,0.043212890625,-0.023193359375,-0.6123046875,0.9281999999999999
3.83206106870229,18.045801526717558,-2.0,0.046875,-0.026611328125,-0.6083984375,0.9299
4.320610687022901,17.603053435114504,-2.3053435114503817,0.05859375,-0.022705078125,-0.605712890625,0.9316
4.396946564885496,17.114503816793892,-2.564885496183206,0.057373046875,-0.02392578125,-0.606201171875,0.9332999999999999
4.458015267175573,16.35114503816794,-2.6106870229007635,0.06103515625,-0.0302734375,-0.608154296875,0.9349999999999999
4.580152671755725,15.541984732824428,-2.885496183206107,0.05908203125,-0.0283203125,-0.611083984375,0.9367
4.67175572519084,14.931297709923664,-3.312977099236641,0.0576171875,-0.030029296875,-0.6064453125,0.9383999999999999
4.687022900763359,13.877862595419847,-3.7099236641221376,0.06103515625,-0.034423828125,-0.603515625,0.9400999999999999
4.916030534351145,13.083969465648854,-3.8931297709923665,0.063720703125,-0.034912109375,-0.6142578125,0.9418
4.8396946564885495,12.412213740458014,-4.122137404580153,0.068359375,-0.037353515625,-0.609130859375,0.9434999999999999
4.580152671755725,11.450381679389313,-4.229007633587786,0.069091796875,-0.041015625,-0.605224609375,0.9451999999999999
4.5038167938931295,10.16793893129771,-4.732824427480916,0.068359375,-0.041748046875,-0.61279296875,0.9469
4.3816793893129775,9.17557251908397,-4.99236641221374,0.068603515625,-0.047607421875,-0.607177734375,0.9486
4.488549618320611,8.076335877862595,-5.297709923664122,0.064453125,-0.048095703125,-0.610107421875,0.9502999999999999
3.877862595419847,7.221374045801527,-5.343511450381679,0.07177734375,-0.04931640625,-0.616943359375,0.952
3.5267175572519083,6.213740458015267,-5.541984732824427,0.066650390625,-0.046142578125,-0.605224609375,0.9537
3.618320610687023,5.00763358778626,-5.587786259541985,0.06494140625,-0.052734375,-0.609619140625,0.9553999999999999
2.9923664122137406,3.816793893129771,-5.740458015267175,0.064697265625,-0.05126953125,-0.608642578125,0.9571
2.7480916030534353,2.9618320610687023,-5.847328244274809,0.065185546875,-0.052734375,-0.60595703125,0.9588
2.381679389312977,1.618320610687023,-5.908396946564886,0.06005859375,-0.050537109375,-0.609130859375,0.9604999999999999
1.9389312977099236,1.1450381679389312,-6.1679389312977095,0.0595703125,-0.05224609375,-0.609619140625,0.9621999999999999
1.7709923664122138,0.3053435114503817,-6.320610687022901,0.05517578125,-0.056640625,-0.60986328125,0.9639
1.282442748091603,-0.6412213740458015,-6.305343511450381,0.05419921875,-0.050048828125,-0.608154296875,0.9655999999999999
1.0534351145038168,-1.3587786259541985,-6.473282442748092,0.051513671875,-0.05322265625,-0.607177734375,0.9672999999999999
0.9007633587786259,-1.9389312977099236,-6.687022900763359,0.05322265625,-0.052734375,-0.609619140625,0.969
0.33587786259541985,-2.33587786259542,-6.8396946564885495,0.044921875,-0.04736328125,-0.61376953125,0.9706999999999999
-0.061068702290076333,-2.7938931297709924,-6.8396946564885495,0.04248046875,-0.05517578125,-0.609619140625,0.9723999999999999
-0.061068702290076333,-3.0381679389312977,-7.251908396946565,0.043212890625,-0.05078125,-0.605224609375,0.9741
-0.16793893129770993,-3.5267175572519083,-7.404580152671755,0.036865234375,-0.047119140625,-0.60498046875,0.9758
-0.366412213740458,-3.816793893129771,-7.694656488549619,0.0361328125,-0.048828125,-0.609130859375,0.9774999999999999
-0.7022900763358778,-3.9236641221374047,-7.7251908396946565,0.034423828125,-0.047119140625,-0.603271484375,0.9792
-0.9770992366412213,-3.9389312977099236,-7.816793893129771,0.033935546875,-0.047607421875,-0.6015625,0.9809
-1.0076335877862594,-4.213740458015267,-8.076335877862595,0.03125,-0.041259765625,-0.596923828125,0.9825999999999999
-1.1145038167938932,-4.213740458015267,-8.213740458015268,0.025634765625,-0.04296875,-0.60009765625,0.9843
-1.251908396946565,-4.290076335877862,-8.564885496183207,0.025146484375,-0.04248046875,-0.593994140625,0.986
-1.1297709923664123,-4.519083969465649,-8.595419847328245,0.020263671875,-0.041015625,-0.600341796875,0.9876999999999999
-1.2671755725190839,-4.6106870229007635,-8.931297709923664,0.021240234375,-0.0419921875,-0.598876953125,0.9894
-1.5725190839694656,-4.351145038167939,-8.870229007633588,0.021728515625,-0.039306640625,-0.607421875,0.9911
-1.6030534351145038,-4.183206106870229,-9.267175572519085,0.02294921875,-0.034423828125,-0.602783203125,0.9927999999999999
-1.4045801526717556,-4.152671755725191,-9.465648854961833,0.02099609375,-0.03515625,-0.60009765625,0.9944999999999999
-1.7099236641221374,-4.0,-9.389312977099237,0.01708984375,-0.04248046875,-0.602294921875,0.9962
-1.4198473282442747,-3.969465648854962,-9.648854961832061,0.0205078125,-0.04541015625,-0.6025390625,0.9978999999999999
-1.5114503816793894,-3.6030534351145036,-10.061068702290076,0.019775390625,-0.037353515625,-0.6015625,0.9995999999999999
-1.4809160305343512,-3.5877862595419847,-9.954198473282442,0.01806640625,-0.0439453125,-0.598876953125,1.0012999999999999
-1.3740458015267176,-3.9389312977099236,-9.877862595419847,0.018798828125,-0.04541015625,-0.602783203125,1.003
-1.5725190839694656,-3.648854961832061,-9.98473282442748,0.0185546875,-0.0322265625,-0.6005859375,1.0047
-1.5114503816793894,-3.633587786259542,-9.877862595419847,0.019775390625,-0.03515625,-0.5966796875,1.0064
-1.4961832061068703,-3.7404580152671754,-9.786259541984732,0.0185546875,-0.0380859375,-0.607421875,1.0081
-1.450381679389313,-3.83206106870229,-10.045801526717558,0.023681640625,-0.041015625,-0.59228515625,1.0098
-1.297709923664122,-4.0458015267175576,-9.84732824427481,0.023193359375,-0.038330078125,-0.59326171875,1.0114999999999998
-1.282442748091603,-4.137404580152672,-9.84732824427481,0.019775390625,-0.034423828125,-0.605712890625,1.0131999999999999
-1.2671755725190839,-4.305343511450381,-9.603053435114504,0.019287109375,-0.0341796875,-0.595458984375,1.0149
-1.2213740458015268,-4.488549618320611,-9.541984732824428,0.02783203125,-0.033203125,-0.6005859375,1.0166
-0.9770992366412213,-4.824427480916031,-9.557251908396946,0.02490234375,-0.034912109375,-0.6015625,1.0183
-1.0381679389312977,-4.9465648854961835,-9.450381679389313,0.024658203125,-0.037109375,-0.595947265625,1.02
-1.0687022900763359,-5.32824427480916,-9.297709923664122,0.01806640625,-0.039794921875,-0.59619140625,1.0217
-0.9770992366412213,-5.541984732824427,-9.221374045801527,0.019775390625,-0.037353515625,-0.60205078125,1.0233999999999999
-1.083969465648855,-5.709923664122138,-8.946564885496183,0.0224609375,-0.0419921875,-0.601318359375,1.0251
-0.9770992366412213,-5.694656488549619,-8.900763358778626,0.021484375,-0.036376953125,-0.594970703125,1.0268
-0.8854961832061069,-6.061068702290076,-8.732824427480915,0.02294921875,-0.041015625,-0.595947265625,1.0285
-0.9007633587786259,-6.198473282442748,-8.473282442748092,0.01806640625,-0.032958984375,-0.6015625,1.0302
-0.6870229007633588,-6.259541984732825,-8.366412213740459,0.0185546875,-0.033935546875,-0.60107421875,1.0319
-0.6259541984732825,-6.427480916030534,-8.290076335877863,0.01953125,-0.03466796875,-0.59033203125,1.0335999999999999
-0.8244274809160306,-6.778625954198473,-8.122137404580153,0.016845703125,-0.03564453125,-0.5927734375,1.0352999999999999
-0.8396946564885496,-6.67175572519084,-8.091603053435115,0.01611328125,-0.0380859375,-0.59716796875,1.037
-0.9923664122137404,-6.519083969465649,-7.8320610687022905,0.01416015625,-0.0439453125,-0.5927734375,1.0387
-0.9770992366412213,-6.656488549618321,-7.893129770992366,0.01220703125,-0.04150390625,-0.5986328125,1.0404
-1.0381679389312977,-6.854961832061068,-7.404580152671755,0.01220703125,-0.040283203125,-0.593017578125,1.0421
-1.2213740458015268,-6.702290076335878,-7.419847328244275,0.009033203125,-0.03857421875,-0.602294921875,1.0437999999999998
-1.0687022900763359,-6.595419847328245,-7.312977099236641,0.013671875,-0.0341796875,-0.59814453125,1.0454999999999999
-1.2213740458015268,-6.519083969465649,-7.145038167938932,0.010986328125,-0.038818359375,-0.594482421875,1.0472
-1.083969465648855,-6.5038167938931295,-6.809160305343512,0.01318359375,-0.04150390625,-0.601318359375,1.0489
-1.099236641221374,-6.8396946564885495,-7.00763358778626,0.015869140625,-0.041015625,-0.598388671875,1.0506
-1.4045801526717556,-6.870229007633588,-6.687022900763359,0.006103515625,-0.0400390625,-0.60009765625,1.0523
-1.1908396946564885,-6.412213740458015,-6.961832061068702,0.013671875,-0.0361328125,-0.602294921875,1.054
-1.3129770992366412,-6.412213740458015,-6.595419847328245,0.0068359375,-0.037109375,-0.59375,1.0556999999999999
-1.1755725190839694,-6.473282442748092,-6.5038167938931295,0.004638671875,-0.0400390625,-0.59130859375,1.0574
-1.2061068702290076,-6.244274809160306,-6.549618320610687,0.007080078125,-0.027099609375,-0.58349609375,1.0591
-1.1145038167938932,-6.183206106870229,-6.519083969465649,0.01025390625,-0.03173828125,-0.59375,1.0608
-1.1908396946564885,-6.0,-6.244274809160306,0.010498046875,-0.0322265625,-0.590087890625,1.0625
-1.0076335877862594,-5.923664122137405,-6.33587786259542,0.01123046875,-0.03125,-0.58935546875,1.0642
-0.916030534351145,-6.091603053435114,-6.152671755725191,0.01416015625,-0.035400390625,-0.59228515625,1.0658999999999998
-1.1450381679389312,-6.076335877862595,-6.0458015267175576,0.01318359375,-0.033447265625,-0.60009765625,1.0675999999999999
-0.8702290076335878,-6.259541984732825,-6.137404580152672,0.0166015625,-0.031005859375,-0.599365234375,1.0693
-0.549618320610687,-6.137404580152672,-6.33587786259542,0.010986328125,-0.0283203125,-0.6005859375,1.071
-0.42748091603053434,-6.412213740458015,-5.923664122137405,0.013427734375,-0.03076171875,-0.591796875,1.0727
-0.42748091603053434,-6.549618320610687,-6.244274809160306,0.019287109375,-0.02587890625,-0.595947265625,1.0744
-0.10687022900763359,-6.595419847328245,-5.893129770992366,0.023681640625,-0.032470703125,-0.60205078125,1.0760999999999998
0.0,-7.068702290076335,-6.091603053435114,0.023193359375,-0.025146484375,-0.59912109375,1.0777999999999999
-0.04580152671755725,-6.99236641221374,-5.984732824427481,0.020751953125,-0.024169921875,-0.599853515625,1.0795
0.1984732824427481,-7.267175572519084,-5.9541984732824424,0.02001953125,-0.019287109375,-0.600341796875,1.0812
0.3816793893129771,-7.374045801526718,-5.938931297709924,0.026611328125,-0.029052734375,-0.595703125,1.0829
0.3511450381679389,-7.877862595419847,-6.061068702290076,0.02197265625,-0.027099609375,-0.595458984375,1.0846
0.5954198473282443,-7.8320610687022905,-5.984732824427481,0.024658203125,-0.02197265625,-0.6044921875,1.0863
0.6564885496183206,-8.030534351145038,-6.091603053435114,0.020751953125,-0.027587890625,-0.60302734375,1.0879999999999999
0.8244274809160306,-8.442748091603054,-6.0,0.0224609375,-0.027099609375,-0.603515625,1.0897
1.0687022900763359,-8.458015267175572,-6.33587786259542,0.02490234375,-0.02001953125,-0.593994140625,1.0914
1.1908396946564885,-8.80916030534351,-6.213740458015267,0.02587890625,-0.024658203125,-0.60498046875,1.0931
1.3129770992366412,-8.961832061068701,-6.122137404580153,0.02685546875,-0.022705078125,-0.599853515625,1.0948
1.3435114503816794,-9.19083969465649,-6.396946564885496,0.02197265625,-0.029052734375,-0.601318359375,1.0965
1.5114503816793894,-9.389312977099237,-6.564885496183206,0.02734375,-0.022705078125,-0.603759765625,1.0981999999999998
1.816793893129771,-9.664122137404581,-6.717557251908397,0.02392578125,-0.0283203125,-0.609619140625,1.0998999999999999
1.9694656488549618,-9.694656488549619,-6.732824427480916,0.026123046875,-0.026611328125,-0.6025390625,1.1016
2.2595419847328246,-9.816793893129772,-6.67175572519084,0.0263671875,-0.025390625,-0.603271484375,1.1033
2.33587786259542,-10.045801526717558,-6.778625954198473,0.024658203125,-0.02587890625,-0.60009765625,1.105
2.198473282442748,-9.98473282442748,-7.175572519083969,0.02490234375,-0.02294921875,-0.600341796875,1.1067
2.4580152671755724,-10.259541984732824,-7.1603053435114505,0.02587890625,-0.027099609375,-0.60693359375,1.1083999999999998
2.50381679389313,-10.65648854961832,-7.099236641221374,0.028076171875,-0.0263671875,-0.60302734375,1.1100999999999999
2.4885496183206106,-10.67175572519084,-7.358778625954199,0.03369140625,-0.0224609375,-0.59814453125,1.1118
2.564885496183206,-10.83969465648855,-7.404580152671755,0.03466796875,-0.02392578125,-0.592529296875,1.1135
2.6259541984732824,-11.038167938931299,-7.526717557251908,0.0302734375,-0.024169921875,-0.61181640625,1.1152
2.7022900763358777,-11.312977099236642,-7.6183206106870225,0.037841796875,-0.02880859375,-0.60302734375,1.1169
3.0229007633587788,-11.572519083969466,-7.557251908396947,0.03515625,-0.023193359375,-0.604736328125,1.1186
3.099236641221374,-11.938931297709924,-7.603053435114504,0.0390625,-0.030029296875,-0.61181640625,1.1202999999999999
2.900763358778626,-12.259541984732824,-7.893129770992366,0.037109375,-0.02099609375,-0.60302734375,1.1219999999999999
3.2519083969465647,-12.625954198473282,-8.061068702290076,0.037841796875,-0.02197265625,-0.6005859375,1.1237
3.5877862595419847,-13.007633587786259,-8.076335877862595,0.04345703125,-0.026611328125,-0.608642578125,1.1254
3.66412213740458,-13.572519083969466,-8.274809160305344,0.04443359375,-0.027587890625,-0.61474609375,1.1271
3.6946564885496183,-14.045801526717558,-8.50381679389313,0.04052734375,-0.01904296875,-0.606689453125,1.1288
4.137404580152672,-14.351145038167939,-8.290076335877863,0.049072265625,-0.0283203125,-0.614990234375,1.1304999999999998
4.290076335877862,-14.80916030534351,-8.687022900763358,0.04833984375,-0.022705078125,-0.617431640625,1.1321999999999999
4.2748091603053435,-15.48091603053435,-8.793893129770993,0.052734375,-0.02392578125,-0.6064453125,1.1339
4.366412213740458,-16.061068702290076,-9.114503816793894,0.05322265625,-0.021240234375,-0.603271484375,1.1356
4.931297709923665,-16.732824427480917,-9.083969465648854,0.05322265625,-0.02880859375,-0.609130859375,1.1373
4.931297709923665,-17.251908396946565,-9.34351145038168,0.055908203125,-0.024658203125,-0.608642578125,1.139
5.236641221374046,-18.061068702290076,-9.389312977099237,0.054443359375,-0.028076171875,-0.614990234375,1.1407
5.358778625954199,-18.564885496183205,-9.633587786259541,0.06005859375,-0.026123046875,-0.615234375,1.1423999999999999
5.450381679389313,-19.16030534351145,-9.86259541984733,0.05419921875,-0.027099609375,-0.61572265625,1.1441
5.66412213740458,-20.015267175572518,-10.045801526717558,0.0595703125,-0.030517578125,-0.60595703125,1.1458
5.740458015267175,-20.625954198473284,-10.0,0.063720703125,-0.0283203125,-0.618408203125,1.1475
6.137404580152672,-21.358778625954198,-10.305343511450381,0.06103515625,-0.030517578125,-0.61474609375,1.1492
5.908396946564886,-22.396946564885496,-10.595419847328245,0.062255859375,-0.03271484375,-0.61474609375,1.1509
6.152671755725191,-23.099236641221374,-10.625954198473282,0.064697265625,-0.032958984375,-0.62158203125,1.1525999999999998
6.122137404580153,-23.83206106870229,-10.580152671755725,0.060791015625,-0.031982421875,-0.6142578125,1.1542999999999999
6.259541984732825,-24.763358778625953,-10.625954198473282,0.062744140625,-0.03955078125,-0.623046875,1.156
6.1679389312977095,-25.64885496183206,-10.870229007633588,0.061767578125,-0.0361328125,-0.62060546875,1.1577
6.152671755725191,-26.702290076335878,-10.854961832061068,0.06591796875,-0.0380859375,-0.621337890625,1.1594
6.076335877862595,-27.52671755725191,-10.961832061068701,0.0693359375,-0.0400390625,-0.6259765625,1.1611
6.0,-28.625954198473284,-10.793893129770993,0.0673828125,-0.04296875,-0.628662109375,1.1627999999999998
5.938931297709924,-29.709923664122137,-10.83969465648855,0.065185546875,-0.050048828125,-0.6162109375,1.1644999999999999
5.862595419847328,-30.80916030534351,-10.580152671755725,0.069580078125,-0.04345703125,-0.6259765625,1.1662
5.709923664122138,-31.709923664122137,-10.65648854961832,0.064697265625,-0.04833984375,-0.626708984375,1.1679
5.419847328244275,-32.458015267175576,-10.366412213740459,0.067138671875,-0.04541015625,-0.618408203125,1.1696
5.267175572519084,-33.51145038167939,-10.412213740458014,0.06494140625,-0.047119140625,-0.625,1.1713
5.267175572519084,-34.30534351145038,-9.83206106870229,0.060546875,-0.047607421875,-0.61962890625,1.173
5.022900763358779,-35.221374045801525,-9.816793893129772,0.059814453125,-0.051025390625,-0.625,1.1746999999999999
4.67175572519084,-36.274809160305345,-9.587786259541986,0.063232421875,-0.050537109375,-0.62109375,1.1764
4.5038167938931295,-37.20610687022901,-9.221374045801527,0.064453125,-0.05322265625,-0.626953125,1.1781
4.442748091603053,-38.01526717557252,-8.900763358778626,0.064208984375,-0.052978515625,-0.6162109375,1.1798
4.412213740458015,-38.79389312977099,-8.931297709923664,0.06201171875,-0.0537109375,-0.61767578125,1.1815
4.198473282442748,-39.847328244274806,-8.320610687022901,0.061279296875,-0.05419921875,-0.62451171875,1.1832
4.015267175572519,-40.396946564885496,-8.381679389312977,0.0615234375,-0.0546875,-0.622314453125,1.1848999999999998
3.877862595419847,-41.43511450381679,-8.01526717557252,0.057373046875,-0.051025390625,-0.615478515625,1.1865999999999999
3.572519083969466,-42.152671755725194,-7.969465648854962,0.05908203125,-0.050537109375,-0.619140625,1.1883
3.480916030534351,-43.11450381679389,-7.419847328244275,0.056640625,-0.046142578125,-0.617431640625,1.19
3.480916030534351,-43.908396946564885,-7.236641221374046,0.057373046875,-0.052001953125,-0.62158203125,1.1917
3.2519083969465647,-44.80916030534351,-6.900763358778626,0.0556640625,-0.0498046875,-0.6171875,1.1934
3.2061068702290076,-45.7557251908397,-6.763358778625954,0.052490234375,-0.056884765625,-0.61376953125,1.1950999999999998
3.267175572519084,-46.82442748091603,-6.488549618320611,0.056884765625,-0.052490234375,-0.61669921875,1.1967999999999999
3.145038167938931,-47.57251908396947,-6.061068702290076,0.058837890625,-0.050048828125,-0.62744140625,1.1985
3.282442748091603,-48.396946564885496,-5.709923664122138,0.054931640625,-0.042236328125,-0.617919921875,1.2002
2.9923664122137406,-49.343511450381676,-5.6183206106870225,0.052978515625,-0.048095703125,-0.61865234375,1.2019
3.0839694656488548,-50.12213740458015,-5.190839694656488,0.049560546875,-0.041748046875,-0.611572265625,1.2036
3.3893129770992365,-50.93129770992366,-4.870229007633588,0.050048828125,-0.04296875,-0.613037109375,1.2053
3.3587786259541983,-51.63358778625954,-4.412213740458015,0.052001953125,-0.045654296875,-0.6201171875,1.2069999999999999
3.4656488549618323,-52.54961832061068,-4.595419847328245,0.05224609375,-0.042724609375,-0.621826171875,1.2086999999999999
3.7404580152671754,-53.31297709923664,-4.061068702290076,0.0498046875,-0.045166015625,-0.61572265625,1.2104
4.030534351145038,-54.25954198473283,-3.786259541984733,0.04736328125,-0.039306640625,-0.611328125,1.2121
3.969465648854962,-54.94656488549618,-3.435114503816794,0.047607421875,-0.0390625,-0.6064453125,1.2138
4.122137404580153,-55.541984732824424,-3.099236641221374,0.04345703125,-0.041015625,-0.610107421875,1.2155
4.534351145038168,-56.396946564885496,-2.7480916030534353,0.0458984375,-0.039306640625,-0.61328125,1.2171999999999998
4.473282442748092,-57.32824427480916,-2.7480916030534353,0.04345703125,-0.04150390625,-0.60595703125,1.2188999999999999
4.763358778625954,-58.091603053435115,-2.8091603053435112,0.04052734375,-0.042236328125,-0.603759765625,1.2206
4.977099236641221,-58.732824427480914,-2.4122137404580153,0.040771484375,-0.037109375,-0.609375,1.2223
5.083969465648855,-59.49618320610687,-2.030534351145038,0.033203125,-0.038330078125,-0.609619140625,1.224
5.251908396946565,-60.25954198473283,-1.9236641221374047,0.037841796875,-0.039306640625,-0.610107421875,1.2257
5.267175572519084,-61.16030534351145,-1.450381679389313,0.029052734375,-0.04052734375,-0.606201171875,1.2273999999999998
5.816793893129771,-61.969465648854964,-1.251908396946565,0.030517578125,-0.0400390625,-0.59716796875,1.2290999999999999
5.740458015267175,-62.534351145038165,-1.0687022900763359,0.031494140625,-0.04052734375,-0.606201171875,1.2308
5.969465648854962,-63.45038167938932,-0.6412213740458015,0.03271484375,-0.042724609375,-0.60498046875,1.2325
6.091603053435114,-64.3206106870229,-0.2595419847328244,0.02880859375,-0.04345703125,-0.6064453125,1.2342
6.198473282442748,-64.85496183206106,0.10687022900763359,0.03369140625,-0.044677734375,-0.608154296875,1.2359
6.442748091603053,-65.32824427480917,0.44274809160305345,0.024169921875,-0.040771484375,-0.602783203125,1.2376
6.687022900763359,-66.03053435114504,0.5954198473282443,0.026611328125,-0.044921875,-0.604248046875,1.2392999999999998
6.732824427480916,-66.87022900763358,1.0687022900763359,0.02001953125,-0.042724609375,-0.60302734375,1.2409999999999999
6.67175572519084,-67.66412213740458,1.3435114503816794,0.018798828125,-0.043212890625,-0.60205078125,1.2427
6.793893129770993,-68.44274809160305,1.8473282442748091,0.020751953125,-0.041259765625,-0.599365234375,1.2444
7.0534351145038165,-68.93129770992367,2.0763358778625953,0.016357421875,-0.04541015625,-0.595703125,1.2461
7.145038167938932,-69.54198473282443,2.33587786259542,0.016357421875,-0.0439453125,-0.592529296875,1.2478
7.129770992366412,-70.2442748091603,2.6106870229007635,0.017822265625,-0.04541015625,-0.59375,1.2494999999999998
7.221374045801527,-70.94656488549619,3.068702290076336,0.01513671875,-0.049560546875,-0.597412109375,1.2511999999999999
7.312977099236641,-71.46564885496183,3.282442748091603,0.0107421875,-0.04931640625,-0.5947265625,1.2529
6.977099236641221,-72.22900763358778,3.786259541984733,0.008056640625,-0.0498046875,-0.597900390625,1.2546
7.251908396946565,-73.0381679389313,3.7251908396946565,0.0048828125,-0.047119140625,-0.59814453125,1.2563
6.8396946564885495,-73.87786259541984,4.106870229007634,0.009033203125,-0.048583984375,-0.59375,1.258
6.656488549618321,-74.4885496183206,4.519083969465649,0.002685546875,-0.05029296875,-0.598388671875,1.2596999999999998
6.473282442748092,-75.17557251908397,4.961832061068702,0.00390625,-0.05126953125,-0.587890625,1.2613999999999999
6.748091603053435,-75.80152671755725,5.0534351145038165,0.0029296875,-0.042724609375,-0.585693359375,1.2631
6.534351145038168,-76.68702290076335,5.572519083969466,0.001220703125,-0.048095703125,-0.584228515625,1.2648
6.351145038167939,-77.25190839694656,5.816793893129771,0.0009765625,-0.046875,-0.584716796875,1.2665
6.198473282442748,-77.98473282442748,6.305343511450381,-0.00634765625,-0.0517578125,-0.59375,1.2682
6.122137404580153,-78.59541984732824,6.183206106870229,-0.0009765625,-0.045166015625,-0.594482421875,1.2699
6.106870229007634,-79.1145038167939,6.580152671755725,-0.011474609375,-0.049072265625,-0.587158203125,1.2715999999999998
6.0458015267175576,-79.83206106870229,6.9465648854961835,-0.00732421875,-0.043212890625,-0.580322265625,1.2732999999999999
6.030534351145038,-80.51908396946565,7.236641221374046,-0.008056640625,-0.04638671875,-0.58154296875,1.275
5.908396946564886,-81.48091603053435,7.587786259541985,-0.00927734375,-0.0458984375,-0.581787109375,1.2767
5.572519083969466,-82.03053435114504,7.694656488549619,-0.012939453125,-0.04345703125,-0.57470703125,1.2784
5.984732824427481,-82.74809160305344,7.801526717557252,-0.012451171875,-0.040771484375,-0.58154296875,1.2801
5.709923664122138,-83.34351145038168,8.122137404580153,-0.020263671875,-0.041748046875,-0.581298828125,1.2817999999999998
5.66412213740458,-83.83206106870229,8.351145038167939,-0.015625,-0.0380859375,-0.58447265625,1.2834999999999999
5.557251908396947,-84.50381679389314,8.213740458015268,-0.024169921875,-0.04443359375,-0.58642578125,1.2852
5.755725190839694,-85.19083969465649,8.320610687022901,-0.021240234375,-0.04296875,-0.5712890625,1.2869
5.557251908396947,-85.93893129770993,8.778625954198473,-0.02978515625,-0.03662109375,-0.57763671875,1.2886
5.66412213740458,-86.36641221374046,8.732824427480915,-0.02734375,-0.03759765625,-0.5869140625,1.2903
5.450381679389313,-87.06870229007633,8.65648854961832,-0.03076171875,-0.035888671875,-0.586669921875,1.292
5.603053435114504,-87.55725190839695,8.641221374045802,-0.0302734375,-0.0322265625,-0.5712890625,1.2936999999999999
6.030534351145038,-87.92366412213741,8.595419847328245,-0.037353515625,-0.03271484375,-0.57666015625,1.2953999999999999
6.183206106870229,-88.50381679389314,8.870229007633588,-0.038818359375,-0.0400390625,-0.576171875,1.2971
6.33587786259542,-88.94656488549619,8.931297709923664,-0.045166015625,-0.034423828125,-0.576171875,1.2988
6.290076335877862,-89.61832061068702,8.67175572519084,-0.04296875,-0.028076171875,-0.576416015625,1.3005
6.213740458015267,-89.98473282442748,8.625954198473282,-0.042724609375,-0.031982421875,-0.5732421875,1.3022
6.305343511450381,-90.42748091603053,8.702290076335878,-0.0458984375,-0.02880859375,-0.566650390625,1.3038999999999998
6.549618320610687,-90.54961832061069,8.50381679389313,-0.052734375,-0.030517578125,-0.5712890625,1.3055999999999999
6.732824427480916,-91.00763358778626,8.488549618320612,-0.048095703125,-0.028564453125,-0.57177734375,1.3073
7.038167938931298,-91.22137404580153,8.274809160305344,-0.0546875,-0.03125,-0.57177734375,1.309
7.206106870229007,-91.5114503816794,8.183206106870228,-0.06201171875,-0.031005859375,-0.56982421875,1.3107
7.450381679389313,-92.06106870229007,7.938931297709924,-0.061767578125,-0.03125,-0.576416015625,1.3124
7.450381679389313,-92.36641221374046,7.862595419847328,-0.0625,-0.033447265625,-0.575927734375,1.3140999999999998
7.893129770992366,-92.73282442748092,7.679389312977099,-0.066650390625,-0.029541015625,-0.5634765625,1.3157999999999999
8.091603053435115,-92.93129770992367,7.740458015267175,-0.06298828125,-0.032470703125,-0.555419921875,1.3175
8.274809160305344,-93.1145038167939,7.541984732824427,-0.064697265625,-0.031494140625,-0.55859375,1.3192
8.458015267175572,-93.52671755725191,7.282442748091603,-0.068603515625,-0.03173828125,-0.557861328125,1.3209
8.427480916030534,-93.70992366412214,6.961832061068702,-0.070068359375,-0.03125,-0.560302734375,1.3226
8.534351145038167,-94.12213740458016,6.9465648854961835,-0.071044921875,-0.03369140625,-0.55615234375,1.3243
8.778625954198473,-94.22900763358778,6.793893129770993,-0.07568359375,-0.03466796875,-0.555419921875,1.3259999999999998
9.114503816793894,-94.47328244274809,6.778625954198473,-0.074951171875,-0.03369140625,-0.567138671875,1.3276999999999999
9.099236641221374,-94.65648854961832,6.534351145038168,-0.076904296875,-0.02978515625,-0.55908203125,1.3294
9.32824427480916,-95.08396946564885,6.244274809160306,-0.078857421875,-0.026611328125,-0.56494140625,1.3311
9.49618320610687,-95.17557251908397,6.229007633587786,-0.081787109375,-0.0361328125,-0.559814453125,1.3328
9.694656488549619,-95.37404580152672,6.076335877862595,-0.081787109375,-0.031005859375,-0.551025390625,1.3345
9.694656488549619,-95.6793893129771,5.938931297709924,-0.09033203125,-0.035400390625,-0.552978515625,1.3361999999999998
9.511450381679388,-95.93893129770993,5.969465648854962,-0.08935546875,-0.036376953125,-0.551025390625,1.3378999999999999
9.618320610687023,-95.95419847328245,5.740458015267175,-0.091796875,-0.034912109375,-0.555419921875,1.3396
9.679389312977099,-96.2442748091603,5.877862595419847,-0.095703125,-0.03369140625,-0.552734375,1.3413
9.679389312977099,-96.3206106870229,5.480916030534351,-0.09814453125,-0.034912109375,-0.553466796875,1.343
9.923664122137405,-96.54961832061069,5.587786259541985,-0.1005859375,-0.0361328125,-0.551513671875,1.3447
9.83206106870229,-96.61068702290076,5.541984732824427,-0.09912109375,-0.039306640625,-0.556884765625,1.3463999999999998
9.557251908396946,-96.54961832061069,5.4961832061068705,-0.10400390625,-0.04052734375,-0.54931640625,1.3480999999999999
9.923664122137405,-96.76335877862596,5.358778625954199,-0.10693359375,-0.040771484375,-0.54736328125,1.3497999999999999
9.755725190839694,-96.65648854961832,5.541984732824427,-0.111572265625,-0.038818359375,-0.55859375,1.3515
9.648854961832061,-96.51908396946565,5.114503816793893,-0.110595703125,-0.045166015625,-0.555908203125,1.3532
9.86259541984733,-96.3969465648855,5.114503816793893,-0.11376953125,-0.042724609375,-0.546875,1.3549
9.816793893129772,-96.42748091603053,5.022900763358779,-0.110107421875,-0.0439453125,-0.54248046875,1.3566
9.419847328244275,-96.53435114503817,4.977099236641221,-0.117431640625,-0.04296875,-0.5439453125,1.3582999999999998
9.34351145038168,-96.3969465648855,5.038167938931298,-0.11865234375,-0.04833984375,-0.550537109375,1.3599999999999999
9.16030534351145,-96.30534351145039,4.870229007633588,-0.121826171875,-0.048095703125,-0.546875,1.3617
9.221374045801527,-96.22900763358778,4.6106870229007635,-0.1171875,-0.043701171875,-0.554931640625,1.3634
8.916030534351146,-96.33587786259542,4.824427480916031,-0.120849609375,-0.046142578125,-0.54541015625,1.3651
8.83969465648855,-96.3206106870229,4.641221374045801,-0.122802734375,-0.046630859375,-0.5458984375,1.3668
8.763358778625955,-96.06106870229007,4.656488549618321,-0.12353515625,-0.045166015625,-0.54150390625,1.3684999999999998
8.625954198473282,-96.13740458015268,4.778625954198473,-0.125,-0.043701171875,-0.550537109375,1.3701999999999999
8.610687022900763,-95.92366412213741,4.717557251908397,-0.13037109375,-0.0517578125,-0.544921875,1.3719
8.442748091603054,-96.27480916030534,4.6106870229007635,-0.13134765625,-0.04833984375,-0.541259765625,1.3736
8.274809160305344,-96.25954198473282,4.793893129770993,-0.135498046875,-0.04638671875,-0.54345703125,1.3753
8.381679389312977,-96.22900763358778,4.687022900763359,-0.133544921875,-0.05419921875,-0.546630859375,1.377
8.198473282442748,-96.33587786259542,4.809160305343512,-0.13720703125,-0.046630859375,-0.545654296875,1.3786999999999998
7.862595419847328,-96.30534351145039,4.595419847328245,-0.130859375,-0.04931640625,-0.541015625,1.3803999999999998
7.862595419847328,-96.07633587786259,4.687022900763359,-0.14306640625,-0.05078125,-0.53955078125,1.3820999999999999
7.755725190839694,-96.03053435114504,4.564885496183206,-0.142578125,-0.0537109375,-0.53466796875,1.3838
7.66412213740458,-96.07633587786259,4.534351145038168,-0.138916015625,-0.051513671875,-0.540771484375,1.3855
7.236641221374046,-95.83206106870229,4.427480916030534,-0.138671875,-0.0478515625,-0.543701171875,1.3872
7.00763358778626,-95.69465648854961,4.213740458015267,-0.1474609375,-0.049560546875,-0.542724609375,1.3889
7.114503816793893,-95.66412213740458,4.106870229007634,-0.1474609375,-0.048095703125,-0.527587890625,1.3905999999999998
7.145038167938932,-95.70992366412214,4.320610687022901,-0.149658203125,-0.047119140625,-0.53369140625,1.3922999999999999
7.099236641221374,-95.37404580152672,4.137404580152672,-0.1513671875,-0.053955078125,-0.5341796875,1.394
7.099236641221374,-95.17557251908397,4.015267175572519,-0.15283203125,-0.04736328125,-0.52880859375,1.3957
6.977099236641221,-95.00763358778626,3.66412213740458,-0.1572265625,-0.0498046875,-0.53076171875,1.3974
6.793893129770993,-95.02290076335878,4.0,-0.158203125,-0.05029296875,-0.534912109375,1.3991
6.6106870229007635,-94.79389312977099,3.9083969465648853,-0.1552734375,-0.05029296875,-0.526611328125,1.4007999999999998
6.732824427480916,-94.77862595419847,3.83206106870229,-0.15673828125,-0.056640625,-0.535888671875,1.4024999999999999
6.6106870229007635,-94.80916030534351,3.618320610687023,-0.153564453125,-0.05419921875,-0.53515625,1.4042
6.412213740458015,-94.68702290076335,3.6030534351145036,-0.16064453125,-0.051025390625,-0.53955078125,1.4059
6.3816793893129775,-94.62595419847328,3.2519083969465647,-0.166748046875,-0.045166015625,-0.522216796875,1.4076
6.244274809160306,-94.51908396946565,3.450381679389313,-0.167236328125,-0.0478515625,-0.5263671875,1.4093
6.564885496183206,-94.51908396946565,3.5419847328244276,-0.162353515625,-0.04833984375,-0.527099609375,1.411
6.0,-94.25954198473282,3.3740458015267176,-0.16845703125,-0.0556640625,-0.53076171875,1.4126999999999998
6.0,-94.19847328244275,3.3587786259541983,-0.172119140625,-0.05419921875,-0.52783203125,1.4143999999999999
6.152671755725191,-94.07633587786259,3.4656488549618323,-0.169921875,-0.05224609375,-0.529296875,1.4161
6.122137404580153,-93.95419847328245,3.3587786259541983,-0.174072265625,-0.05517578125,-0.51953125,1.4178
6.061068702290076,-94.12213740458016,3.5572519083969465,-0.17431640625,-0.05517578125,-0.5283203125,1.4195
5.801526717557252,-93.52671755725191,3.2061068702290076,-0.177978515625,-0.053466796875,-0.525634765625,1.4212
6.030534351145038,-93.2824427480916,3.435114503816794,-0.179443359375,-0.04736328125,-0.520751953125,1.4228999999999998
5.9541984732824424,-93.05343511450381,3.099236641221374,-0.179931640625,-0.046142578125,-0.5234375,1.4245999999999999
6.0,-92.65648854961832,3.2977099236641223,-0.178466796875,-0.046142578125,-0.52001953125,1.4263
5.984732824427481,-92.53435114503817,2.9923664122137406,-0.182861328125,-0.0478515625,-0.517333984375,1.428
5.847328244274809,-92.35114503816794,2.946564885496183,-0.184814453125,-0.050048828125,-0.517578125,1.4297
6.0,-92.1526717557252,2.8396946564885495,-0.18310546875,-0.050537109375,-0.5205078125,1.4314
6.213740458015267,-91.90839694656489,2.6564885496183206,-0.184814453125,-0.050048828125,-0.517333984375,1.4330999999999998
6.122137404580153,-91.61832061068702,2.687022900763359,-0.187255859375,-0.047607421875,-0.519775390625,1.4347999999999999
6.076335877862595,-91.19083969465649,2.7786259541984735,-0.188720703125,-0.049560546875,-0.5224609375,1.4364999999999999
6.0458015267175576,-91.09923664122137,2.2900763358778624,-0.187744140625,-0.040283203125,-0.52294921875,1.4382
5.969465648854962,-91.02290076335878,2.5801526717557253,-0.193359375,-0.048828125,-0.515869140625,1.4399
6.0,-91.1145038167939,2.4427480916030535,-0.191162109375,-0.044189453125,-0.51513671875,1.4416
5.923664122137405,-90.77862595419847,2.1374045801526718,-0.19384765625,-0.043212890625,-0.519775390625,1.4433
5.969465648854962,-90.6412213740458,2.0610687022900764,-0.191162109375,-0.052001953125,-0.519775390625,1.4449999999999998
6.0,-90.58015267175573,1.9541984732824427,-0.199462890625,-0.045654296875,-0.521240234375,1.4466999999999999
5.9541984732824424,-90.53435114503817,1.9236641221374047,-0.198486328125,-0.0546875,-0.509765625,1.4484
6.091603053435114,-90.3206106870229,1.9541984732824427,-0.19921875,-0.052734375,-0.514892578125,1.4501
5.862595419847328,-90.1526717557252,1.786259541984733,-0.202880859375,-0.051025390625,-0.51904296875,1.4518
6.0,-89.83206106870229,1.8473282442748091,-0.202392578125,-0.049072265625,-0.50927734375,1.4535
5.862595419847328,-89.92366412213741,1.816793893129771,-0.204833984375,-0.0537109375,-0.515625,1.4551999999999998
5.755725190839694,-89.77099236641222,1.7557251908396947,-0.208251953125,-0.0537109375,-0.511474609375,1.4568999999999999
5.603053435114504,-89.48091603053435,1.7709923664122138,-0.20166015625,-0.05029296875,-0.51171875,1.4586
5.603053435114504,-89.12977099236642,1.9083969465648856,-0.208984375,-0.050537109375,-0.51025390625,1.4603
5.66412213740458,-89.25190839694656,1.9541984732824427,-0.20703125,-0.05615234375,-0.51611328125,1.462
5.526717557251908,-89.22137404580153,2.0763358778625953,-0.2060546875,-0.055908203125,-0.51025390625,1.4637
5.374045801526718,-88.67175572519083,2.030534351145038,-0.205810546875,-0.05615234375,-0.513427734375,1.4653999999999998
5.450381679389313,-88.42748091603053,2.213740458015267,-0.206787109375,-0.060546875,-0.509765625,1.4670999999999998
5.175572519083969,-88.45801526717557,1.984732824427481,-0.212646484375,-0.053955078125,-0.510498046875,1.4687999999999999
4.9465648854961835,-88.33587786259542,2.3969465648854964,-0.213623046875,-0.0546875,-0.511474609375,1.4705
4.9465648854961835,-88.03053435114504,2.4427480916030535,-0.21435546875,-0.056640625,-0.511962890625,1.4722
4.778625954198473,-87.74045801526718,2.5343511450381677,-0.215087890625,-0.052490234375,-0.498046875,1.4739
4.641221374045801,-87.5114503816794,2.519083969465649,-0.218017578125,-0.051025390625,-0.504638671875,1.4756
4.625954198473282,-87.37404580152672,2.6106870229007635,-0.2216796875,-0.056396484375,-0.505126953125,1.4772999999999998
4.534351145038168,-86.8854961832061,2.564885496183206,-0.21875,-0.056396484375,-0.504150390625,1.4789999999999999
4.152671755725191,-86.93129770992367,2.519083969465649,-0.218994140625,-0.05517578125,-0.507080078125,1.4807
4.229007633587786,-86.83969465648855,2.6564885496183206,-0.22216796875,-0.053466796875,-0.513671875,1.4824
4.106870229007634,-86.33587786259542,2.7480916030534353,-0.22314453125,-0.05029296875,-0.50341796875,1.4841
4.061068702290076,-86.06106870229007,2.564885496183206,-0.22314453125,-0.050048828125,-0.50732421875,1.4858
3.7099236641221376,-85.95419847328245,2.687022900763359,-0.2275390625,-0.050048828125,-0.501220703125,1.4874999999999998
3.801526717557252,-85.63358778625954,2.6412213740458017,-0.224853515625,-0.051513671875,-0.508056640625,1.4891999999999999
3.9389312977099236,-85.20610687022901,2.854961832061069,-0.225341796875,-0.055419921875,-0.4990234375,1.4909
3.877862595419847,-85.16030534351145,2.8091603053435112,-0.2294921875,-0.051513671875,-0.49951171875,1.4926
3.9236641221374047,-85.08396946564885,2.9770992366412212,-0.22900390625,-0.05126953125,-0.498046875,1.4943
3.633587786259542,-84.53435114503817,2.7480916030534353,-0.228759765625,-0.052490234375,-0.499755859375,1.496
3.877862595419847,-84.2442748091603,2.8244274809160306,-0.234619140625,-0.048583984375,-0.497314453125,1.4976999999999998
3.450381679389313,-84.0,2.8244274809160306,-0.229736328125,-0.052001953125,-0.500244140625,1.4993999999999998
3.49618320610687,-83.70992366412214,2.717557251908397,-0.235107421875,-0.0498046875,-0.50244140625,1.5010999999999999
3.3740458015267176,-83.37404580152672,2.6412213740458017,-0.242431640625,-0.05029296875,-0.495849609375,1.5028
3.312977099236641,-83.26717557251908,2.885496183206107,-0.24169921875,-0.04443359375,-0.496826171875,1.5045
3.404580152671756,-83.02290076335878,2.7938931297709924,-0.23974609375,-0.046142578125,-0.49169921875,1.5062
3.282442748091603,-82.87022900763358,2.6412213740458017,-0.238525390625,-0.0517578125,-0.498046875,1.5079
3.49618320610687,-82.44274809160305,2.6259541984732824,-0.2421875,-0.054931640625,-0.499267578125,1.5095999999999998
3.3435114503816794,-82.03053435114504,2.7938931297709924,-0.24560546875,-0.0498046875,-0.5029296875,1.5112999999999999
3.312977099236641,-81.72519083969466,2.717557251908397,-0.24462890625,-0.04443359375,-0.493896484375,1.513
3.236641221374046,-81.41984732824427,2.7022900763358777,-0.248046875,-0.0478515625,-0.4931640625,1.5147
2.9770992366412212,-81.16030534351145,2.7480916030534353,-0.238037109375,-0.05322265625,-0.4931640625,1.5164
3.1603053435114505,-80.82442748091603,2.595419847328244,-0.244873046875,-0.049560546875,-0.490478515625,1.5181
2.7938931297709924,-80.6412213740458,2.6259541984732824,-0.25146484375,-0.050537109375,-0.4892578125,1.5197999999999998
2.900763358778626,-80.3206106870229,2.687022900763359,-0.247802734375,-0.047119140625,-0.486572265625,1.5214999999999999
3.068702290076336,-80.01526717557252,2.687022900763359,-0.251220703125,-0.04736328125,-0.49072265625,1.5231999999999999
2.854961832061069,-79.90839694656489,2.549618320610687,-0.248291015625,-0.044677734375,-0.4951171875,1.5249
2.885496183206107,-79.43511450381679,2.7022900763358777,-0.25048828125,-0.05126953125,-0.489990234375,1.5266
2.732824427480916,-79.38931297709924,2.564885496183206,-0.254150390625,-0.0478515625,-0.4873046875,1.5283
2.7938931297709924,-79.17557251908397,2.8091603053435112,-0.253173828125,-0.0498046875,-0.49267578125,1.5299999999999998
2.717557251908397,-78.91603053435115,2.5343511450381677,-0.254150390625,-0.04541015625,-0.490966796875,1.5316999999999998
2.8702290076335877,-78.61068702290076,2.519083969465649,-0.2529296875,-0.048828125,-0.49755859375,1.5333999999999999
2.6412213740458017,-78.3206106870229,2.519083969465649,-0.2529296875,-0.048583984375,-0.48291015625,1.5351
2.4427480916030535,-78.10687022900764,2.7480916030534353,-0.251708984375,-0.042236328125,-0.47998046875,1.5368
2.6717557251908395,-77.87786259541984,2.7022900763358777,-0.24853515625,-0.046630859375,-0.49072265625,1.5385
2.6564885496183206,-77.90839694656489,2.946564885496183,-0.25537109375,-0.04443359375,-0.4814453125,1.5402
2.4122137404580153,-77.5114503816794,2.6259541984732824,-0.25732421875,-0.04150390625,-0.4912109375,1.5418999999999998
2.6412213740458017,-77.52671755725191,2.6412213740458017,-0.25537109375,-0.046142578125,-0.482177734375,1.5435999999999999
2.9160305343511452,-77.2824427480916,2.4427480916030535,-0.253173828125,-0.046142578125,-0.481689453125,1.5453
2.4732824427480917,-77.09923664122137,2.6717557251908395,-0.25439453125,-0.04443359375,-0.484375,1.547
2.6564885496183206,-76.90076335877863,2.519083969465649,-0.25634765625,-0.04833984375,-0.482421875,1.5487
2.7022900763358777,-76.83969465648855,2.7938931297709924,-0.258056640625,-0.0478515625,-0.477783203125,1.5504
2.6564885496183206,-76.62595419847328,2.595419847328244,-0.260986328125,-0.052490234375,-0.48779296875,1.5520999999999998
2.6717557251908395,-76.53435114503817,2.6717557251908395,-0.25732421875,-0.0498046875,-0.483154296875,1.5537999999999998
2.687022900763359,-76.6412213740458,2.366412213740458,-0.259033203125,-0.042724609375,-0.485595703125,1.5554999999999999
3.0076335877862594,-76.42748091603053,2.5343511450381677,-0.263427734375,-0.04541015625,-0.484375,1.5572
2.6412213740458017,-76.51908396946565,2.3969465648854964,-0.2646484375,-0.0419921875,-0.4736328125,1.5589
2.4885496183206106,-76.36641221374046,2.6564885496183206,-0.262451171875,-0.04736328125,-0.476318359375,1.5606
2.4732824427480917,-76.41221374045801,2.3969465648854964,-0.266845703125,-0.04736328125,-0.46826171875,1.5623
2.763358778625954,-76.3969465648855,2.549618320610687,-0.267822265625,-0.044921875,-0.475830078125,1.5639999999999998
2.8091603053435112,-76.50381679389314,2.381679389312977,-0.27099609375,-0.0458984375,-0.478759765625,1.5656999999999999
2.9160305343511452,-76.30534351145039,2.549618320610687,-0.270263671875,-0.047607421875,-0.47509765625,1.5674
2.6717557251908395,-76.09160305343511,2.33587786259542,-0.273681640625,-0.042236328125,-0.472412109375,1.5691
2.427480916030534,-76.01526717557252,2.519083969465649,-0.27197265625,-0.044189453125,-0.47265625,1.5708
2.5343511450381677,-76.01526717557252,2.3053435114503817,-0.2705078125,-0.043701171875,-0.470947265625,1.5725
2.732824427480916,-75.74045801526718,2.366412213740458,-0.27294921875,-0.0419921875,-0.4794921875,1.5741999999999998
2.8091603053435112,-75.6030534351145,2.183206106870229,-0.27392578125,-0.044189453125,-0.47705078125,1.5758999999999999
2.8091603053435112,-75.26717557251908,2.33587786259542,-0.2783203125,-0.042236328125,-0.465576171875,1.5776
2.4885496183206106,-75.19083969465649,2.2595419847328246,-0.276611328125,-0.044677734375,-0.4619140625,1.5793
2.7786259541984735,-75.09923664122137,2.3053435114503817,-0.27734375,-0.044677734375,-0.479248046875,1.581
2.854961832061069,-74.73282442748092,2.198473282442748,-0.27685546875,-0.042236328125,-0.4755859375,1.5827
2.7938931297709924,-74.68702290076335,2.2442748091603053,-0.2802734375,-0.04638671875,-0.47314453125,1.5843999999999998
2.6106870229007635,-74.4885496183206,2.16793893129771,-0.28076171875,-0.0439453125,-0.472412109375,1.5860999999999998
3.0076335877862594,-74.35114503816794,2.16793893129771,-0.281494140625,-0.0439453125,-0.464111328125,1.5877999999999999
2.7022900763358777,-74.33587786259542,1.9083969465648856,-0.27783203125,-0.044921875,-0.46533203125,1.5895
2.8396946564885495,-74.04580152671755,1.9541984732824427,-0.28271484375,-0.043701171875,-0.466552734375,1.5912
3.1908396946564888,-74.04580152671755,1.6641221374045803,-0.279296875,-0.038330078125,-0.466796875,1.5929
2.8702290076335877,-73.98473282442748,1.9083969465648856,-0.281005859375,-0.0419921875,-0.466796875,1.5946
3.053435114503817,-73.81679389312977,1.633587786259542,-0.278564453125,-0.047119140625,-0.465087890625,1.5962999999999998
2.885496183206107,-73.80152671755725,1.6946564885496183,-0.279052734375,-0.044189453125,-0.4619140625,1.5979999999999999
3.0076335877862594,-73.63358778625954,1.5572519083969465,-0.2783203125,-0.043212890625,-0.45849609375,1.5997
3.0839694656488548,-73.80152671755725,1.450381679389313,-0.281005859375,-0.0458984375,-0.46142578125,1.6014
2.9923664122137406,-73.87786259541984,1.465648854961832,-0.2900390625,-0.0458984375,-0.458984375,1.6031
3.068702290076336,-73.64885496183206,1.4198473282442747,-0.28759765625,-0.04443359375,-0.462890625,1.6048
3.145038167938931,-74.01526717557252,1.4351145038167938,-0.288330078125,-0.048095703125,-0.456787109375,1.6064999999999998
3.2519083969465647,-73.69465648854961,1.5267175572519085,-0.284912109375,-0.04296875,-0.45361328125,1.6081999999999999
3.450381679389313,-73.90839694656489,1.282442748091603,-0.287353515625,-0.044677734375,-0.451171875,1.6098999999999999
3.2519083969465647,-73.8473282442748,1.5267175572519085,-0.291015625,-0.04638671875,-0.45166015625,1.6116
3.1908396946564888,-73.93893129770993,1.251908396946565,-0.28857421875,-0.046875,-0.459716796875,1.6133
3.3893129770992365,-73.95419847328245,1.3893129770992367,-0.28759765625,-0.046875,-0.4521484375,1.615
3.49618320610687,-74.07633587786259,1.5267175572519085,-0.284423828125,-0.046142578125,-0.452880859375,1.6166999999999998
3.633587786259542,-74.16793893129771,1.4198473282442747,-0.291259765625,-0.0478515625,-0.452880859375,1.6183999999999998
3.5877862595419847,-74.16793893129771,1.083969465648855,-0.2939453125,-0.04443359375,-0.45703125,1.6200999999999999
3.5419847328244276,-74.0,1.282442748091603,-0.2978515625,-0.048583984375,-0.4453125,1.6218
3.450381679389313,-73.92366412213741,1.4351145038167938,-0.2890625,-0.049560546875,-0.452392578125,1.6235
3.572519083969466,-74.01526717557252,1.2061068702290076,-0.29296875,-0.0498046875,-0.450439453125,1.6252
3.5114503816793894,-73.98473282442748,1.282442748091603,-0.29443359375,-0.048828125,-0.45263671875,1.6269
3.5877862595419847,-73.95419847328245,1.099236641221374,-0.294921875,-0.047607421875,-0.451171875,1.6285999999999998
3.5114503816793894,-73.83206106870229,1.251908396946565,-0.297607421875,-0.049072265625,-0.4521484375,1.6302999999999999
3.49618320610687,-73.74045801526718,1.4045801526717556,-0.297607421875,-0.052734375,-0.452392578125,1.632
3.5114503816793894,-73.8473282442748,1.450381679389313,-0.296630859375,-0.04345703125,-0.440185546875,1.6337
3.480916030534351,-73.61832061068702,1.5114503816793894,-0.30419921875,-0.047119140625,-0.449462890625,1.6354
3.1908396946564888,-73.81679389312977,1.2213740458015268,-0.30615234375,-0.050537109375,-0.448974609375,1.6371
3.4198473282442747,-73.43511450381679,1.5114503816793894,-0.298583984375,-0.04931640625,-0.44921875,1.6387999999999998
3.6030534351145036,-73.63358778625954,1.5267175572519085,-0.3056640625,-0.04736328125,-0.447509765625,1.6404999999999998
3.2213740458015265,-73.31297709923665,1.5877862595419847,-0.30712890625,-0.04052734375,-0.446044921875,1.6421999999999999
3.3893129770992365,-73.08396946564885,1.4961832061068703,-0.310791015625,-0.052001953125,-0.44482421875,1.6439
3.5877862595419847,-73.05343511450381,1.8625954198473282,-0.30859375,-0.05078125,-0.441162109375,1.6456
3.49618320610687,-72.87022900763358,1.7099236641221374,-0.311279296875,-0.046142578125,-0.45068359375,1.6473
3.2977099236641223,-72.93129770992367,1.5419847328244274,-0.3115234375,-0.0458984375,-0.451171875,1.6489999999999998
3.450381679389313,-72.73282442748092,1.6641221374045803,-0.312255859375,-0.051025390625,-0.44873046875,1.6506999999999998
3.3435114503816794,-72.51908396946565,1.5725190839694656,-0.3154296875,-0.044921875,-0.444091796875,1.6523999999999999
3.5419847328244276,-72.35114503816794,1.5877862595419847,-0.314208984375,-0.047607421875,-0.43994140625,1.6541
3.450381679389313,-72.12213740458016,1.6793893129770991,-0.316162109375,-0.05419921875,-0.434814453125,1.6558
3.435114503816794,-71.90839694656489,1.6793893129770991,-0.319580078125,-0.048095703125,-0.434814453125,1.6575
3.5419847328244276,-71.80152671755725,1.7404580152671756,-0.3212890625,-0.051513671875,-0.432861328125,1.6592
3.572519083969466,-71.58778625954199,1.7709923664122138,-0.32080078125,-0.05029296875,-0.4345703125,1.6608999999999998
3.6030534351145036,-71.37404580152672,1.5114503816793894,-0.323486328125,-0.05029296875,-0.431884765625,1.6625999999999999
3.1755725190839694,-71.06870229007633,1.618320610687023,-0.31787109375,-0.047607421875,-0.430908203125,1.6643
3.435114503816794,-70.85496183206106,1.7099236641221374,-0.31591796875,-0.049072265625,-0.427734375,1.666
3.3282442748091605,-70.61068702290076,1.6030534351145038,-0.31884765625,-0.0498046875,-0.427490234375,1.6677
3.2213740458015265,-70.3206106870229,1.8015267175572518,-0.322021484375,-0.053466796875,-0.43115234375,1.6694
3.3282442748091605,-70.35114503816794,1.7404580152671756,-0.323486328125,-0.0498046875,-0.4287109375,1.6710999999999998
3.404580152671756,-70.13740458015268,1.7099236641221374,-0.323486328125,-0.052978515625,-0.429931640625,1.6727999999999998
3.1908396946564888,-70.12213740458016,2.045801526717557,-0.31640625,-0.05322265625,-0.427978515625,1.6744999999999999
3.145038167938931,-70.0,1.8473282442748091,-0.31982421875,-0.054443359375,-0.426025390625,1.6762
2.946564885496183,-69.98473282442748,1.9083969465648856,-0.316650390625,-0.052490234375,-0.42529296875,1.6779
2.900763358778626,-69.93893129770993,1.8473282442748091,-0.319091796875,-0.052734375,-0.431884765625,1.6796
2.8244274809160306,-69.61832061068702,2.3206106870229006,-0.3203125,-0.05322265625,-0.433349609375,1.6813
2.8091603053435112,-69.74045801526718,2.1374045801526718,-0.31982421875,-0.056640625,-0.4326171875,1.6829999999999998
2.6717557251908395,-69.89312977099236,2.2748091603053435,-0.320068359375,-0.04931640625,-0.42724609375,1.6846999999999999
2.763358778625954,-69.86259541984732,2.4122137404580153,-0.322998046875,-0.053955078125,-0.4287109375,1.6864
2.50381679389313,-69.98473282442748,2.5801526717557253,-0.31787109375,-0.05322265625,-0.43212890625,1.6881
2.3969465648854964,-69.77099236641222,2.6259541984732824,-0.319580078125,-0.0478515625,-0.419921875,1.6898
2.2442748091603053,-69.87786259541984,2.763358778625954,-0.326416015625,-0.05859375,-0.4326171875,1.6915
2.366412213740458,-69.81679389312977,2.564885496183206,-0.326416015625,-0.050537109375,-0.427978515625,1.6931999999999998
2.6717557251908395,-69.69465648854961,2.885496183206107,-0.320556640625,-0.052978515625,-0.42529296875,1.6948999999999999
2.2595419847328246,-69.87786259541984,2.8244274809160306,-0.324951171875,-0.0478515625,-0.425537109375,1.6965999999999999
2.183206106870229,-69.96946564885496,2.931297709923664,-0.33056640625,-0.048095703125,-0.42333984375,1.6983
2.1526717557251906,-69.58778625954199,2.931297709923664,-0.33154296875,-0.049072265625,-0.4248046875,1.7
2.213740458015267,-69.45038167938931,2.9923664122137406,-0.332763671875,-0.04931640625,-0.414794921875,1.7017
2.1526717557251906,-69.45038167938931,2.5801526717557253,-0.331298828125,-0.04541015625,-0.423095703125,1.7033999999999998
2.030534351145038,-69.38931297709924,2.8091603053435112,-0.3251953125,-0.04833984375,-0.424072265625,1.7050999999999998
2.3206106870229006,-69.37404580152672,2.854961832061069,-0.33203125,-0.048583984375,-0.417724609375,1.7067999999999999
2.0610687022900764,-69.37404580152672,2.854961832061069,-0.332763671875,-0.04541015625,-0.419189453125,1.7085
2.3206106870229006,-69.34351145038168,2.931297709923664,-0.33740234375,-0.043212890625,-0.418701171875,1.7102
2.183206106870229,-69.12977099236642,2.854961832061069,-0.3349609375,-0.050537109375,-0.422607421875,1.7119
2.3206106870229006,-68.9618320610687,2.732824427480916,-0.33447265625,-0.047607421875,-0.420166015625,1.7136
1.9541984732824427,-69.02290076335878,2.6564885496183206,-0.337646484375,-0.0498046875,-0.4189453125,1.7152999999999998
2.1526717557251906,-68.59541984732824,2.6106870229007635,-0.33349609375,-0.049072265625,-0.410888671875,1.7169999999999999
2.4885496183206106,-68.35114503816794,2.564885496183206,-0.34033203125,-0.050048828125,-0.406982421875,1.7187
2.2900763358778624,-68.19847328244275,2.1374045801526718,-0.338134765625,-0.0458984375,-0.41064453125,1.7204
2.2595419847328246,-68.19847328244275,2.549618320610687,-0.337646484375,-0.052490234375,-0.41162109375,1.7221
2.381679389312977,-67.83206106870229,2.0763358778625953,-0.33740234375,-0.0517578125,-0.39306640625,1.7238
2.4122137404580153,-67.77099236641222,2.198473282442748,-0.336669921875,-0.0458984375,-0.4072265625,1.7254999999999998
2.3053435114503817,-67.77099236641222,2.1374045801526718,-0.340087890625,-0.044921875,-0.4052734375,1.7271999999999998
2.33587786259542,-67.63358778625954,2.0610687022900764,-0.34423828125,-0.0458984375,-0.4072265625,1.7288999999999999
2.50381679389313,-67.38931297709924,2.0916030534351147,-0.337890625,-0.04736328125,-0.40673828125,1.7306
2.4427480916030535,-67.37404580152672,2.198473282442748,-0.338134765625,-0.047607421875,-0.40625,1.7323
2.7022900763358777,-67.19083969465649,1.9694656488549618,-0.34326171875,-0.048828125,-0.412109375,1.734
2.6717557251908395,-67.29770992366412,2.0763358778625953,-0.346435546875,-0.04443359375,-0.401611328125,1.7356999999999998
2.7480916030534353,-67.14503816793894,1.9389312977099236,-0.345947265625,-0.04931640625,-0.397216796875,1.7373999999999998
2.7480916030534353,-67.14503816793894,2.213740458015267,-0.3486328125,-0.048828125,-0.39599609375,1.7390999999999999
2.717557251908397,-66.77862595419847,1.6793893129770991,-0.34375,-0.048828125,-0.3974609375,1.7408
2.763358778625954,-66.67175572519083,1.83206106870229,-0.343017578125,-0.0419921875,-0.393798828125,1.7425
2.763358778625954,-66.47328244274809,1.9389312977099236,-0.34765625,-0.044189453125,-0.3984375,1.7442
2.9160305343511452,-66.62595419847328,1.8473282442748091,-0.349365234375,-0.043701171875,-0.396728515625,1.7459
2.763358778625954,-66.54961832061069,1.7251908396946565,-0.348388671875,-0.04931640625,-0.400634765625,1.7475999999999998
2.900763358778626,-66.25954198473282,1.786259541984733,-0.347900390625,-0.045166015625,-0.395263671875,1.7492999999999999
2.9923664122137406,-66.16793893129771,1.633587786259542,-0.349609375,-0.040771484375,-0.39599609375,1.751
2.9770992366412212,-66.12213740458016,1.786259541984733,-0.356201171875,-0.043701171875,-0.392822265625,1.7527
2.7022900763358777,-66.06106870229007,1.7557251908396947,-0.350830078125,-0.04150390625,-0.400146484375,1.7544
2.8702290076335877,-65.86259541984732,1.6946564885496183,-0.3525390625,-0.045654296875,-0.401123046875,1.7561
3.145038167938931,-65.6793893129771,1.5877862595419847,-0.35791015625,-0.044921875,-0.3974609375,1.7577999999999998
3.068702290076336,-65.61832061068702,1.7557251908396947,-0.3564453125,-0.03857421875,-0.394287109375,1.7594999999999998
2.8244274809160306,-65.45038167938931,1.1908396946564885,-0.356201171875,-0.039306640625,-0.39453125,1.7611999999999999
3.2977099236641223,-65.45038167938931,1.4961832061068703,-0.357421875,-0.0439453125,-0.386474609375,1.7629
3.2977099236641223,-65.46564885496183,1.5572519083969465,-0.361083984375,-0.039306640625,-0.4033203125,1.7646
3.145038167938931,-65.34351145038168,1.3435114503816794,-0.364501953125,-0.04638671875,-0.396240234375,1.7663
3.1755725190839694,-65.25190839694656,1.2671755725190839,-0.361328125,-0.042724609375,-0.382080078125,1.7679999999999998
3.5419847328244276,-65.17557251908397,1.251908396946565,-0.362060546875,-0.0458984375,-0.387451171875,1.7696999999999998
3.5267175572519083,-64.82442748091603,1.1755725190839694,-0.36083984375,-0.04052734375,-0.391845703125,1.7713999999999999
3.053435114503817,-64.41221374045801,1.1755725190839694,-0.36328125,-0.042236328125,-0.39013671875,1.7731
3.2213740458015265,-64.50381679389314,1.099236641221374,-0.36279296875,-0.04248046875,-0.3837890625,1.7748
3.5877862595419847,-64.54961832061069,1.099236641221374,-0.359130859375,-0.04052734375,-0.384765625,1.7765
3.6793893129770994,-64.3206106870229,1.0687022900763359,-0.36181640625,-0.041748046875,-0.383056640625,1.7782
3.5114503816793894,-64.16793893129771,0.8702290076335878,-0.36083984375,-0.04150390625,-0.39208984375,1.7798999999999998
3.572519083969466,-64.01526717557252,0.7480916030534351,-0.364501953125,-0.043701171875,-0.3828125,1.7815999999999999
3.49618320610687,-63.98473282442748,0.9007633587786259,-0.36181640625,-0.041748046875,-0.381591796875,1.7832999999999999
3.618320610687023,-63.64885496183206,0.6870229007633588,-0.364990234375,-0.046142578125,-0.381591796875,1.785
3.8625954198473282,-63.49618320610687,0.8549618320610687,-0.369384765625,-0.0400390625,-0.3828125,1.7867
3.7099236641221376,-63.45038167938932,0.7633587786259542,-0.3642578125,-0.037353515625,-0.386474609375,1.7884
3.8625954198473282,-63.099236641221374,0.7175572519083969,-0.368896484375,-0.042236328125,-0.37890625,1.7900999999999998
3.6946564885496183,-62.93129770992366,0.5190839694656488,-0.367919921875,-0.044677734375,-0.38916015625,1.7917999999999998
4.061068702290076,-62.732824427480914,0.5038167938931297,-0.3681640625,-0.04443359375,-0.3876953125,1.7934999999999999
3.801526717557252,-62.76335877862596,0.32061068702290074,-0.36962890625,-0.044189453125,-0.38232421875,1.7952
4.015267175572519,-62.50381679389313,0.4122137404580153,-0.369140625,-0.04052734375,-0.38232421875,1.7969
4.106870229007634,-62.35114503816794,0.3511450381679389,-0.372802734375,-0.04150390625,-0.380859375,1.7986
4.229007633587786,-62.458015267175576,0.3969465648854962,-0.37255859375,-0.04052734375,-0.373779296875,1.8002999999999998
4.2748091603053435,-62.152671755725194,0.24427480916030533,-0.3681640625,-0.041259765625,-0.375244140625,1.8019999999999998
3.9236641221374047,-61.969465648854964,0.33587786259541985,-0.368896484375,-0.04833984375,-0.38330078125,1.8036999999999999
4.122137404580153,-61.86259541984733,0.5038167938931297,-0.373046875,-0.043212890625,-0.3779296875,1.8054
4.213740458015267,-61.63358778625954,0.549618320610687,-0.3720703125,-0.047119140625,-0.376708984375,1.8071
4.137404580152672,-61.43511450381679,0.4580152671755725,-0.373291015625,-0.046630859375,-0.365478515625,1.8088
4.290076335877862,-61.31297709923664,0.3969465648854962,-0.374755859375,-0.040283203125,-0.36767578125,1.8105
4.564885496183206,-61.267175572519086,0.4732824427480916,-0.3740234375,-0.042724609375,-0.36865234375,1.8121999999999998
