gyrox1,gyroy1,gyroz1,accelx1,accely1,accelz1,Time
3.6030534351145036,1.2671755725190839,0.3816793893129771,-0.41650390625,0.001708984375,-0.343994140625,0.0
3.2977099236641223,1.4198473282442747,0.366412213740458,-0.40966796875,0.0068359375,-0.351806640625,0.0017
3.3282442748091605,1.3587786259541985,0.32061068702290074,-0.409912109375,-0.00146484375,-0.344482421875,0.0034
3.267175572519084,1.450381679389313,0.3511450381679389,-0.417236328125,0.002685546875,-0.35009765625,0.0050999999999999995
3.114503816793893,1.5114503816793894,0.42748091603053434,-0.413818359375,0.0,-0.3515625,0.0068
3.2519083969465647,1.4961832061068703,0.4122137404580153,-0.41845703125,0.003662109375,-0.354736328125,0.008499999999999999
2.931297709923664,1.633587786259542,0.4732824427480916,-0.4130859375,0.003173828125,-0.352294921875,0.010199999999999999
2.885496183206107,1.633587786259542,0.2595419847328244,-0.411376953125,0.00244140625,-0.352294921875,0.011899999999999999
2.8244274809160306,1.8778625954198473,0.15267175572519084,-0.411865234375,0.002685546875,-0.34765625,0.0136
2.8396946564885495,1.816793893129771,0.366412213740458,-0.410888671875,0.0,-0.341796875,0.0153
2.8396946564885495,1.9083969465648856,0.44274809160305345,-0.41064453125,-0.00439453125,-0.3349609375,0.016999999999999998
2.8091603053435112,2.1068702290076335,0.15267175572519084,-0.41064453125,0.005615234375,-0.3427734375,0.018699999999999998
2.6717557251908395,1.984732824427481,0.33587786259541985,-0.415771484375,0.0068359375,-0.343017578125,0.020399999999999998
2.564885496183206,1.9083969465648856,0.015267175572519083,-0.41259765625,-0.000732421875,-0.340576171875,0.022099999999999998
2.4885496183206106,2.0610687022900764,0.22900763358778625,-0.41015625,0.002197265625,-0.345947265625,0.023799999999999998
2.549618320610687,1.9389312977099236,0.1984732824427481,-0.4111328125,0.007080078125,-0.351318359375,0.0255
2.198473282442748,2.0610687022900764,0.24427480916030533,-0.411865234375,0.0029296875,-0.349365234375,0.0272
2.0,2.045801526717557,0.183206106870229,-0.41357421875,0.002197265625,-0.34619140625,0.0289
2.427480916030534,2.0610687022900764,0.0916030534351145,-0.4140625,0.006591796875,-0.3486328125,0.0306
2.0916030534351147,1.9389312977099236,0.24427480916030533,-0.410888671875,0.008544921875,-0.352783203125,0.032299999999999995
1.9083969465648856,2.0763358778625953,0.3053435114503817,-0.4091796875,0.0068359375,-0.351318359375,0.033999999999999996
1.8931297709923665,2.183206106870229,0.3053435114503817,-0.410888671875,0.0029296875,-0.3505859375,0.035699999999999996
1.8778625954198473,2.0916030534351147,0.3816793893129771,-0.41015625,0.006103515625,-0.34521484375,0.037399999999999996
1.8778625954198473,2.1374045801526718,0.2900763358778626,-0.41015625,0.004150390625,-0.35888671875,0.039099999999999996
1.8778625954198473,2.2442748091603053,0.24427480916030533,-0.41845703125,0.0078125,-0.345947265625,0.040799999999999996
1.5114503816793894,2.4732824427480917,0.3053435114503817,-0.41357421875,0.0,-0.3505859375,0.042499999999999996
1.3740458015267176,2.4885496183206106,0.21374045801526717,-0.4169921875,0.004638671875,-0.355224609375,0.044199999999999996
1.7557251908396947,2.4885496183206106,0.366412213740458,-0.409912109375,0.002197265625,-0.35302734375,0.045899999999999996
1.6030534351145038,2.50381679389313,0.2748091603053435,-0.416748046875,0.006103515625,-0.34326171875,0.047599999999999996
1.5114503816793894,2.4580152671755724,0.10687022900763359,-0.4150390625,0.010498046875,-0.353759765625,0.0493
1.3587786259541985,2.7022900763358777,-0.061068702290076333,-0.4130859375,0.013427734375,-0.345458984375,0.051
1.5419847328244274,2.8396946564885495,-0.030534351145038167,-0.416015625,0.0068359375,-0.348388671875,0.0527
1.4198473282442747,2.885496183206107,0.061068702290076333,-0.412353515625,0.005126953125,-0.35107421875,0.0544
1.5267175572519085,2.946564885496183,0.0,-0.412109375,0.00439453125,-0.35595703125,0.0561
1.2213740458015268,3.0839694656488548,-0.10687022900763359,-0.413818359375,0.005126953125,-0.3544921875,0.0578
1.465648854961832,3.1603053435114505,0.061068702290076333,-0.4140625,0.007080078125,-0.350830078125,0.0595
1.4351145038167938,3.3587786259541983,-0.2595419847328244,-0.4150390625,0.00439453125,-0.347412109375,0.0612
1.4809160305343512,3.2213740458015265,-0.183206106870229,-0.413330078125,0.010986328125,-0.3427734375,0.0629
1.4961832061068703,3.236641221374046,-0.366412213740458,-0.410400390625,0.009521484375,-0.347900390625,0.06459999999999999
1.3129770992366412,3.3587786259541983,-0.24427480916030533,-0.413330078125,0.0146484375,-0.348876953125,0.0663
1.3129770992366412,3.267175572519084,-0.32061068702290074,-0.4130859375,0.01416015625,-0.348876953125,0.06799999999999999
1.297709923664122,3.5267175572519083,-0.42748091603053434,-0.4189453125,0.00732421875,-0.356201171875,0.0697
1.3893129770992367,3.6030534351145036,-0.2900763358778626,-0.4091796875,0.00439453125,-0.3564453125,0.07139999999999999
1.4809160305343512,3.5877862595419847,-0.3816793893129771,-0.40771484375,0.009521484375,-0.357177734375,0.0731
1.5572519083969465,3.618320610687023,-0.5801526717557252,-0.4140625,0.00634765625,-0.346435546875,0.07479999999999999
1.4198473282442747,3.7557251908396947,-0.4732824427480916,-0.41259765625,0.010498046875,-0.35107421875,0.0765
1.4351145038167938,3.7709923664122136,-0.549618320610687,-0.412109375,0.009033203125,-0.351318359375,0.07819999999999999
1.4045801526717556,3.877862595419847,-0.5954198473282443,-0.414794921875,0.007568359375,-0.352783203125,0.0799
1.5267175572519085,3.8625954198473282,-0.7022900763358778,-0.415283203125,0.007080078125,-0.347900390625,0.08159999999999999
1.450381679389313,4.0,-0.6106870229007634,-0.409912109375,0.00732421875,-0.35791015625,0.0833
1.5267175572519085,4.0458015267175576,-0.6564885496183206,-0.408447265625,0.00830078125,-0.3544921875,0.08499999999999999
1.6030534351145038,4.030534351145038,-0.5954198473282443,-0.408935546875,0.0146484375,-0.350341796875,0.0867
1.4809160305343512,4.106870229007634,-0.8549618320610687,-0.408447265625,0.00830078125,-0.354736328125,0.08839999999999999
1.5419847328244274,4.137404580152672,-0.5648854961832062,-0.40966796875,0.015380859375,-0.35693359375,0.0901
1.4809160305343512,4.198473282442748,-0.8396946564885496,-0.40625,0.014404296875,-0.3505859375,0.09179999999999999
1.4809160305343512,4.015267175572519,-0.732824427480916,-0.4140625,0.006103515625,-0.351806640625,0.0935
1.4961832061068703,4.137404580152672,-0.8702290076335878,-0.412841796875,0.009765625,-0.3505859375,0.09519999999999999
1.6488549618320612,4.305343511450381,-0.7938931297709924,-0.407958984375,0.0107421875,-0.349853515625,0.0969
1.5114503816793894,4.122137404580153,-1.0229007633587786,-0.4111328125,0.01416015625,-0.353759765625,0.0986
1.6641221374045803,4.106870229007634,-0.8854961832061069,-0.40966796875,0.011474609375,-0.351318359375,0.1003
1.6946564885496183,4.259541984732825,-1.1297709923664123,-0.406982421875,0.008056640625,-0.350341796875,0.102
1.786259541984733,4.076335877862595,-0.8244274809160306,-0.407958984375,0.013671875,-0.349853515625,0.1037
1.7404580152671756,4.015267175572519,-0.9312977099236641,-0.407470703125,0.00927734375,-0.349853515625,0.1054
1.8931297709923665,4.061068702290076,-0.8702290076335878,-0.4091796875,0.01318359375,-0.360595703125,0.1071
1.9389312977099236,3.9236641221374047,-0.916030534351145,-0.410400390625,0.012939453125,-0.35986328125,0.1088
1.6488549618320612,3.8473282442748094,-0.9312977099236641,-0.41162109375,0.014404296875,-0.356201171875,0.11049999999999999
1.786259541984733,3.786259541984733,-0.7938931297709924,-0.403076171875,0.015380859375,-0.3525390625,0.1122
1.8778625954198473,4.0,-0.7022900763358778,-0.40576171875,0.009033203125,-0.353515625,0.11389999999999999
2.0763358778625953,3.9083969465648853,-0.8091603053435115,-0.40234375,0.00634765625,-0.3603515625,0.1156
2.0916030534351147,3.7251908396946565,-0.8549618320610687,-0.40576171875,0.012451171875,-0.35693359375,0.11729999999999999
2.045801526717557,3.9236641221374047,-0.7633587786259542,-0.41064453125,0.00439453125,-0.350830078125,0.119
1.8931297709923665,3.877862595419847,-0.7480916030534351,-0.408935546875,0.012939453125,-0.351318359375,0.12069999999999999
1.9541984732824427,3.83206106870229,-0.8244274809160306,-0.40673828125,0.01318359375,-0.3564453125,0.1224
1.8778625954198473,3.7557251908396947,-0.7175572519083969,-0.4052734375,0.013427734375,-0.35302734375,0.12409999999999999
2.030534351145038,3.786259541984733,-0.8244274809160306,-0.409912109375,0.011474609375,-0.3583984375,0.1258
2.1526717557251906,3.7251908396946565,-0.6717557251908397,-0.408203125,0.0146484375,-0.353515625,0.1275
2.16793893129771,3.7251908396946565,-0.7022900763358778,-0.40673828125,0.01416015625,-0.345703125,0.12919999999999998
2.030534351145038,3.633587786259542,-0.5343511450381679,-0.406494140625,0.010009765625,-0.365478515625,0.1309
2.366412213740458,3.572519083969466,-0.6564885496183206,-0.408203125,0.008056640625,-0.35791015625,0.1326
2.4885496183206106,3.5419847328244276,-0.3816793893129771,-0.406494140625,0.005859375,-0.35009765625,0.1343
2.3206106870229006,3.5267175572519083,-0.6870229007633588,-0.4013671875,0.013427734375,-0.342529296875,0.13599999999999998
2.2595419847328246,3.5572519083969465,-0.5190839694656488,-0.406982421875,0.014404296875,-0.357177734375,0.1377
2.351145038167939,3.4198473282442747,-0.7022900763358778,-0.40576171875,0.011962890625,-0.350341796875,0.1394
2.4580152671755724,3.5877862595419847,-0.44274809160305345,-0.409912109375,0.0107421875,-0.356689453125,0.1411
2.6106870229007635,3.5419847328244276,-0.5801526717557252,-0.402587890625,0.005615234375,-0.3544921875,0.14279999999999998
2.4732824427480917,3.3893129770992365,-0.24427480916030533,-0.4013671875,0.010009765625,-0.35400390625,0.1445
2.4732824427480917,3.282442748091603,-0.3511450381679389,-0.40185546875,0.009521484375,-0.352294921875,0.1462
2.732824427480916,3.145038167938931,-0.3969465648854962,-0.408935546875,0.003662109375,-0.3544921875,0.1479
2.8244274809160306,3.236641221374046,-0.4732824427480916,-0.402587890625,0.0126953125,-0.351806640625,0.14959999999999998
2.8091603053435112,3.2519083969465647,-0.4580152671755725,-0.3994140625,0.011962890625,-0.35400390625,0.1513
2.7786259541984735,2.9923664122137406,-0.2748091603053435,-0.40185546875,0.00732421875,-0.361328125,0.153
2.763358778625954,3.053435114503817,-0.24427480916030533,-0.40478515625,0.012451171875,-0.35302734375,0.1547
2.8244274809160306,2.946564885496183,-0.5648854961832062,-0.405517578125,0.00927734375,-0.35888671875,0.15639999999999998
2.8091603053435112,3.0839694656488548,-0.21374045801526717,-0.4052734375,0.014404296875,-0.351806640625,0.1581
3.099236641221374,3.0076335877862594,-0.2900763358778626,-0.405029296875,0.00927734375,-0.348388671875,0.1598
3.0229007633587788,2.854961832061069,-0.3053435114503817,-0.401611328125,0.010498046875,-0.350830078125,0.1615
3.053435114503817,2.763358778625954,-0.12213740458015267,-0.40625,0.01123046875,-0.352294921875,0.16319999999999998
3.282442748091603,2.931297709923664,-0.2900763358778626,-0.406982421875,0.0087890625,-0.354248046875,0.1649
3.1297709923664123,2.687022900763359,-0.3816793893129771,-0.4033203125,0.009033203125,-0.35546875,0.1666
3.1297709923664123,2.5343511450381677,-0.10687022900763359,-0.40380859375,0.008544921875,-0.34912109375,0.16829999999999998
3.1297709923664123,2.6412213740458017,-0.24427480916030533,-0.40283203125,0.010498046875,-0.350830078125,0.16999999999999998
3.068702290076336,2.6259541984732824,-0.16793893129770993,-0.404052734375,0.01025390625,-0.356201171875,0.1717
3.099236641221374,2.50381679389313,-0.030534351145038167,-0.405517578125,0.0078125,-0.361328125,0.1734
3.099236641221374,2.351145038167939,0.12213740458015267,-0.399169921875,0.008544921875,-0.35498046875,0.17509999999999998
3.1603053435114505,2.2595419847328246,-0.12213740458015267,-0.402587890625,0.0146484375,-0.358154296875,0.17679999999999998
3.1297709923664123,2.1526717557251906,0.0,-0.404296875,0.009033203125,-0.350341796875,0.1785
3.267175572519084,2.0916030534351147,-0.16793893129770993,-0.40283203125,0.010009765625,-0.3515625,0.1802
3.114503816793893,2.198473282442748,-0.183206106870229,-0.404541015625,0.005859375,-0.35546875,0.18189999999999998
3.2213740458015265,2.2900763358778624,0.030534351145038167,-0.3994140625,0.006591796875,-0.352783203125,0.18359999999999999
3.114503816793893,2.1068702290076335,0.0916030534351145,-0.402099609375,0.005615234375,-0.35986328125,0.1853
3.068702290076336,2.122137404580153,0.2595419847328244,-0.403076171875,0.00390625,-0.3515625,0.187
3.2061068702290076,2.030534351145038,0.061068702290076333,-0.40625,0.0078125,-0.358154296875,0.18869999999999998
3.053435114503817,2.16793893129771,0.12213740458015267,-0.4033203125,0.009033203125,-0.359619140625,0.19039999999999999
3.099236641221374,2.16793893129771,0.0916030534351145,-0.40966796875,0.010986328125,-0.354736328125,0.1921
3.282442748091603,1.8778625954198473,0.2900763358778626,-0.402099609375,0.00244140625,-0.35107421875,0.1938
3.2061068702290076,1.8473282442748091,0.3511450381679389,-0.402587890625,0.0068359375,-0.34912109375,0.19549999999999998
2.931297709923664,1.8473282442748091,0.21374045801526717,-0.405029296875,0.0068359375,-0.36279296875,0.1972
3.114503816793893,1.618320610687023,0.0916030534351145,-0.40869140625,0.0068359375,-0.361083984375,0.1989
3.282442748091603,1.6030534351145038,0.2748091603053435,-0.406005859375,0.01025390625,-0.361083984375,0.2006
3.0381679389312977,1.7251908396946565,0.3816793893129771,-0.402099609375,0.006591796875,-0.35888671875,0.20229999999999998
3.267175572519084,1.618320610687023,0.2748091603053435,-0.4033203125,0.005126953125,-0.357421875,0.204
3.2213740458015265,1.4809160305343512,0.22900763358778625,-0.3984375,0.0087890625,-0.36279296875,0.2057
3.0839694656488548,1.3740458015267176,0.42748091603053434,-0.40234375,0.01318359375,-0.360595703125,0.2074
2.9923664122137406,1.5572519083969465,0.44274809160305345,-0.40478515625,0.01123046875,-0.35400390625,0.20909999999999998
3.0076335877862594,1.465648854961832,0.42748091603053434,-0.404052734375,0.005859375,-0.348876953125,0.2108
3.145038167938931,1.2366412213740459,0.24427480916030533,-0.4072265625,0.002685546875,-0.3515625,0.2125
3.053435114503817,1.099236641221374,0.4580152671755725,-0.401611328125,0.007568359375,-0.3544921875,0.2142
2.9770992366412212,1.1603053435114503,0.3969465648854962,-0.40673828125,0.0107421875,-0.359130859375,0.21589999999999998
3.114503816793893,0.9618320610687023,0.33587786259541985,-0.401611328125,0.002685546875,-0.3603515625,0.2176
2.9160305343511452,0.9312977099236641,0.5190839694656488,-0.40087890625,0.007568359375,-0.356689453125,0.2193
2.946564885496183,0.916030534351145,0.5954198473282443,-0.402099609375,0.00830078125,-0.35986328125,0.22099999999999997
3.0076335877862594,0.9770992366412213,0.3053435114503817,-0.40673828125,0.010986328125,-0.355224609375,0.22269999999999998
2.854961832061069,0.7022900763358778,0.366412213740458,-0.40869140625,0.0087890625,-0.356201171875,0.2244
2.8702290076335877,0.8854961832061069,0.549618320610687,-0.398681640625,0.00830078125,-0.366455078125,0.2261
2.900763358778626,0.6870229007633588,0.32061068702290074,-0.40234375,0.00634765625,-0.3515625,0.22779999999999997
2.7480916030534353,0.4732824427480916,0.2900763358778626,-0.405517578125,0.009521484375,-0.361572265625,0.22949999999999998
2.9618320610687023,0.4580152671755725,0.366412213740458,-0.408447265625,0.011962890625,-0.354248046875,0.2312
2.900763358778626,0.3969465648854962,0.22900763358778625,-0.40380859375,0.005126953125,-0.350830078125,0.2329
2.7938931297709924,0.3816793893129771,0.2748091603053435,-0.4052734375,0.007568359375,-0.35986328125,0.23459999999999998
2.7938931297709924,0.4732824427480916,0.3816793893129771,-0.407470703125,0.008544921875,-0.355712890625,0.23629999999999998
2.549618320610687,0.21374045801526717,0.2748091603053435,-0.40576171875,0.00732421875,-0.360107421875,0.238
2.687022900763359,0.3511450381679389,0.21374045801526717,-0.403564453125,0.009765625,-0.35302734375,0.2397
2.717557251908397,0.2595419847328244,0.22900763358778625,-0.402099609375,0.00927734375,-0.35498046875,0.24139999999999998
2.564885496183206,0.07633587786259542,-0.04580152671755725,-0.4033203125,0.00341796875,-0.345703125,0.24309999999999998
2.351145038167939,0.04580152671755725,0.22900763358778625,-0.40771484375,0.009765625,-0.359619140625,0.2448
2.519083969465649,0.3053435114503817,-0.015267175572519083,-0.404052734375,0.006591796875,-0.359375,0.2465
2.4580152671755724,0.015267175572519083,-0.030534351145038167,-0.40625,0.005615234375,-0.35546875,0.24819999999999998
2.4732824427480917,0.12213740458015267,-0.10687022900763359,-0.405029296875,0.010009765625,-0.354248046875,0.24989999999999998
2.519083969465649,0.030534351145038167,-0.24427480916030533,-0.40185546875,0.01025390625,-0.3544921875,0.2516
2.3969465648854964,-0.24427480916030533,-0.5190839694656488,-0.40283203125,0.008056640625,-0.360595703125,0.25329999999999997
2.4732824427480917,-0.33587786259541985,-0.1984732824427481,-0.404296875,0.01025390625,-0.3525390625,0.255
2.4580152671755724,-0.2595419847328244,-0.48854961832061067,-0.4033203125,0.009521484375,-0.357666015625,0.2567
2.4580152671755724,-0.3969465648854962,-0.4122137404580153,-0.40087890625,0.01123046875,-0.3583984375,0.25839999999999996
2.1526717557251906,-0.5038167938931297,-0.6259541984732825,-0.404541015625,0.0078125,-0.357421875,0.2601
2.122137404580153,-0.5648854961832062,-0.32061068702290074,-0.40283203125,0.0087890625,-0.3486328125,0.2618
2.366412213740458,-0.5648854961832062,-0.5038167938931297,-0.403076171875,0.007080078125,-0.35498046875,0.2635
2.2748091603053435,-0.7022900763358778,-0.6106870229007634,-0.40673828125,0.00537109375,-0.3564453125,0.2652
2.015267175572519,-0.6870229007633588,-0.6717557251908397,-0.406982421875,0.005859375,-0.35205078125,0.26689999999999997
1.9236641221374047,-0.6106870229007634,-0.6717557251908397,-0.409423828125,0.0048828125,-0.3515625,0.2686
2.0,-0.6870229007633588,-0.732824427480916,-0.4072265625,0.00439453125,-0.347412109375,0.2703
1.9541984732824427,-0.7938931297709924,-0.549618320610687,-0.4072265625,0.0087890625,-0.358154296875,0.27199999999999996
1.8778625954198473,-0.7633587786259542,-0.4732824427480916,-0.403564453125,0.0087890625,-0.35595703125,0.2737
1.83206106870229,-0.6564885496183206,-0.5954198473282443,-0.40380859375,0.001220703125,-0.35498046875,0.2754
1.8473282442748091,-0.6564885496183206,-0.8244274809160306,-0.41162109375,0.006591796875,-0.3544921875,0.27709999999999996
1.6641221374045803,-0.5190839694656488,-0.6717557251908397,-0.407958984375,0.006591796875,-0.363037109375,0.2788
1.5419847328244274,-0.3969465648854962,-0.6106870229007634,-0.4072265625,0.0068359375,-0.36279296875,0.28049999999999997
1.4198473282442747,-0.732824427480916,-0.5801526717557252,-0.408935546875,0.004638671875,-0.35791015625,0.2822
1.251908396946565,-0.6259541984732825,-0.6106870229007634,-0.406982421875,0.001220703125,-0.360595703125,0.2839
1.282442748091603,-0.4122137404580153,-0.6870229007633588,-0.408935546875,0.00537109375,-0.35888671875,0.28559999999999997
1.083969465648855,-0.44274809160305345,-0.7633587786259542,-0.41259765625,0.00390625,-0.353271484375,0.2873
1.3282442748091603,-0.3511450381679389,-0.5190839694656488,-0.410400390625,0.00732421875,-0.358642578125,0.289
1.1755725190839694,-0.3053435114503817,-0.8244274809160306,-0.40966796875,0.005126953125,-0.35400390625,0.29069999999999996
0.8091603053435115,-0.1984732824427481,-0.9312977099236641,-0.40234375,0.005615234375,-0.365234375,0.2924
0.916030534351145,-0.015267175572519083,-0.8854961832061069,-0.408203125,0.009765625,-0.35888671875,0.2941
1.0229007633587786,0.10687022900763359,-0.6412213740458015,-0.41015625,0.005615234375,-0.3583984375,0.2958
0.8549618320610687,0.07633587786259542,-1.0687022900763359,-0.4091796875,0.0068359375,-0.3603515625,0.2975
0.9007633587786259,0.12213740458015267,-1.0534351145038168,-0.41455078125,0.009521484375,-0.35693359375,0.29919999999999997
1.083969465648855,0.21374045801526717,-1.0381679389312977,-0.413330078125,0.0087890625,-0.354736328125,0.3009
1.0381679389312977,0.13740458015267176,-1.1145038167938932,-0.413330078125,0.012939453125,-0.35791015625,0.3026
0.7938931297709924,0.21374045801526717,-1.1755725190839694,-0.41162109375,0.01171875,-0.3544921875,0.30429999999999996
0.7480916030534351,0.3053435114503817,-1.1145038167938932,-0.412841796875,0.0087890625,-0.35546875,0.306
0.7786259541984732,0.48854961832061067,-1.1908396946564885,-0.416015625,0.0126953125,-0.34814453125,0.3077
0.5038167938931297,0.3816793893129771,-0.9618320610687023,-0.40966796875,0.008544921875,-0.3544921875,0.3094
0.8091603053435115,0.5648854961832062,-1.251908396946565,-0.408447265625,0.005859375,-0.35302734375,0.3111
0.8244274809160306,0.8091603053435115,-1.1603053435114503,-0.411865234375,0.00732421875,-0.34765625,0.31279999999999997
0.7175572519083969,1.0534351145038168,-1.251908396946565,-0.416748046875,0.01220703125,-0.355224609375,0.3145
0.6870229007633588,0.9923664122137404,-1.1145038167938932,-0.414306640625,0.012939453125,-0.355712890625,0.3162
0.8702290076335878,0.8854961832061069,-1.0534351145038168,-0.413330078125,0.0166015625,-0.3447265625,0.31789999999999996
0.6870229007633588,0.9465648854961832,-1.1297709923664123,-0.4150390625,0.009033203125,-0.35302734375,0.3196
0.732824427480916,1.450381679389313,-1.2671755725190839,-0.4130859375,0.010986328125,-0.349853515625,0.3213
0.4732824427480916,1.618320610687023,-1.099236641221374,-0.4130859375,0.013671875,-0.35986328125,0.323
0.6564885496183206,1.618320610687023,-1.2366412213740459,-0.413330078125,0.013427734375,-0.353271484375,0.3247
0.6564885496183206,1.6641221374045803,-1.2061068702290076,-0.4111328125,0.0078125,-0.351318359375,0.32639999999999997
0.6106870229007634,1.6946564885496183,-1.282442748091603,-0.411865234375,0.013427734375,-0.351806640625,0.3281
0.4732824427480916,1.7557251908396947,-1.0687022900763359,-0.40966796875,0.01171875,-0.35986328125,0.3298
0.4122137404580153,1.9541984732824427,-1.2671755725190839,-0.408935546875,0.00830078125,-0.356201171875,0.33149999999999996
0.3969465648854962,2.015267175572519,-1.282442748091603,-0.408447265625,0.0107421875,-0.3544921875,0.3332
0.44274809160305345,1.9236641221374047,-1.3587786259541985,-0.41162109375,0.0107421875,-0.357666015625,0.3349
0.8091603053435115,2.0916030534351147,-1.099236641221374,-0.4140625,0.0126953125,-0.354248046875,0.33659999999999995
0.7022900763358778,2.3969465648854964,-1.3282442748091603,-0.413818359375,0.010498046875,-0.361328125,0.3383
0.3816793893129771,2.2290076335877864,-1.282442748091603,-0.4072265625,0.012939453125,-0.34912109375,0.33999999999999997
0.48854961832061067,2.2290076335877864,-1.251908396946565,-0.417724609375,0.014892578125,-0.3515625,0.3417
0.6412213740458015,2.5343511450381677,-1.1908396946564885,-0.40771484375,0.01171875,-0.36279296875,0.3434
0.6106870229007634,2.717557251908397,-1.0229007633587786,-0.41455078125,0.0166015625,-0.345703125,0.34509999999999996
0.4732824427480916,2.7786259541984735,-1.3129770992366412,-0.409912109375,0.01220703125,-0.35205078125,0.3468
0.5343511450381679,2.6106870229007635,-1.2366412213740459,-0.410400390625,0.014892578125,-0.363037109375,0.3485
0.5190839694656488,2.7022900763358777,-1.0076335877862594,-0.40478515625,0.010986328125,-0.3505859375,0.35019999999999996
0.48854961832061067,2.900763358778626,-1.1908396946564885,-0.41015625,0.016845703125,-0.3544921875,0.3519
0.916030534351145,3.0381679389312977,-1.0381679389312977,-0.40966796875,0.01611328125,-0.360107421875,0.35359999999999997
0.6106870229007634,3.0229007633587788,-1.0076335877862594,-0.41259765625,0.010009765625,-0.3544921875,0.3553
0.6106870229007634,2.9923664122137406,-1.099236641221374,-0.41015625,0.019287109375,-0.359375,0.357
0.732824427480916,3.053435114503817,-1.1755725190839694,-0.41259765625,0.01953125,-0.362548828125,0.35869999999999996
0.7633587786259542,3.1908396946564888,-1.099236641221374,-0.41162109375,0.015625,-0.36083984375,0.3604
0.6870229007633588,3.1603053435114505,-1.1297709923664123,-0.41162109375,0.014404296875,-0.35986328125,0.3621
0.7786259541984732,3.267175572519084,-1.1603053435114503,-0.41455078125,0.014892578125,-0.362548828125,0.36379999999999996
0.8854961832061069,3.3435114503816794,-1.0076335877862594,-0.408447265625,0.014404296875,-0.3603515625,0.3655
0.8244274809160306,3.2977099236641223,-1.1450381679389312,-0.407470703125,0.010986328125,-0.349853515625,0.36719999999999997
0.7786259541984732,3.2519083969465647,-0.9618320610687023,-0.408203125,0.01171875,-0.3486328125,0.3689
0.7938931297709924,3.145038167938931,-1.1297709923664123,-0.40966796875,0.02001953125,-0.3603515625,0.3706
0.916030534351145,3.3435114503816794,-1.0534351145038168,-0.406494140625,0.015625,-0.352783203125,0.37229999999999996
1.0687022900763359,3.4656488549618323,-1.2213740458015268,-0.41064453125,0.0107421875,-0.35693359375,0.374
1.1145038167938932,3.5114503816793894,-1.099236641221374,-0.414794921875,0.0146484375,-0.35693359375,0.3757
1.099236641221374,3.2213740458015265,-1.2061068702290076,-0.40625,0.013916015625,-0.351318359375,0.37739999999999996
1.0229007633587786,3.3587786259541983,-1.2671755725190839,-0.410400390625,0.01611328125,-0.356201171875,0.3791
1.1145038167938932,3.3740458015267176,-1.1450381679389312,-0.4111328125,0.0146484375,-0.346435546875,0.38079999999999997
1.1450381679389312,3.3435114503816794,-1.099236641221374,-0.408447265625,0.013427734375,-0.35693359375,0.38249999999999995
1.099236641221374,3.66412213740458,-1.4351145038167938,-0.41259765625,0.0126953125,-0.357666015625,0.3842
1.1450381679389312,3.7251908396946565,-1.3435114503816794,-0.407958984375,0.014892578125,-0.3544921875,0.38589999999999997
1.1755725190839694,3.5267175572519083,-1.4351145038167938,-0.407958984375,0.008544921875,-0.349853515625,0.3876
1.3740458015267176,3.5419847328244276,-1.251908396946565,-0.405517578125,0.0166015625,-0.35205078125,0.3893
1.3740458015267176,3.5419847328244276,-1.4198473282442747,-0.40478515625,0.017578125,-0.352294921875,0.39099999999999996
1.282442748091603,3.648854961832061,-1.3740458015267176,-0.40869140625,0.01318359375,-0.355712890625,0.3927
1.5419847328244274,3.7251908396946565,-1.3435114503816794,-0.40673828125,0.013427734375,-0.354736328125,0.3944
1.5267175572519085,3.7251908396946565,-1.465648854961832,-0.412109375,0.015380859375,-0.3603515625,0.39609999999999995
1.450381679389313,3.7557251908396947,-1.5267175572519085,-0.40673828125,0.015625,-0.3564453125,0.3978
1.633587786259542,3.633587786259542,-1.3893129770992367,-0.408447265625,0.025390625,-0.356201171875,0.39949999999999997
1.5572519083969465,3.6946564885496183,-1.5877862595419847,-0.41455078125,0.008544921875,-0.356689453125,0.4012
1.6488549618320612,3.7404580152671754,-1.5419847328244274,-0.411376953125,0.01025390625,-0.3583984375,0.4029
1.6793893129770991,3.786259541984733,-1.5114503816793894,-0.412109375,0.019775390625,-0.35546875,0.40459999999999996
1.816793893129771,3.66412213740458,-1.5877862595419847,-0.40625,0.015625,-0.355224609375,0.4063
1.8473282442748091,3.7251908396946565,-1.618320610687023,-0.40576171875,0.017578125,-0.352294921875,0.408
1.5725190839694656,3.7557251908396947,-1.465648854961832,-0.40625,0.01123046875,-0.35693359375,0.40969999999999995
1.8778625954198473,3.7099236641221376,-1.6488549618320612,-0.407470703125,0.0146484375,-0.36328125,0.4114
1.9694656488549618,3.7251908396946565,-1.618320610687023,-0.4052734375,0.013427734375,-0.35693359375,0.41309999999999997
1.450381679389313,3.7709923664122136,-1.7404580152671756,-0.407470703125,0.01220703125,-0.361083984375,0.4148
1.7404580152671756,3.877862595419847,-1.5725190839694656,-0.40283203125,0.0185546875,-0.35498046875,0.4165
1.8931297709923665,3.8931297709923665,-1.816793893129771,-0.407470703125,0.012939453125,-0.361328125,0.41819999999999996
1.8778625954198473,3.8931297709923665,-1.3740458015267176,-0.406494140625,0.010498046875,-0.361083984375,0.4199
1.6641221374045803,3.969465648854962,-1.8778625954198473,-0.409912109375,0.013916015625,-0.356201171875,0.4216
1.8778625954198473,3.9236641221374047,-1.7404580152671756,-0.409423828125,0.010498046875,-0.3603515625,0.42329999999999995
2.0,3.8625954198473282,-1.5419847328244274,-0.4072265625,0.010986328125,-0.35205078125,0.425
1.8778625954198473,4.0,-1.3740458015267176,-0.408203125,0.010498046875,-0.361328125,0.42669999999999997
1.8473282442748091,3.9083969465648853,-1.6946564885496183,-0.404296875,0.012939453125,-0.361328125,0.4284
1.7099236641221374,3.969465648854962,-1.7099236641221374,-0.409912109375,0.01416015625,-0.3701171875,0.4301
1.7404580152671756,4.076335877862595,-1.8473282442748091,-0.409423828125,0.011962890625,-0.355224609375,0.43179999999999996
1.8931297709923665,3.969465648854962,-1.5877862595419847,-0.407958984375,0.0078125,-0.3544921875,0.4335
1.8778625954198473,3.9389312977099236,-1.7251908396946565,-0.40771484375,0.01220703125,-0.36181640625,0.4352
1.7251908396946565,4.0458015267175576,-1.816793893129771,-0.403076171875,0.010009765625,-0.37060546875,0.43689999999999996
1.6793893129770991,3.786259541984733,-1.7709923664122138,-0.40771484375,0.01904296875,-0.359375,0.4386
1.7251908396946565,3.9083969465648853,-1.450381679389313,-0.3994140625,0.01123046875,-0.353515625,0.44029999999999997
1.5725190839694656,4.030534351145038,-1.8015267175572518,-0.408203125,0.0107421875,-0.357177734375,0.44199999999999995
1.8015267175572518,4.122137404580153,-1.7099236641221374,-0.40380859375,0.0078125,-0.36572265625,0.4437
1.786259541984733,4.0,-1.8015267175572518,-0.40283203125,0.011962890625,-0.361083984375,0.44539999999999996
1.8473282442748091,3.969465648854962,-1.6488549618320612,-0.39892578125,0.01025390625,-0.36328125,0.4471
1.6641221374045803,3.9083969465648853,-1.633587786259542,-0.40478515625,0.01123046875,-0.34765625,0.4488
1.786259541984733,3.9236641221374047,-1.7251908396946565,-0.4013671875,0.0087890625,-0.358154296875,0.45049999999999996
1.5114503816793894,4.0,-1.6488549618320612,-0.40380859375,0.007080078125,-0.36083984375,0.4522
1.4809160305343512,3.8473282442748094,-1.8015267175572518,-0.39990234375,0.009765625,-0.3623046875,0.45389999999999997
1.6030534351145038,3.8931297709923665,-1.7099236641221374,-0.409912109375,0.013427734375,-0.357177734375,0.45559999999999995
1.5114503816793894,3.816793893129771,-1.5419847328244274,-0.401123046875,0.00927734375,-0.35595703125,0.4573
1.4809160305343512,3.83206106870229,-1.7709923664122138,-0.40185546875,0.009521484375,-0.35791015625,0.45899999999999996
1.5877862595419847,3.83206106870229,-1.5877862595419847,-0.401611328125,0.01513671875,-0.356201171875,0.4607
1.5419847328244274,3.9236641221374047,-1.5877862595419847,-0.40478515625,0.0087890625,-0.362060546875,0.4624
1.7251908396946565,3.9236641221374047,-1.3740458015267176,-0.40576171875,0.0087890625,-0.35791015625,0.46409999999999996
1.5572519083969465,3.7557251908396947,-1.618320610687023,-0.400390625,0.009033203125,-0.357666015625,0.4658
1.7404580152671756,3.801526717557252,-1.5725190839694656,-0.405029296875,0.010009765625,-0.359130859375,0.46749999999999997
1.3740458015267176,3.801526717557252,-1.5877862595419847,-0.402587890625,0.0107421875,-0.36083984375,0.46919999999999995
1.5725190839694656,3.816793893129771,-1.4198473282442747,-0.407958984375,0.0068359375,-0.34814453125,0.4709
1.6946564885496183,3.7099236641221376,-1.816793893129771,-0.40625,0.0078125,-0.366455078125,0.47259999999999996
1.618320610687023,3.801526717557252,-1.7099236641221374,-0.398193359375,0.009765625,-0.3525390625,0.4743
1.6641221374045803,3.816793893129771,-1.7557251908396947,-0.4013671875,0.00830078125,-0.355712890625,0.476
1.450381679389313,3.7251908396946565,-1.5267175572519085,-0.400146484375,0.01220703125,-0.36669921875,0.47769999999999996
1.6641221374045803,3.877862595419847,-1.5572519083969465,-0.409423828125,0.009033203125,-0.352783203125,0.4794
1.5572519083969465,3.5114503816793894,-1.5419847328244274,-0.4111328125,0.01025390625,-0.351318359375,0.48109999999999997
1.5114503816793894,3.5114503816793894,-1.6946564885496183,-0.40380859375,0.010498046875,-0.35400390625,0.48279999999999995
1.6030534351145038,3.6030534351145036,-1.5572519083969465,-0.398193359375,0.011962890625,-0.35546875,0.4845
1.4961832061068703,3.5877862595419847,-1.5725190839694656,-0.40478515625,0.01171875,-0.36083984375,0.48619999999999997
1.297709923664122,3.49618320610687,-1.6488549618320612,-0.402099609375,0.0068359375,-0.359130859375,0.4879
1.3740458015267176,3.450381679389313,-1.5114503816793894,-0.404541015625,0.0078125,-0.358642578125,0.4896
1.3587786259541985,3.5572519083969465,-1.4198473282442747,-0.40478515625,0.010498046875,-0.359619140625,0.49129999999999996
1.3893129770992367,3.480916030534351,-1.5114503816793894,-0.399658203125,0.01025390625,-0.356201171875,0.493
1.2671755725190839,3.2061068702290076,-1.3587786259541985,-0.406494140625,0.008056640625,-0.356689453125,0.4947
1.2061068702290076,3.4656488549618323,-1.450381679389313,-0.4033203125,0.010498046875,-0.356201171875,0.49639999999999995
1.3282442748091603,3.5114503816793894,-1.3587786259541985,-0.403076171875,0.0068359375,-0.359619140625,0.4981
1.5114503816793894,3.282442748091603,-1.1908396946564885,-0.40478515625,0.015380859375,-0.365966796875,0.49979999999999997
1.099236641221374,3.3587786259541983,-1.251908396946565,-0.404296875,0.005126953125,-0.357421875,0.5015
1.1603053435114503,3.450381679389313,-1.282442748091603,-0.4033203125,0.010498046875,-0.360107421875,0.5032
1.1908396946564885,3.4198473282442747,-1.450381679389313,-0.40380859375,0.014404296875,-0.3603515625,0.5049
1.2366412213740459,3.3587786259541983,-1.251908396946565,-0.4013671875,0.00439453125,-0.354736328125,0.5065999999999999
1.0076335877862594,3.2977099236641223,-1.0534351145038168,-0.405029296875,0.005859375,-0.3564453125,0.5083
0.9770992366412213,3.114503816793893,-1.0229007633587786,-0.4033203125,0.00830078125,-0.3642578125,0.51
1.0534351145038168,3.1908396946564888,-1.1603053435114503,-0.402099609375,0.00732421875,-0.3671875,0.5116999999999999
0.9465648854961832,3.145038167938931,-1.0534351145038168,-0.40380859375,0.00634765625,-0.368408203125,0.5134
1.0076335877862594,2.9618320610687023,-1.1145038167938932,-0.39794921875,0.0078125,-0.362060546875,0.5151
1.251908396946565,3.1908396946564888,-0.8244274809160306,-0.396484375,0.009033203125,-0.362060546875,0.5167999999999999
0.9923664122137404,3.0076335877862594,-0.7786259541984732,-0.398193359375,0.005859375,-0.357177734375,0.5185
0.7480916030534351,2.854961832061069,-0.9007633587786259,-0.40087890625,0.010498046875,-0.35986328125,0.5202
0.9465648854961832,2.732824427480916,-0.7633587786259542,-0.400634765625,0.01416015625,-0.35595703125,0.5218999999999999
0.8854961832061069,2.8244274809160306,-0.8854961832061069,-0.40234375,0.0078125,-0.366455078125,0.5236
0.916030534351145,2.7786259541984735,-0.6870229007633588,-0.400146484375,0.0087890625,-0.36083984375,0.5253
0.9007633587786259,2.8091603053435112,-0.6564885496183206,-0.396728515625,0.015625,-0.35791015625,0.527
1.0076335877862594,2.5801526717557253,-0.8091603053435115,-0.404541015625,0.0087890625,-0.366943359375,0.5287
0.9312977099236641,2.50381679389313,-0.6412213740458015,-0.403076171875,0.01123046875,-0.3603515625,0.5304
0.9007633587786259,2.427480916030534,-0.6717557251908397,-0.40478515625,0.010009765625,-0.364013671875,0.5321
0.9007633587786259,2.33587786259542,-0.6870229007633588,-0.402099609375,0.008056640625,-0.373046875,0.5337999999999999
0.8549618320610687,2.351145038167939,-0.6259541984732825,-0.40380859375,0.00732421875,-0.362060546875,0.5355
0.8244274809160306,2.4427480916030535,-0.3969465648854962,-0.396728515625,0.0107421875,-0.363037109375,0.5372
1.083969465648855,2.381679389312977,-0.5801526717557252,-0.399658203125,0.0107421875,-0.3603515625,0.5388999999999999
1.0229007633587786,2.4427480916030535,-0.4732824427480916,-0.40380859375,0.00927734375,-0.35498046875,0.5406
0.8396946564885496,2.3053435114503817,-0.24427480916030533,-0.4033203125,0.00830078125,-0.365234375,0.5423
0.732824427480916,2.4580152671755724,-0.21374045801526717,-0.407470703125,0.010986328125,-0.35986328125,0.5439999999999999
0.8244274809160306,2.351145038167939,-0.32061068702290074,-0.39990234375,0.008544921875,-0.369140625,0.5457
0.9312977099236641,2.1526717557251906,-0.3053435114503817,-0.40087890625,0.010498046875,-0.368896484375,0.5474
0.8396946564885496,2.0610687022900764,-0.16793893129770993,-0.397705078125,0.010986328125,-0.352294921875,0.5490999999999999
0.8702290076335878,2.1068702290076335,-0.21374045801526717,-0.40087890625,0.016357421875,-0.363525390625,0.5508
0.8549618320610687,2.2290076335877864,-0.24427480916030533,-0.404541015625,0.008544921875,-0.36328125,0.5525
0.916030534351145,2.351145038167939,-0.16793893129770993,-0.40185546875,0.01171875,-0.35986328125,0.5541999999999999
0.9618320610687023,1.9694656488549618,-0.24427480916030533,-0.4052734375,0.015869140625,-0.3662109375,0.5559
0.7175572519083969,2.16793893129771,-0.015267175572519083,-0.399658203125,0.01220703125,-0.36279296875,0.5576
0.7480916030534351,2.0610687022900764,-0.15267175572519084,-0.40478515625,0.008544921875,-0.36279296875,0.5593
0.9923664122137404,1.9389312977099236,-0.16793893129770993,-0.396240234375,0.015869140625,-0.365966796875,0.5609999999999999
0.8091603053435115,1.8015267175572518,-0.0916030534351145,-0.39697265625,0.01416015625,-0.37109375,0.5627
0.8854961832061069,1.7099236641221374,-0.3053435114503817,-0.4052734375,0.013916015625,-0.3662109375,0.5644
0.9465648854961832,1.8625954198473282,-0.061068702290076333,-0.398193359375,0.007080078125,-0.3583984375,0.5660999999999999
0.916030534351145,1.8015267175572518,0.15267175572519084,-0.398681640625,0.012939453125,-0.358642578125,0.5678
0.8854961832061069,1.7099236641221374,0.015267175572519083,-0.404052734375,0.010009765625,-0.35546875,0.5695
0.8702290076335878,1.4961832061068703,0.13740458015267176,-0.40380859375,0.015869140625,-0.365234375,0.5711999999999999
0.7633587786259542,1.4961832061068703,-0.015267175572519083,-0.40283203125,0.013427734375,-0.357177734375,0.5729
0.7022900763358778,1.6030534351145038,0.10687022900763359,-0.406494140625,0.014404296875,-0.359130859375,0.5746
0.8244274809160306,1.450381679389313,-0.183206106870229,-0.40966796875,0.01220703125,-0.361572265625,0.5762999999999999
0.8396946564885496,1.3587786259541985,-0.0916030534351145,-0.4072265625,0.01318359375,-0.35791015625,0.578
0.9770992366412213,1.3893129770992367,-0.16793893129770993,-0.400390625,0.011962890625,-0.36328125,0.5797
0.9312977099236641,1.4198473282442747,0.061068702290076333,-0.39892578125,0.01318359375,-0.363525390625,0.5813999999999999
0.9007633587786259,1.2671755725190839,-0.16793893129770993,-0.400146484375,0.007080078125,-0.35498046875,0.5831
0.8854961832061069,1.2061068702290076,-0.04580152671755725,-0.401123046875,0.009033203125,-0.358154296875,0.5848
0.8854961832061069,1.1603053435114503,0.16793893129770993,-0.40380859375,0.011474609375,-0.35546875,0.5865
0.8244274809160306,1.099236641221374,0.10687022900763359,-0.40087890625,0.010986328125,-0.36328125,0.5882
0.732824427480916,1.0229007633587786,-0.0916030534351145,-0.403076171875,0.012939453125,-0.35888671875,0.5899
0.8854961832061069,0.8854961832061069,-0.07633587786259542,-0.3994140625,0.01171875,-0.363037109375,0.5916
0.7480916030534351,0.916030534351145,-0.07633587786259542,-0.396240234375,0.014892578125,-0.363525390625,0.5932999999999999
0.7022900763358778,0.9618320610687023,0.030534351145038167,-0.400634765625,0.0185546875,-0.3564453125,0.595
0.732824427480916,1.0534351145038168,-0.1984732824427481,-0.3974609375,0.0087890625,-0.3681640625,0.5967
0.7786259541984732,0.9770992366412213,-0.15267175572519084,-0.401611328125,0.009521484375,-0.36865234375,0.5983999999999999
1.0076335877862594,0.8091603053435115,-0.22900763358778625,-0.40234375,0.01611328125,-0.35791015625,0.6001
0.7938931297709924,0.8244274809160306,-0.04580152671755725,-0.401611328125,0.013916015625,-0.361572265625,0.6018
0.732824427480916,0.6870229007633588,-0.2595419847328244,-0.4013671875,0.012939453125,-0.364013671875,0.6034999999999999
0.5190839694656488,0.7022900763358778,-0.13740458015267176,-0.4052734375,0.009521484375,-0.361572265625,0.6052
0.732824427480916,0.48854961832061067,-0.21374045801526717,-0.40185546875,0.008544921875,-0.3564453125,0.6069
0.8396946564885496,0.6717557251908397,-0.366412213740458,-0.39794921875,0.013427734375,-0.357421875,0.6085999999999999
0.8396946564885496,0.5801526717557252,-0.183206106870229,-0.399658203125,0.01513671875,-0.357666015625,0.6103
0.8854961832061069,0.3816793893129771,-0.21374045801526717,-0.3984375,0.0146484375,-0.36572265625,0.612
0.7480916030534351,0.366412213740458,-0.32061068702290074,-0.40283203125,0.01171875,-0.361083984375,0.6136999999999999
0.6717557251908397,0.5648854961832062,-0.07633587786259542,-0.403076171875,0.01171875,-0.3603515625,0.6154
0.6717557251908397,0.3053435114503817,-0.32061068702290074,-0.400634765625,0.01318359375,-0.356689453125,0.6171
0.7633587786259542,0.4580152671755725,-0.366412213740458,-0.398681640625,0.012939453125,-0.35888671875,0.6188
0.7175572519083969,0.4732824427480916,-0.366412213740458,-0.39892578125,0.013671875,-0.358642578125,0.6204999999999999
0.5954198473282443,0.22900763358778625,-0.2900763358778626,-0.39990234375,0.013916015625,-0.357666015625,0.6222
0.7175572519083969,0.3053435114503817,-0.5648854961832062,-0.402587890625,0.0068359375,-0.360595703125,0.6239
0.6717557251908397,0.33587786259541985,-0.4122137404580153,-0.395263671875,0.013916015625,-0.36083984375,0.6255999999999999
0.6106870229007634,0.21374045801526717,-0.5190839694656488,-0.39990234375,0.01318359375,-0.361083984375,0.6273
0.9465648854961832,0.1984732824427481,-0.5648854961832062,-0.40576171875,0.0146484375,-0.361328125,0.629
0.6564885496183206,0.32061068702290074,-0.4122137404580153,-0.40673828125,0.016357421875,-0.3544921875,0.6306999999999999
0.5038167938931297,0.21374045801526717,-0.4580152671755725,-0.403564453125,0.011474609375,-0.351318359375,0.6324
0.7786259541984732,0.21374045801526717,-0.5954198473282443,-0.405517578125,0.0126953125,-0.36181640625,0.6341
0.5954198473282443,0.10687022900763359,-0.5801526717557252,-0.400146484375,0.0126953125,-0.355224609375,0.6357999999999999
0.5648854961832062,0.2900763358778626,-0.7175572519083969,-0.3994140625,0.01123046875,-0.352783203125,0.6375
0.4732824427480916,0.1984732824427481,-0.6106870229007634,-0.4033203125,0.00390625,-0.3603515625,0.6392
0.42748091603053434,0.22900763358778625,-0.6259541984732825,-0.3994140625,0.01611328125,-0.3623046875,0.6408999999999999
0.7480916030534351,0.21374045801526717,-0.7480916030534351,-0.400634765625,0.01220703125,-0.362548828125,0.6426
0.6259541984732825,0.2900763358778626,-0.6564885496183206,-0.4091796875,0.005859375,-0.36181640625,0.6443
0.4122137404580153,0.22900763358778625,-0.7938931297709924,-0.40283203125,0.009521484375,-0.371337890625,0.646
0.366412213740458,0.21374045801526717,-0.8244274809160306,-0.40478515625,0.01611328125,-0.36083984375,0.6476999999999999
0.549618320610687,0.4580152671755725,-0.9007633587786259,-0.40625,0.015869140625,-0.36279296875,0.6494
0.5190839694656488,0.3053435114503817,-0.8244274809160306,-0.39892578125,0.013671875,-0.358642578125,0.6511
0.32061068702290074,0.3511450381679389,-0.8396946564885496,-0.399169921875,0.00830078125,-0.355712890625,0.6527999999999999
0.3053435114503817,0.3053435114503817,-0.916030534351145,-0.40380859375,0.017822265625,-0.359375,0.6545
0.6106870229007634,0.07633587786259542,-0.8702290076335878,-0.40087890625,0.01171875,-0.358154296875,0.6562
0.21374045801526717,0.24427480916030533,-1.0229007633587786,-0.402099609375,0.01123046875,-0.361328125,0.6578999999999999
0.3511450381679389,0.10687022900763359,-1.1297709923664123,-0.403564453125,0.013427734375,-0.36376953125,0.6596
0.3816793893129771,-0.030534351145038167,-1.0687022900763359,-0.40087890625,0.006103515625,-0.3564453125,0.6613
0.32061068702290074,-0.04580152671755725,-1.0687022900763359,-0.404296875,0.009765625,-0.3603515625,0.6629999999999999
0.42748091603053434,0.10687022900763359,-1.2671755725190839,-0.404296875,0.007080078125,-0.360107421875,0.6647
0.2595419847328244,0.061068702290076333,-1.1755725190839694,-0.404052734375,0.01318359375,-0.36083984375,0.6664
0.13740458015267176,0.0,-1.2213740458015268,-0.40234375,0.010986328125,-0.35986328125,0.6680999999999999
0.33587786259541985,0.061068702290076333,-1.1755725190839694,-0.4052734375,0.009521484375,-0.364990234375,0.6698
0.33587786259541985,0.07633587786259542,-1.3129770992366412,-0.40576171875,0.008544921875,-0.35595703125,0.6715
0.2900763358778626,0.04580152671755725,-1.2366412213740459,-0.400634765625,0.010009765625,-0.3603515625,0.6731999999999999
0.15267175572519084,-0.0916030534351145,-1.6946564885496183,-0.40185546875,0.009033203125,-0.360595703125,0.6748999999999999
0.2900763358778626,-0.030534351145038167,-1.6488549618320612,-0.3994140625,0.00732421875,-0.35888671875,0.6766
0.183206106870229,0.12213740458015267,-1.5419847328244274,-0.403076171875,0.0068359375,-0.35888671875,0.6783
0.21374045801526717,0.030534351145038167,-1.4045801526717556,-0.403564453125,0.008544921875,-0.353515625,0.6799999999999999
0.13740458015267176,-0.12213740458015267,-1.5267175572519085,-0.40283203125,0.01318359375,-0.355224609375,0.6817
-0.030534351145038167,-0.12213740458015267,-1.465648854961832,-0.402099609375,0.01123046875,-0.358154296875,0.6834
0.22900763358778625,-0.0916030534351145,-1.4809160305343512,-0.400634765625,0.0126953125,-0.364501953125,0.6850999999999999
0.15267175572519084,0.0,-1.5114503816793894,-0.406494140625,0.01220703125,-0.363525390625,0.6868
0.061068702290076333,-0.13740458015267176,-1.5572519083969465,-0.401611328125,0.01171875,-0.364501953125,0.6885
0.07633587786259542,-0.21374045801526717,-1.6488549618320612,-0.408203125,0.00830078125,-0.36279296875,0.6901999999999999
-0.15267175572519084,-0.15267175572519084,-1.5725190839694656,-0.40576171875,0.0107421875,-0.361083984375,0.6919
-0.015267175572519083,-0.21374045801526717,-1.4961832061068703,-0.404052734375,0.008056640625,-0.365234375,0.6936
-0.22900763358778625,-0.32061068702290074,-1.5877862595419847,-0.405517578125,0.009521484375,-0.362548828125,0.6952999999999999
-0.366412213740458,-0.4732824427480916,-1.5877862595419847,-0.40576171875,0.00634765625,-0.360595703125,0.697
-0.32061068702290074,-0.44274809160305345,-1.4045801526717556,-0.409423828125,0.009033203125,-0.362548828125,0.6987
-0.183206106870229,-0.183206106870229,-1.618320610687023,-0.40771484375,0.006591796875,-0.359130859375,0.7003999999999999
-0.2595419847328244,-0.2900763358778626,-1.633587786259542,-0.41015625,0.013427734375,-0.3603515625,0.7021
-0.0916030534351145,-0.3969465648854962,-1.7099236641221374,-0.40966796875,0.011962890625,-0.35205078125,0.7038
-0.366412213740458,-0.2900763358778626,-1.8015267175572518,-0.40673828125,0.012451171875,-0.357177734375,0.7055
-0.5190839694656488,-0.22900763358778625,-1.6488549618320612,-0.40234375,0.010498046875,-0.36572265625,0.7071999999999999
-0.2900763358778626,-0.2595419847328244,-1.5877862595419847,-0.40771484375,0.00830078125,-0.35107421875,0.7089
-0.6259541984732825,-0.24427480916030533,-1.6793893129770991,-0.403564453125,0.01220703125,-0.35693359375,0.7106
-0.8091603053435115,-0.061068702290076333,-1.7251908396946565,-0.405517578125,0.015625,-0.3623046875,0.7122999999999999
-0.4122137404580153,-0.1984732824427481,-1.6793893129770991,-0.406005859375,0.006591796875,-0.354248046875,0.714
-0.5648854961832062,-0.2595419847328244,-1.5419847328244274,-0.406982421875,0.00732421875,-0.361328125,0.7157
-0.7480916030534351,0.015267175572519083,-1.5725190839694656,-0.40625,0.01220703125,-0.361572265625,0.7173999999999999
-0.8091603053435115,-0.21374045801526717,-1.4961832061068703,-0.411376953125,0.014892578125,-0.3681640625,0.7191
-0.6564885496183206,-0.13740458015267176,-1.6030534351145038,-0.41162109375,0.01611328125,-0.366455078125,0.7208
-0.7175572519083969,-0.04580152671755725,-1.6030534351145038,-0.412841796875,0.0126953125,-0.35986328125,0.7224999999999999
-0.732824427480916,-0.24427480916030533,-1.7709923664122138,-0.41162109375,0.017822265625,-0.361328125,0.7242
-0.8396946564885496,-0.12213740458015267,-1.5725190839694656,-0.409912109375,0.015380859375,-0.359375,0.7259
-0.732824427480916,-0.2595419847328244,-1.786259541984733,-0.416015625,0.019287109375,-0.362060546875,0.7275999999999999
-0.732824427480916,-0.12213740458015267,-1.786259541984733,-0.412109375,0.015380859375,-0.361083984375,0.7293
-0.6106870229007634,0.21374045801526717,-1.984732824427481,-0.4130859375,0.010986328125,-0.359619140625,0.731
-0.5343511450381679,0.030534351145038167,-1.8625954198473282,-0.412353515625,0.01220703125,-0.362060546875,0.7326999999999999
-0.6717557251908397,0.10687022900763359,-1.8778625954198473,-0.409912109375,0.01318359375,-0.36376953125,0.7343999999999999
-0.5648854961832062,0.1984732824427481,-1.9083969465648856,-0.41064453125,0.017822265625,-0.36083984375,0.7361
-0.48854961832061067,0.33587786259541985,-1.9083969465648856,-0.4130859375,0.01708984375,-0.364501953125,0.7378
-0.2900763358778626,0.4580152671755725,-2.122137404580153,-0.40771484375,0.014404296875,-0.361083984375,0.7394999999999999
-0.4580152671755725,0.33587786259541985,-2.3969465648854964,-0.40380859375,0.015625,-0.356201171875,0.7412
-0.366412213740458,0.5190839694656488,-2.16793893129771,-0.405029296875,0.014404296875,-0.358154296875,0.7429
-0.3053435114503817,0.5038167938931297,-2.213740458015267,-0.4072265625,0.009765625,-0.356201171875,0.7445999999999999
-0.21374045801526717,0.33587786259541985,-2.2442748091603053,-0.405517578125,0.0146484375,-0.35498046875,0.7463
-0.24427480916030533,0.183206106870229,-2.381679389312977,-0.4091796875,0.010986328125,-0.357666015625,0.748
-0.24427480916030533,0.2900763358778626,-2.33587786259542,-0.408935546875,0.01611328125,-0.362548828125,0.7496999999999999
-0.12213740458015267,0.5038167938931297,-2.4122137404580153,-0.40625,0.016845703125,-0.359375,0.7514
-0.3816793893129771,0.5038167938931297,-2.4427480916030535,-0.403564453125,0.011962890625,-0.357177734375,0.7531
-0.24427480916030533,0.5343511450381679,-2.4580152671755724,-0.405029296875,0.01708984375,-0.357666015625,0.7547999999999999
-0.1984732824427481,0.44274809160305345,-2.427480916030534,-0.402099609375,0.0146484375,-0.361328125,0.7565
-0.16793893129770993,0.4580152671755725,-2.717557251908397,-0.41015625,0.015625,-0.36083984375,0.7582
0.04580152671755725,0.5801526717557252,-2.4732824427480917,-0.405029296875,0.015380859375,-0.363037109375,0.7598999999999999
-0.07633587786259542,0.6870229007633588,-2.6259541984732824,-0.404052734375,0.01123046875,-0.362548828125,0.7615999999999999
-0.10687022900763359,0.6564885496183206,-2.6106870229007635,-0.406494140625,0.01416015625,-0.355712890625,0.7633
-0.061068702290076333,0.732824427480916,-2.6412213740458017,-0.404541015625,0.0146484375,-0.35986328125,0.7649999999999999
0.07633587786259542,0.7175572519083969,-2.6259541984732824,-0.40576171875,0.017822265625,-0.3544921875,0.7666999999999999
-0.15267175572519084,0.8702290076335878,-2.7022900763358777,-0.406494140625,0.00830078125,-0.36083984375,0.7684
-0.07633587786259542,0.916030534351145,-2.7938931297709924,-0.411376953125,0.014892578125,-0.357421875,0.7701
0.030534351145038167,0.7938931297709924,-2.8702290076335877,-0.40576171875,0.008056640625,-0.357666015625,0.7717999999999999
-0.07633587786259542,0.8091603053435115,-2.595419847328244,-0.407958984375,0.01123046875,-0.35791015625,0.7735
-0.15267175572519084,0.9618320610687023,-2.7938931297709924,-0.402099609375,0.01025390625,-0.35986328125,0.7752
-0.10687022900763359,0.9007633587786259,-2.7786259541984735,-0.401123046875,0.011962890625,-0.36279296875,0.7768999999999999
0.0,0.8854961832061069,-2.595419847328244,-0.401611328125,0.012939453125,-0.34765625,0.7786
0.07633587786259542,0.9618320610687023,-2.7022900763358777,-0.4013671875,0.009765625,-0.353271484375,0.7803
0.10687022900763359,0.8702290076335878,-2.595419847328244,-0.406005859375,0.013427734375,-0.3544921875,0.7819999999999999
0.1984732824427481,1.0381679389312977,-2.6106870229007635,-0.406494140625,0.010498046875,-0.36474609375,0.7837
0.0916030534351145,0.8549618320610687,-2.854961832061069,-0.404052734375,0.007080078125,-0.35205078125,0.7854
0.15267175572519084,0.8244274809160306,-2.732824427480916,-0.403564453125,0.011474609375,-0.357666015625,0.7870999999999999
-0.10687022900763359,0.8702290076335878,-2.595419847328244,-0.407958984375,0.015380859375,-0.35302734375,0.7888
-0.07633587786259542,0.9770992366412213,-2.4427480916030535,-0.412109375,0.01123046875,-0.361572265625,0.7905
0.3816793893129771,1.0229007633587786,-2.6106870229007635,-0.402099609375,0.01416015625,-0.351318359375,0.7921999999999999
0.10687022900763359,1.0687022900763359,-2.763358778625954,-0.4052734375,0.0087890625,-0.3603515625,0.7938999999999999
0.0,1.0687022900763359,-2.732824427480916,-0.40185546875,0.014404296875,-0.359375,0.7956
0.24427480916030533,0.9007633587786259,-2.4732824427480917,-0.405517578125,0.0107421875,-0.35498046875,0.7973
0.16793893129770993,0.916030534351145,-2.50381679389313,-0.405029296875,0.0126953125,-0.35791015625,0.7989999999999999
0.16793893129770993,0.7022900763358778,-2.519083969465649,-0.408447265625,0.016357421875,-0.35986328125,0.8007
0.2900763358778626,0.549618320610687,-2.687022900763359,-0.40625,0.0107421875,-0.35595703125,0.8024
0.24427480916030533,0.5038167938931297,-2.7022900763358777,-0.404052734375,0.009765625,-0.358154296875,0.8040999999999999
0.24427480916030533,0.7022900763358778,-2.6259541984732824,-0.406982421875,0.012451171875,-0.3564453125,0.8058
0.2900763358778626,0.5801526717557252,-2.549618320610687,-0.4052734375,0.009521484375,-0.356689453125,0.8075
0.3816793893129771,0.6412213740458015,-2.50381679389313,-0.407470703125,0.0087890625,-0.36181640625,0.8091999999999999
0.33587786259541985,0.7022900763358778,-2.519083969465649,-0.40966796875,0.00830078125,-0.35888671875,0.8109
0.32061068702290074,0.9770992366412213,-2.381679389312977,-0.412109375,0.010986328125,-0.359619140625,0.8126
0.5648854961832062,0.9007633587786259,-2.5343511450381677,-0.407470703125,0.010986328125,-0.36572265625,0.8142999999999999
0.33587786259541985,1.2061068702290076,-2.519083969465649,-0.406494140625,0.017822265625,-0.359130859375,0.816
0.5038167938931297,1.2061068702290076,-2.4885496183206106,-0.40185546875,0.0126953125,-0.35986328125,0.8177
0.3969465648854962,0.9923664122137404,-2.549618320610687,-0.40576171875,0.014404296875,-0.351806640625,0.8193999999999999
0.6106870229007634,1.0076335877862594,-2.564885496183206,-0.402099609375,0.01171875,-0.35986328125,0.8210999999999999
0.6106870229007634,1.0534351145038168,-2.4732824427480917,-0.401611328125,0.0078125,-0.36279296875,0.8228
0.6564885496183206,1.099236641221374,-2.4732824427480917,-0.405517578125,0.01416015625,-0.362548828125,0.8244999999999999
0.7022900763358778,0.8549618320610687,-2.50381679389313,-0.3994140625,0.014892578125,-0.362060546875,0.8261999999999999
0.7175572519083969,0.8396946564885496,-2.5801526717557253,-0.399658203125,0.01220703125,-0.35986328125,0.8279
0.6564885496183206,0.732824427480916,-2.4580152671755724,-0.404052734375,0.014404296875,-0.352783203125,0.8296
0.9312977099236641,0.5801526717557252,-2.763358778625954,-0.40234375,0.018798828125,-0.352294921875,0.8312999999999999
0.8549618320610687,0.5343511450381679,-2.351145038167939,-0.40234375,0.021728515625,-0.356201171875,0.833
0.7022900763358778,0.366412213740458,-2.564885496183206,-0.403076171875,0.011962890625,-0.353271484375,0.8347
0.9312977099236641,0.44274809160305345,-2.549618320610687,-0.406494140625,0.010498046875,-0.359375,0.8363999999999999
0.916030534351145,0.2900763358778626,-2.4732824427480917,-0.40185546875,0.008056640625,-0.36376953125,0.8381
1.0076335877862594,0.4122137404580153,-2.595419847328244,-0.403076171875,0.01318359375,-0.353271484375,0.8398
0.8702290076335878,0.5801526717557252,-2.7786259541984735,-0.40673828125,0.011474609375,-0.3662109375,0.8414999999999999
1.083969465648855,0.5190839694656488,-2.427480916030534,-0.408935546875,0.006591796875,-0.344482421875,0.8432
1.1755725190839694,0.5343511450381679,-2.4580152671755724,-0.4091796875,0.011962890625,-0.354736328125,0.8449
1.0381679389312977,0.5343511450381679,-2.427480916030534,-0.404296875,0.0087890625,-0.351806640625,0.8465999999999999
1.3740458015267176,0.7633587786259542,-2.3969465648854964,-0.40283203125,0.00537109375,-0.36474609375,0.8482999999999999
1.1145038167938932,0.6870229007633588,-2.3969465648854964,-0.406005859375,0.0078125,-0.360107421875,0.85
1.0076335877862594,0.6259541984732825,-2.5343511450381677,-0.408935546875,0.004150390625,-0.35693359375,0.8516999999999999
1.0534351145038168,0.6412213740458015,-2.16793893129771,-0.402587890625,0.010498046875,-0.3603515625,0.8533999999999999
0.9618320610687023,0.6412213740458015,-2.16793893129771,-0.4013671875,0.013427734375,-0.356689453125,0.8551
0.9770992366412213,0.6564885496183206,-2.2595419847328246,-0.4033203125,0.003662109375,-0.35791015625,0.8568
1.1297709923664123,0.5648854961832062,-2.381679389312977,-0.402099609375,0.010498046875,-0.35498046875,0.8584999999999999
0.8854961832061069,0.3969465648854962,-2.381679389312977,-0.397216796875,0.013427734375,-0.359375,0.8602
1.0076335877862594,0.22900763358778625,-2.198473282442748,-0.40478515625,0.0107421875,-0.3564453125,0.8619
1.2366412213740459,0.33587786259541985,-2.3053435114503817,-0.3984375,0.010009765625,-0.35205078125,0.8635999999999999
1.0229007633587786,0.3053435114503817,-2.1374045801526718,-0.4033203125,0.008056640625,-0.35009765625,0.8653
1.0687022900763359,0.10687022900763359,-2.045801526717557,-0.40478515625,0.010986328125,-0.358154296875,0.867
1.4198473282442747,0.0,-2.1526717557251906,-0.40380859375,0.013427734375,-0.36083984375,0.8686999999999999
1.1297709923664123,0.183206106870229,-2.1068702290076335,-0.40234375,0.011474609375,-0.361083984375,0.8704
0.916030534351145,0.13740458015267176,-2.1068702290076335,-0.400634765625,0.010009765625,-0.358154296875,0.8721
1.1450381679389312,0.21374045801526717,-2.183206106870229,-0.403564453125,0.00732421875,-0.350830078125,0.8737999999999999
1.2366412213740459,0.061068702290076333,-2.2748091603053435,-0.409912109375,0.010009765625,-0.35302734375,0.8755
1.0076335877862594,0.061068702290076333,-2.0610687022900764,-0.412109375,0.012451171875,-0.3564453125,0.8772
1.1908396946564885,0.183206106870229,-2.0916030534351147,-0.4130859375,0.010009765625,-0.362060546875,0.8788999999999999
0.9923664122137404,0.07633587786259542,-1.8625954198473282,-0.40576171875,0.008056640625,-0.363525390625,0.8805999999999999
1.1908396946564885,0.07633587786259542,-2.0916030534351147,-0.40771484375,0.00927734375,-0.357421875,0.8823
1.0687022900763359,0.015267175572519083,-2.0,-0.40625,0.006591796875,-0.349853515625,0.8839999999999999
1.282442748091603,-0.0916030534351145,-2.2595419847328246,-0.405517578125,0.009521484375,-0.35986328125,0.8856999999999999
1.5114503816793894,0.04580152671755725,-2.0,-0.406982421875,0.011962890625,-0.35888671875,0.8874
1.2213740458015268,0.04580152671755725,-2.122137404580153,-0.405517578125,0.011474609375,-0.3544921875,0.8891
1.3129770992366412,-0.04580152671755725,-2.1374045801526718,-0.406494140625,0.011474609375,-0.364013671875,0.8907999999999999
1.099236641221374,0.07633587786259542,-2.030534351145038,-0.40478515625,0.0078125,-0.356201171875,0.8925
1.3129770992366412,-0.04580152671755725,-1.9694656488549618,-0.40283203125,0.010986328125,-0.359619140625,0.8942
1.3435114503816794,0.015267175572519083,-2.1068702290076335,-0.4072265625,0.01171875,-0.361083984375,0.8958999999999999
1.465648854961832,-0.015267175572519083,-1.9389312977099236,-0.406982421875,0.0078125,-0.350830078125,0.8976
1.1603053435114503,0.0916030534351145,-2.122137404580153,-0.407958984375,0.00927734375,-0.354248046875,0.8993
1.1450381679389312,0.030534351145038167,-2.0916030534351147,-0.40869140625,0.012451171875,-0.35107421875,0.9009999999999999
1.3587786259541985,-0.061068702290076333,-2.0916030534351147,-0.404052734375,0.004638671875,-0.36181640625,0.9027
1.3587786259541985,-0.030534351145038167,-1.816793893129771,-0.4072265625,0.0087890625,-0.3505859375,0.9044
1.1297709923664123,0.13740458015267176,-2.0610687022900764,-0.406005859375,0.011474609375,-0.351318359375,0.9060999999999999
1.251908396946565,-0.10687022900763359,-1.8625954198473282,-0.404296875,0.0126953125,-0.3544921875,0.9077999999999999
1.251908396946565,-0.13740458015267176,-2.0916030534351147,-0.4033203125,0.00927734375,-0.352294921875,0.9095
1.3587786259541985,-0.16793893129770993,-1.786259541984733,-0.4072265625,0.00927734375,-0.35693359375,0.9111999999999999
1.4809160305343512,-0.13740458015267176,-2.015267175572519,-0.406982421875,0.01123046875,-0.354248046875,0.9128999999999999
1.297709923664122,-0.22900763358778625,-1.7709923664122138,-0.404541015625,0.0087890625,-0.3544921875,0.9146
1.3129770992366412,-0.22900763358778625,-2.045801526717557,-0.409912109375,0.0087890625,-0.362060546875,0.9163
1.2366412213740459,-0.10687022900763359,-2.030534351145038,-0.4111328125,0.0107421875,-0.357177734375,0.9179999999999999
1.5267175572519085,-0.0916030534351145,-1.9694656488549618,-0.4130859375,0.00634765625,-0.360107421875,0.9197
1.2671755725190839,0.12213740458015267,-2.0,-0.413818359375,0.01513671875,-0.35302734375,0.9214
1.251908396946565,-0.04580152671755725,-2.1374045801526718,-0.411376953125,0.01416015625,-0.351806640625,0.9230999999999999
1.5572519083969465,-0.061068702290076333,-2.045801526717557,-0.4130859375,0.01123046875,-0.355224609375,0.9248
1.297709923664122,0.0916030534351145,-2.213740458015267,-0.407958984375,0.008544921875,-0.350830078125,0.9265
1.5572519083969465,0.2595419847328244,-2.030534351145038,-0.410400390625,0.01123046875,-0.35107421875,0.9281999999999999
1.3893129770992367,0.21374045801526717,-2.0610687022900764,-0.409912109375,0.0078125,-0.355712890625,0.9299
1.2671755725190839,0.07633587786259542,-2.1526717557251906,-0.411376953125,0.011474609375,-0.35400390625,0.9316
1.251908396946565,0.2900763358778626,-2.1068702290076335,-0.40478515625,0.011474609375,-0.354248046875,0.9332999999999999
1.465648854961832,0.21374045801526717,-2.1068702290076335,-0.402587890625,0.010986328125,-0.35205078125,0.9349999999999999
1.5267175572519085,0.061068702290076333,-2.16793893129771,-0.40576171875,0.00927734375,-0.356201171875,0.9367
1.465648854961832,0.15267175572519084,-2.1068702290076335,-0.406005859375,0.0087890625,-0.356201171875,0.9383999999999999
1.3893129770992367,0.10687022900763359,-2.198473282442748,-0.40673828125,0.006103515625,-0.35986328125,0.9400999999999999
1.618320610687023,0.07633587786259542,-2.2442748091603053,-0.408935546875,0.009765625,-0.35107421875,0.9418
1.450381679389313,0.061068702290076333,-2.16793893129771,-0.405517578125,0.00927734375,-0.361572265625,0.9434999999999999
1.297709923664122,0.061068702290076333,-1.8015267175572518,-0.403564453125,0.009521484375,-0.359375,0.9451999999999999
1.5267175572519085,0.10687022900763359,-2.045801526717557,-0.405029296875,0.011962890625,-0.346923828125,0.9469
1.5419847328244274,0.0916030534351145,-2.045801526717557,-0.405029296875,0.00830078125,-0.34814453125,0.9486
1.282442748091603,-0.015267175572519083,-2.0916030534351147,-0.40625,0.01025390625,-0.3515625,0.9502999999999999
1.3740458015267176,-0.04580152671755725,-1.984732824427481,-0.414794921875,0.00341796875,-0.3623046875,0.952
1.282442748091603,0.0,-2.0,-0.4091796875,0.015625,-0.358154296875,0.9537
1.1603053435114503,0.12213740458015267,-1.8473282442748091,-0.41015625,0.011474609375,-0.34716796875,0.9553999999999999
1.1297709923664123,0.13740458015267176,-1.7557251908396947,-0.4091796875,0.0078125,-0.35693359375,0.9571
1.0534351145038168,0.061068702290076333,-1.7099236641221374,-0.407958984375,0.007080078125,-0.35205078125,0.9588
0.8854961832061069,0.2595419847328244,-1.8473282442748091,-0.408935546875,0.010498046875,-0.3544921875,0.9604999999999999
1.0534351145038168,0.21374045801526717,-1.7709923664122138,-0.41064453125,0.001708984375,-0.345458984375,0.9621999999999999
1.0229007633587786,0.32061068702290074,-1.7557251908396947,-0.4072265625,0.012939453125,-0.353515625,0.9639
1.0534351145038168,0.2748091603053435,-1.7099236641221374,-0.41162109375,0.009033203125,-0.355712890625,0.9655999999999999
1.0381679389312977,0.32061068702290074,-1.9083969465648856,-0.41259765625,0.00732421875,-0.35400390625,0.9672999999999999
1.0381679389312977,0.32061068702290074,-1.7099236641221374,-0.4072265625,0.0107421875,-0.353759765625,0.969
0.9465648854961832,0.44274809160305345,-1.8931297709923665,-0.4072265625,0.01416015625,-0.353271484375,0.9706999999999999
1.297709923664122,0.44274809160305345,-1.8625954198473282,-0.40576171875,0.00927734375,-0.353271484375,0.9723999999999999
0.8854961832061069,0.3969465648854962,-1.9389312977099236,-0.406494140625,0.010498046875,-0.353515625,0.9741
1.1450381679389312,0.1984732824427481,-1.9236641221374047,-0.405029296875,0.0107421875,-0.34814453125,0.9758
1.1603053435114503,0.6106870229007634,-1.984732824427481,-0.40966796875,0.016845703125,-0.343017578125,0.9774999999999999
0.9465648854961832,0.3816793893129771,-2.0,-0.4111328125,0.013427734375,-0.345947265625,0.9792
1.1145038167938932,0.3816793893129771,-1.8931297709923665,-0.406982421875,0.015380859375,-0.3408203125,0.9809
1.450381679389313,0.32061068702290074,-1.9541984732824427,-0.406982421875,0.010986328125,-0.351806640625,0.9825999999999999
1.282442748091603,0.2900763358778626,-2.0916030534351147,-0.404541015625,0.0087890625,-0.34228515625,0.9843
1.2671755725190839,0.48854961832061067,-2.0,-0.410400390625,0.012939453125,-0.345947265625,0.986
1.3129770992366412,0.44274809160305345,-2.0,-0.408203125,0.010986328125,-0.363525390625,0.9876999999999999
1.2213740458015268,0.42748091603053434,-2.045801526717557,-0.415283203125,0.012451171875,-0.3544921875,0.9894
1.2366412213740459,0.4732824427480916,-1.9083969465648856,-0.409912109375,0.008056640625,-0.351806640625,0.9911
1.4351145038167938,0.7175572519083969,-1.83206106870229,-0.4052734375,0.012939453125,-0.351806640625,0.9927999999999999
1.633587786259542,0.6564885496183206,-1.984732824427481,-0.40576171875,0.011474609375,-0.350830078125,0.9944999999999999
1.3893129770992367,0.6106870229007634,-1.9236641221374047,-0.4130859375,0.00537109375,-0.35302734375,0.9962
1.3129770992366412,0.6412213740458015,-1.8931297709923665,-0.410888671875,0.008056640625,-0.3544921875,0.9978999999999999
1.5725190839694656,0.7938931297709924,-1.8015267175572518,-0.41162109375,0.014892578125,-0.3486328125,0.9995999999999999
1.3282442748091603,0.6564885496183206,-1.8015267175572518,-0.408935546875,0.013427734375,-0.361572265625,1.0012999999999999
1.297709923664122,0.6564885496183206,-1.8473282442748091,-0.40771484375,0.00537109375,-0.35400390625,1.003
1.3893129770992367,0.7633587786259542,-1.83206106870229,-0.403564453125,0.009033203125,-0.350341796875,1.0047
1.4045801526717556,0.8549618320610687,-1.7709923664122138,-0.406494140625,0.0068359375,-0.353759765625,1.0064
1.3587786259541985,0.7938931297709924,-1.7709923664122138,-0.410888671875,0.006103515625,-0.353271484375,1.0081
1.4045801526717556,0.8244274809160306,-1.83206106870229,-0.41015625,0.0078125,-0.35986328125,1.0098
1.5114503816793894,0.8091603053435115,-1.7099236641221374,-0.40576171875,0.010498046875,-0.36279296875,1.0114999999999998
1.4198473282442747,0.6717557251908397,-1.8625954198473282,-0.404296875,0.001220703125,-0.349609375,1.0131999999999999
1.251908396946565,0.5954198473282443,-1.8625954198473282,-0.405029296875,0.008544921875,-0.3505859375,1.0149
1.3587786259541985,0.8549618320610687,-1.6946564885496183,-0.410400390625,0.01416015625,-0.35107421875,1.0166
1.450381679389313,0.732824427480916,-1.6946564885496183,-0.408447265625,0.01171875,-0.355712890625,1.0183
1.2213740458015268,0.7633587786259542,-1.7251908396946565,-0.405029296875,0.008544921875,-0.35986328125,1.02
1.3587786259541985,0.6412213740458015,-1.6793893129770991,-0.399169921875,0.013916015625,-0.359130859375,1.0217
1.3587786259541985,0.7022900763358778,-1.6946564885496183,-0.40380859375,0.011962890625,-0.352294921875,1.0233999999999999
1.1603053435114503,0.5038167938931297,-1.5114503816793894,-0.405517578125,0.009033203125,-0.35400390625,1.0251
1.1908396946564885,0.549618320610687,-1.7709923664122138,-0.402587890625,0.00537109375,-0.35595703125,1.0268
1.3435114503816794,0.5954198473282443,-1.4045801526717556,-0.401611328125,0.008056640625,-0.359130859375,1.0285
1.3587786259541985,0.44274809160305345,-1.5267175572519085,-0.40966796875,0.011474609375,-0.359375,1.0302
1.1450381679389312,0.5343511450381679,-1.4961832061068703,-0.402099609375,0.0087890625,-0.35693359375,1.0319
1.0534351145038168,0.6259541984732825,-1.5114503816793894,-0.40380859375,0.013427734375,-0.35009765625,1.0335999999999999
1.297709923664122,0.549618320610687,-1.3893129770992367,-0.410888671875,0.00830078125,-0.355712890625,1.0352999999999999
1.251908396946565,0.5190839694656488,-1.4809160305343512,-0.411865234375,0.00927734375,-0.350830078125,1.037
1.297709923664122,0.5954198473282443,-1.2061068702290076,-0.41015625,0.01123046875,-0.3505859375,1.0387
1.297709923664122,0.5038167938931297,-1.3587786259541985,-0.407470703125,0.0126953125,-0.352783203125,1.0404
1.2366412213740459,0.5801526717557252,-1.3740458015267176,-0.41064453125,0.010498046875,-0.352783203125,1.0421
1.4198473282442747,0.5954198473282443,-1.4198473282442747,-0.41162109375,0.011474609375,-0.353515625,1.0437999999999998
1.2213740458015268,0.5801526717557252,-1.1908396946564885,-0.402099609375,0.0126953125,-0.351318359375,1.0454999999999999
1.297709923664122,0.7480916030534351,-1.297709923664122,-0.41015625,0.01171875,-0.35009765625,1.0472
1.4198473282442747,0.732824427480916,-1.1297709923664123,-0.41259765625,0.005126953125,-0.348876953125,1.0489
1.4961832061068703,0.8091603053435115,-1.3129770992366412,-0.40771484375,0.008056640625,-0.349609375,1.0506
1.450381679389313,1.0381679389312977,-1.282442748091603,-0.410888671875,0.013427734375,-0.353515625,1.0523
1.465648854961832,0.8549618320610687,-1.450381679389313,-0.401611328125,0.01318359375,-0.359375,1.054
1.3435114503816794,0.8549618320610687,-1.3129770992366412,-0.40478515625,0.013671875,-0.352783203125,1.0556999999999999
1.618320610687023,0.8091603053435115,-1.282442748091603,-0.40673828125,0.00732421875,-0.35009765625,1.0574
1.4809160305343512,0.7022900763358778,-1.4351145038167938,-0.4072265625,0.009033203125,-0.352783203125,1.0591
1.4809160305343512,0.7480916030534351,-1.7557251908396947,-0.40771484375,0.01123046875,-0.36328125,1.0608
1.618320610687023,0.7480916030534351,-1.4198473282442747,-0.41259765625,0.01220703125,-0.35791015625,1.0625
1.6488549618320612,0.8549618320610687,-1.4961832061068703,-0.41064453125,0.00927734375,-0.353515625,1.0642
1.633587786259542,0.7786259541984732,-1.3587786259541985,-0.41064453125,0.008544921875,-0.353515625,1.0658999999999998
1.7099236641221374,0.7480916030534351,-1.5114503816793894,-0.409912109375,0.0078125,-0.356689453125,1.0675999999999999
1.7404580152671756,0.8091603053435115,-1.5725190839694656,-0.408935546875,0.015380859375,-0.3623046875,1.0693
1.7404580152671756,0.8702290076335878,-1.6793893129770991,-0.402099609375,0.013671875,-0.3603515625,1.071
1.7709923664122138,0.7786259541984732,-1.618320610687023,-0.40625,0.009521484375,-0.3525390625,1.0727
1.83206106870229,0.7938931297709924,-1.6488549618320612,-0.40771484375,0.01611328125,-0.354736328125,1.0744
1.7557251908396947,0.8854961832061069,-1.7099236641221374,-0.408203125,0.01220703125,-0.358154296875,1.0760999999999998
1.816793893129771,0.7480916030534351,-1.6793893129770991,-0.407470703125,0.009033203125,-0.3583984375,1.0777999999999999
1.7557251908396947,0.7175572519083969,-1.4809160305343512,-0.41015625,0.00927734375,-0.35498046875,1.0795
1.9083969465648856,0.9770992366412213,-1.8473282442748091,-0.405029296875,0.012451171875,-0.360107421875,1.0812
1.9389312977099236,0.7938931297709924,-1.8778625954198473,-0.40478515625,0.007080078125,-0.359130859375,1.0829
1.8931297709923665,0.8091603053435115,-1.8931297709923665,-0.40966796875,0.010009765625,-0.349609375,1.0846
1.9541984732824427,0.7938931297709924,-1.9236641221374047,-0.409912109375,0.010498046875,-0.348876953125,1.0863
2.1068702290076335,0.8091603053435115,-1.9389312977099236,-0.4091796875,0.01513671875,-0.35498046875,1.0879999999999999
1.984732824427481,0.8854961832061069,-1.7251908396946565,-0.406005859375,0.014892578125,-0.352294921875,1.0897
2.045801526717557,0.916030534351145,-2.0763358778625953,-0.40673828125,0.0068359375,-0.36083984375,1.0914
1.9236641221374047,0.9312977099236641,-1.9083969465648856,-0.40673828125,0.009033203125,-0.359619140625,1.0931
1.984732824427481,0.8854961832061069,-2.045801526717557,-0.406005859375,0.012939453125,-0.36328125,1.0948
2.122137404580153,1.0076335877862594,-1.9389312977099236,-0.41015625,0.01220703125,-0.362548828125,1.0965
2.0763358778625953,1.0381679389312977,-1.984732824427481,-0.41064453125,0.013916015625,-0.3466796875,1.0981999999999998
2.030534351145038,1.0076335877862594,-2.015267175572519,-0.4052734375,0.010986328125,-0.355712890625,1.0998999999999999
1.9541984732824427,1.2366412213740459,-1.8778625954198473,-0.40771484375,0.010986328125,-0.361572265625,1.1016
2.0610687022900764,1.1908396946564885,-1.9694656488549618,-0.408203125,0.01611328125,-0.351806640625,1.1033
1.9389312977099236,1.0534351145038168,-2.1374045801526718,-0.408447265625,0.014892578125,-0.35986328125,1.105
1.8473282442748091,1.0076335877862594,-1.9694656488549618,-0.40869140625,0.0087890625,-0.351806640625,1.1067
2.16793893129771,1.1450381679389312,-2.0916030534351147,-0.40771484375,0.01220703125,-0.3564453125,1.1083999999999998
1.6793893129770991,1.1755725190839694,-2.0,-0.40673828125,0.00537109375,-0.35302734375,1.1100999999999999
1.9236641221374047,1.0076335877862594,-2.030534351145038,-0.40625,0.002197265625,-0.353271484375,1.1118
2.1068702290076335,1.251908396946565,-2.16793893129771,-0.4033203125,0.0107421875,-0.3564453125,1.1135
1.984732824427481,0.9923664122137404,-2.1526717557251906,-0.405517578125,0.01220703125,-0.3466796875,1.1152
1.9236641221374047,1.1908396946564885,-2.0763358778625953,-0.4013671875,0.006103515625,-0.353759765625,1.1169
1.9389312977099236,1.2366412213740459,-2.1526717557251906,-0.406005859375,0.0048828125,-0.3544921875,1.1186
1.8625954198473282,1.1297709923664123,-2.0,-0.40673828125,0.010986328125,-0.355712890625,1.1202999999999999
2.015267175572519,1.2213740458015268,-2.183206106870229,-0.403076171875,0.001220703125,-0.359130859375,1.1219999999999999
1.9389312977099236,1.1603053435114503,-2.213740458015267,-0.4052734375,0.0087890625,-0.35888671875,1.1237
1.9236641221374047,1.0229007633587786,-2.2442748091603053,-0.405517578125,0.014404296875,-0.356201171875,1.1254
1.786259541984733,1.1297709923664123,-2.2290076335877864,-0.41015625,0.010498046875,-0.359619140625,1.1271
1.8625954198473282,1.0687022900763359,-2.16793893129771,-0.40673828125,0.0068359375,-0.3583984375,1.1288
1.8931297709923665,1.1755725190839694,-2.16793893129771,-0.406494140625,0.00390625,-0.358154296875,1.1304999999999998
1.984732824427481,1.1450381679389312,-2.183206106870229,-0.400634765625,0.00830078125,-0.3544921875,1.1321999999999999
1.5572519083969465,1.1908396946564885,-2.1526717557251906,-0.41064453125,0.013671875,-0.349853515625,1.1339
1.6793893129770991,1.083969465648855,-2.1374045801526718,-0.405029296875,0.009033203125,-0.355712890625,1.1356
1.8015267175572518,1.0381679389312977,-2.213740458015267,-0.40966796875,0.007568359375,-0.340576171875,1.1373
1.7251908396946565,1.2061068702290076,-2.0763358778625953,-0.4072265625,0.00830078125,-0.359130859375,1.139
1.7099236641221374,1.2213740458015268,-2.1374045801526718,-0.407470703125,0.012939453125,-0.35546875,1.1407
1.5114503816793894,1.099236641221374,-2.0763358778625953,-0.41064453125,0.006103515625,-0.36083984375,1.1423999999999999
1.5114503816793894,1.3740458015267176,-2.2290076335877864,-0.41015625,0.005615234375,-0.35498046875,1.1441
1.6946564885496183,1.297709923664122,-2.122137404580153,-0.4072265625,0.004150390625,-0.3544921875,1.1458
1.6488549618320612,1.297709923664122,-2.2290076335877864,-0.41015625,0.00732421875,-0.35595703125,1.1475
1.6793893129770991,1.465648854961832,-2.213740458015267,-0.407958984375,0.006103515625,-0.352294921875,1.1492
1.4198473282442747,1.4961832061068703,-2.3053435114503817,-0.412109375,0.009033203125,-0.356201171875,1.1509
1.5114503816793894,1.1755725190839694,-2.0763358778625953,-0.407958984375,0.01123046875,-0.351806640625,1.1525999999999998
1.6946564885496183,1.3587786259541985,-2.0610687022900764,-0.408935546875,0.01123046875,-0.356201171875,1.1542999999999999
1.3740458015267176,1.5114503816793894,-2.1374045801526718,-0.405517578125,0.006103515625,-0.359130859375,1.156
1.3587786259541985,1.5267175572519085,-2.213740458015267,-0.40283203125,0.009033203125,-0.35986328125,1.1577
1.4961832061068703,1.3435114503816794,-2.213740458015267,-0.40380859375,0.005859375,-0.358642578125,1.1594
1.6793893129770991,1.465648854961832,-2.2290076335877864,-0.404296875,0.007568359375,-0.353271484375,1.1611
1.4198473282442747,1.2671755725190839,-2.122137404580153,-0.40673828125,0.0048828125,-0.354248046875,1.1627999999999998
1.465648854961832,1.2671755725190839,-2.198473282442748,-0.406494140625,0.009033203125,-0.359375,1.1644999999999999
1.5572519083969465,1.3740458015267176,-2.183206106870229,-0.404296875,0.007080078125,-0.356201171875,1.1662
1.450381679389313,1.3587786259541985,-2.2900763358778624,-0.40966796875,0.006591796875,-0.349609375,1.1679
1.3893129770992367,1.3587786259541985,-2.1526717557251906,-0.40087890625,0.0107421875,-0.362060546875,1.1696
1.5267175572519085,1.4045801526717556,-2.1068702290076335,-0.406494140625,0.0107421875,-0.36083984375,1.1713
1.5725190839694656,1.2671755725190839,-2.0763358778625953,-0.40869140625,0.006103515625,-0.36181640625,1.173
1.2061068702290076,1.3129770992366412,-2.3206106870229006,-0.41015625,0.008056640625,-0.35400390625,1.1746999999999999
1.5419847328244274,1.4351145038167938,-2.030534351145038,-0.409912109375,0.009033203125,-0.3603515625,1.1764
1.5725190839694656,1.3893129770992367,-2.122137404580153,-0.40771484375,0.01025390625,-0.359619140625,1.1781
1.4198473282442747,1.3129770992366412,-2.015267175572519,-0.40283203125,0.010986328125,-0.359619140625,1.1798
1.297709923664122,1.4198473282442747,-2.2900763358778624,-0.405029296875,0.00830078125,-0.353759765625,1.1815
1.5572519083969465,1.297709923664122,-1.9389312977099236,-0.40478515625,0.0107421875,-0.354248046875,1.1832
1.4961832061068703,1.4351145038167938,-2.122137404580153,-0.40625,0.008544921875,-0.354248046875,1.1848999999999998
1.5114503816793894,1.5114503816793894,-2.1526717557251906,-0.401611328125,0.005126953125,-0.3544921875,1.1865999999999999
1.5267175572519085,1.5419847328244274,-2.2290076335877864,-0.405517578125,0.007080078125,-0.362060546875,1.1883
1.282442748091603,1.5572519083969465,-2.183206106870229,-0.412109375,0.006103515625,-0.36767578125,1.19
1.4045801526717556,1.6488549618320612,-1.9694656488549618,-0.409912109375,0.007568359375,-0.3662109375,1.1917
1.4809160305343512,1.5725190839694656,-1.9083969465648856,-0.406494140625,0.011962890625,-0.357421875,1.1934
1.3282442748091603,1.6488549618320612,-2.1526717557251906,-0.410888671875,0.01025390625,-0.350341796875,1.1950999999999998
1.282442748091603,1.5725190839694656,-1.9083969465648856,-0.408203125,0.010986328125,-0.353515625,1.1967999999999999
1.4045801526717556,1.4351145038167938,-2.045801526717557,-0.407470703125,0.00439453125,-0.351806640625,1.1985
1.4961832061068703,1.5572519083969465,-2.030534351145038,-0.406494140625,0.006591796875,-0.35595703125,1.2002
1.2671755725190839,1.450381679389313,-1.984732824427481,-0.40673828125,0.002685546875,-0.353271484375,1.2019
1.5114503816793894,1.4198473282442747,-2.015267175572519,-0.4052734375,0.0107421875,-0.35595703125,1.2036
1.4198473282442747,1.4045801526717556,-2.045801526717557,-0.407958984375,0.011474609375,-0.3525390625,1.2053
1.5114503816793894,1.4198473282442747,-1.9541984732824427,-0.4072265625,0.009765625,-0.35302734375,1.2069999999999999
1.4045801526717556,1.282442748091603,-1.9541984732824427,-0.400634765625,0.0068359375,-0.35546875,1.2086999999999999
1.3282442748091603,1.2671755725190839,-2.0,-0.40380859375,0.00390625,-0.355712890625,1.2104
1.2671755725190839,1.2061068702290076,-2.1526717557251906,-0.404296875,0.006103515625,-0.354736328125,1.2121
1.3740458015267176,1.1755725190839694,-2.1068702290076335,-0.40478515625,0.004150390625,-0.35986328125,1.2138
1.465648854961832,1.0687022900763359,-2.1068702290076335,-0.4052734375,0.008544921875,-0.353515625,1.2155
1.3893129770992367,1.0076335877862594,-1.9389312977099236,-0.401123046875,0.010009765625,-0.359130859375,1.2171999999999998
1.2671755725190839,0.9923664122137404,-2.0763358778625953,-0.4072265625,0.01123046875,-0.34716796875,1.2188999999999999
1.251908396946565,1.1145038167938932,-2.0,-0.40380859375,0.0048828125,-0.351806640625,1.2206
1.5114503816793894,0.9923664122137404,-1.984732824427481,-0.40478515625,0.0078125,-0.3544921875,1.2223
1.4961832061068703,1.083969465648855,-1.8473282442748091,-0.408203125,0.00927734375,-0.3486328125,1.224
1.4961832061068703,1.2671755725190839,-2.015267175572519,-0.406494140625,0.009765625,-0.35986328125,1.2257
1.5267175572519085,1.0076335877862594,-2.0,-0.4052734375,0.00830078125,-0.358154296875,1.2273999999999998
1.3587786259541985,1.0687022900763359,-2.2748091603053435,-0.406982421875,0.00732421875,-0.352783203125,1.2290999999999999
1.3893129770992367,1.2061068702290076,-1.8473282442748091,-0.408447265625,0.007568359375,-0.35986328125,1.2308
1.4961832061068703,1.1145038167938932,-1.984732824427481,-0.411865234375,0.009521484375,-0.3623046875,1.2325
1.4198473282442747,0.9770992366412213,-2.0,-0.40576171875,0.0068359375,-0.359619140625,1.2342
1.3893129770992367,1.1603053435114503,-2.0,-0.402587890625,0.00244140625,-0.357666015625,1.2359
1.5114503816793894,1.1603053435114503,-1.9236641221374047,-0.405029296875,0.005126953125,-0.35791015625,1.2376
1.4045801526717556,0.9465648854961832,-2.030534351145038,-0.40576171875,0.00830078125,-0.36083984375,1.2392999999999998
1.3435114503816794,0.9007633587786259,-1.9541984732824427,-0.400146484375,0.00830078125,-0.35791015625,1.2409999999999999
1.4198473282442747,0.7938931297709924,-2.0763358778625953,-0.404052734375,0.004638671875,-0.356689453125,1.2427
1.465648854961832,0.7480916030534351,-1.9236641221374047,-0.408203125,0.01123046875,-0.35498046875,1.2444
1.1908396946564885,0.5801526717557252,-2.122137404580153,-0.4091796875,0.009765625,-0.350341796875,1.2461
0.9923664122137404,0.4732824427480916,-2.030534351145038,-0.404052734375,0.0087890625,-0.354248046875,1.2478
1.1450381679389312,0.5343511450381679,-2.0610687022900764,-0.403076171875,0.011474609375,-0.351806640625,1.2494999999999998
1.3893129770992367,0.549618320610687,-2.213740458015267,-0.407958984375,0.010009765625,-0.34912109375,1.2511999999999999
1.3129770992366412,0.5801526717557252,-2.1374045801526718,-0.406005859375,0.00439453125,-0.353515625,1.2529
1.2366412213740459,0.3969465648854962,-2.015267175572519,-0.405517578125,0.00634765625,-0.362060546875,1.2546
1.1908396946564885,0.42748091603053434,-1.9236641221374047,-0.40673828125,0.011962890625,-0.359375,1.2563
1.4045801526717556,0.3969465648854962,-2.2595419847328246,-0.40380859375,0.013671875,-0.35400390625,1.258
1.1908396946564885,0.4732824427480916,-2.0,-0.40234375,0.00732421875,-0.358154296875,1.2596999999999998
1.1297709923664123,0.4122137404580153,-1.9541984732824427,-0.4091796875,0.010009765625,-0.352294921875,1.2613999999999999
1.2366412213740459,0.44274809160305345,-2.1374045801526718,-0.408447265625,0.008056640625,-0.3603515625,1.2631
1.0076335877862594,0.5954198473282443,-2.045801526717557,-0.4033203125,0.005859375,-0.35498046875,1.2648
1.1603053435114503,0.48854961832061067,-2.381679389312977,-0.41064453125,0.01220703125,-0.36083984375,1.2665
1.1908396946564885,0.42748091603053434,-2.015267175572519,-0.4130859375,0.009521484375,-0.362060546875,1.2682
1.2366412213740459,0.549618320610687,-2.16793893129771,-0.407470703125,0.005126953125,-0.355712890625,1.2699
1.1603053435114503,0.4122137404580153,-2.0763358778625953,-0.405029296875,0.015625,-0.358154296875,1.2715999999999998
1.3129770992366412,0.24427480916030533,-2.0,-0.4072265625,0.011474609375,-0.356201171875,1.2732999999999999
1.1908396946564885,0.4580152671755725,-2.045801526717557,-0.40234375,0.0166015625,-0.354248046875,1.275
1.1603053435114503,0.33587786259541985,-2.16793893129771,-0.40478515625,0.0078125,-0.35791015625,1.2767
1.0687022900763359,0.4122137404580153,-1.9541984732824427,-0.406982421875,0.0068359375,-0.349609375,1.2784
1.0229007633587786,0.33587786259541985,-2.16793893129771,-0.4072265625,0.003662109375,-0.3564453125,1.2801
1.099236641221374,0.32061068702290074,-2.1068702290076335,-0.4052734375,0.005126953125,-0.354248046875,1.2817999999999998
1.251908396946565,0.1984732824427481,-2.1068702290076335,-0.403076171875,0.005126953125,-0.356201171875,1.2834999999999999
1.3282442748091603,0.24427480916030533,-2.015267175572519,-0.41015625,0.009033203125,-0.349609375,1.2852
1.0687022900763359,0.32061068702290074,-2.213740458015267,-0.409912109375,0.015625,-0.3544921875,1.2869
1.2061068702290076,0.3511450381679389,-1.9694656488549618,-0.40380859375,0.005126953125,-0.35791015625,1.2886
1.1755725190839694,0.3511450381679389,-2.0763358778625953,-0.402099609375,0.0087890625,-0.355712890625,1.2903
1.251908396946565,0.2748091603053435,-2.030534351145038,-0.407958984375,0.00634765625,-0.357666015625,1.292
1.1450381679389312,0.33587786259541985,-1.8473282442748091,-0.41015625,0.0068359375,-0.358154296875,1.2936999999999999
1.0534351145038168,0.2900763358778626,-2.0763358778625953,-0.406494140625,-0.000732421875,-0.360107421875,1.2953999999999999
1.099236641221374,0.22900763358778625,-2.16793893129771,-0.41162109375,0.006591796875,-0.351318359375,1.2971
1.3740458015267176,0.24427480916030533,-2.213740458015267,-0.405517578125,0.003173828125,-0.3564453125,1.2988
1.0534351145038168,0.4122137404580153,-2.122137404580153,-0.4091796875,0.00244140625,-0.350341796875,1.3005
0.8854961832061069,0.32061068702290074,-1.9236641221374047,-0.407470703125,0.004638671875,-0.354248046875,1.3022
1.251908396946565,0.4122137404580153,-2.0,-0.40673828125,0.009765625,-0.362060546875,1.3038999999999998
1.3435114503816794,0.5801526717557252,-1.9236641221374047,-0.41259765625,0.006103515625,-0.352294921875,1.3055999999999999
1.2366412213740459,0.6259541984732825,-1.9389312977099236,-0.415283203125,0.005615234375,-0.362060546875,1.3073
1.0229007633587786,0.366412213740458,-1.786259541984733,-0.412353515625,0.005126953125,-0.3486328125,1.309
1.1755725190839694,0.6717557251908397,-1.9236641221374047,-0.407470703125,0.006103515625,-0.357421875,1.3107
1.083969465648855,0.5801526717557252,-1.618320610687023,-0.404541015625,0.0087890625,-0.3564453125,1.3124
1.083969465648855,0.6717557251908397,-1.8625954198473282,-0.4130859375,0.0078125,-0.3564453125,1.3140999999999998
1.1145038167938932,0.7480916030534351,-1.9541984732824427,-0.406494140625,0.00390625,-0.3515625,1.3157999999999999
1.0076335877862594,0.6412213740458015,-1.7099236641221374,-0.410888671875,0.008056640625,-0.35986328125,1.3175
1.0687022900763359,0.7633587786259542,-1.6030534351145038,-0.40869140625,0.007568359375,-0.361328125,1.3192
1.2061068702290076,0.9618320610687023,-1.5725190839694656,-0.402099609375,0.0068359375,-0.356201171875,1.3209
1.282442748091603,0.7786259541984732,-1.7404580152671756,-0.406494140625,0.00830078125,-0.359375,1.3226
1.3129770992366412,0.6717557251908397,-1.8778625954198473,-0.404052734375,0.005859375,-0.3525390625,1.3243
1.282442748091603,0.6870229007633588,-1.7099236641221374,-0.4111328125,0.00390625,-0.361328125,1.3259999999999998
1.2213740458015268,0.7175572519083969,-1.7404580152671756,-0.408935546875,0.0087890625,-0.357177734375,1.3276999999999999
1.2213740458015268,0.48854961832061067,-1.6641221374045803,-0.408935546875,0.00537109375,-0.344970703125,1.3294
1.3435114503816794,0.5648854961832062,-1.6641221374045803,-0.40576171875,0.00341796875,-0.3564453125,1.3311
1.3435114503816794,0.6717557251908397,-1.6793893129770991,-0.407470703125,0.007080078125,-0.348876953125,1.3328
1.282442748091603,0.4732824427480916,-1.618320610687023,-0.404296875,0.00244140625,-0.354248046875,1.3345
1.282442748091603,0.6412213740458015,-1.6641221374045803,-0.410400390625,0.006103515625,-0.34765625,1.3361999999999998
1.4809160305343512,0.5648854961832062,-1.7557251908396947,-0.405029296875,0.006103515625,-0.354736328125,1.3378999999999999
1.465648854961832,0.6259541984732825,-1.7404580152671756,-0.4052734375,0.005126953125,-0.359375,1.3396
1.2671755725190839,0.7175572519083969,-1.8015267175572518,-0.405517578125,0.0068359375,-0.36376953125,1.3413
1.3740458015267176,0.5954198473282443,-1.6793893129770991,-0.403564453125,0.00537109375,-0.35986328125,1.343
1.297709923664122,0.7480916030534351,-1.5267175572519085,-0.406494140625,0.0078125,-0.3583984375,1.3447
1.3435114503816794,0.5038167938931297,-1.633587786259542,-0.40966796875,0.004638671875,-0.355224609375,1.3463999999999998
1.2671755725190839,0.6259541984732825,-1.5114503816793894,-0.40673828125,0.0078125,-0.35791015625,1.3480999999999999
1.5419847328244274,0.7786259541984732,-1.5267175572519085,-0.408935546875,0.0068359375,-0.358154296875,1.3497999999999999
1.4809160305343512,0.5038167938931297,-1.4809160305343512,-0.40185546875,0.010009765625,-0.354736328125,1.3515
1.5877862595419847,0.7175572519083969,-1.3587786259541985,-0.4013671875,0.010498046875,-0.35693359375,1.3532
1.2366412213740459,0.7175572519083969,-1.2671755725190839,-0.41015625,0.010009765625,-0.35498046875,1.3549
1.2671755725190839,0.732824427480916,-1.3740458015267176,-0.40673828125,0.00830078125,-0.36083984375,1.3566
1.5572519083969465,0.8091603053435115,-1.1297709923664123,-0.408203125,0.001708984375,-0.350830078125,1.3582999999999998
1.1908396946564885,0.6259541984732825,-1.282442748091603,-0.40673828125,0.00390625,-0.359375,1.3599999999999999
1.3587786259541985,0.732824427480916,-1.2671755725190839,-0.411865234375,0.006591796875,-0.35986328125,1.3617
1.3435114503816794,0.732824427480916,-1.297709923664122,-0.406982421875,0.0029296875,-0.3603515625,1.3634
1.282442748091603,0.7022900763358778,-1.1603053435114503,-0.40576171875,0.004150390625,-0.35302734375,1.3651
1.7099236641221374,0.6870229007633588,-1.2366412213740459,-0.40625,0.00830078125,-0.344970703125,1.3668
1.4351145038167938,0.7938931297709924,-1.1450381679389312,-0.409912109375,0.01123046875,-0.350830078125,1.3684999999999998
1.4045801526717556,0.9770992366412213,-1.3740458015267176,-0.405029296875,0.013427734375,-0.352294921875,1.3701999999999999
1.5877862595419847,0.9007633587786259,-0.9007633587786259,-0.400146484375,0.008056640625,-0.351318359375,1.3719
1.5572519083969465,0.8854961832061069,-1.1145038167938932,-0.40087890625,0.013671875,-0.354736328125,1.3736
1.5877862595419847,0.8549618320610687,-0.9770992366412213,-0.406982421875,0.0107421875,-0.357177734375,1.3753
1.3740458015267176,0.9007633587786259,-1.1145038167938932,-0.4033203125,0.009521484375,-0.348876953125,1.377
1.5114503816793894,0.9007633587786259,-1.0076335877862594,-0.41064453125,0.00830078125,-0.355712890625,1.3786999999999998
1.5267175572519085,0.7175572519083969,-0.9618320610687023,-0.407470703125,0.011962890625,-0.360107421875,1.3803999999999998
1.5419847328244274,0.7480916030534351,-0.8549618320610687,-0.405029296875,0.011474609375,-0.35791015625,1.3820999999999999
1.6488549618320612,0.7938931297709924,-1.0229007633587786,-0.41015625,0.0146484375,-0.357177734375,1.3838
1.5572519083969465,0.9923664122137404,-0.9923664122137404,-0.414306640625,0.009033203125,-0.3544921875,1.3855
1.4198473282442747,1.0534351145038168,-0.8396946564885496,-0.409423828125,0.011962890625,-0.36083984375,1.3872
1.5725190839694656,1.1603053435114503,-0.8854961832061069,-0.411865234375,0.01025390625,-0.356201171875,1.3889
1.5114503816793894,1.1603053435114503,-0.9007633587786259,-0.415771484375,0.009521484375,-0.35205078125,1.3905999999999998
1.5877862595419847,1.0229007633587786,-0.916030534351145,-0.4169921875,0.0087890625,-0.357177734375,1.3922999999999999
1.5725190839694656,1.1297709923664123,-0.9312977099236641,-0.408447265625,0.0126953125,-0.357177734375,1.394
1.633587786259542,1.297709923664122,-0.6564885496183206,-0.41357421875,0.008056640625,-0.35498046875,1.3957
1.5725190839694656,1.465648854961832,-0.9007633587786259,-0.41357421875,0.003173828125,-0.354248046875,1.3974
1.6946564885496183,1.297709923664122,-0.9923664122137404,-0.413330078125,0.010986328125,-0.3583984375,1.3991
1.7709923664122138,1.4809160305343512,-1.0687022900763359,-0.4140625,0.0107421875,-0.361083984375,1.4007999999999998
1.816793893129771,1.633587786259542,-0.8091603053435115,-0.41259765625,0.01171875,-0.362060546875,1.4024999999999999
1.618320610687023,1.6793893129770991,-1.0381679389312977,-0.41259765625,0.008544921875,-0.35986328125,1.4042
1.6793893129770991,1.6641221374045803,-0.8702290076335878,-0.4111328125,0.011474609375,-0.353271484375,1.4059
1.6946564885496183,1.6488549618320612,-1.083969465648855,-0.41064453125,0.005126953125,-0.359375,1.4076
1.6030534351145038,1.6946564885496183,-1.0687022900763359,-0.41162109375,0.008056640625,-0.362060546875,1.4093
1.8931297709923665,1.6641221374045803,-1.099236641221374,-0.411865234375,0.006103515625,-0.357177734375,1.411
1.5725190839694656,1.618320610687023,-1.2671755725190839,-0.4052734375,0.0078125,-0.3544921875,1.4126999999999998
1.9694656488549618,1.8931297709923665,-1.3129770992366412,-0.405029296875,0.00634765625,-0.359375,1.4143999999999999
1.984732824427481,1.6641221374045803,-1.0687022900763359,-0.4072265625,0.002685546875,-0.35498046875,1.4161
1.8473282442748091,1.6488549618320612,-1.099236641221374,-0.407958984375,0.011474609375,-0.35498046875,1.4178
1.8015267175572518,1.5267175572519085,-1.2671755725190839,-0.403076171875,0.00537109375,-0.352294921875,1.4195
1.816793893129771,1.6946564885496183,-1.297709923664122,-0.41064453125,0.009765625,-0.35888671875,1.4212
1.786259541984733,1.7099236641221374,-1.251908396946565,-0.4072265625,0.005615234375,-0.356689453125,1.4228999999999998
1.633587786259542,1.3129770992366412,-1.3129770992366412,-0.41259765625,0.009521484375,-0.35888671875,1.4245999999999999
1.8931297709923665,1.5114503816793894,-1.3740458015267176,-0.408935546875,0.0087890625,-0.36181640625,1.4263
1.5725190839694656,1.5572519083969465,-1.3893129770992367,-0.40576171875,0.005859375,-0.3564453125,1.428
1.8625954198473282,1.618320610687023,-1.1908396946564885,-0.408203125,0.00830078125,-0.350830078125,1.4297
1.6793893129770991,1.4809160305343512,-1.4809160305343512,-0.409423828125,0.00830078125,-0.353271484375,1.4314
1.4809160305343512,1.633587786259542,-1.4809160305343512,-0.4052734375,0.00244140625,-0.357177734375,1.4330999999999998
1.6946564885496183,1.5725190839694656,-1.465648854961832,-0.40478515625,0.005859375,-0.358154296875,1.4347999999999999
1.6030534351145038,1.5267175572519085,-1.3740458015267176,-0.406982421875,0.0087890625,-0.3544921875,1.4364999999999999
1.4809160305343512,1.7099236641221374,-1.633587786259542,-0.410888671875,0.009521484375,-0.357421875,1.4382
1.618320610687023,1.4961832061068703,-1.3893129770992367,-0.4033203125,0.005615234375,-0.359130859375,1.4399
1.6030534351145038,1.5877862595419847,-1.465648854961832,-0.4052734375,0.009033203125,-0.355224609375,1.4416
1.3129770992366412,1.633587786259542,-1.4045801526717556,-0.408203125,0.00341796875,-0.354248046875,1.4433
1.2671755725190839,1.5572519083969465,-1.3435114503816794,-0.404541015625,0.004638671875,-0.353759765625,1.4449999999999998
1.450381679389313,1.4961832061068703,-1.4961832061068703,-0.41015625,0.0068359375,-0.356689453125,1.4466999999999999
1.3435114503816794,1.5114503816793894,-1.4961832061068703,-0.40673828125,0.002685546875,-0.3564453125,1.4484
1.1145038167938932,1.5114503816793894,-1.3740458015267176,-0.406494140625,0.007568359375,-0.36474609375,1.4501
1.0534351145038168,1.4961832061068703,-1.4045801526717556,-0.407470703125,0.007080078125,-0.36181640625,1.4518
1.1450381679389312,1.465648854961832,-1.3587786259541985,-0.40478515625,0.005859375,-0.361328125,1.4535
1.0076335877862594,1.3587786259541985,-1.4351145038167938,-0.406494140625,0.00537109375,-0.346435546875,1.4551999999999998
1.1755725190839694,1.4809160305343512,-1.465648854961832,-0.4111328125,0.008544921875,-0.353515625,1.4568999999999999
0.8854961832061069,1.251908396946565,-1.5877862595419847,-0.408203125,0.006103515625,-0.35986328125,1.4586
0.8091603053435115,1.2671755725190839,-1.618320610687023,-0.408203125,0.004638671875,-0.358154296875,1.4603
0.9770992366412213,1.3435114503816794,-1.5725190839694656,-0.405029296875,0.005126953125,-0.353515625,1.462
0.8549618320610687,1.3129770992366412,-1.3129770992366412,-0.405029296875,0.00390625,-0.352294921875,1.4637
0.9007633587786259,1.3893129770992367,-1.5725190839694656,-0.406982421875,0.004150390625,-0.364990234375,1.4653999999999998
0.8244274809160306,1.4351145038167938,-1.618320610687023,-0.402587890625,0.00537109375,-0.359375,1.4670999999999998
0.7786259541984732,1.3435114503816794,-1.7099236641221374,-0.40625,0.009521484375,-0.350341796875,1.4687999999999999
0.732824427480916,1.1603053435114503,-1.6946564885496183,-0.406982421875,0.007568359375,-0.356201171875,1.4705
0.549618320610687,1.1908396946564885,-1.6793893129770991,-0.40576171875,0.00439453125,-0.35400390625,1.4722
0.5801526717557252,1.2061068702290076,-1.5572519083969465,-0.39990234375,0.012939453125,-0.35546875,1.4739
0.7480916030534351,1.297709923664122,-1.7557251908396947,-0.402587890625,0.011474609375,-0.362060546875,1.4756
0.6259541984732825,1.1450381679389312,-1.9541984732824427,-0.407958984375,0.010498046875,-0.352783203125,1.4772999999999998
0.5801526717557252,1.3129770992366412,-1.816793893129771,-0.403076171875,0.0107421875,-0.35693359375,1.4789999999999999
0.6412213740458015,1.3129770992366412,-1.786259541984733,-0.405517578125,0.0126953125,-0.35400390625,1.4807
0.4580152671755725,1.251908396946565,-1.9541984732824427,-0.403076171875,0.009521484375,-0.356201171875,1.4824
0.549618320610687,1.1450381679389312,-1.9541984732824427,-0.400634765625,0.01123046875,-0.35302734375,1.4841
0.6106870229007634,1.1603053435114503,-1.7557251908396947,-0.404052734375,0.00732421875,-0.359375,1.4858
0.7480916030534351,1.251908396946565,-2.16793893129771,-0.407470703125,0.01025390625,-0.356201171875,1.4874999999999998
0.5038167938931297,1.0381679389312977,-2.0610687022900764,-0.400634765625,0.008544921875,-0.353515625,1.4891999999999999
0.5190839694656488,1.0534351145038168,-1.9083969465648856,-0.407470703125,0.0048828125,-0.35400390625,1.4909
0.44274809160305345,0.8854961832061069,-1.9541984732824427,-0.40576171875,0.004638671875,-0.354736328125,1.4926
0.6717557251908397,0.9007633587786259,-2.0,-0.405029296875,0.009033203125,-0.35498046875,1.4943
0.6259541984732825,0.8854961832061069,-2.122137404580153,-0.40234375,0.006103515625,-0.357177734375,1.496
0.6717557251908397,1.1297709923664123,-2.122137404580153,-0.408203125,0.009521484375,-0.351806640625,1.4976999999999998
0.6259541984732825,0.9923664122137404,-1.984732824427481,-0.408447265625,0.00390625,-0.357421875,1.4993999999999998
0.3969465648854962,0.7633587786259542,-2.3206106870229006,-0.405517578125,0.01123046875,-0.3515625,1.5010999999999999
0.5801526717557252,0.9312977099236641,-2.0610687022900764,-0.40966796875,0.008544921875,-0.362060546875,1.5028
0.5801526717557252,0.8244274809160306,-2.122137404580153,-0.40576171875,0.00732421875,-0.357666015625,1.5045
0.44274809160305345,0.9312977099236641,-2.0,-0.4033203125,0.002685546875,-0.351806640625,1.5062
0.5190839694656488,0.9312977099236641,-2.183206106870229,-0.40478515625,0.01025390625,-0.361328125,1.5079
0.6870229007633588,0.8549618320610687,-2.1374045801526718,-0.406494140625,0.01171875,-0.3505859375,1.5095999999999998
0.5038167938931297,0.8702290076335878,-2.1374045801526718,-0.405517578125,0.008056640625,-0.344970703125,1.5112999999999999
0.6717557251908397,0.7022900763358778,-2.045801526717557,-0.4033203125,0.004150390625,-0.3466796875,1.513
0.7175572519083969,0.5954198473282443,-2.2290076335877864,-0.408447265625,0.0048828125,-0.349853515625,1.5147
0.5343511450381679,0.5954198473282443,-2.1374045801526718,-0.4072265625,0.00732421875,-0.3583984375,1.5164
0.6259541984732825,0.5648854961832062,-2.015267175572519,-0.406494140625,0.009033203125,-0.351806640625,1.5181
0.2900763358778626,0.5038167938931297,-2.0610687022900764,-0.408935546875,0.01025390625,-0.35009765625,1.5197999999999998
0.44274809160305345,0.5648854961832062,-2.16793893129771,-0.40380859375,0.003173828125,-0.3525390625,1.5214999999999999
0.4122137404580153,0.4580152671755725,-2.183206106870229,-0.404541015625,0.00537109375,-0.349853515625,1.5231999999999999
0.4732824427480916,0.5801526717557252,-2.2290076335877864,-0.4033203125,0.01025390625,-0.35400390625,1.5249
0.549618320610687,0.44274809160305345,-1.984732824427481,-0.4072265625,0.0107421875,-0.35546875,1.5266
0.6259541984732825,0.3816793893129771,-2.2900763358778624,-0.408935546875,0.009521484375,-0.35888671875,1.5283
0.42748091603053434,0.44274809160305345,-2.16793893129771,-0.406005859375,0.006103515625,-0.3583984375,1.5299999999999998
0.6259541984732825,0.6259541984732825,-2.1374045801526718,-0.40771484375,0.006591796875,-0.3603515625,1.5316999999999998
0.5190839694656488,0.6870229007633588,-1.9694656488549618,-0.4111328125,0.005615234375,-0.357177734375,1.5333999999999999
0.42748091603053434,0.48854961832061067,-2.366412213740458,-0.41552734375,0.01025390625,-0.358154296875,1.5351
0.5190839694656488,0.44274809160305345,-2.0916030534351147,-0.410400390625,0.010009765625,-0.359130859375,1.5368
0.3969465648854962,0.6259541984732825,-2.2900763358778624,-0.413818359375,0.004150390625,-0.359375,1.5385
0.5190839694656488,0.5190839694656488,-2.122137404580153,-0.402587890625,0.00634765625,-0.3544921875,1.5402
0.48854961832061067,0.3511450381679389,-2.1526717557251906,-0.40234375,0.0068359375,-0.349365234375,1.5418999999999998
0.42748091603053434,0.4122137404580153,-2.0,-0.405029296875,0.01123046875,-0.34765625,1.5435999999999999
0.5343511450381679,0.5190839694656488,-2.1374045801526718,-0.408447265625,0.01025390625,-0.3564453125,1.5453
0.4580152671755725,0.5648854961832062,-2.0610687022900764,-0.4052734375,0.002197265625,-0.352294921875,1.547
0.6259541984732825,0.42748091603053434,-2.183206106870229,-0.404296875,0.00537109375,-0.352294921875,1.5487
0.5190839694656488,0.5343511450381679,-2.122137404580153,-0.41162109375,0.0068359375,-0.353271484375,1.5504
0.5190839694656488,0.4122137404580153,-1.9236641221374047,-0.4052734375,0.00927734375,-0.36962890625,1.5520999999999998
0.6717557251908397,0.5648854961832062,-2.0916030534351147,-0.406005859375,0.01025390625,-0.365478515625,1.5537999999999998
0.8854961832061069,0.4580152671755725,-2.183206106870229,-0.409423828125,0.00732421875,-0.348388671875,1.5554999999999999
0.5801526717557252,0.6106870229007634,-1.9694656488549618,-0.40966796875,0.010498046875,-0.359130859375,1.5572
0.7938931297709924,0.5954198473282443,-2.122137404580153,-0.4111328125,0.00732421875,-0.359130859375,1.5589
0.8091603053435115,0.5954198473282443,-2.0610687022900764,-0.41357421875,0.0126953125,-0.355712890625,1.5606
0.6412213740458015,0.7022900763358778,-2.1374045801526718,-0.4091796875,0.0126953125,-0.357177734375,1.5623
0.6259541984732825,0.5038167938931297,-1.9694656488549618,-0.41015625,0.0078125,-0.35400390625,1.5639999999999998
0.7938931297709924,0.7786259541984732,-2.045801526717557,-0.410888671875,0.00537109375,-0.3583984375,1.5656999999999999
0.8091603053435115,0.8091603053435115,-2.015267175572519,-0.417236328125,0.010986328125,-0.35205078125,1.5674
0.7175572519083969,0.8854961832061069,-1.8778625954198473,-0.409423828125,0.008544921875,-0.344482421875,1.5691
0.7480916030534351,0.7786259541984732,-2.030534351145038,-0.416015625,0.011962890625,-0.360595703125,1.5708
0.9770992366412213,0.9312977099236641,-2.16793893129771,-0.40576171875,0.0078125,-0.35498046875,1.5725
0.6564885496183206,0.7786259541984732,-1.9389312977099236,-0.410888671875,0.0087890625,-0.3544921875,1.5741999999999998
0.6870229007633588,0.8549618320610687,-2.0,-0.412353515625,0.010009765625,-0.354736328125,1.5758999999999999
0.8244274809160306,0.9923664122137404,-1.8931297709923665,-0.407958984375,0.009521484375,-0.356201171875,1.5776
1.083969465648855,0.9618320610687023,-1.8778625954198473,-0.408203125,0.008544921875,-0.35498046875,1.5793
1.0381679389312977,0.8396946564885496,-1.9694656488549618,-0.410888671875,0.0048828125,-0.350341796875,1.581
0.7938931297709924,0.9312977099236641,-1.9541984732824427,-0.409423828125,0.01025390625,-0.349853515625,1.5827
0.8091603053435115,1.0534351145038168,-1.8778625954198473,-0.406005859375,0.010986328125,-0.349609375,1.5843999999999998
0.8244274809160306,0.9465648854961832,-1.8931297709923665,-0.412841796875,0.00244140625,-0.3583984375,1.5860999999999998
0.9007633587786259,1.083969465648855,-1.8931297709923665,-0.408203125,0.0107421875,-0.35400390625,1.5877999999999999
0.6564885496183206,0.9312977099236641,-1.6946564885496183,-0.4091796875,0.009765625,-0.35693359375,1.5895
0.9007633587786259,1.0534351145038168,-1.6793893129770991,-0.41015625,0.004150390625,-0.35107421875,1.5912
0.9618320610687023,1.251908396946565,-1.984732824427481,-0.4130859375,0.0107421875,-0.35986328125,1.5929
0.7786259541984732,1.083969465648855,-1.9541984732824427,-0.412841796875,0.0048828125,-0.347900390625,1.5946
0.8396946564885496,0.9618320610687023,-1.9083969465648856,-0.408203125,0.012939453125,-0.3603515625,1.5962999999999998
0.9618320610687023,1.1145038167938932,-1.8015267175572518,-0.40673828125,0.0078125,-0.356689453125,1.5979999999999999
0.7938931297709924,1.0381679389312977,-1.8931297709923665,-0.408203125,0.006591796875,-0.3525390625,1.5997
1.0381679389312977,1.1603053435114503,-1.8625954198473282,-0.408447265625,0.01123046875,-0.353271484375,1.6014
0.916030534351145,1.1145038167938932,-1.7404580152671756,-0.40771484375,0.00341796875,-0.35498046875,1.6031
1.099236641221374,1.0534351145038168,-1.8015267175572518,-0.410888671875,0.005615234375,-0.3505859375,1.6048
0.9465648854961832,1.0076335877862594,-1.7557251908396947,-0.406982421875,0.001953125,-0.356689453125,1.6064999999999998
0.7175572519083969,1.099236641221374,-1.7557251908396947,-0.40478515625,0.003662109375,-0.34765625,1.6081999999999999
0.9923664122137404,0.9007633587786259,-1.8015267175572518,-0.406494140625,0.009521484375,-0.345947265625,1.6098999999999999
1.0534351145038168,1.2061068702290076,-1.6488549618320612,-0.40576171875,0.009765625,-0.357177734375,1.6116
0.9618320610687023,1.1145038167938932,-1.618320610687023,-0.406494140625,0.0087890625,-0.359619140625,1.6133
0.9465648854961832,1.1297709923664123,-1.5267175572519085,-0.408935546875,0.006103515625,-0.358642578125,1.615
0.9312977099236641,1.2213740458015268,-1.6030534351145038,-0.405517578125,0.007080078125,-0.348876953125,1.6166999999999998
0.9618320610687023,1.1603053435114503,-1.5267175572519085,-0.412353515625,0.00732421875,-0.358154296875,1.6183999999999998
0.8244274809160306,1.2061068702290076,-1.618320610687023,-0.4111328125,0.01025390625,-0.35107421875,1.6200999999999999
0.8244274809160306,1.465648854961832,-1.5267175572519085,-0.406005859375,0.00732421875,-0.355712890625,1.6218
1.0229007633587786,1.1755725190839694,-1.4351145038167938,-0.41357421875,0.005615234375,-0.35595703125,1.6235
0.8244274809160306,1.3587786259541985,-1.5419847328244274,-0.40869140625,0.00634765625,-0.352783203125,1.6252
0.5190839694656488,1.450381679389313,-1.465648854961832,-0.4091796875,0.00927734375,-0.35595703125,1.6269
0.5343511450381679,1.3587786259541985,-1.297709923664122,-0.411376953125,0.00048828125,-0.345458984375,1.6285999999999998
0.7022900763358778,1.465648854961832,-1.251908396946565,-0.411376953125,0.005126953125,-0.352783203125,1.6302999999999999
0.6106870229007634,1.4961832061068703,-1.2213740458015268,-0.41650390625,0.011474609375,-0.343505859375,1.632
0.5954198473282443,1.5725190839694656,-1.4045801526717556,-0.4140625,0.0068359375,-0.357177734375,1.6337
0.7022900763358778,1.6641221374045803,-1.4198473282442747,-0.41259765625,0.005615234375,-0.35986328125,1.6354
0.6717557251908397,1.633587786259542,-1.2366412213740459,-0.4111328125,0.009033203125,-0.354736328125,1.6371
0.8702290076335878,1.618320610687023,-1.2671755725190839,-0.408203125,0.006103515625,-0.353271484375,1.6387999999999998
0.7633587786259542,1.5725190839694656,-1.282442748091603,-0.409423828125,0.006103515625,-0.356201171875,1.6404999999999998
0.6717557251908397,1.465648854961832,-1.3282442748091603,-0.409423828125,0.00634765625,-0.347412109375,1.6421999999999999
0.7633587786259542,1.7709923664122138,-1.3435114503816794,-0.4130859375,0.009521484375,-0.353515625,1.6439
0.7480916030534351,1.4809160305343512,-1.3587786259541985,-0.40625,0.005859375,-0.35400390625,1.6456
0.7786259541984732,1.7709923664122138,-1.297709923664122,-0.407470703125,0.006103515625,-0.359619140625,1.6473
1.0076335877862594,1.5877862595419847,-1.4351145038167938,-0.407470703125,0.009033203125,-0.348876953125,1.6489999999999998
0.6870229007633588,1.6641221374045803,-1.5114503816793894,-0.407958984375,0.01220703125,-0.34814453125,1.6506999999999998
0.5801526717557252,1.5572519083969465,-1.5267175572519085,-0.40673828125,0.00830078125,-0.35546875,1.6523999999999999
0.9923664122137404,1.5267175572519085,-1.2366412213740459,-0.40966796875,0.005126953125,-0.357177734375,1.6541
0.9465648854961832,1.5572519083969465,-1.450381679389313,-0.40625,0.01318359375,-0.356201171875,1.6558
0.916030534351145,1.7709923664122138,-1.4198473282442747,-0.415283203125,0.011962890625,-0.353515625,1.6575
0.6870229007633588,1.5877862595419847,-1.3740458015267176,-0.408935546875,0.01171875,-0.355712890625,1.6592
0.9923664122137404,1.7251908396946565,-1.282442748091603,-0.40283203125,0.010986328125,-0.35693359375,1.6608999999999998
0.8091603053435115,2.0,-1.465648854961832,-0.408935546875,0.008056640625,-0.348388671875,1.6625999999999999
0.7633587786259542,1.9236641221374047,-1.282442748091603,-0.410400390625,0.00537109375,-0.3603515625,1.6643
0.732824427480916,1.8625954198473282,-1.3893129770992367,-0.404296875,0.007080078125,-0.358154296875,1.666
0.916030534351145,1.8473282442748091,-1.3740458015267176,-0.405517578125,0.008544921875,-0.3544921875,1.6677
1.0076335877862594,1.8473282442748091,-1.3435114503816794,-0.40625,0.010986328125,-0.35498046875,1.6694
0.6717557251908397,1.8015267175572518,-1.297709923664122,-0.410888671875,0.0078125,-0.349853515625,1.6710999999999998
0.4732824427480916,1.9694656488549618,-1.450381679389313,-0.407958984375,0.0107421875,-0.3515625,1.6727999999999998
0.8244274809160306,2.0610687022900764,-1.1908396946564885,-0.4130859375,0.007568359375,-0.359375,1.6744999999999999
0.8702290076335878,1.9541984732824427,-1.1145038167938932,-0.40771484375,0.0029296875,-0.354736328125,1.6762
0.8091603053435115,1.8931297709923665,-1.1908396946564885,-0.4072265625,0.000732421875,-0.360107421875,1.6779
0.7175572519083969,1.9236641221374047,-1.2671755725190839,-0.407958984375,0.0087890625,-0.352294921875,1.6796
0.732824427480916,2.0916030534351147,-1.1755725190839694,-0.40576171875,0.00537109375,-0.35595703125,1.6813
0.6564885496183206,2.015267175572519,-1.1603053435114503,-0.406005859375,0.004638671875,-0.35595703125,1.6829999999999998
0.7022900763358778,1.9389312977099236,-1.251908396946565,-0.410400390625,0.0107421875,-0.355224609375,1.6846999999999999
0.6106870229007634,1.9236641221374047,-1.1145038167938932,-0.400146484375,0.006103515625,-0.352294921875,1.6864
0.5648854961832062,2.183206106870229,-1.1145038167938932,-0.403076171875,0.005126953125,-0.35791015625,1.6881
0.5954198473282443,2.030534351145038,-1.282442748091603,-0.403076171875,0.007080078125,-0.3515625,1.6898
0.7022900763358778,2.122137404580153,-1.0229007633587786,-0.406982421875,0.0078125,-0.364990234375,1.6915
0.6259541984732825,2.198473282442748,-1.1297709923664123,-0.405517578125,0.00439453125,-0.361083984375,1.6931999999999998
0.44274809160305345,2.045801526717557,-1.083969465648855,-0.40478515625,0.009033203125,-0.35986328125,1.6948999999999999
0.6412213740458015,1.984732824427481,-1.251908396946565,-0.409423828125,0.00439453125,-0.359619140625,1.6965999999999999
0.3969465648854962,2.0916030534351147,-1.2671755725190839,-0.4091796875,0.00634765625,-0.35009765625,1.6983
0.5038167938931297,2.122137404580153,-1.251908396946565,-0.41455078125,0.001953125,-0.3525390625,1.7
0.4732824427480916,2.122137404580153,-0.9465648854961832,-0.41259765625,0.001953125,-0.35400390625,1.7017
0.366412213740458,2.198473282442748,-1.251908396946565,-0.408203125,0.009033203125,-0.359375,1.7033999999999998
0.3969465648854962,2.1526717557251906,-1.2366412213740459,-0.406494140625,0.00830078125,-0.353515625,1.7050999999999998
0.48854961832061067,2.122137404580153,-1.297709923664122,-0.408447265625,0.00439453125,-0.35400390625,1.7067999999999999
0.3053435114503817,2.1068702290076335,-1.0076335877862594,-0.408447265625,0.004638671875,-0.356689453125,1.7085
0.48854961832061067,2.16793893129771,-1.0687022900763359,-0.406005859375,0.007080078125,-0.35107421875,1.7102
0.1984732824427481,2.0,-1.1145038167938932,-0.4130859375,0.015380859375,-0.353271484375,1.7119
0.21374045801526717,1.9541984732824427,-1.1755725190839694,-0.41064453125,0.009765625,-0.355712890625,1.7136
0.3511450381679389,2.1526717557251906,-1.099236641221374,-0.40576171875,0.013427734375,-0.35498046875,1.7152999999999998
0.3511450381679389,2.2900763358778624,-1.297709923664122,-0.403564453125,0.01171875,-0.35302734375,1.7169999999999999
0.366412213740458,2.183206106870229,-0.9770992366412213,-0.4111328125,0.005615234375,-0.3525390625,1.7187
0.3511450381679389,2.0916030534351147,-1.3282442748091603,-0.407470703125,0.0068359375,-0.353515625,1.7204
0.4122137404580153,1.9389312977099236,-1.2671755725190839,-0.40771484375,0.013427734375,-0.349853515625,1.7221
0.2900763358778626,1.9083969465648856,-1.3282442748091603,-0.407958984375,0.006103515625,-0.357666015625,1.7238
0.4122137404580153,2.015267175572519,-1.3435114503816794,-0.40869140625,0.009765625,-0.35400390625,1.7254999999999998
0.6412213740458015,1.8778625954198473,-1.4351145038167938,-0.408447265625,0.004638671875,-0.3564453125,1.7271999999999998
0.5648854961832062,1.9083969465648856,-1.3893129770992367,-0.4072265625,0.010009765625,-0.356689453125,1.7288999999999999
0.5190839694656488,2.015267175572519,-1.4809160305343512,-0.406982421875,0.01171875,-0.35498046875,1.7306
0.3969465648854962,1.9694656488549618,-1.4351145038167938,-0.40478515625,0.007080078125,-0.353271484375,1.7323
0.42748091603053434,1.8625954198473282,-1.633587786259542,-0.40185546875,0.011474609375,-0.352783203125,1.734
0.6259541984732825,1.9083969465648856,-1.3740458015267176,-0.408447265625,0.009765625,-0.363037109375,1.7356999999999998
0.6717557251908397,1.9694656488549618,-1.5419847328244274,-0.407470703125,0.010009765625,-0.357421875,1.7373999999999998
0.5954198473282443,1.9083969465648856,-1.3587786259541985,-0.403564453125,0.00390625,-0.358642578125,1.7390999999999999
0.6564885496183206,2.1374045801526718,-1.7557251908396947,-0.40625,0.00634765625,-0.350341796875,1.7408
0.732824427480916,1.8778625954198473,-1.6641221374045803,-0.408935546875,0.005615234375,-0.349853515625,1.7425
0.6870229007633588,1.8625954198473282,-1.6488549618320612,-0.40625,0.0068359375,-0.35205078125,1.7442
0.5801526717557252,1.9236641221374047,-1.7404580152671756,-0.41064453125,0.00830078125,-0.3564453125,1.7459
0.7022900763358778,1.9389312977099236,-1.7099236641221374,-0.40185546875,0.0078125,-0.357421875,1.7475999999999998
0.6717557251908397,1.8931297709923665,-1.3893129770992367,-0.41015625,0.009033203125,-0.3544921875,1.7492999999999999
0.8702290076335878,1.8473282442748091,-1.7251908396946565,-0.408447265625,0.01171875,-0.361083984375,1.751
0.6106870229007634,1.9236641221374047,-1.8625954198473282,-0.41064453125,0.005615234375,-0.36083984375,1.7527
0.6717557251908397,1.8625954198473282,-1.633587786259542,-0.40625,0.0087890625,-0.357177734375,1.7544
0.9007633587786259,1.9083969465648856,-1.6030534351145038,-0.404052734375,0.010986328125,-0.357421875,1.7561
0.6870229007633588,1.8931297709923665,-1.8625954198473282,-0.407958984375,0.01025390625,-0.36474609375,1.7577999999999998
0.9312977099236641,1.7404580152671756,-1.7251908396946565,-0.40771484375,0.0087890625,-0.353515625,1.7594999999999998
0.9007633587786259,2.045801526717557,-1.7099236641221374,-0.410400390625,0.009521484375,-0.35498046875,1.7611999999999999
0.7786259541984732,2.122137404580153,-1.8015267175572518,-0.40673828125,0.00927734375,-0.35400390625,1.7629
0.7175572519083969,2.0,-1.83206106870229,-0.4052734375,0.0087890625,-0.3505859375,1.7646
0.8549618320610687,2.030534351145038,-1.8015267175572518,-0.406005859375,0.011474609375,-0.352294921875,1.7663
0.8091603053435115,1.8778625954198473,-1.6488549618320612,-0.402587890625,0.00244140625,-0.36328125,1.7679999999999998
0.916030534351145,1.9389312977099236,-1.7099236641221374,-0.40185546875,0.008544921875,-0.357666015625,1.7696999999999998
0.7022900763358778,1.8625954198473282,-1.8015267175572518,-0.408935546875,0.0087890625,-0.3583984375,1.7713999999999999
0.8549618320610687,2.0,-1.6946564885496183,-0.412109375,0.012451171875,-0.368408203125,1.7731
0.7938931297709924,1.9694656488549618,-1.786259541984733,-0.40673828125,0.000244140625,-0.349365234375,1.7748
0.5954198473282443,1.9083969465648856,-1.7404580152671756,-0.410888671875,0.004150390625,-0.35107421875,1.7765
0.6717557251908397,2.0916030534351147,-1.7557251908396947,-0.4072265625,0.013671875,-0.359375,1.7782
0.7480916030534351,2.045801526717557,-1.5725190839694656,-0.40966796875,0.01025390625,-0.355712890625,1.7798999999999998
0.9465648854961832,2.030534351145038,-1.7709923664122138,-0.402587890625,0.01171875,-0.365478515625,1.7815999999999999
0.9770992366412213,1.8625954198473282,-1.786259541984733,-0.405517578125,0.011474609375,-0.36279296875,1.7832999999999999
0.8702290076335878,1.9541984732824427,-1.7557251908396947,-0.40478515625,0.009033203125,-0.351806640625,1.785
0.7022900763358778,2.0610687022900764,-1.7709923664122138,-0.4072265625,0.0068359375,-0.365234375,1.7867
0.9770992366412213,2.1374045801526718,-1.83206106870229,-0.40576171875,0.0107421875,-0.356201171875,1.7884
0.9923664122137404,2.1068702290076335,-1.8625954198473282,-0.40087890625,0.0078125,-0.350341796875,1.7900999999999998
0.9312977099236641,1.9083969465648856,-1.9541984732824427,-0.400146484375,0.009521484375,-0.356201171875,1.7917999999999998
1.083969465648855,2.16793893129771,-1.7709923664122138,-0.405029296875,0.0068359375,-0.360595703125,1.7934999999999999
0.7480916030534351,2.1526717557251906,-1.9083969465648856,-0.40576171875,0.0078125,-0.360595703125,1.7952
0.916030534351145,2.122137404580153,-1.8931297709923665,-0.40576171875,0.0107421875,-0.359130859375,1.7969
0.9770992366412213,2.1374045801526718,-1.7099236641221374,-0.41015625,0.0087890625,-0.35595703125,1.7986
0.916030534351145,2.0916030534351147,-1.8931297709923665,-0.40966796875,0.00732421875,-0.359619140625,1.8002999999999998
0.916030534351145,2.030534351145038,-2.015267175572519,-0.406494140625,0.005126953125,-0.356201171875,1.8019999999999998
0.8549618320610687,1.8625954198473282,-1.9236641221374047,-0.40625,0.006103515625,-0.352294921875,1.8036999999999999
1.0381679389312977,1.6641221374045803,-1.7251908396946565,-0.400634765625,0.009033203125,-0.3525390625,1.8054
0.9007633587786259,1.9236641221374047,-1.8015267175572518,-0.40673828125,0.0107421875,-0.35205078125,1.8071
1.0229007633587786,1.816793893129771,-1.9236641221374047,-0.405029296875,0.00830078125,-0.349853515625,1.8088
