gyrox1,gyroy1,gyroz1,accelx1,accely1,accelz1,Time
0.13740458015267176,1.3740458015267176,-2.8244274809160306,-0.45361328125,-0.140869140625,-0.116455078125,0.0
0.04580152671755725,1.083969465648855,-2.6259541984732824,-0.45361328125,-0.13818359375,-0.130126953125,0.0017
0.13740458015267176,1.1297709923664123,-2.732824427480916,-0.451904296875,-0.138916015625,-0.118896484375,0.0034
0.1984732824427481,1.2366412213740459,-2.6564885496183206,-0.449951171875,-0.138427734375,-0.1181640625,0.0050999999999999995
0.22900763358778625,1.1908396946564885,-2.6564885496183206,-0.4482421875,-0.143798828125,-0.115478515625,0.0068
0.3511450381679389,1.3893129770992367,-2.595419847328244,-0.452880859375,-0.140625,-0.11572265625,0.008499999999999999
0.6412213740458015,1.099236641221374,-2.6412213740458017,-0.447509765625,-0.141845703125,-0.122802734375,0.010199999999999999
0.7633587786259542,1.282442748091603,-2.5801526717557253,-0.449462890625,-0.14208984375,-0.108154296875,0.011899999999999999
0.6870229007633588,1.251908396946565,-2.564885496183206,-0.447021484375,-0.135498046875,-0.119384765625,0.0136
0.6259541984732825,1.297709923664122,-2.50381679389313,-0.451171875,-0.13671875,-0.111572265625,0.0153
0.1984732824427481,1.297709923664122,-2.564885496183206,-0.447021484375,-0.135009765625,-0.112060546875,0.016999999999999998
0.183206106870229,1.3282442748091603,-2.4427480916030535,-0.445556640625,-0.13232421875,-0.114990234375,0.018699999999999998
0.21374045801526717,1.3282442748091603,-2.427480916030534,-0.45166015625,-0.137939453125,-0.111083984375,0.020399999999999998
0.030534351145038167,1.6030534351145038,-2.381679389312977,-0.455078125,-0.132080078125,-0.125,0.022099999999999998
-0.04580152671755725,1.4351145038167938,-2.1526717557251906,-0.452880859375,-0.13330078125,-0.11279296875,0.023799999999999998
-0.04580152671755725,1.4809160305343512,-2.1526717557251906,-0.4501953125,-0.139404296875,-0.130859375,0.0255
-0.030534351145038167,1.6488549618320612,-2.198473282442748,-0.4462890625,-0.134521484375,-0.12060546875,0.0272
-0.030534351145038167,1.633587786259542,-2.33587786259542,-0.4521484375,-0.14404296875,-0.1259765625,0.0289
0.12213740458015267,1.6030534351145038,-2.2595419847328246,-0.451171875,-0.140380859375,-0.1240234375,0.0306
0.24427480916030533,1.5572519083969465,-2.0,-0.454345703125,-0.132080078125,-0.113525390625,0.032299999999999995
0.2595419847328244,1.5877862595419847,-2.198473282442748,-0.447509765625,-0.134765625,-0.12255859375,0.033999999999999996
0.1984732824427481,1.6030534351145038,-2.183206106870229,-0.451416015625,-0.13720703125,-0.1240234375,0.035699999999999996
0.22900763358778625,1.5725190839694656,-2.2900763358778624,-0.44775390625,-0.142578125,-0.1201171875,0.037399999999999996
0.4580152671755725,1.5114503816793894,-2.3053435114503817,-0.449462890625,-0.13916015625,-0.1201171875,0.039099999999999996
0.5801526717557252,1.5572519083969465,-2.122137404580153,-0.44775390625,-0.136474609375,-0.118896484375,0.040799999999999996
0.44274809160305345,1.6030534351145038,-2.030534351145038,-0.44921875,-0.135498046875,-0.113525390625,0.042499999999999996
0.6870229007633588,1.6946564885496183,-2.015267175572519,-0.44873046875,-0.136962890625,-0.1171875,0.044199999999999996
0.5801526717557252,1.8778625954198473,-2.1374045801526718,-0.451416015625,-0.139892578125,-0.123046875,0.045899999999999996
0.5190839694656488,1.816793893129771,-2.030534351145038,-0.454345703125,-0.137451171875,-0.117919921875,0.047599999999999996
0.3816793893129771,1.984732824427481,-2.198473282442748,-0.44287109375,-0.14208984375,-0.1259765625,0.0493
0.5954198473282443,2.1068702290076335,-2.045801526717557,-0.44921875,-0.139892578125,-0.107177734375,0.051
0.5648854961832062,2.0916030534351147,-2.3969465648854964,-0.449462890625,-0.142333984375,-0.1083984375,0.0527
0.5954198473282443,2.122137404580153,-2.2442748091603053,-0.44970703125,-0.142578125,-0.114990234375,0.0544
0.6717557251908397,2.0,-2.2900763358778624,-0.449462890625,-0.14306640625,-0.113037109375,0.0561
0.8396946564885496,2.183206106870229,-2.2290076335877864,-0.4443359375,-0.1396484375,-0.12109375,0.0578
0.7480916030534351,1.9236641221374047,-2.183206106870229,-0.4482421875,-0.14404296875,-0.1220703125,0.0595
0.732824427480916,2.0,-2.366412213740458,-0.4462890625,-0.142578125,-0.115478515625,0.0612
0.732824427480916,2.0610687022900764,-2.4122137404580153,-0.450439453125,-0.1455078125,-0.121337890625,0.0629
0.6106870229007634,2.0610687022900764,-2.4732824427480917,-0.44873046875,-0.142333984375,-0.116943359375,0.06459999999999999
0.32061068702290074,2.0,-2.519083969465649,-0.4521484375,-0.138671875,-0.122802734375,0.0663
0.32061068702290074,2.16793893129771,-2.427480916030534,-0.451171875,-0.14208984375,-0.119140625,0.06799999999999999
0.030534351145038167,2.198473282442748,-2.6106870229007635,-0.448486328125,-0.143798828125,-0.122314453125,0.0697
-0.030534351145038167,1.984732824427481,-2.519083969465649,-0.446044921875,-0.145751953125,-0.119873046875,0.07139999999999999
-0.5038167938931297,2.0610687022900764,-2.5343511450381677,-0.448486328125,-0.1416015625,-0.112060546875,0.0731
-0.24427480916030533,1.8778625954198473,-2.519083969465649,-0.445556640625,-0.143798828125,-0.124755859375,0.07479999999999999
0.0,2.0916030534351147,-2.5801526717557253,-0.448486328125,-0.152099609375,-0.115478515625,0.0765
-0.0916030534351145,2.0610687022900764,-2.717557251908397,-0.454345703125,-0.141357421875,-0.115478515625,0.07819999999999999
-0.061068702290076333,2.0610687022900764,-2.687022900763359,-0.447021484375,-0.139404296875,-0.11376953125,0.0799
-0.10687022900763359,1.8931297709923665,-2.4732824427480917,-0.447998046875,-0.1416015625,-0.117431640625,0.08159999999999999
-0.22900763358778625,1.816793893129771,-2.717557251908397,-0.451904296875,-0.14501953125,-0.124755859375,0.0833
-0.366412213740458,1.7404580152671756,-2.717557251908397,-0.451904296875,-0.145751953125,-0.12109375,0.08499999999999999
-0.5648854961832062,1.6793893129770991,-2.7786259541984735,-0.452392578125,-0.14208984375,-0.1201171875,0.0867
-0.732824427480916,1.816793893129771,-2.6106870229007635,-0.443603515625,-0.141357421875,-0.126220703125,0.08839999999999999
-0.8549618320610687,1.816793893129771,-2.7938931297709924,-0.452392578125,-0.147705078125,-0.122314453125,0.0901
-0.9618320610687023,1.7709923664122138,-2.6106870229007635,-0.45166015625,-0.144287109375,-0.120849609375,0.09179999999999999
-0.9923664122137404,2.015267175572519,-2.732824427480916,-0.45361328125,-0.1396484375,-0.128173828125,0.0935
-1.4351145038167938,2.122137404580153,-2.7480916030534353,-0.4560546875,-0.140869140625,-0.11083984375,0.09519999999999999
-1.618320610687023,2.183206106870229,-2.5343511450381677,-0.453857421875,-0.137939453125,-0.11328125,0.0969
-1.4961832061068703,2.2290076335877864,-2.519083969465649,-0.451416015625,-0.14306640625,-0.123779296875,0.0986
-1.3435114503816794,2.3969465648854964,-2.4732824427480917,-0.448486328125,-0.137451171875,-0.1220703125,0.1003
-1.2061068702290076,2.2442748091603053,-2.4580152671755724,-0.4482421875,-0.135986328125,-0.117431640625,0.102
-1.0076335877862594,2.2595419847328246,-2.564885496183206,-0.44970703125,-0.13818359375,-0.1201171875,0.1037
-0.9770992366412213,2.0916030534351147,-2.2290076335877864,-0.449462890625,-0.140625,-0.114990234375,0.1054
-0.8091603053435115,2.015267175572519,-2.549618320610687,-0.44970703125,-0.1416015625,-0.119140625,0.1071
-0.7633587786259542,2.045801526717557,-2.427480916030534,-0.44970703125,-0.1357421875,-0.12060546875,0.1088
-0.5648854961832062,2.0,-2.3969465648854964,-0.44775390625,-0.133056640625,-0.111572265625,0.11049999999999999
-0.8091603053435115,1.9389312977099236,-2.1374045801526718,-0.449462890625,-0.13427734375,-0.11767578125,0.1122
-1.0076335877862594,2.015267175572519,-2.351145038167939,-0.445556640625,-0.13818359375,-0.119140625,0.11389999999999999
-0.7938931297709924,1.984732824427481,-2.1068702290076335,-0.448486328125,-0.13720703125,-0.11474609375,0.1156
-0.7633587786259542,2.0610687022900764,-2.0610687022900764,-0.4443359375,-0.141357421875,-0.116455078125,0.11729999999999999
-0.9007633587786259,2.2290076335877864,-2.0,-0.4501953125,-0.138916015625,-0.114013671875,0.119
-0.7633587786259542,1.9694656488549618,-2.015267175572519,-0.447509765625,-0.1328125,-0.12353515625,0.12069999999999999
-0.7022900763358778,2.183206106870229,-1.9236641221374047,-0.442138671875,-0.138916015625,-0.12060546875,0.1224
-0.7633587786259542,2.2595419847328246,-1.9236641221374047,-0.44580078125,-0.13720703125,-0.11865234375,0.12409999999999999
-0.7175572519083969,2.1374045801526718,-1.8473282442748091,-0.446044921875,-0.13818359375,-0.122802734375,0.1258
-0.5954198473282443,2.030534351145038,-1.7557251908396947,-0.454345703125,-0.131591796875,-0.126220703125,0.1275
-0.6717557251908397,2.198473282442748,-1.6946564885496183,-0.44580078125,-0.1376953125,-0.12255859375,0.12919999999999998
-0.22900763358778625,2.183206106870229,-1.7557251908396947,-0.44189453125,-0.139892578125,-0.121826171875,0.1309
-0.1984732824427481,2.030534351145038,-1.7709923664122138,-0.44482421875,-0.136474609375,-0.122802734375,0.1326
-0.07633587786259542,2.045801526717557,-1.7557251908396947,-0.43701171875,-0.13427734375,-0.12060546875,0.1343
0.16793893129770993,2.015267175572519,-1.786259541984733,-0.446044921875,-0.14208984375,-0.115478515625,0.13599999999999998
0.030534351145038167,1.8015267175572518,-2.045801526717557,-0.445068359375,-0.14208984375,-0.119873046875,0.1377
0.15267175572519084,2.030534351145038,-1.9694656488549618,-0.44189453125,-0.137939453125,-0.113525390625,0.1394
-0.16793893129770993,2.2290076335877864,-2.2595419847328246,-0.445556640625,-0.142578125,-0.120849609375,0.1411
0.10687022900763359,2.1068702290076335,-1.8473282442748091,-0.445556640625,-0.140380859375,-0.12451171875,0.14279999999999998
0.015267175572519083,2.198473282442748,-2.045801526717557,-0.443115234375,-0.14111328125,-0.114990234375,0.1445
-0.04580152671755725,2.33587786259542,-1.9541984732824427,-0.4423828125,-0.137939453125,-0.1171875,0.1462
-0.030534351145038167,2.2595419847328246,-2.3206106870229006,-0.442626953125,-0.14111328125,-0.119873046875,0.1479
0.015267175572519083,2.1374045801526718,-2.1526717557251906,-0.4453125,-0.13818359375,-0.116455078125,0.14959999999999998
-0.0916030534351145,2.2595419847328246,-2.4580152671755724,-0.44287109375,-0.145263671875,-0.11376953125,0.1513
-0.15267175572519084,2.1526717557251906,-2.2900763358778624,-0.443603515625,-0.14501953125,-0.11572265625,0.153
-0.5954198473282443,1.8625954198473282,-2.3206106870229006,-0.438720703125,-0.14453125,-0.119873046875,0.1547
-0.5954198473282443,1.6946564885496183,-2.50381679389313,-0.440185546875,-0.148681640625,-0.12158203125,0.15639999999999998
-0.8702290076335878,1.5877862595419847,-2.4122137404580153,-0.44873046875,-0.136962890625,-0.119140625,0.1581
-0.8244274809160306,1.6793893129770991,-2.4732824427480917,-0.447265625,-0.14111328125,-0.1171875,0.1598
-0.9465648854961832,1.618320610687023,-2.732824427480916,-0.443603515625,-0.146240234375,-0.117431640625,0.1615
-0.9465648854961832,1.4961832061068703,-2.6717557251908395,-0.44873046875,-0.1416015625,-0.11767578125,0.16319999999999998
-1.1145038167938932,1.4961832061068703,-2.6106870229007635,-0.448974609375,-0.14306640625,-0.12744140625,0.1649
-1.3282442748091603,1.5572519083969465,-2.4885496183206106,-0.44482421875,-0.143798828125,-0.121337890625,0.1666
-1.4198473282442747,1.4351145038167938,-2.549618320610687,-0.447265625,-0.14208984375,-0.116943359375,0.16829999999999998
-1.7251908396946565,1.450381679389313,-2.5801526717557253,-0.447509765625,-0.138916015625,-0.1240234375,0.16999999999999998
-1.6793893129770991,1.4198473282442747,-2.351145038167939,-0.447021484375,-0.139404296875,-0.1220703125,0.1717
-1.83206106870229,1.4351145038167938,-2.33587786259542,-0.445068359375,-0.1455078125,-0.11474609375,0.1734
-2.030534351145038,1.3740458015267176,-2.351145038167939,-0.452392578125,-0.136962890625,-0.120361328125,0.17509999999999998
-2.213740458015267,1.5725190839694656,-2.2748091603053435,-0.45263671875,-0.138916015625,-0.123779296875,0.17679999999999998
-2.122137404580153,1.4961832061068703,-2.1526717557251906,-0.453369140625,-0.138916015625,-0.131103515625,0.1785
-1.9083969465648856,1.618320610687023,-2.1526717557251906,-0.453857421875,-0.14013671875,-0.115966796875,0.1802
-1.7404580152671756,1.4809160305343512,-2.0610687022900764,-0.4541015625,-0.13720703125,-0.123291015625,0.18189999999999998
-1.8931297709923665,1.5114503816793894,-2.045801526717557,-0.448486328125,-0.13623046875,-0.1171875,0.18359999999999999
-1.83206106870229,1.5267175572519085,-2.030534351145038,-0.4482421875,-0.134521484375,-0.114501953125,0.1853
-1.786259541984733,1.5572519083969465,-1.83206106870229,-0.455322265625,-0.136962890625,-0.117919921875,0.187
-1.7709923664122138,1.297709923664122,-1.786259541984733,-0.449462890625,-0.136962890625,-0.119384765625,0.18869999999999998
-1.6488549618320612,1.4045801526717556,-1.633587786259542,-0.4521484375,-0.137451171875,-0.12060546875,0.19039999999999999
-1.633587786259542,1.4198473282442747,-1.5877862595419847,-0.444580078125,-0.1337890625,-0.12255859375,0.1921
-1.5267175572519085,1.6030534351145038,-1.7404580152671756,-0.447021484375,-0.13818359375,-0.1220703125,0.1938
-1.450381679389313,1.5114503816793894,-1.5572519083969465,-0.4453125,-0.1376953125,-0.122314453125,0.19549999999999998
-1.450381679389313,1.282442748091603,-1.465648854961832,-0.448974609375,-0.135009765625,-0.118408203125,0.1972
-1.6793893129770991,1.2061068702290076,-1.4198473282442747,-0.44873046875,-0.13818359375,-0.119384765625,0.1989
-1.083969465648855,1.4045801526717556,-1.251908396946565,-0.446044921875,-0.138427734375,-0.120361328125,0.2006
-1.1755725190839694,1.4198473282442747,-1.2366412213740459,-0.44677734375,-0.1328125,-0.123046875,0.20229999999999998
-0.8702290076335878,1.5267175572519085,-1.4045801526717556,-0.44873046875,-0.133056640625,-0.128173828125,0.204
-0.8091603053435115,1.8015267175572518,-1.2671755725190839,-0.45068359375,-0.135009765625,-0.119384765625,0.2057
-0.7480916030534351,1.9083969465648856,-1.1145038167938932,-0.44873046875,-0.1337890625,-0.126220703125,0.2074
-0.32061068702290074,2.0763358778625953,-1.1450381679389312,-0.447998046875,-0.1357421875,-0.123291015625,0.20909999999999998
-0.2748091603053435,2.2442748091603053,-1.3282442748091603,-0.448486328125,-0.13916015625,-0.126220703125,0.2108
-0.21374045801526717,2.3206106870229006,-1.297709923664122,-0.448486328125,-0.135498046875,-0.12060546875,0.2125
-0.366412213740458,2.3206106870229006,-1.3129770992366412,-0.4462890625,-0.132568359375,-0.128662109375,0.2142
-0.6412213740458015,2.427480916030534,-1.2061068702290076,-0.4482421875,-0.1376953125,-0.125732421875,0.21589999999999998
-0.32061068702290074,2.366412213740458,-1.3893129770992367,-0.43798828125,-0.1376953125,-0.11376953125,0.2176
-0.1984732824427481,2.351145038167939,-1.4045801526717556,-0.450927734375,-0.140380859375,-0.121826171875,0.2193
-0.3969465648854962,2.122137404580153,-1.3435114503816794,-0.449462890625,-0.135498046875,-0.12353515625,0.22099999999999997
-0.2900763358778626,1.9541984732824427,-1.6030534351145038,-0.446533203125,-0.14306640625,-0.125,0.22269999999999998
-0.2748091603053435,1.9236641221374047,-1.816793893129771,-0.44091796875,-0.14404296875,-0.119873046875,0.2244
-0.10687022900763359,1.9541984732824427,-1.816793893129771,-0.43603515625,-0.1455078125,-0.120849609375,0.2261
-0.15267175572519084,1.83206106870229,-1.9083969465648856,-0.440673828125,-0.142578125,-0.120849609375,0.22779999999999997
0.015267175572519083,1.9083969465648856,-1.9389312977099236,-0.444580078125,-0.1396484375,-0.12939453125,0.22949999999999998
0.15267175572519084,1.984732824427481,-2.122137404580153,-0.44873046875,-0.1416015625,-0.129150390625,0.2312
0.04580152671755725,2.0763358778625953,-2.1526717557251906,-0.440673828125,-0.14599609375,-0.1181640625,0.2329
-0.21374045801526717,1.984732824427481,-2.381679389312977,-0.440185546875,-0.14697265625,-0.12353515625,0.23459999999999998
-0.3511450381679389,2.030534351145038,-2.3053435114503817,-0.446044921875,-0.144775390625,-0.121337890625,0.23629999999999998
-0.16793893129770993,1.9389312977099236,-2.2595419847328246,-0.442626953125,-0.14599609375,-0.121826171875,0.238
-0.24427480916030533,1.9389312977099236,-2.198473282442748,-0.436279296875,-0.146484375,-0.12109375,0.2397
-0.2900763358778626,2.0,-2.3969465648854964,-0.444091796875,-0.1435546875,-0.12890625,0.24139999999999998
-0.6564885496183206,1.7099236641221374,-2.2748091603053435,-0.43994140625,-0.140625,-0.1181640625,0.24309999999999998
-0.9465648854961832,1.786259541984733,-2.4122137404580153,-0.441162109375,-0.1435546875,-0.116943359375,0.2448
-1.099236641221374,1.8015267175572518,-2.351145038167939,-0.443359375,-0.146240234375,-0.115966796875,0.2465
-1.5725190839694656,1.7099236641221374,-2.183206106870229,-0.43994140625,-0.1416015625,-0.119384765625,0.24819999999999998
-1.465648854961832,1.5572519083969465,-2.33587786259542,-0.440673828125,-0.142578125,-0.1220703125,0.24989999999999998
-1.2366412213740459,1.7709923664122138,-2.381679389312977,-0.438720703125,-0.138916015625,-0.11669921875,0.2516
-1.5114503816793894,1.6641221374045803,-2.1526717557251906,-0.439208984375,-0.137939453125,-0.123779296875,0.25329999999999997
-1.4961832061068703,1.7557251908396947,-2.1068702290076335,-0.440673828125,-0.13720703125,-0.115234375,0.255
-1.5419847328244274,1.6793893129770991,-1.8473282442748091,-0.446533203125,-0.140380859375,-0.11279296875,0.2567
-1.6793893129770991,1.6946564885496183,-2.0,-0.439208984375,-0.1396484375,-0.122802734375,0.25839999999999996
-1.4045801526717556,1.7404580152671756,-1.984732824427481,-0.4453125,-0.137451171875,-0.12548828125,0.2601
-1.450381679389313,1.6641221374045803,-1.9236641221374047,-0.447021484375,-0.141357421875,-0.122314453125,0.2618
-1.5114503816793894,1.7251908396946565,-1.6488549618320612,-0.447509765625,-0.13720703125,-0.125732421875,0.2635
-1.4045801526717556,1.5725190839694656,-1.7251908396946565,-0.438232421875,-0.1396484375,-0.125,0.2652
-1.618320610687023,1.465648854961832,-1.4961832061068703,-0.447998046875,-0.142333984375,-0.11572265625,0.26689999999999997
-1.465648854961832,1.618320610687023,-1.4198473282442747,-0.449462890625,-0.136962890625,-0.118408203125,0.2686
-1.450381679389313,1.6946564885496183,-1.3435114503816794,-0.44921875,-0.140380859375,-0.1142578125,0.2703
-1.4961832061068703,1.6793893129770991,-1.3282442748091603,-0.444580078125,-0.1337890625,-0.12158203125,0.27199999999999996
-1.4045801526717556,1.3435114503816794,-1.1297709923664123,-0.448486328125,-0.1318359375,-0.118896484375,0.2737
-1.4961832061068703,1.5419847328244274,-0.8854961832061069,-0.44580078125,-0.138427734375,-0.12060546875,0.2754
-1.5877862595419847,1.4351145038167938,-0.8396946564885496,-0.443603515625,-0.133056640625,-0.128173828125,0.27709999999999996
-1.6946564885496183,1.3587786259541985,-0.7938931297709924,-0.447998046875,-0.13720703125,-0.113525390625,0.2788
-1.618320610687023,1.3587786259541985,-0.5954198473282443,-0.451171875,-0.136962890625,-0.119140625,0.28049999999999997
-1.6030534351145038,1.1603053435114503,-0.48854961832061067,-0.44921875,-0.13525390625,-0.12255859375,0.2822
-1.618320610687023,1.251908396946565,-0.4580152671755725,-0.447509765625,-0.133056640625,-0.1123046875,0.2839
-1.4351145038167938,1.1755725190839694,-0.5801526717557252,-0.450439453125,-0.12841796875,-0.11962890625,0.28559999999999997
-1.4809160305343512,1.0687022900763359,-0.22900763358778625,-0.4521484375,-0.13671875,-0.1201171875,0.2873
-1.4351145038167938,1.2213740458015268,-0.33587786259541985,-0.452392578125,-0.13720703125,-0.128173828125,0.289
-1.5572519083969465,1.4198473282442747,-0.21374045801526717,-0.452392578125,-0.134033203125,-0.11669921875,0.29069999999999996
-1.3893129770992367,1.2671755725190839,-0.10687022900763359,-0.44775390625,-0.134521484375,-0.122802734375,0.2924
-1.099236641221374,1.3435114503816794,-0.15267175572519084,-0.44775390625,-0.136962890625,-0.117919921875,0.2941
-1.2061068702290076,1.4351145038167938,0.061068702290076333,-0.4541015625,-0.1357421875,-0.115966796875,0.2958
-1.0534351145038168,1.297709923664122,0.015267175572519083,-0.447509765625,-0.13671875,-0.125,0.2975
-0.8396946564885496,1.4351145038167938,0.015267175572519083,-0.452392578125,-0.1357421875,-0.119384765625,0.29919999999999997
-0.6564885496183206,1.4045801526717556,0.24427480916030533,-0.453125,-0.143798828125,-0.117431640625,0.3009
-0.42748091603053434,1.251908396946565,-0.21374045801526717,-0.448974609375,-0.13720703125,-0.119384765625,0.3026
-0.44274809160305345,1.3282442748091603,-0.15267175572519084,-0.45166015625,-0.13720703125,-0.122314453125,0.30429999999999996
0.0,1.3587786259541985,-0.061068702290076333,-0.45068359375,-0.139892578125,-0.119140625,0.306
0.366412213740458,1.2671755725190839,-0.24427480916030533,-0.45263671875,-0.14013671875,-0.119873046875,0.3077
0.7175572519083969,1.2366412213740459,-0.366412213740458,-0.44921875,-0.139404296875,-0.114990234375,0.3094
0.6564885496183206,1.251908396946565,-0.24427480916030533,-0.4521484375,-0.142578125,-0.122314453125,0.3111
0.6717557251908397,1.4961832061068703,-0.32061068702290074,-0.44775390625,-0.142333984375,-0.114990234375,0.31279999999999997
0.7022900763358778,1.3893129770992367,-0.061068702290076333,-0.447509765625,-0.140625,-0.12255859375,0.3145
0.7633587786259542,1.6793893129770991,-0.2748091603053435,-0.451171875,-0.142333984375,-0.121337890625,0.3162
0.8244274809160306,1.8625954198473282,-0.24427480916030533,-0.453857421875,-0.14697265625,-0.1259765625,0.31789999999999996
0.8854961832061069,2.030534351145038,-0.366412213740458,-0.45166015625,-0.146484375,-0.134521484375,0.3196
1.099236641221374,2.16793893129771,-0.6717557251908397,-0.454833984375,-0.14794921875,-0.135498046875,0.3213
1.1755725190839694,2.2442748091603053,-0.6564885496183206,-0.4521484375,-0.149169921875,-0.1279296875,0.323
1.251908396946565,2.4427480916030535,-0.7786259541984732,-0.44873046875,-0.147216796875,-0.12451171875,0.3247
1.251908396946565,2.3206106870229006,-0.8244274809160306,-0.455078125,-0.14794921875,-0.117431640625,0.32639999999999997
1.099236641221374,2.2748091603053435,-0.9618320610687023,-0.451416015625,-0.14404296875,-0.12744140625,0.3281
0.9312977099236641,2.045801526717557,-1.0534351145038168,-0.447021484375,-0.146484375,-0.123046875,0.3298
0.732824427480916,1.8015267175572518,-1.251908396946565,-0.44873046875,-0.1455078125,-0.129638671875,0.33149999999999996
0.4732824427480916,1.4809160305343512,-1.1755725190839694,-0.44921875,-0.146240234375,-0.12646484375,0.3332
0.3053435114503817,1.4351145038167938,-1.465648854961832,-0.44970703125,-0.14453125,-0.12158203125,0.3349
0.183206106870229,1.3129770992366412,-1.4045801526717556,-0.451904296875,-0.144287109375,-0.13134765625,0.33659999999999995
-0.22900763358778625,1.1450381679389312,-1.3740458015267176,-0.454833984375,-0.143798828125,-0.1259765625,0.3383
-0.42748091603053434,1.2366412213740459,-1.450381679389313,-0.456787109375,-0.1435546875,-0.125732421875,0.33999999999999997
-0.5190839694656488,1.2213740458015268,-1.633587786259542,-0.455322265625,-0.14794921875,-0.125,0.3417
-0.5190839694656488,1.4198473282442747,-1.5419847328244274,-0.453125,-0.143310546875,-0.127197265625,0.3434
-0.6564885496183206,1.2213740458015268,-1.5877862595419847,-0.4541015625,-0.140869140625,-0.12890625,0.34509999999999996
-0.6717557251908397,1.4198473282442747,-1.7404580152671756,-0.4541015625,-0.140869140625,-0.13037109375,0.3468
-0.916030534351145,1.3282442748091603,-1.6488549618320612,-0.459228515625,-0.1396484375,-0.1328125,0.3485
-0.7938931297709924,1.465648854961832,-1.3129770992366412,-0.4619140625,-0.142578125,-0.113525390625,0.35019999999999996
-0.9465648854961832,1.3587786259541985,-1.465648854961832,-0.453857421875,-0.14208984375,-0.12109375,0.3519
-1.1908396946564885,1.3587786259541985,-1.5114503816793894,-0.455322265625,-0.1376953125,-0.116455078125,0.35359999999999997
-1.1755725190839694,1.450381679389313,-1.3587786259541985,-0.452880859375,-0.13720703125,-0.1171875,0.3553
-1.2061068702290076,1.450381679389313,-1.2213740458015268,-0.45263671875,-0.1357421875,-0.1240234375,0.357
-1.5725190839694656,1.2213740458015268,-1.0076335877862594,-0.4501953125,-0.135986328125,-0.126220703125,0.35869999999999996
-1.7099236641221374,1.1908396946564885,-0.8854961832061069,-0.448974609375,-0.135986328125,-0.12744140625,0.3604
-1.7404580152671756,1.1145038167938932,-0.9770992366412213,-0.44873046875,-0.136474609375,-0.1240234375,0.3621
-1.9389312977099236,1.1908396946564885,-0.9465648854961832,-0.45068359375,-0.138671875,-0.119140625,0.36379999999999996
-1.9236641221374047,1.2061068702290076,-0.7786259541984732,-0.451171875,-0.13818359375,-0.113037109375,0.3655
-1.7557251908396947,1.2671755725190839,-0.7175572519083969,-0.4501953125,-0.13671875,-0.112060546875,0.36719999999999997
-1.8015267175572518,1.1297709923664123,-0.6106870229007634,-0.448974609375,-0.13720703125,-0.12451171875,0.3689
-1.786259541984733,1.1145038167938932,-0.44274809160305345,-0.44384765625,-0.1328125,-0.1240234375,0.3706
-1.5572519083969465,1.251908396946565,-0.3816793893129771,-0.450927734375,-0.133056640625,-0.121337890625,0.37229999999999996
-1.618320610687023,1.083969465648855,-0.3969465648854962,-0.4423828125,-0.1376953125,-0.111572265625,0.374
-1.465648854961832,1.099236641221374,-0.366412213740458,-0.444091796875,-0.130126953125,-0.125,0.3757
-1.2366412213740459,1.099236641221374,-0.1984732824427481,-0.44677734375,-0.130615234375,-0.125244140625,0.37739999999999996
-1.0076335877862594,1.0687022900763359,-0.2595419847328244,-0.445068359375,-0.137939453125,-0.122802734375,0.3791
-0.8854961832061069,1.2061068702290076,-0.0916030534351145,-0.442626953125,-0.13427734375,-0.1142578125,0.38079999999999997
-0.5190839694656488,1.2061068702290076,0.015267175572519083,-0.443603515625,-0.130859375,-0.1171875,0.38249999999999995
-0.6717557251908397,1.282442748091603,0.04580152671755725,-0.4423828125,-0.133544921875,-0.11865234375,0.3842
-0.4732824427480916,1.3435114503816794,-0.183206106870229,-0.4453125,-0.13330078125,-0.1240234375,0.38589999999999997
-0.16793893129770993,1.4351145038167938,-0.12213740458015267,-0.44482421875,-0.130126953125,-0.125,0.3876
0.16793893129770993,1.5877862595419847,-0.13740458015267176,-0.447021484375,-0.132080078125,-0.122802734375,0.3893
0.13740458015267176,1.7251908396946565,0.22900763358778625,-0.445068359375,-0.1357421875,-0.131103515625,0.39099999999999996
0.48854961832061067,1.8473282442748091,0.13740458015267176,-0.445068359375,-0.138916015625,-0.1240234375,0.3927
0.4732824427480916,1.6641221374045803,0.061068702290076333,-0.44482421875,-0.13818359375,-0.125732421875,0.3944
0.5954198473282443,1.5267175572519085,-0.04580152671755725,-0.447509765625,-0.134765625,-0.121826171875,0.39609999999999995
0.6412213740458015,1.6488549618320612,0.1984732824427481,-0.447021484375,-0.1357421875,-0.125732421875,0.3978
0.732824427480916,1.7099236641221374,0.07633587786259542,-0.4462890625,-0.134521484375,-0.128662109375,0.39949999999999997
0.6564885496183206,1.6488549618320612,-0.030534351145038167,-0.44970703125,-0.139404296875,-0.132080078125,0.4012
0.5954198473282443,1.786259541984733,-0.2595419847328244,-0.443359375,-0.144287109375,-0.13330078125,0.4029
0.6870229007633588,2.16793893129771,-0.030534351145038167,-0.43896484375,-0.145263671875,-0.129638671875,0.40459999999999996
0.6870229007633588,2.183206106870229,-0.13740458015267176,-0.43994140625,-0.138427734375,-0.12451171875,0.4063
0.7938931297709924,2.1374045801526718,-0.3511450381679389,-0.445068359375,-0.147216796875,-0.1259765625,0.408
0.7480916030534351,2.183206106870229,-0.2900763358778626,-0.442626953125,-0.1416015625,-0.1259765625,0.40969999999999995
1.0534351145038168,2.183206106870229,-0.16793893129770993,-0.442138671875,-0.138916015625,-0.1279296875,0.4114
1.1755725190839694,2.1068702290076335,-0.42748091603053434,-0.443359375,-0.14208984375,-0.123046875,0.41309999999999997
1.0076335877862594,2.045801526717557,-0.3969465648854962,-0.4453125,-0.14306640625,-0.120849609375,0.4148
1.1145038167938932,2.2290076335877864,-0.6259541984732825,-0.44384765625,-0.1396484375,-0.132080078125,0.4165
0.8091603053435115,2.122137404580153,-0.44274809160305345,-0.443115234375,-0.140869140625,-0.12548828125,0.41819999999999996
1.0229007633587786,1.9236641221374047,-0.6717557251908397,-0.446044921875,-0.146484375,-0.1142578125,0.4199
0.8244274809160306,1.9236641221374047,-0.7480916030534351,-0.445556640625,-0.140625,-0.11474609375,0.4216
0.6564885496183206,1.7709923664122138,-0.4732824427480916,-0.443359375,-0.139404296875,-0.129638671875,0.42329999999999995
0.7633587786259542,1.633587786259542,-0.2748091603053435,-0.442138671875,-0.14599609375,-0.121337890625,0.425
0.6259541984732825,1.6030534351145038,-0.4122137404580153,-0.443603515625,-0.143310546875,-0.1279296875,0.42669999999999997
0.5343511450381679,1.8625954198473282,-0.48854961832061067,-0.445556640625,-0.140380859375,-0.126708984375,0.4284
0.48854961832061067,1.7557251908396947,-0.6564885496183206,-0.447509765625,-0.14013671875,-0.1279296875,0.4301
0.4732824427480916,1.7557251908396947,-0.6106870229007634,-0.444580078125,-0.13916015625,-0.127197265625,0.43179999999999996
0.42748091603053434,1.8015267175572518,-0.5343511450381679,-0.44873046875,-0.1376953125,-0.12646484375,0.4335
0.13740458015267176,1.83206106870229,-0.3969465648854962,-0.449951171875,-0.13623046875,-0.125244140625,0.4352
0.2900763358778626,1.6946564885496183,-0.42748091603053434,-0.448486328125,-0.138671875,-0.129150390625,0.43689999999999996
0.15267175572519084,1.6488549618320612,-0.24427480916030533,-0.44384765625,-0.139892578125,-0.122802734375,0.4386
-0.0916030534351145,1.6793893129770991,-0.32061068702290074,-0.445556640625,-0.13818359375,-0.122802734375,0.44029999999999997
0.0,1.6793893129770991,-0.15267175572519084,-0.4560546875,-0.1376953125,-0.127197265625,0.44199999999999995
-0.04580152671755725,1.3893129770992367,-0.3053435114503817,-0.449462890625,-0.14111328125,-0.12451171875,0.4437
-0.366412213740458,1.5877862595419847,-0.04580152671755725,-0.447265625,-0.142822265625,-0.12451171875,0.44539999999999996
-0.42748091603053434,1.6030534351145038,-0.061068702290076333,-0.44970703125,-0.138427734375,-0.13037109375,0.4471
-0.33587786259541985,1.5572519083969465,-0.030534351145038167,-0.447021484375,-0.13720703125,-0.115234375,0.4488
-0.2900763358778626,1.5877862595419847,0.15267175572519084,-0.4482421875,-0.135986328125,-0.119140625,0.45049999999999996
-0.42748091603053434,1.4809160305343512,0.32061068702290074,-0.451904296875,-0.14208984375,-0.120849609375,0.4522
-0.2748091603053435,1.6641221374045803,0.3053435114503817,-0.452392578125,-0.13720703125,-0.127685546875,0.45389999999999997
-0.4580152671755725,1.6793893129770991,0.3969465648854962,-0.456298828125,-0.1376953125,-0.12451171875,0.45559999999999995
-0.4580152671755725,1.5267175572519085,0.32061068702290074,-0.450927734375,-0.14111328125,-0.11962890625,0.4573
-0.21374045801526717,1.618320610687023,0.366412213740458,-0.4501953125,-0.146240234375,-0.1201171875,0.45899999999999996
-0.2748091603053435,1.7404580152671756,0.5648854961832062,-0.4541015625,-0.138916015625,-0.127197265625,0.4607
-0.13740458015267176,1.9541984732824427,0.3511450381679389,-0.45068359375,-0.141845703125,-0.123046875,0.4624
-0.13740458015267176,1.984732824427481,0.44274809160305345,-0.44970703125,-0.140380859375,-0.117431640625,0.46409999999999996
0.0916030534351145,2.0610687022900764,0.5954198473282443,-0.451416015625,-0.142578125,-0.130859375,0.4658
0.13740458015267176,2.1374045801526718,0.48854961832061067,-0.447509765625,-0.139404296875,-0.1298828125,0.46749999999999997
-0.0916030534351145,2.2290076335877864,0.5801526717557252,-0.4521484375,-0.138427734375,-0.11962890625,0.46919999999999995
0.07633587786259542,2.0763358778625953,0.6412213740458015,-0.451416015625,-0.1376953125,-0.1171875,0.4709
0.3053435114503817,2.045801526717557,0.7480916030534351,-0.450439453125,-0.14111328125,-0.1298828125,0.47259999999999996
0.22900763358778625,2.198473282442748,0.6870229007633588,-0.451904296875,-0.1416015625,-0.12353515625,0.4743
0.6259541984732825,1.816793893129771,0.9465648854961832,-0.447998046875,-0.142578125,-0.119384765625,0.476
0.7175572519083969,2.122137404580153,0.7175572519083969,-0.44873046875,-0.14306640625,-0.119873046875,0.47769999999999996
0.8854961832061069,2.0916030534351147,0.7175572519083969,-0.44970703125,-0.137939453125,-0.12353515625,0.4794
0.9007633587786259,2.0610687022900764,0.7633587786259542,-0.449951171875,-0.142578125,-0.130859375,0.48109999999999997
0.8396946564885496,2.16793893129771,0.5801526717557252,-0.45068359375,-0.14111328125,-0.1328125,0.48279999999999995
0.9007633587786259,2.198473282442748,0.5801526717557252,-0.451171875,-0.142333984375,-0.134033203125,0.4845
0.6412213740458015,2.2442748091603053,0.6106870229007634,-0.44873046875,-0.13916015625,-0.12451171875,0.48619999999999997
0.6106870229007634,2.4732824427480917,0.7175572519083969,-0.449951171875,-0.144775390625,-0.123291015625,0.4879
0.7175572519083969,2.4885496183206106,0.6106870229007634,-0.447021484375,-0.139892578125,-0.124267578125,0.4896
0.5190839694656488,2.50381679389313,0.8396946564885496,-0.453125,-0.14501953125,-0.130126953125,0.49129999999999996
0.44274809160305345,2.5801526717557253,0.4580152671755725,-0.4462890625,-0.139404296875,-0.124267578125,0.493
0.5801526717557252,2.5801526717557253,0.4732824427480916,-0.446044921875,-0.14599609375,-0.122314453125,0.4947
0.4580152671755725,2.763358778625954,0.33587786259541985,-0.4453125,-0.142333984375,-0.118408203125,0.49639999999999995
0.7480916030534351,2.763358778625954,0.2595419847328244,-0.44775390625,-0.14697265625,-0.127685546875,0.4981
1.083969465648855,2.5343511450381677,0.16793893129770993,-0.445556640625,-0.139404296875,-0.11669921875,0.49979999999999997
1.1755725190839694,2.5801526717557253,0.030534351145038167,-0.444580078125,-0.140380859375,-0.119140625,0.5015
1.2366412213740459,2.381679389312977,-0.16793893129770993,-0.44580078125,-0.14013671875,-0.120361328125,0.5032
1.297709923664122,2.2900763358778624,-0.22900763358778625,-0.4453125,-0.143310546875,-0.115966796875,0.5049
1.5114503816793894,2.4122137404580153,-0.3969465648854962,-0.442626953125,-0.1416015625,-0.11572265625,0.5065999999999999
1.297709923664122,2.3969465648854964,-0.7938931297709924,-0.442138671875,-0.142578125,-0.119140625,0.5083
1.1908396946564885,2.16793893129771,-0.7175572519083969,-0.436767578125,-0.143310546875,-0.12451171875,0.51
1.0534351145038168,1.9389312977099236,-0.7175572519083969,-0.443603515625,-0.14697265625,-0.123046875,0.5116999999999999
0.9007633587786259,2.0610687022900764,-0.9465648854961832,-0.44189453125,-0.136474609375,-0.12109375,0.5134
0.6870229007633588,2.1068702290076335,-1.0229007633587786,-0.443603515625,-0.14111328125,-0.119140625,0.5151
0.7633587786259542,2.0610687022900764,-1.0687022900763359,-0.437744140625,-0.144287109375,-0.125,0.5167999999999999
0.6717557251908397,2.0610687022900764,-1.0687022900763359,-0.441650390625,-0.14208984375,-0.114013671875,0.5185
0.10687022900763359,2.030534351145038,-1.2366412213740459,-0.440185546875,-0.13916015625,-0.12158203125,0.5202
0.22900763358778625,2.030534351145038,-1.297709923664122,-0.440673828125,-0.141845703125,-0.12451171875,0.5218999999999999
0.12213740458015267,2.015267175572519,-1.450381679389313,-0.4443359375,-0.142578125,-0.117431640625,0.5236
-0.16793893129770993,2.122137404580153,-1.465648854961832,-0.451416015625,-0.13330078125,-0.115966796875,0.5253
-0.33587786259541985,2.0610687022900764,-1.3282442748091603,-0.444580078125,-0.13427734375,-0.11474609375,0.527
-0.33587786259541985,1.8778625954198473,-1.3435114503816794,-0.4453125,-0.13330078125,-0.12548828125,0.5287
-0.5954198473282443,1.9541984732824427,-1.3282442748091603,-0.4482421875,-0.1396484375,-0.1181640625,0.5304
-0.6412213740458015,1.83206106870229,-1.099236641221374,-0.44775390625,-0.13427734375,-0.12158203125,0.5321
-0.916030534351145,1.5114503816793894,-1.2671755725190839,-0.449462890625,-0.13671875,-0.12890625,0.5337999999999999
-0.9618320610687023,1.6793893129770991,-0.9923664122137404,-0.4501953125,-0.131591796875,-0.1201171875,0.5355
-0.8396946564885496,1.5877862595419847,-0.9618320610687023,-0.4501953125,-0.1337890625,-0.123046875,0.5372
-0.9007633587786259,1.4961832061068703,-1.0534351145038168,-0.454345703125,-0.1337890625,-0.12744140625,0.5388999999999999
-0.6717557251908397,1.5419847328244274,-0.8854961832061069,-0.4521484375,-0.135986328125,-0.123046875,0.5406
-0.5954198473282443,1.465648854961832,-0.7633587786259542,-0.451171875,-0.134033203125,-0.123779296875,0.5423
-0.3969465648854962,1.3435114503816794,-0.8549618320610687,-0.45263671875,-0.1337890625,-0.1201171875,0.5439999999999999
-0.13740458015267176,1.465648854961832,-0.5954198473282443,-0.45068359375,-0.138427734375,-0.119140625,0.5457
-0.13740458015267176,1.465648854961832,-0.5801526717557252,-0.45361328125,-0.134033203125,-0.12060546875,0.5474
0.07633587786259542,1.4045801526717556,-0.32061068702290074,-0.450439453125,-0.128173828125,-0.117919921875,0.5490999999999999
0.15267175572519084,1.4198473282442747,-0.3511450381679389,-0.449462890625,-0.128173828125,-0.11376953125,0.5508
0.2748091603053435,1.3740458015267176,-0.15267175572519084,-0.4560546875,-0.12841796875,-0.11181640625,0.5525
0.44274809160305345,1.3740458015267176,-0.10687022900763359,-0.453125,-0.12744140625,-0.1123046875,0.5541999999999999
0.4580152671755725,1.3740458015267176,0.12213740458015267,-0.451416015625,-0.12744140625,-0.11767578125,0.5559
0.48854961832061067,1.3740458015267176,0.061068702290076333,-0.45166015625,-0.12939453125,-0.114501953125,0.5576
0.5954198473282443,1.3129770992366412,0.3053435114503817,-0.45166015625,-0.1279296875,-0.123046875,0.5593
0.7022900763358778,1.3282442748091603,0.32061068702290074,-0.449462890625,-0.128662109375,-0.127197265625,0.5609999999999999
0.7938931297709924,1.4045801526717556,0.5648854961832062,-0.454833984375,-0.127685546875,-0.126953125,0.5627
1.1908396946564885,1.4809160305343512,0.366412213740458,-0.44873046875,-0.128173828125,-0.125732421875,0.5644
1.4198473282442747,1.7404580152671756,0.6564885496183206,-0.44921875,-0.129150390625,-0.120849609375,0.5660999999999999
1.8473282442748091,1.8473282442748091,0.6106870229007634,-0.45166015625,-0.128173828125,-0.1220703125,0.5678
1.7251908396946565,1.6488549618320612,0.6106870229007634,-0.4541015625,-0.129150390625,-0.126953125,0.5695
1.9541984732824427,1.8931297709923665,0.5190839694656488,-0.448486328125,-0.1376953125,-0.11669921875,0.5711999999999999
1.7099236641221374,1.8015267175572518,0.5343511450381679,-0.449462890625,-0.1337890625,-0.120361328125,0.5729
1.8473282442748091,1.9083969465648856,0.42748091603053434,-0.44921875,-0.13671875,-0.122314453125,0.5746
1.5725190839694656,2.0916030534351147,0.5038167938931297,-0.446044921875,-0.139892578125,-0.125244140625,0.5762999999999999
1.3435114503816794,1.9389312977099236,0.3969465648854962,-0.447021484375,-0.135498046875,-0.126220703125,0.578
1.251908396946565,1.9083969465648856,0.5038167938931297,-0.4482421875,-0.142578125,-0.123779296875,0.5797
1.1145038167938932,1.9236641221374047,0.24427480916030533,-0.44482421875,-0.143798828125,-0.120849609375,0.5813999999999999
1.1145038167938932,2.030534351145038,0.16793893129770993,-0.443603515625,-0.1455078125,-0.11474609375,0.5831
1.1145038167938932,2.0610687022900764,0.12213740458015267,-0.4404296875,-0.1455078125,-0.12451171875,0.5848
1.099236641221374,1.984732824427481,-0.061068702290076333,-0.44677734375,-0.145751953125,-0.12060546875,0.5865
1.0687022900763359,1.8931297709923665,-0.12213740458015267,-0.44580078125,-0.1435546875,-0.123046875,0.5882
0.9923664122137404,1.7557251908396947,-0.2748091603053435,-0.441162109375,-0.147705078125,-0.121826171875,0.5899
1.0076335877862594,1.7709923664122138,-0.44274809160305345,-0.443603515625,-0.13916015625,-0.120849609375,0.5916
1.1603053435114503,1.7251908396946565,-0.5038167938931297,-0.44140625,-0.144287109375,-0.122802734375,0.5932999999999999
0.9923664122137404,1.5419847328244274,-0.9465648854961832,-0.44091796875,-0.144287109375,-0.11865234375,0.595
0.9770992366412213,1.4961832061068703,-0.9923664122137404,-0.442626953125,-0.140380859375,-0.129150390625,0.5967
0.7480916030534351,1.5114503816793894,-1.3435114503816794,-0.444091796875,-0.139892578125,-0.1201171875,0.5983999999999999
0.5954198473282443,1.4351145038167938,-1.2671755725190839,-0.452880859375,-0.142822265625,-0.120361328125,0.6001
0.6564885496183206,1.4961832061068703,-1.3435114503816794,-0.450439453125,-0.1416015625,-0.1240234375,0.6018
0.5038167938931297,1.1908396946564885,-1.465648854961832,-0.44580078125,-0.143310546875,-0.120361328125,0.6034999999999999
0.7786259541984732,0.9312977099236641,-1.5419847328244274,-0.44287109375,-0.1455078125,-0.120849609375,0.6052
0.7633587786259542,1.2213740458015268,-1.4961832061068703,-0.44970703125,-0.14013671875,-0.1201171875,0.6069
0.6412213740458015,1.099236641221374,-1.7099236641221374,-0.445068359375,-0.1376953125,-0.12744140625,0.6085999999999999
0.5343511450381679,1.1755725190839694,-1.6793893129770991,-0.4521484375,-0.14111328125,-0.125732421875,0.6103
0.3816793893129771,1.0076335877862594,-1.83206106870229,-0.452392578125,-0.14111328125,-0.13037109375,0.612
0.44274809160305345,1.2213740458015268,-1.9389312977099236,-0.4482421875,-0.141357421875,-0.11279296875,0.6136999999999999
0.3511450381679389,1.1145038167938932,-1.9389312977099236,-0.445556640625,-0.142822265625,-0.124755859375,0.6154
0.22900763358778625,1.1603053435114503,-1.8931297709923665,-0.447021484375,-0.139404296875,-0.118896484375,0.6171
0.33587786259541985,1.1908396946564885,-1.6488549618320612,-0.449462890625,-0.142822265625,-0.13134765625,0.6188
0.0916030534351145,1.1603053435114503,-1.6793893129770991,-0.4521484375,-0.1416015625,-0.11865234375,0.6204999999999999
0.15267175572519084,1.2061068702290076,-2.0610687022900764,-0.459228515625,-0.14892578125,-0.121826171875,0.6222
0.183206106870229,1.1450381679389312,-1.8778625954198473,-0.447509765625,-0.143798828125,-0.12646484375,0.6239
0.10687022900763359,1.1603053435114503,-1.8015267175572518,-0.453125,-0.139892578125,-0.116455078125,0.6255999999999999
0.1984732824427481,1.0687022900763359,-1.8778625954198473,-0.451416015625,-0.139892578125,-0.118408203125,0.6273
0.21374045801526717,1.1603053435114503,-1.9083969465648856,-0.452392578125,-0.139404296875,-0.115234375,0.629
0.04580152671755725,1.099236641221374,-1.9541984732824427,-0.4482421875,-0.14111328125,-0.10986328125,0.6306999999999999
-0.030534351145038167,0.7786259541984732,-1.8778625954198473,-0.44775390625,-0.135986328125,-0.114501953125,0.6324
0.030534351145038167,0.5190839694656488,-1.8778625954198473,-0.44921875,-0.13623046875,-0.117431640625,0.6341
-0.13740458015267176,0.5190839694656488,-1.9694656488549618,-0.44775390625,-0.1416015625,-0.11865234375,0.6357999999999999
-0.061068702290076333,0.3969465648854962,-1.7404580152671756,-0.450927734375,-0.141357421875,-0.116455078125,0.6375
0.030534351145038167,0.5190839694656488,-1.8015267175572518,-0.44873046875,-0.13671875,-0.12158203125,0.6392
-0.16793893129770993,0.3816793893129771,-1.7404580152671756,-0.44970703125,-0.1416015625,-0.114990234375,0.6408999999999999
0.0916030534351145,0.48854961832061067,-1.5267175572519085,-0.450439453125,-0.137939453125,-0.11865234375,0.6426
-0.10687022900763359,0.5190839694656488,-1.5877862595419847,-0.448974609375,-0.13818359375,-0.127197265625,0.6443
-0.183206106870229,0.7480916030534351,-1.3435114503816794,-0.450927734375,-0.135498046875,-0.122314453125,0.646
-0.15267175572519084,0.8091603053435115,-1.2061068702290076,-0.451171875,-0.13623046875,-0.11962890625,0.6476999999999999
0.015267175572519083,0.9007633587786259,-1.0229007633587786,-0.45068359375,-0.136474609375,-0.114501953125,0.6494
0.0,0.9465648854961832,-1.1603053435114503,-0.4521484375,-0.13232421875,-0.115234375,0.6511
0.12213740458015267,1.099236641221374,-0.916030534351145,-0.4541015625,-0.14013671875,-0.115966796875,0.6527999999999999
0.2900763358778626,1.1145038167938932,-0.7480916030534351,-0.445556640625,-0.136474609375,-0.111083984375,0.6545
0.21374045801526717,0.9007633587786259,-0.5954198473282443,-0.448486328125,-0.13623046875,-0.118896484375,0.6562
0.21374045801526717,0.7480916030534351,-0.6870229007633588,-0.4453125,-0.1357421875,-0.119140625,0.6578999999999999
0.5038167938931297,1.1297709923664123,-0.6564885496183206,-0.445556640625,-0.13916015625,-0.12890625,0.6596
0.2748091603053435,1.2061068702290076,-0.48854961832061067,-0.449951171875,-0.1435546875,-0.124755859375,0.6613
0.0916030534351145,0.9618320610687023,-0.4732824427480916,-0.4521484375,-0.14404296875,-0.11376953125,0.6629999999999999
0.2900763358778626,0.8396946564885496,-0.5648854961832062,-0.44873046875,-0.13916015625,-0.12060546875,0.6647
0.32061068702290074,0.9770992366412213,-0.6717557251908397,-0.445556640625,-0.14599609375,-0.124755859375,0.6664
0.22900763358778625,1.1450381679389312,-0.8244274809160306,-0.44482421875,-0.144775390625,-0.1240234375,0.6680999999999999
0.1984732824427481,0.7480916030534351,-0.7022900763358778,-0.442626953125,-0.141845703125,-0.12158203125,0.6698
0.13740458015267176,0.7022900763358778,-0.6870229007633588,-0.444580078125,-0.144287109375,-0.119140625,0.6715
-0.04580152671755725,0.6717557251908397,-0.5801526717557252,-0.443603515625,-0.13818359375,-0.122314453125,0.6731999999999999
-0.15267175572519084,0.549618320610687,-0.5648854961832062,-0.444580078125,-0.14208984375,-0.123779296875,0.6748999999999999
-0.33587786259541985,0.6106870229007634,-0.6717557251908397,-0.447021484375,-0.135009765625,-0.12548828125,0.6766
-0.42748091603053434,0.5648854961832062,-0.8854961832061069,-0.4453125,-0.140625,-0.12548828125,0.6783
-0.6564885496183206,0.48854961832061067,-0.5648854961832062,-0.4443359375,-0.138427734375,-0.12255859375,0.6799999999999999
-0.8396946564885496,0.5038167938931297,-0.7938931297709924,-0.4541015625,-0.140869140625,-0.128662109375,0.6817
-0.732824427480916,0.5954198473282443,-0.8854961832061069,-0.451904296875,-0.14111328125,-0.12255859375,0.6834
-0.8396946564885496,0.6259541984732825,-1.1450381679389312,-0.447265625,-0.142822265625,-0.122802734375,0.6850999999999999
-1.1297709923664123,0.5038167938931297,-0.9618320610687023,-0.44384765625,-0.137939453125,-0.118408203125,0.6868
-1.1145038167938932,0.5190839694656488,-1.2213740458015268,-0.449462890625,-0.140625,-0.126220703125,0.6885
-1.4045801526717556,0.3816793893129771,-1.2671755725190839,-0.44775390625,-0.14013671875,-0.128173828125,0.6901999999999999
-1.5419847328244274,0.3816793893129771,-1.4351145038167938,-0.44873046875,-0.138427734375,-0.123779296875,0.6919
-1.9083969465648856,0.4122137404580153,-1.3893129770992367,-0.4501953125,-0.139892578125,-0.12060546875,0.6936
-1.6030534351145038,0.21374045801526717,-1.5877862595419847,-0.450439453125,-0.14013671875,-0.124755859375,0.6952999999999999
-1.4961832061068703,0.4122137404580153,-1.5419847328244274,-0.443115234375,-0.138916015625,-0.116455078125,0.697
-1.6030534351145038,0.32061068702290074,-1.8778625954198473,-0.4453125,-0.140380859375,-0.12109375,0.6987
-1.2061068702290076,0.2900763358778626,-1.633587786259542,-0.44482421875,-0.13525390625,-0.114990234375,0.7003999999999999
-1.0534351145038168,0.42748091603053434,-1.7404580152671756,-0.443603515625,-0.135009765625,-0.12109375,0.7021
-1.2366412213740459,0.183206106870229,-1.7557251908396947,-0.447998046875,-0.13623046875,-0.11328125,0.7038
-1.083969465648855,0.183206106870229,-1.9694656488549618,-0.443359375,-0.13671875,-0.121337890625,0.7055
-1.3282442748091603,0.04580152671755725,-1.816793893129771,-0.447021484375,-0.139892578125,-0.12646484375,0.7071999999999999
-1.4198473282442747,0.16793893129770993,-1.8625954198473282,-0.449462890625,-0.13671875,-0.120849609375,0.7089
-1.3282442748091603,0.0916030534351145,-1.9236641221374047,-0.454345703125,-0.1318359375,-0.12060546875,0.7106
-1.4961832061068703,0.16793893129770993,-2.0916030534351147,-0.45068359375,-0.134033203125,-0.1298828125,0.7122999999999999
-1.4351145038167938,0.22900763358778625,-1.8625954198473282,-0.44873046875,-0.129638671875,-0.118408203125,0.714
-1.3435114503816794,0.21374045801526717,-1.984732824427481,-0.44921875,-0.133056640625,-0.123291015625,0.7157
-1.282442748091603,0.24427480916030533,-1.8931297709923665,-0.44677734375,-0.128662109375,-0.12158203125,0.7173999999999999
-1.1908396946564885,0.44274809160305345,-1.8778625954198473,-0.44677734375,-0.135986328125,-0.125732421875,0.7191
-1.1908396946564885,0.366412213740458,-1.83206106870229,-0.44873046875,-0.125,-0.128662109375,0.7208
-1.2061068702290076,0.366412213740458,-1.7557251908396947,-0.450927734375,-0.128662109375,-0.129150390625,0.7224999999999999
-1.1908396946564885,0.24427480916030533,-1.7709923664122138,-0.454345703125,-0.132080078125,-0.126953125,0.7242
-1.0534351145038168,0.2748091603053435,-1.633587786259542,-0.452880859375,-0.13037109375,-0.130859375,0.7259
-1.251908396946565,0.16793893129770993,-1.3587786259541985,-0.44970703125,-0.133056640625,-0.125,0.7275999999999999
-1.2213740458015268,0.030534351145038167,-1.3435114503816794,-0.4521484375,-0.131591796875,-0.119384765625,0.7293
-0.9465648854961832,0.030534351145038167,-1.450381679389313,-0.456298828125,-0.130126953125,-0.1220703125,0.731
-0.8091603053435115,0.10687022900763359,-1.3282442748091603,-0.452880859375,-0.13330078125,-0.1171875,0.7326999999999999
-0.6106870229007634,0.1984732824427481,-1.1450381679389312,-0.45068359375,-0.135009765625,-0.125,0.7343999999999999
-0.22900763358778625,0.061068702290076333,-1.2671755725190839,-0.449462890625,-0.135498046875,-0.122314453125,0.7361
0.0916030534351145,0.0916030534351145,-1.2366412213740459,-0.4521484375,-0.1337890625,-0.11669921875,0.7378
0.3816793893129771,0.2748091603053435,-1.1145038167938932,-0.452392578125,-0.132080078125,-0.12109375,0.7394999999999999
0.3511450381679389,0.32061068702290074,-1.0229007633587786,-0.45703125,-0.132568359375,-0.117919921875,0.7412
0.7022900763358778,0.4580152671755725,-1.083969465648855,-0.446533203125,-0.132080078125,-0.12060546875,0.7429
1.1297709923664123,0.4122137404580153,-0.9618320610687023,-0.447998046875,-0.133544921875,-0.125,0.7445999999999999
1.4809160305343512,0.6259541984732825,-1.0534351145038168,-0.44384765625,-0.1328125,-0.122802734375,0.7463
1.5572519083969465,0.6717557251908397,-0.7022900763358778,-0.452392578125,-0.129150390625,-0.120361328125,0.748
1.5267175572519085,0.4732824427480916,-0.6564885496183206,-0.44921875,-0.1337890625,-0.1181640625,0.7496999999999999
1.3435114503816794,0.6717557251908397,-0.7175572519083969,-0.44921875,-0.1318359375,-0.115966796875,0.7514
1.4351145038167938,0.6564885496183206,-0.5801526717557252,-0.450927734375,-0.125732421875,-0.11572265625,0.7531
1.5725190839694656,0.7175572519083969,-0.732824427480916,-0.4482421875,-0.1328125,-0.126708984375,0.7547999999999999
1.633587786259542,0.7480916030534351,-0.6717557251908397,-0.445556640625,-0.126220703125,-0.1142578125,0.7565
1.4961832061068703,0.8549618320610687,-0.7633587786259542,-0.447998046875,-0.135498046875,-0.116943359375,0.7582
1.6030534351145038,0.8244274809160306,-0.8702290076335878,-0.445556640625,-0.138671875,-0.119140625,0.7598999999999999
1.5572519083969465,1.0076335877862594,-0.8702290076335878,-0.445556640625,-0.1357421875,-0.118896484375,0.7615999999999999
1.5114503816793894,0.9618320610687023,-0.916030534351145,-0.44677734375,-0.1396484375,-0.120361328125,0.7633
1.5419847328244274,0.9312977099236641,-0.7786259541984732,-0.44970703125,-0.140625,-0.122802734375,0.7649999999999999
1.1297709923664123,0.8244274809160306,-0.9618320610687023,-0.438720703125,-0.139404296875,-0.125,0.7666999999999999
0.9770992366412213,0.7022900763358778,-0.916030534351145,-0.4482421875,-0.142578125,-0.123779296875,0.7684
0.916030534351145,0.6564885496183206,-1.099236641221374,-0.44287109375,-0.138427734375,-0.123291015625,0.7701
0.7480916030534351,0.6106870229007634,-0.916030534351145,-0.4462890625,-0.14306640625,-0.119384765625,0.7717999999999999
0.6717557251908397,0.8244274809160306,-1.1603053435114503,-0.443115234375,-0.14111328125,-0.1201171875,0.7735
0.6564885496183206,0.8244274809160306,-1.1603053435114503,-0.44091796875,-0.143798828125,-0.118408203125,0.7752
0.7786259541984732,0.8702290076335878,-1.3587786259541985,-0.44482421875,-0.1435546875,-0.125,0.7768999999999999
0.5190839694656488,0.7633587786259542,-1.5114503816793894,-0.447021484375,-0.145263671875,-0.11865234375,0.7786
0.8549618320610687,0.732824427480916,-1.6488549618320612,-0.43994140625,-0.14599609375,-0.11767578125,0.7803
0.5801526717557252,0.9312977099236641,-1.7557251908396947,-0.4443359375,-0.146728515625,-0.1201171875,0.7819999999999999
0.5648854961832062,0.7480916030534351,-1.786259541984733,-0.4443359375,-0.14599609375,-0.1279296875,0.7837
0.4732824427480916,0.6412213740458015,-2.015267175572519,-0.44482421875,-0.1435546875,-0.124267578125,0.7854
0.2900763358778626,0.44274809160305345,-2.0763358778625953,-0.444580078125,-0.14111328125,-0.12158203125,0.7870999999999999
0.07633587786259542,0.3816793893129771,-2.213740458015267,-0.443603515625,-0.143310546875,-0.119140625,0.7888
0.030534351145038167,0.366412213740458,-2.0763358778625953,-0.445556640625,-0.146728515625,-0.11962890625,0.7905
-0.2595419847328244,0.21374045801526717,-2.3053435114503817,-0.447998046875,-0.14453125,-0.117431640625,0.7921999999999999
-0.33587786259541985,0.10687022900763359,-2.213740458015267,-0.445068359375,-0.1455078125,-0.13037109375,0.7938999999999999
-0.3969465648854962,0.0916030534351145,-2.2748091603053435,-0.44677734375,-0.142578125,-0.12890625,0.7956
-0.7022900763358778,0.10687022900763359,-2.4732824427480917,-0.447998046875,-0.146728515625,-0.121337890625,0.7973
-0.6259541984732825,0.015267175572519083,-2.5343511450381677,-0.448974609375,-0.143798828125,-0.11962890625,0.7989999999999999
-0.8244274809160306,-0.0916030534351145,-2.4122137404580153,-0.449951171875,-0.141845703125,-0.123291015625,0.8007
-0.9618320610687023,-0.2595419847328244,-2.732824427480916,-0.44775390625,-0.138427734375,-0.124755859375,0.8024
-0.8854961832061069,-0.13740458015267176,-2.50381679389313,-0.4423828125,-0.139404296875,-0.12255859375,0.8040999999999999
-1.083969465648855,-0.2748091603053435,-2.549618320610687,-0.451904296875,-0.14013671875,-0.134521484375,0.8058
-1.1755725190839694,-0.183206106870229,-2.5343511450381677,-0.453125,-0.138671875,-0.12548828125,0.8075
-1.099236641221374,-0.16793893129770993,-2.50381679389313,-0.453125,-0.139892578125,-0.127685546875,0.8091999999999999
-1.1450381679389312,-0.21374045801526717,-2.381679389312977,-0.449951171875,-0.13818359375,-0.120849609375,0.8109
-1.1450381679389312,-0.183206106870229,-2.4580152671755724,-0.451416015625,-0.13232421875,-0.114501953125,0.8126
-1.3282442748091603,-0.0916030534351145,-2.351145038167939,-0.45068359375,-0.138427734375,-0.121337890625,0.8142999999999999
-1.3435114503816794,-0.22900763358778625,-2.0610687022900764,-0.454833984375,-0.138671875,-0.119873046875,0.816
-1.5725190839694656,-0.13740458015267176,-2.1526717557251906,-0.45556640625,-0.1337890625,-0.11669921875,0.8177
-1.3740458015267176,-0.1984732824427481,-2.1068702290076335,-0.4580078125,-0.135009765625,-0.120849609375,0.8193999999999999
-1.618320610687023,-0.16793893129770993,-1.8473282442748091,-0.453125,-0.133544921875,-0.116943359375,0.8210999999999999
-1.5877862595419847,0.12213740458015267,-1.786259541984733,-0.45703125,-0.1337890625,-0.119140625,0.8228
-1.6793893129770991,0.061068702290076333,-1.8015267175572518,-0.459716796875,-0.1298828125,-0.121826171875,0.8244999999999999
-1.4045801526717556,-0.10687022900763359,-1.8015267175572518,-0.454345703125,-0.130126953125,-0.124755859375,0.8261999999999999
-1.3587786259541985,0.183206106870229,-1.5267175572519085,-0.455810546875,-0.1328125,-0.121337890625,0.8279
-1.4351145038167938,0.030534351145038167,-1.5572519083969465,-0.4560546875,-0.132568359375,-0.125,0.8296
-1.0381679389312977,0.366412213740458,-1.4351145038167938,-0.458984375,-0.1337890625,-0.127197265625,0.8312999999999999
-0.6870229007633588,0.5343511450381679,-1.3587786259541985,-0.45361328125,-0.131591796875,-0.120361328125,0.833
-0.5648854961832062,0.48854961832061067,-1.1755725190839694,-0.45361328125,-0.133056640625,-0.12451171875,0.8347
-0.1984732824427481,0.6106870229007634,-1.2366412213740459,-0.45703125,-0.13232421875,-0.125244140625,0.8363999999999999
0.030534351145038167,0.7938931297709924,-0.9770992366412213,-0.4521484375,-0.135986328125,-0.125244140625,0.8381
0.13740458015267176,0.8854961832061069,-0.9312977099236641,-0.45361328125,-0.1337890625,-0.126220703125,0.8398
0.2748091603053435,0.8396946564885496,-0.7786259541984732,-0.45703125,-0.132568359375,-0.12451171875,0.8414999999999999
0.4580152671755725,1.0381679389312977,-0.6870229007633588,-0.453125,-0.131591796875,-0.12060546875,0.8432
0.7022900763358778,1.099236641221374,-0.7786259541984732,-0.455078125,-0.13720703125,-0.1240234375,0.8449
0.7938931297709924,0.8702290076335878,-0.7175572519083969,-0.450439453125,-0.13330078125,-0.1220703125,0.8465999999999999
0.8396946564885496,1.0687022900763359,-0.7022900763358778,-0.453857421875,-0.13818359375,-0.124267578125,0.8482999999999999
0.8854961832061069,1.1450381679389312,-0.7022900763358778,-0.44970703125,-0.134521484375,-0.121826171875,0.85
0.7175572519083969,1.099236641221374,-0.8396946564885496,-0.445068359375,-0.135986328125,-0.11669921875,0.8516999999999999
0.8549618320610687,1.099236641221374,-0.6717557251908397,-0.447265625,-0.13134765625,-0.121826171875,0.8533999999999999
0.6717557251908397,1.2366412213740459,-0.5801526717557252,-0.44677734375,-0.13037109375,-0.11865234375,0.8551
0.732824427480916,1.3282442748091603,-0.6106870229007634,-0.45654296875,-0.13427734375,-0.11474609375,0.8568
0.7022900763358778,1.3587786259541985,-0.7786259541984732,-0.44921875,-0.134033203125,-0.123046875,0.8584999999999999
0.5801526717557252,1.450381679389313,-0.7633587786259542,-0.4462890625,-0.14013671875,-0.1240234375,0.8602
0.5648854961832062,1.6030534351145038,-0.732824427480916,-0.449462890625,-0.138671875,-0.1201171875,0.8619
0.6412213740458015,1.4198473282442747,-0.6412213740458015,-0.44580078125,-0.140380859375,-0.121826171875,0.8635999999999999
1.1450381679389312,1.6641221374045803,-0.9923664122137404,-0.444091796875,-0.1455078125,-0.1201171875,0.8653
1.3740458015267176,1.6641221374045803,-1.0381679389312977,-0.44384765625,-0.1416015625,-0.122314453125,0.867
1.5877862595419847,1.618320610687023,-1.1297709923664123,-0.443359375,-0.141845703125,-0.1181640625,0.8686999999999999
1.8778625954198473,1.83206106870229,-1.465648854961832,-0.447509765625,-0.140380859375,-0.120849609375,0.8704
2.0763358778625953,1.7404580152671756,-1.450381679389313,-0.44482421875,-0.136474609375,-0.13232421875,0.8721
2.2290076335877864,1.7709923664122138,-1.7099236641221374,-0.447998046875,-0.141845703125,-0.125,0.8737999999999999
2.2290076335877864,1.8015267175572518,-1.6793893129770991,-0.443603515625,-0.146728515625,-0.126708984375,0.8755
1.9694656488549618,1.633587786259542,-1.8625954198473282,-0.43603515625,-0.142578125,-0.121337890625,0.8772
1.9083969465648856,1.5725190839694656,-1.8778625954198473,-0.441162109375,-0.143798828125,-0.114501953125,0.8788999999999999
1.7557251908396947,1.4961832061068703,-2.2595419847328246,-0.441650390625,-0.1416015625,-0.1181640625,0.8805999999999999
1.6641221374045803,1.4809160305343512,-2.1526717557251906,-0.44140625,-0.14697265625,-0.12451171875,0.8823
1.5419847328244274,1.4961832061068703,-2.3969465648854964,-0.446044921875,-0.140625,-0.12451171875,0.8839999999999999
1.3893129770992367,1.5725190839694656,-2.2595419847328246,-0.446044921875,-0.142333984375,-0.122802734375,0.8856999999999999
1.0687022900763359,1.4961832061068703,-2.519083969465649,-0.44189453125,-0.140625,-0.131591796875,0.8874
1.1908396946564885,1.4961832061068703,-2.6259541984732824,-0.440673828125,-0.14306640625,-0.121826171875,0.8891
1.1297709923664123,1.7557251908396947,-2.717557251908397,-0.442138671875,-0.142578125,-0.1171875,0.8907999999999999
0.8702290076335878,1.5114503816793894,-2.6259541984732824,-0.449462890625,-0.14111328125,-0.1171875,0.8925
0.8091603053435115,1.3587786259541985,-2.8702290076335877,-0.44873046875,-0.140869140625,-0.123779296875,0.8942
0.5954198473282443,1.3587786259541985,-3.053435114503817,-0.44287109375,-0.1435546875,-0.11669921875,0.8958999999999999
0.7022900763358778,1.4045801526717556,-3.1297709923664123,-0.44482421875,-0.147216796875,-0.12158203125,0.8976
0.549618320610687,1.282442748091603,-3.099236641221374,-0.444580078125,-0.144775390625,-0.12548828125,0.8993
0.5648854961832062,1.2061068702290076,-3.0229007633587788,-0.451416015625,-0.1455078125,-0.122802734375,0.9009999999999999
0.2748091603053435,1.0534351145038168,-3.1908396946564888,-0.44970703125,-0.141357421875,-0.11767578125,0.9027
0.183206106870229,1.1603053435114503,-3.1755725190839694,-0.44580078125,-0.140380859375,-0.121826171875,0.9044
0.07633587786259542,1.0381679389312977,-3.1297709923664123,-0.453369140625,-0.142822265625,-0.127685546875,0.9060999999999999
-0.04580152671755725,0.9923664122137404,-3.068702290076336,-0.451904296875,-0.1455078125,-0.1240234375,0.9077999999999999
-0.10687022900763359,0.7633587786259542,-2.9923664122137406,-0.454833984375,-0.141845703125,-0.128662109375,0.9095
-0.366412213740458,0.5801526717557252,-2.8702290076335877,-0.4560546875,-0.14404296875,-0.119384765625,0.9111999999999999
-0.366412213740458,0.4580152671755725,-2.6717557251908395,-0.44775390625,-0.140625,-0.122314453125,0.9128999999999999
-0.04580152671755725,0.4580152671755725,-2.8396946564885495,-0.45263671875,-0.144287109375,-0.12060546875,0.9146
0.12213740458015267,0.21374045801526717,-2.6412213740458017,-0.45654296875,-0.14111328125,-0.121826171875,0.9163
0.1984732824427481,0.2748091603053435,-2.4732824427480917,-0.456298828125,-0.140869140625,-0.115234375,0.9179999999999999
-0.0916030534351145,0.3816793893129771,-2.549618320610687,-0.457275390625,-0.138916015625,-0.123779296875,0.9197
-0.07633587786259542,0.4122137404580153,-2.213740458015267,-0.459228515625,-0.143798828125,-0.114990234375,0.9214
-0.3969465648854962,0.5954198473282443,-2.015267175572519,-0.456298828125,-0.13818359375,-0.11962890625,0.9230999999999999
-0.4580152671755725,0.732824427480916,-1.9541984732824427,-0.457275390625,-0.137939453125,-0.11865234375,0.9248
-0.8244274809160306,0.7022900763358778,-1.7251908396946565,-0.458251953125,-0.13330078125,-0.1220703125,0.9265
-1.099236641221374,0.732824427480916,-1.3587786259541985,-0.45849609375,-0.1328125,-0.124755859375,0.9281999999999999
-1.2366412213740459,0.7938931297709924,-1.4351145038167938,-0.45751953125,-0.13037109375,-0.122802734375,0.9299
-1.3587786259541985,0.732824427480916,-1.4045801526717556,-0.461181640625,-0.135009765625,-0.1220703125,0.9316
-1.465648854961832,0.7938931297709924,-1.1145038167938932,-0.455810546875,-0.133544921875,-0.1259765625,0.9332999999999999
-1.099236641221374,0.6564885496183206,-1.0687022900763359,-0.45556640625,-0.134033203125,-0.119140625,0.9349999999999999
-0.6564885496183206,0.7938931297709924,-0.916030534351145,-0.45458984375,-0.130859375,-0.1181640625,0.9367
-0.6106870229007634,0.6870229007633588,-0.8396946564885496,-0.451416015625,-0.137939453125,-0.121826171875,0.9383999999999999
-0.3816793893129771,0.8549618320610687,-0.9770992366412213,-0.453369140625,-0.134765625,-0.118408203125,0.9400999999999999
-0.0916030534351145,0.8854961832061069,-0.7938931297709924,-0.457275390625,-0.13671875,-0.12060546875,0.9418
0.04580152671755725,0.8702290076335878,-0.8244274809160306,-0.453125,-0.130126953125,-0.123046875,0.9434999999999999
0.21374045801526717,0.9007633587786259,-0.9007633587786259,-0.45458984375,-0.130126953125,-0.116943359375,0.9451999999999999
0.7022900763358778,1.1450381679389312,-0.7480916030534351,-0.45849609375,-0.12939453125,-0.12255859375,0.9469
0.916030534351145,0.9923664122137404,-0.732824427480916,-0.451904296875,-0.132568359375,-0.119873046875,0.9486
0.9312977099236641,0.9923664122137404,-0.6870229007633588,-0.44873046875,-0.130126953125,-0.129638671875,0.9502999999999999
1.0381679389312977,1.2061068702290076,-0.7480916030534351,-0.447998046875,-0.130859375,-0.120361328125,0.952
1.1755725190839694,1.0381679389312977,-0.7633587786259542,-0.451171875,-0.134033203125,-0.133056640625,0.9537
1.2671755725190839,0.9923664122137404,-0.7633587786259542,-0.446044921875,-0.134033203125,-0.126953125,0.9553999999999999
1.2061068702290076,1.3587786259541985,-0.8091603053435115,-0.45068359375,-0.134521484375,-0.121337890625,0.9571
1.4351145038167938,1.5267175572519085,-0.8091603053435115,-0.448486328125,-0.131591796875,-0.131591796875,0.9588
1.5267175572519085,1.465648854961832,-0.8854961832061069,-0.44775390625,-0.137939453125,-0.12451171875,0.9604999999999999
1.4045801526717556,1.450381679389313,-0.8854961832061069,-0.4443359375,-0.143798828125,-0.121337890625,0.9621999999999999
1.450381679389313,1.4198473282442747,-1.1603053435114503,-0.448486328125,-0.135986328125,-0.12255859375,0.9639
1.6030534351145038,1.618320610687023,-1.1603053435114503,-0.443115234375,-0.139892578125,-0.116943359375,0.9655999999999999
1.3129770992366412,1.6488549618320612,-1.4045801526717556,-0.44921875,-0.135009765625,-0.1103515625,0.9672999999999999
1.099236641221374,1.465648854961832,-1.450381679389313,-0.450439453125,-0.1376953125,-0.1181640625,0.969
1.0687022900763359,1.4198473282442747,-1.618320610687023,-0.445068359375,-0.135986328125,-0.1162109375,0.9706999999999999
0.8702290076335878,1.3282442748091603,-1.7099236641221374,-0.44189453125,-0.136962890625,-0.121826171875,0.9723999999999999
0.732824427480916,1.3435114503816794,-1.9541984732824427,-0.4453125,-0.139404296875,-0.12646484375,0.9741
0.6717557251908397,1.1908396946564885,-1.9541984732824427,-0.44482421875,-0.139892578125,-0.1259765625,0.9758
0.5954198473282443,1.1755725190839694,-2.2290076335877864,-0.44482421875,-0.142578125,-0.120361328125,0.9774999999999999
0.6259541984732825,1.0687022900763359,-2.2290076335877864,-0.44384765625,-0.13671875,-0.12744140625,0.9792
0.7175572519083969,1.0534351145038168,-2.2900763358778624,-0.444091796875,-0.13525390625,-0.12158203125,0.9809
0.5343511450381679,0.8702290076335878,-2.5343511450381677,-0.442138671875,-0.142822265625,-0.119873046875,0.9825999999999999
0.6259541984732825,0.9007633587786259,-2.33587786259542,-0.441162109375,-0.13720703125,-0.1240234375,0.9843
0.5190839694656488,1.3129770992366412,-2.5343511450381677,-0.43994140625,-0.136962890625,-0.123779296875,0.986
0.8549618320610687,1.1908396946564885,-2.4885496183206106,-0.443115234375,-0.132568359375,-0.118408203125,0.9876999999999999
0.7938931297709924,1.1297709923664123,-2.5343511450381677,-0.44140625,-0.13525390625,-0.11962890625,0.9894
1.1908396946564885,1.1297709923664123,-2.4732824427480917,-0.444091796875,-0.13525390625,-0.1181640625,0.9911
1.3129770992366412,1.099236641221374,-2.3969465648854964,-0.445556640625,-0.1298828125,-0.1240234375,0.9927999999999999
1.450381679389313,1.0687022900763359,-2.595419847328244,-0.447998046875,-0.1376953125,-0.119384765625,0.9944999999999999
1.6488549618320612,1.1450381679389312,-2.4427480916030535,-0.448486328125,-0.1337890625,-0.1171875,0.9962
1.633587786259542,1.3893129770992367,-2.549618320610687,-0.44921875,-0.137939453125,-0.125,0.9978999999999999
1.6641221374045803,1.3740458015267176,-2.16793893129771,-0.447509765625,-0.13525390625,-0.117431640625,0.9995999999999999
1.7099236641221374,1.2061068702290076,-2.2748091603053435,-0.450927734375,-0.1279296875,-0.11474609375,1.0012999999999999
1.5725190839694656,1.465648854961832,-2.2442748091603053,-0.444091796875,-0.13134765625,-0.116455078125,1.003
1.4045801526717556,1.3587786259541985,-2.33587786259542,-0.446533203125,-0.130126953125,-0.116455078125,1.0047
1.4961832061068703,1.3587786259541985,-2.1068702290076335,-0.448486328125,-0.13037109375,-0.113037109375,1.0064
1.3740458015267176,1.4198473282442747,-2.183206106870229,-0.448486328125,-0.131591796875,-0.10986328125,1.0081
1.297709923664122,1.3435114503816794,-1.984732824427481,-0.447021484375,-0.13671875,-0.12060546875,1.0098
1.4045801526717556,1.2671755725190839,-2.1068702290076335,-0.446044921875,-0.130615234375,-0.1181640625,1.0114999999999998
1.3740458015267176,1.2366412213740459,-1.816793893129771,-0.451416015625,-0.134521484375,-0.12109375,1.0131999999999999
1.5419847328244274,1.251908396946565,-1.8625954198473282,-0.44873046875,-0.135498046875,-0.11962890625,1.0149
1.3587786259541985,1.3435114503816794,-1.7404580152671756,-0.447509765625,-0.140869140625,-0.116943359375,1.0166
1.3435114503816794,1.4045801526717556,-1.7404580152671756,-0.4462890625,-0.13671875,-0.1142578125,1.0183
1.3740458015267176,1.282442748091603,-1.4351145038167938,-0.44580078125,-0.13720703125,-0.1220703125,1.02
1.4045801526717556,1.4961832061068703,-1.5877862595419847,-0.44873046875,-0.137451171875,-0.130615234375,1.0217
1.3587786259541985,1.450381679389313,-1.4351145038167938,-0.4462890625,-0.140625,-0.121337890625,1.0233999999999999
1.282442748091603,1.3587786259541985,-1.3129770992366412,-0.44482421875,-0.138671875,-0.1162109375,1.0251
1.2366412213740459,1.450381679389313,-1.297709923664122,-0.451904296875,-0.135986328125,-0.126953125,1.0268
1.1908396946564885,1.3435114503816794,-1.3435114503816794,-0.448974609375,-0.13720703125,-0.11572265625,1.0285
1.2061068702290076,1.3587786259541985,-1.1755725190839694,-0.44970703125,-0.1328125,-0.11572265625,1.0302
1.3587786259541985,1.2671755725190839,-1.3587786259541985,-0.448486328125,-0.141357421875,-0.116455078125,1.0319
1.2213740458015268,1.1755725190839694,-0.9923664122137404,-0.448974609375,-0.134033203125,-0.117431640625,1.0335999999999999
1.1450381679389312,1.1297709923664123,-0.9923664122137404,-0.44970703125,-0.131591796875,-0.1201171875,1.0352999999999999
1.083969465648855,1.0687022900763359,-0.7938931297709924,-0.447265625,-0.131103515625,-0.118896484375,1.037
0.9007633587786259,0.7175572519083969,-0.9618320610687023,-0.4453125,-0.138671875,-0.122314453125,1.0387
1.0534351145038168,0.8702290076335878,-0.7786259541984732,-0.450439453125,-0.135009765625,-0.121826171875,1.0404
0.9312977099236641,0.732824427480916,-0.8854961832061069,-0.447998046875,-0.136962890625,-0.12646484375,1.0421
0.8702290076335878,0.4580152671755725,-0.7175572519083969,-0.44287109375,-0.13623046875,-0.127197265625,1.0437999999999998
0.916030534351145,0.5343511450381679,-0.7633587786259542,-0.4462890625,-0.13818359375,-0.124755859375,1.0454999999999999
0.8549618320610687,0.48854961832061067,-0.8396946564885496,-0.44287109375,-0.140380859375,-0.129638671875,1.0472
0.9618320610687023,0.5648854961832062,-0.7022900763358778,-0.450439453125,-0.135986328125,-0.123291015625,1.0489
1.0381679389312977,0.6106870229007634,-0.7480916030534351,-0.445068359375,-0.138671875,-0.12548828125,1.0506
1.1908396946564885,0.7480916030534351,-0.732824427480916,-0.4462890625,-0.135498046875,-0.123291015625,1.0523
1.465648854961832,0.8549618320610687,-0.732824427480916,-0.44482421875,-0.138916015625,-0.125244140625,1.054
1.4198473282442747,0.8244274809160306,-0.8396946564885496,-0.44580078125,-0.136474609375,-0.11962890625,1.0556999999999999
1.5419847328244274,0.6870229007633588,-0.5954198473282443,-0.45068359375,-0.13818359375,-0.123291015625,1.0574
1.5114503816793894,0.7633587786259542,-0.8396946564885496,-0.452392578125,-0.134033203125,-0.12744140625,1.0591
1.3740458015267176,0.8396946564885496,-0.9007633587786259,-0.4482421875,-0.135498046875,-0.127197265625,1.0608
1.1755725190839694,0.8091603053435115,-0.7022900763358778,-0.450927734375,-0.140625,-0.1171875,1.0625
1.1297709923664123,0.732824427480916,-0.7022900763358778,-0.44580078125,-0.1396484375,-0.122802734375,1.0642
0.8854961832061069,0.7175572519083969,-0.916030534351145,-0.445556640625,-0.139404296875,-0.122314453125,1.0658999999999998
0.8854961832061069,0.7938931297709924,-0.7786259541984732,-0.449462890625,-0.13623046875,-0.1220703125,1.0675999999999999
0.8396946564885496,0.7175572519083969,-0.9618320610687023,-0.4482421875,-0.13916015625,-0.1220703125,1.0693
0.9312977099236641,0.6106870229007634,-0.7022900763358778,-0.44677734375,-0.13525390625,-0.120849609375,1.071
0.916030534351145,0.7175572519083969,-0.8091603053435115,-0.447509765625,-0.137939453125,-0.12646484375,1.0727
1.0076335877862594,0.7938931297709924,-0.6717557251908397,-0.449462890625,-0.1357421875,-0.120849609375,1.0744
1.282442748091603,0.732824427480916,-0.8702290076335878,-0.4453125,-0.13720703125,-0.12060546875,1.0760999999999998
1.1755725190839694,0.7480916030534351,-0.9007633587786259,-0.445556640625,-0.1357421875,-0.128173828125,1.0777999999999999
1.1297709923664123,0.7480916030534351,-0.8549618320610687,-0.449462890625,-0.1416015625,-0.127197265625,1.0795
1.5267175572519085,0.6717557251908397,-0.7480916030534351,-0.446044921875,-0.1396484375,-0.121826171875,1.0812
1.4198473282442747,0.7175572519083969,-0.8854961832061069,-0.44775390625,-0.1396484375,-0.1240234375,1.0829
1.3587786259541985,0.6412213740458015,-0.7938931297709924,-0.451416015625,-0.13427734375,-0.122314453125,1.0846
1.5877862595419847,0.5954198473282443,-0.7633587786259542,-0.450927734375,-0.138427734375,-0.128173828125,1.0863
1.7557251908396947,0.8091603053435115,-0.8091603053435115,-0.44873046875,-0.144287109375,-0.122314453125,1.0879999999999999
1.7404580152671756,0.7175572519083969,-0.8854961832061069,-0.44921875,-0.147705078125,-0.121337890625,1.0897
1.9083969465648856,0.6412213740458015,-0.6717557251908397,-0.44921875,-0.138427734375,-0.120849609375,1.0914
1.7709923664122138,0.8091603053435115,-0.6106870229007634,-0.44677734375,-0.13671875,-0.122802734375,1.0931
1.83206106870229,0.9312977099236641,-0.5648854961832062,-0.4482421875,-0.1337890625,-0.116943359375,1.0948
1.8931297709923665,0.8854961832061069,-0.366412213740458,-0.450439453125,-0.1416015625,-0.1201171875,1.0965
1.7709923664122138,0.8854961832061069,-0.7175572519083969,-0.44580078125,-0.135498046875,-0.119140625,1.0981999999999998
1.7709923664122138,0.8854961832061069,-0.5648854961832062,-0.450439453125,-0.13720703125,-0.12451171875,1.0998999999999999
1.984732824427481,0.8396946564885496,-0.42748091603053434,-0.445556640625,-0.139892578125,-0.12109375,1.1016
2.030534351145038,1.083969465648855,-0.2748091603053435,-0.44189453125,-0.1376953125,-0.119873046875,1.1033
2.0,1.2366412213740459,-0.33587786259541985,-0.448486328125,-0.139404296875,-0.12158203125,1.105
1.7557251908396947,1.3435114503816794,-0.42748091603053434,-0.4453125,-0.14306640625,-0.125244140625,1.1067
2.015267175572519,1.4198473282442747,-0.366412213740458,-0.445556640625,-0.138671875,-0.1259765625,1.1083999999999998
1.7404580152671756,1.282442748091603,-0.15267175572519084,-0.44921875,-0.141845703125,-0.11865234375,1.1100999999999999
1.7709923664122138,1.5419847328244274,-0.32061068702290074,-0.447265625,-0.1376953125,-0.1220703125,1.1118
1.9694656488549618,1.4961832061068703,-0.3969465648854962,-0.448486328125,-0.135498046875,-0.128662109375,1.1135
1.8015267175572518,1.6488549618320612,-0.7022900763358778,-0.449462890625,-0.1416015625,-0.1298828125,1.1152
1.786259541984733,1.6488549618320612,-0.6412213740458015,-0.44482421875,-0.1484375,-0.123291015625,1.1169
1.8015267175572518,1.7251908396946565,-0.5648854961832062,-0.4462890625,-0.142822265625,-0.132080078125,1.1186
2.0,1.6946564885496183,-0.5954198473282443,-0.445556640625,-0.14208984375,-0.12744140625,1.1202999999999999
1.83206106870229,1.7099236641221374,-0.8091603053435115,-0.44677734375,-0.1474609375,-0.122314453125,1.1219999999999999
1.8625954198473282,1.816793893129771,-0.8549618320610687,-0.4462890625,-0.140380859375,-0.13134765625,1.1237
1.9236641221374047,1.9236641221374047,-0.7786259541984732,-0.441650390625,-0.14111328125,-0.122314453125,1.1254
1.8015267175572518,1.7557251908396947,-0.8702290076335878,-0.446044921875,-0.14208984375,-0.12255859375,1.1271
1.7251908396946565,1.8931297709923665,-0.9465648854961832,-0.44775390625,-0.1455078125,-0.126708984375,1.1288
2.045801526717557,1.83206106870229,-1.0076335877862594,-0.4453125,-0.143798828125,-0.12158203125,1.1304999999999998
2.3969465648854964,1.786259541984733,-1.297709923664122,-0.441162109375,-0.144287109375,-0.1240234375,1.1321999999999999
2.6564885496183206,1.984732824427481,-1.2671755725190839,-0.446533203125,-0.1474609375,-0.11669921875,1.1339
2.8702290076335877,1.9541984732824427,-1.3587786259541985,-0.4462890625,-0.150146484375,-0.123779296875,1.1356
2.9770992366412212,2.0,-1.4351145038167938,-0.44580078125,-0.14794921875,-0.1259765625,1.1373
3.267175572519084,1.7557251908396947,-1.7709923664122138,-0.445068359375,-0.143798828125,-0.127197265625,1.139
3.0839694656488548,1.786259541984733,-1.6488549618320612,-0.44140625,-0.13623046875,-0.12548828125,1.1407
2.7480916030534353,1.7099236641221374,-1.8778625954198473,-0.445556640625,-0.1376953125,-0.11962890625,1.1423999999999999
2.50381679389313,1.633587786259542,-1.9083969465648856,-0.4501953125,-0.141357421875,-0.1220703125,1.1441
2.3206106870229006,1.618320610687023,-1.9236641221374047,-0.454345703125,-0.14306640625,-0.11865234375,1.1458
1.984732824427481,1.4809160305343512,-1.6793893129770991,-0.451171875,-0.138916015625,-0.11572265625,1.1475
1.83206106870229,1.282442748091603,-1.9389312977099236,-0.45068359375,-0.14111328125,-0.120849609375,1.1492
1.8931297709923665,1.2671755725190839,-1.9083969465648856,-0.453125,-0.137451171875,-0.11474609375,1.1509
1.618320610687023,1.2061068702290076,-1.9694656488549618,-0.45263671875,-0.13525390625,-0.1240234375,1.1525999999999998
1.4809160305343512,1.2366412213740459,-1.7709923664122138,-0.452392578125,-0.13916015625,-0.126220703125,1.1542999999999999
1.9236641221374047,1.2213740458015268,-2.030534351145038,-0.454833984375,-0.13623046875,-0.12353515625,1.156
1.9541984732824427,1.297709923664122,-1.9083969465648856,-0.455078125,-0.136474609375,-0.12646484375,1.1577
1.3435114503816794,1.251908396946565,-1.816793893129771,-0.453125,-0.1328125,-0.132080078125,1.1594
0.6259541984732825,1.2061068702290076,-1.5267175572519085,-0.4521484375,-0.131103515625,-0.1220703125,1.1611
0.5190839694656488,1.2213740458015268,-1.4198473282442747,-0.458740234375,-0.13623046875,-0.1220703125,1.1627999999999998
0.16793893129770993,0.8702290076335878,-1.450381679389313,-0.459228515625,-0.1396484375,-0.122802734375,1.1644999999999999
-0.2748091603053435,0.8244274809160306,-1.3435114503816794,-0.4560546875,-0.1416015625,-0.129150390625,1.1662
-0.48854961832061067,0.7480916030534351,-1.1755725190839694,-0.45361328125,-0.142578125,-0.12451171875,1.1679
-0.48854961832061067,0.5648854961832062,-0.9007633587786259,-0.462890625,-0.1357421875,-0.119384765625,1.1696
-0.4732824427480916,0.4122137404580153,-0.8091603053435115,-0.4560546875,-0.1318359375,-0.121337890625,1.1713
-0.5190839694656488,0.3053435114503817,-0.8244274809160306,-0.458251953125,-0.1318359375,-0.119873046875,1.173
-0.4732824427480916,0.33587786259541985,-0.5343511450381679,-0.45947265625,-0.135009765625,-0.118408203125,1.1746999999999999
-0.6717557251908397,0.33587786259541985,-0.6412213740458015,-0.45654296875,-0.13037109375,-0.116943359375,1.1764
-0.5190839694656488,0.3511450381679389,-0.1984732824427481,-0.452880859375,-0.131591796875,-0.114013671875,1.1781
-0.5038167938931297,0.3511450381679389,-0.12213740458015267,-0.453125,-0.13427734375,-0.1220703125,1.1798
-0.6717557251908397,0.4732824427480916,0.13740458015267176,-0.45556640625,-0.129638671875,-0.1181640625,1.1815
-0.8091603053435115,0.3969465648854962,0.030534351145038167,-0.452880859375,-0.13232421875,-0.1142578125,1.1832
-0.6106870229007634,0.5648854961832062,0.1984732824427481,-0.45263671875,-0.130859375,-0.1181640625,1.1848999999999998
-0.6259541984732825,0.549618320610687,0.030534351145038167,-0.451904296875,-0.12939453125,-0.111083984375,1.1865999999999999
-0.7938931297709924,0.3511450381679389,0.3816793893129771,-0.452880859375,-0.130615234375,-0.122802734375,1.1883
-0.9923664122137404,0.5038167938931297,0.21374045801526717,-0.45458984375,-0.129150390625,-0.129150390625,1.19
-0.7480916030534351,0.3511450381679389,0.48854961832061067,-0.453369140625,-0.13232421875,-0.119140625,1.1917
-0.732824427480916,0.2900763358778626,0.6564885496183206,-0.45849609375,-0.131103515625,-0.1201171875,1.1934
-0.6106870229007634,0.3969465648854962,0.6259541984732825,-0.453857421875,-0.129150390625,-0.12060546875,1.1950999999999998
-0.7175572519083969,0.42748091603053434,0.732824427480916,-0.454833984375,-0.136474609375,-0.120361328125,1.1967999999999999
-0.32061068702290074,0.42748091603053434,0.8244274809160306,-0.446533203125,-0.132568359375,-0.125,1.1985
-0.2595419847328244,0.7786259541984732,0.6870229007633588,-0.44873046875,-0.130126953125,-0.119140625,1.2002
0.015267175572519083,1.0076335877862594,0.8244274809160306,-0.445068359375,-0.134033203125,-0.119873046875,1.2019
0.21374045801526717,1.0687022900763359,0.7175572519083969,-0.444580078125,-0.134521484375,-0.124755859375,1.2036
0.4580152671755725,1.2366412213740459,0.6564885496183206,-0.45263671875,-0.135009765625,-0.13232421875,1.2053
0.549618320610687,1.5572519083969465,0.7175572519083969,-0.447021484375,-0.136474609375,-0.127197265625,1.2069999999999999
0.9465648854961832,1.7709923664122138,0.5954198473282443,-0.4541015625,-0.134765625,-0.114990234375,1.2086999999999999
1.099236641221374,1.8625954198473282,0.32061068702290074,-0.453125,-0.140380859375,-0.115234375,1.2104
1.083969465648855,1.984732824427481,0.2595419847328244,-0.447998046875,-0.137939453125,-0.121826171875,1.2121
1.282442748091603,2.030534351145038,0.33587786259541985,-0.445068359375,-0.1337890625,-0.12158203125,1.2138
1.2213740458015268,1.786259541984733,0.13740458015267176,-0.44189453125,-0.141357421875,-0.1240234375,1.2155
1.2671755725190839,1.6030534351145038,-0.061068702290076333,-0.44287109375,-0.14453125,-0.122314453125,1.2171999999999998
1.3587786259541985,1.5419847328244274,-0.0916030534351145,-0.443115234375,-0.14111328125,-0.12890625,1.2188999999999999
1.7557251908396947,1.5877862595419847,-0.22900763358778625,-0.44189453125,-0.144287109375,-0.125,1.2206
2.015267175572519,1.4045801526717556,-0.4580152671755725,-0.445556640625,-0.1416015625,-0.11767578125,1.2223
2.1068702290076335,1.3435114503816794,-0.6564885496183206,-0.44384765625,-0.13671875,-0.1181640625,1.224
2.045801526717557,1.5572519083969465,-0.6564885496183206,-0.4423828125,-0.1396484375,-0.1201171875,1.2257
2.2442748091603053,1.6030534351145038,-0.9770992366412213,-0.439208984375,-0.14013671875,-0.121826171875,1.2273999999999998
2.16793893129771,1.4351145038167938,-0.9618320610687023,-0.446044921875,-0.142578125,-0.120361328125,1.2290999999999999
1.9694656488549618,1.5114503816793894,-1.1297709923664123,-0.44091796875,-0.143310546875,-0.12158203125,1.2308
1.7557251908396947,1.5267175572519085,-1.3740458015267176,-0.4443359375,-0.142333984375,-0.122314453125,1.2325
1.8625954198473282,1.4198473282442747,-1.5267175572519085,-0.445068359375,-0.145263671875,-0.1328125,1.2342
1.618320610687023,1.6793893129770991,-1.5572519083969465,-0.445068359375,-0.14697265625,-0.123046875,1.2359
1.7404580152671756,1.3893129770992367,-1.7404580152671756,-0.444580078125,-0.148193359375,-0.11669921875,1.2376
1.8473282442748091,1.1450381679389312,-1.9694656488549618,-0.4462890625,-0.143798828125,-0.115234375,1.2392999999999998
1.8473282442748091,1.099236641221374,-1.9541984732824427,-0.445068359375,-0.14306640625,-0.117431640625,1.2409999999999999
1.8015267175572518,1.2061068702290076,-2.0916030534351147,-0.446533203125,-0.146728515625,-0.12744140625,1.2427
1.8015267175572518,1.251908396946565,-2.381679389312977,-0.448974609375,-0.146240234375,-0.123046875,1.2444
1.4351145038167938,1.0076335877862594,-2.427480916030534,-0.44677734375,-0.144287109375,-0.11376953125,1.2461
1.2366412213740459,0.916030534351145,-2.351145038167939,-0.453369140625,-0.142822265625,-0.128173828125,1.2478
0.9465648854961832,0.9923664122137404,-2.4580152671755724,-0.454345703125,-0.14501953125,-0.1279296875,1.2494999999999998
0.8549618320610687,0.8854961832061069,-2.732824427480916,-0.45556640625,-0.14697265625,-0.11767578125,1.2511999999999999
0.549618320610687,0.7786259541984732,-2.717557251908397,-0.44873046875,-0.138427734375,-0.123291015625,1.2529
0.3969465648854962,0.8854961832061069,-2.6106870229007635,-0.45263671875,-0.142822265625,-0.122802734375,1.2546
0.061068702290076333,1.0229007633587786,-2.732824427480916,-0.44384765625,-0.143798828125,-0.1201171875,1.2563
-0.10687022900763359,1.0381679389312977,-2.6412213740458017,-0.448974609375,-0.14599609375,-0.12255859375,1.258
-0.24427480916030533,1.1908396946564885,-2.7022900763358777,-0.4521484375,-0.142578125,-0.119384765625,1.2596999999999998
-0.4122137404580153,1.2366412213740459,-2.33587786259542,-0.45556640625,-0.141357421875,-0.119140625,1.2613999999999999
-0.2595419847328244,1.0534351145038168,-2.519083969465649,-0.457275390625,-0.146728515625,-0.12451171875,1.2631
-0.5190839694656488,1.083969465648855,-2.519083969465649,-0.45947265625,-0.14501953125,-0.127197265625,1.2648
-0.7175572519083969,1.1450381679389312,-2.366412213740458,-0.454833984375,-0.141357421875,-0.120361328125,1.2665
-0.732824427480916,1.2671755725190839,-2.0916030534351147,-0.449462890625,-0.13720703125,-0.114990234375,1.2682
-0.9465648854961832,0.9923664122137404,-2.1068702290076335,-0.454345703125,-0.138427734375,-0.11962890625,1.2699
-0.916030534351145,0.8854961832061069,-1.9389312977099236,-0.455078125,-0.137451171875,-0.121337890625,1.2715999999999998
-1.0687022900763359,0.8702290076335878,-1.816793893129771,-0.449462890625,-0.134521484375,-0.125244140625,1.2732999999999999
-1.282442748091603,0.6870229007633588,-1.5419847328244274,-0.447998046875,-0.13720703125,-0.1181640625,1.275
-1.282442748091603,0.5954198473282443,-1.5267175572519085,-0.449951171875,-0.134033203125,-0.10986328125,1.2767
-1.282442748091603,0.44274809160305345,-1.4809160305343512,-0.449462890625,-0.131103515625,-0.113525390625,1.2784
-1.1603053435114503,0.5190839694656488,-1.4198473282442747,-0.451171875,-0.1357421875,-0.11474609375,1.2801
-1.1297709923664123,0.44274809160305345,-1.1145038167938932,-0.4521484375,-0.132080078125,-0.118896484375,1.2817999999999998
-1.1603053435114503,0.32061068702290074,-1.1450381679389312,-0.45458984375,-0.132080078125,-0.11962890625,1.2834999999999999
-0.4580152671755725,0.48854961832061067,-0.8854961832061069,-0.453125,-0.130615234375,-0.130615234375,1.2852
-0.3969465648854962,0.5038167938931297,-0.732824427480916,-0.452880859375,-0.126708984375,-0.130126953125,1.2869
-0.24427480916030533,0.9007633587786259,-0.6564885496183206,-0.44970703125,-0.130615234375,-0.1162109375,1.2886
-0.6717557251908397,0.8702290076335878,-0.7022900763358778,-0.457763671875,-0.13525390625,-0.122314453125,1.2903
-0.4580152671755725,0.9618320610687023,-0.44274809160305345,-0.447998046875,-0.134033203125,-0.1279296875,1.292
-0.3816793893129771,0.9770992366412213,-0.5343511450381679,-0.44775390625,-0.131591796875,-0.1298828125,1.2936999999999999
-0.6870229007633588,1.0381679389312977,-0.5038167938931297,-0.451416015625,-0.12890625,-0.12890625,1.2953999999999999
-0.8396946564885496,1.2366412213740459,-0.48854961832061067,-0.44970703125,-0.134765625,-0.1171875,1.2971
-0.9770992366412213,1.1755725190839694,-0.22900763358778625,-0.44921875,-0.13671875,-0.11767578125,1.2988
-1.0381679389312977,1.2061068702290076,-0.3969465648854962,-0.446044921875,-0.137451171875,-0.119384765625,1.3005
-0.5954198473282443,1.4198473282442747,-0.42748091603053434,-0.450927734375,-0.133056640625,-0.1201171875,1.3022
-0.7633587786259542,1.633587786259542,-0.4732824427480916,-0.451171875,-0.127685546875,-0.121337890625,1.3038999999999998
-0.5801526717557252,1.6793893129770991,-0.48854961832061067,-0.44384765625,-0.134521484375,-0.1240234375,1.3055999999999999
-0.5038167938931297,1.6030534351145038,-0.8396946564885496,-0.447265625,-0.1416015625,-0.120849609375,1.3073
-0.6870229007633588,1.5114503816793894,-0.7786259541984732,-0.443115234375,-0.138427734375,-0.121337890625,1.309
-0.6259541984732825,1.6030534351145038,-0.6564885496183206,-0.451171875,-0.1416015625,-0.12353515625,1.3107
-0.24427480916030533,1.633587786259542,-0.6717557251908397,-0.444580078125,-0.1416015625,-0.12890625,1.3124
-0.07633587786259542,1.6488549618320612,-0.9770992366412213,-0.447021484375,-0.139892578125,-0.114990234375,1.3140999999999998
-0.015267175572519083,1.6793893129770991,-0.8091603053435115,-0.44921875,-0.13916015625,-0.12158203125,1.3157999999999999
0.10687022900763359,1.6030534351145038,-1.099236641221374,-0.4521484375,-0.143798828125,-0.130126953125,1.3175
0.2595419847328244,1.633587786259542,-1.4045801526717556,-0.448486328125,-0.143310546875,-0.119140625,1.3192
0.3053435114503817,1.5877862595419847,-1.5267175572519085,-0.447021484375,-0.137939453125,-0.12890625,1.3209
0.6717557251908397,1.5877862595419847,-1.6641221374045803,-0.447265625,-0.141845703125,-0.127197265625,1.3226
1.0076335877862594,1.4809160305343512,-1.9389312977099236,-0.444580078125,-0.143310546875,-0.114013671875,1.3243
0.9312977099236641,1.6793893129770991,-2.198473282442748,-0.44970703125,-0.143798828125,-0.127197265625,1.3259999999999998
0.9465648854961832,1.3129770992366412,-2.045801526717557,-0.45166015625,-0.1484375,-0.1240234375,1.3276999999999999
1.1297709923664123,1.1908396946564885,-2.1526717557251906,-0.443115234375,-0.140625,-0.118408203125,1.3294
0.8854961832061069,1.3282442748091603,-2.366412213740458,-0.453369140625,-0.14453125,-0.114013671875,1.3311
0.7175572519083969,1.1908396946564885,-2.381679389312977,-0.448974609375,-0.1435546875,-0.123779296875,1.3328
0.6259541984732825,0.8702290076335878,-2.6564885496183206,-0.447021484375,-0.1416015625,-0.1220703125,1.3345
0.9312977099236641,0.9007633587786259,-2.50381679389313,-0.448974609375,-0.141845703125,-0.11572265625,1.3361999999999998
0.8702290076335878,0.9770992366412213,-2.6412213740458017,-0.448974609375,-0.144775390625,-0.11474609375,1.3378999999999999
0.9465648854961832,1.1297709923664123,-2.8091603053435112,-0.451416015625,-0.142333984375,-0.1220703125,1.3396
0.5343511450381679,0.7786259541984732,-2.9160305343511452,-0.451171875,-0.139404296875,-0.116943359375,1.3413
0.5648854961832062,0.8244274809160306,-2.8244274809160306,-0.44873046875,-0.14501953125,-0.123046875,1.343
0.5954198473282443,0.8091603053435115,-2.8244274809160306,-0.44873046875,-0.140869140625,-0.1220703125,1.3447
0.5190839694656488,0.7480916030534351,-2.8091603053435112,-0.447998046875,-0.1416015625,-0.120361328125,1.3463999999999998
0.1984732824427481,0.916030534351145,-2.854961832061069,-0.452880859375,-0.135498046875,-0.119140625,1.3480999999999999
0.24427480916030533,0.7633587786259542,-2.8396946564885495,-0.448486328125,-0.130126953125,-0.1162109375,1.3497999999999999
-0.015267175572519083,0.5648854961832062,-2.717557251908397,-0.453125,-0.1357421875,-0.12060546875,1.3515
-0.10687022900763359,0.8854961832061069,-2.6106870229007635,-0.4541015625,-0.138427734375,-0.115478515625,1.3532
-0.07633587786259542,0.6564885496183206,-2.717557251908397,-0.450439453125,-0.13720703125,-0.121826171875,1.3549
-0.42748091603053434,0.6106870229007634,-2.351145038167939,-0.45458984375,-0.13720703125,-0.12109375,1.3566
-0.366412213740458,0.6564885496183206,-2.381679389312977,-0.44921875,-0.135009765625,-0.125,1.3582999999999998
-0.5190839694656488,0.7022900763358778,-2.2290076335877864,-0.44677734375,-0.13623046875,-0.1171875,1.3599999999999999
-0.6259541984732825,0.6106870229007634,-2.2595419847328246,-0.456787109375,-0.131103515625,-0.125244140625,1.3617
-0.549618320610687,0.6870229007633588,-2.213740458015267,-0.44921875,-0.134033203125,-0.11865234375,1.3634
-0.6717557251908397,0.8702290076335878,-2.198473282442748,-0.452392578125,-0.131103515625,-0.117431640625,1.3651
-0.6564885496183206,0.5648854961832062,-1.9236641221374047,-0.45556640625,-0.13037109375,-0.111572265625,1.3668
-0.7022900763358778,0.6870229007633588,-1.7557251908396947,-0.4462890625,-0.132568359375,-0.124267578125,1.3684999999999998
-0.7938931297709924,0.48854961832061067,-1.5725190839694656,-0.4560546875,-0.138916015625,-0.126220703125,1.3701999999999999
-0.8244274809160306,0.4732824427480916,-1.465648854961832,-0.453857421875,-0.132568359375,-0.124755859375,1.3719
-0.916030534351145,0.366412213740458,-1.4198473282442747,-0.451171875,-0.133056640625,-0.1181640625,1.3736
-0.8396946564885496,0.5954198473282443,-1.450381679389313,-0.447265625,-0.139404296875,-0.123291015625,1.3753
-0.5190839694656488,0.8244274809160306,-1.3129770992366412,-0.452880859375,-0.134033203125,-0.122314453125,1.377
-0.7022900763358778,0.6259541984732825,-1.0687022900763359,-0.453125,-0.13818359375,-0.11962890625,1.3786999999999998
-0.42748091603053434,0.7633587786259542,-1.1450381679389312,-0.449951171875,-0.136474609375,-0.1220703125,1.3803999999999998
-0.44274809160305345,0.7938931297709924,-0.8854961832061069,-0.45166015625,-0.1318359375,-0.12255859375,1.3820999999999999
-0.4122137404580153,0.9618320610687023,-1.0076335877862594,-0.450927734375,-0.135009765625,-0.113525390625,1.3838
-0.15267175572519084,0.9770992366412213,-0.9923664122137404,-0.448974609375,-0.136962890625,-0.12158203125,1.3855
0.04580152671755725,1.099236641221374,-0.9618320610687023,-0.449951171875,-0.134765625,-0.121337890625,1.3872
0.22900763358778625,1.1603053435114503,-0.7938931297709924,-0.44921875,-0.130615234375,-0.117919921875,1.3889
-0.0916030534351145,1.3435114503816794,-0.8396946564885496,-0.44775390625,-0.12890625,-0.12060546875,1.3905999999999998
-0.2595419847328244,1.5877862595419847,-0.8549618320610687,-0.450927734375,-0.13232421875,-0.12646484375,1.3922999999999999
-0.42748091603053434,1.5114503816793894,-1.099236641221374,-0.44775390625,-0.134033203125,-0.12646484375,1.394
-0.366412213740458,1.465648854961832,-0.9007633587786259,-0.448486328125,-0.13525390625,-0.11865234375,1.3957
-0.5038167938931297,1.3587786259541985,-1.1297709923664123,-0.44775390625,-0.13525390625,-0.1279296875,1.3974
-0.44274809160305345,1.5114503816793894,-1.1450381679389312,-0.448974609375,-0.138671875,-0.124755859375,1.3991
-0.2748091603053435,1.6946564885496183,-1.1450381679389312,-0.44384765625,-0.135009765625,-0.12451171875,1.4007999999999998
-0.183206106870229,1.618320610687023,-1.1297709923664123,-0.4501953125,-0.13916015625,-0.114013671875,1.4024999999999999
-0.030534351145038167,1.5572519083969465,-1.3282442748091603,-0.44873046875,-0.148193359375,-0.12939453125,1.4042
0.366412213740458,1.7099236641221374,-1.4961832061068703,-0.447021484375,-0.1455078125,-0.11865234375,1.4059
0.7633587786259542,1.7251908396946565,-1.8625954198473282,-0.44580078125,-0.142822265625,-0.12255859375,1.4076
0.7480916030534351,1.5877862595419847,-1.8473282442748091,-0.44921875,-0.141357421875,-0.120849609375,1.4093
0.7786259541984732,1.618320610687023,-1.9236641221374047,-0.44384765625,-0.14306640625,-0.12109375,1.411
0.6106870229007634,1.7251908396946565,-2.0610687022900764,-0.446044921875,-0.14208984375,-0.12744140625,1.4126999999999998
0.4580152671755725,1.633587786259542,-2.2290076335877864,-0.444580078125,-0.142822265625,-0.1201171875,1.4143999999999999
0.5190839694656488,1.6030534351145038,-2.1526717557251906,-0.44677734375,-0.142578125,-0.125244140625,1.4161
0.5648854961832062,1.5572519083969465,-2.6412213740458017,-0.444580078125,-0.14453125,-0.12890625,1.4178
0.48854961832061067,1.7251908396946565,-2.4732824427480917,-0.445068359375,-0.140625,-0.127197265625,1.4195
0.4580152671755725,1.816793893129771,-2.4885496183206106,-0.451904296875,-0.143798828125,-0.122802734375,1.4212
0.549618320610687,1.9694656488549618,-2.8091603053435112,-0.447509765625,-0.146728515625,-0.11962890625,1.4228999999999998
0.7175572519083969,1.786259541984733,-2.732824427480916,-0.448486328125,-0.141845703125,-0.110107421875,1.4245999999999999
0.8549618320610687,1.8931297709923665,-2.7786259541984735,-0.447021484375,-0.143798828125,-0.11376953125,1.4263
0.9618320610687023,1.7709923664122138,-2.6717557251908395,-0.44677734375,-0.14599609375,-0.11572265625,1.428
0.9312977099236641,1.5725190839694656,-2.8244274809160306,-0.442138671875,-0.135986328125,-0.1171875,1.4297
0.7633587786259542,1.5725190839694656,-2.8091603053435112,-0.44384765625,-0.139892578125,-0.12353515625,1.4314
0.8549618320610687,1.4351145038167938,-2.7786259541984735,-0.44921875,-0.13818359375,-0.1201171875,1.4330999999999998
0.6564885496183206,1.2213740458015268,-3.0381679389312977,-0.447509765625,-0.140625,-0.12109375,1.4347999999999999
0.33587786259541985,1.1755725190839694,-2.931297709923664,-0.44677734375,-0.138916015625,-0.125244140625,1.4364999999999999
0.0916030534351145,1.1603053435114503,-3.0076335877862594,-0.448974609375,-0.138916015625,-0.12109375,1.4382
0.04580152671755725,1.0534351145038168,-3.0839694656488548,-0.44775390625,-0.137451171875,-0.1171875,1.4399
0.0,1.1450381679389312,-3.114503816793893,-0.449951171875,-0.137451171875,-0.125244140625,1.4416
-0.030534351145038167,1.1908396946564885,-2.732824427480916,-0.44970703125,-0.13427734375,-0.121826171875,1.4433
-0.183206106870229,1.3129770992366412,-2.8244274809160306,-0.451171875,-0.1376953125,-0.12646484375,1.4449999999999998
-0.42748091603053434,1.4351145038167938,-2.595419847328244,-0.44921875,-0.13330078125,-0.123291015625,1.4466999999999999
-0.4122137404580153,1.4198473282442747,-2.8244274809160306,-0.451416015625,-0.135009765625,-0.1259765625,1.4484
-0.5648854961832062,1.297709923664122,-2.50381679389313,-0.45458984375,-0.12890625,-0.124755859375,1.4501
-0.3511450381679389,1.450381679389313,-2.4732824427480917,-0.4521484375,-0.13720703125,-0.1142578125,1.4518
-0.42748091603053434,1.7099236641221374,-2.4580152671755724,-0.457763671875,-0.13330078125,-0.121826171875,1.4535
-0.3511450381679389,1.5877862595419847,-2.2595419847328246,-0.4580078125,-0.1337890625,-0.116943359375,1.4551999999999998
-0.366412213740458,1.5114503816793894,-2.030534351145038,-0.45556640625,-0.130859375,-0.11962890625,1.4568999999999999
-0.12213740458015267,1.4351145038167938,-2.16793893129771,-0.45947265625,-0.13330078125,-0.122314453125,1.4586
-0.366412213740458,1.450381679389313,-2.122137404580153,-0.45263671875,-0.134765625,-0.120361328125,1.4603
-0.2748091603053435,1.4351145038167938,-2.0763358778625953,-0.44970703125,-0.1337890625,-0.12060546875,1.462
-0.030534351145038167,1.4809160305343512,-1.7557251908396947,-0.452880859375,-0.134033203125,-0.12158203125,1.4637
0.13740458015267176,1.3893129770992367,-1.8015267175572518,-0.44970703125,-0.124755859375,-0.123779296875,1.4653999999999998
0.13740458015267176,1.4351145038167938,-1.5267175572519085,-0.451171875,-0.1279296875,-0.125,1.4670999999999998
0.183206106870229,1.5114503816793894,-1.5725190839694656,-0.448974609375,-0.128662109375,-0.129150390625,1.4687999999999999
0.2900763358778626,1.3282442748091603,-1.4809160305343512,-0.4541015625,-0.13330078125,-0.115234375,1.4705
0.10687022900763359,1.5114503816793894,-1.4809160305343512,-0.45458984375,-0.12890625,-0.123779296875,1.4722
0.0916030534351145,1.6030534351145038,-1.5419847328244274,-0.447509765625,-0.126708984375,-0.12109375,1.4739
0.33587786259541985,1.6488549618320612,-1.4198473282442747,-0.450927734375,-0.131103515625,-0.12744140625,1.4756
0.5038167938931297,1.8625954198473282,-1.3740458015267176,-0.451904296875,-0.132080078125,-0.12255859375,1.4772999999999998
0.13740458015267176,1.8015267175572518,-1.6946564885496183,-0.451416015625,-0.128173828125,-0.123779296875,1.4789999999999999
0.1984732824427481,1.7251908396946565,-1.4809160305343512,-0.44970703125,-0.13427734375,-0.12890625,1.4807
0.3511450381679389,1.8625954198473282,-1.6030534351145038,-0.449951171875,-0.133056640625,-0.11767578125,1.4824
0.366412213740458,1.7557251908396947,-1.6488549618320612,-0.453369140625,-0.1337890625,-0.118408203125,1.4841
0.3816793893129771,1.816793893129771,-1.7251908396946565,-0.45263671875,-0.1376953125,-0.12890625,1.4858
0.6564885496183206,1.7557251908396947,-1.816793893129771,-0.451904296875,-0.139404296875,-0.1259765625,1.4874999999999998
0.9618320610687023,1.816793893129771,-1.8931297709923665,-0.453125,-0.139892578125,-0.1318359375,1.4891999999999999
1.4198473282442747,1.8931297709923665,-1.8625954198473282,-0.4501953125,-0.14697265625,-0.119140625,1.4909
1.7557251908396947,1.7251908396946565,-2.1526717557251906,-0.453125,-0.1396484375,-0.13525390625,1.4926
1.7709923664122138,1.8931297709923665,-2.198473282442748,-0.454345703125,-0.135986328125,-0.124755859375,1.4943
1.5572519083969465,2.030534351145038,-2.4427480916030535,-0.44873046875,-0.139892578125,-0.125732421875,1.496
1.8625954198473282,2.1526717557251906,-2.5343511450381677,-0.44677734375,-0.141357421875,-0.12646484375,1.4976999999999998
2.16793893129771,2.213740458015267,-2.6259541984732824,-0.447265625,-0.135986328125,-0.130615234375,1.4993999999999998
2.0916030534351147,2.4427480916030535,-2.549618320610687,-0.446044921875,-0.13916015625,-0.11865234375,1.5010999999999999
2.2748091603053435,2.564885496183206,-2.885496183206107,-0.44677734375,-0.146728515625,-0.119384765625,1.5028
2.6717557251908395,2.549618320610687,-3.0229007633587788,-0.44873046875,-0.14306640625,-0.125732421875,1.5045
2.3969465648854964,2.4580152671755724,-3.1908396946564888,-0.443115234375,-0.14208984375,-0.126953125,1.5062
2.4580152671755724,2.381679389312977,-3.2213740458015265,-0.4482421875,-0.143310546875,-0.121826171875,1.5079
2.549618320610687,2.351145038167939,-3.3587786259541983,-0.445068359375,-0.142333984375,-0.1044921875,1.5095999999999998
2.2595419847328246,2.2748091603053435,-3.312977099236641,-0.444580078125,-0.14208984375,-0.11474609375,1.5112999999999999
2.366412213740458,2.2900763358778624,-3.435114503816794,-0.4453125,-0.138427734375,-0.125,1.513
2.427480916030534,2.2290076335877864,-3.66412213740458,-0.444580078125,-0.14111328125,-0.12060546875,1.5147
1.9236641221374047,2.198473282442748,-3.7404580152671754,-0.4453125,-0.140380859375,-0.122314453125,1.5164
1.8625954198473282,2.015267175572519,-3.5877862595419847,-0.44970703125,-0.139892578125,-0.130859375,1.5181
1.8778625954198473,1.786259541984733,-3.572519083969466,-0.447509765625,-0.14111328125,-0.13330078125,1.5197999999999998
1.9236641221374047,1.8015267175572518,-3.7099236641221376,-0.447509765625,-0.140625,-0.127685546875,1.5214999999999999
1.9083969465648856,1.786259541984733,-3.801526717557252,-0.4443359375,-0.137939453125,-0.12451171875,1.5231999999999999
2.015267175572519,1.9236641221374047,-3.801526717557252,-0.449951171875,-0.13671875,-0.120361328125,1.5249
2.2290076335877864,1.83206106870229,-3.7557251908396947,-0.44677734375,-0.13232421875,-0.122314453125,1.5266
2.16793893129771,1.9236641221374047,-3.648854961832061,-0.44580078125,-0.13916015625,-0.121337890625,1.5283
1.8931297709923665,1.9236641221374047,-3.5877862595419847,-0.44482421875,-0.135498046875,-0.1181640625,1.5299999999999998
1.9236641221374047,2.1068702290076335,-3.5267175572519083,-0.44775390625,-0.13818359375,-0.12451171875,1.5316999999999998
1.5114503816793894,2.213740458015267,-3.618320610687023,-0.448486328125,-0.14208984375,-0.12451171875,1.5333999999999999
1.5877862595419847,2.16793893129771,-3.435114503816794,-0.447998046875,-0.138916015625,-0.1240234375,1.5351
1.3129770992366412,2.198473282442748,-3.267175572519084,-0.44970703125,-0.140625,-0.124267578125,1.5368
1.2061068702290076,2.2290076335877864,-3.1755725190839694,-0.4501953125,-0.13623046875,-0.123046875,1.5385
1.2213740458015268,2.0916030534351147,-3.1755725190839694,-0.4482421875,-0.135498046875,-0.12646484375,1.5402
1.0534351145038168,2.0763358778625953,-3.0839694656488548,-0.449462890625,-0.141845703125,-0.128173828125,1.5418999999999998
0.8396946564885496,1.8625954198473282,-3.0839694656488548,-0.444580078125,-0.137939453125,-0.118896484375,1.5435999999999999
0.7633587786259542,1.816793893129771,-3.0076335877862594,-0.450439453125,-0.1376953125,-0.1240234375,1.5453
0.6717557251908397,1.7709923664122138,-2.8702290076335877,-0.446044921875,-0.13525390625,-0.115478515625,1.547
0.5648854961832062,1.6488549618320612,-3.053435114503817,-0.450927734375,-0.138671875,-0.11962890625,1.5487
0.5648854961832062,1.83206106870229,-2.549618320610687,-0.45166015625,-0.142822265625,-0.1220703125,1.5504
0.44274809160305345,1.7099236641221374,-2.7786259541984735,-0.45166015625,-0.14306640625,-0.121337890625,1.5520999999999998
0.16793893129770993,1.618320610687023,-2.7938931297709924,-0.448486328125,-0.139892578125,-0.1142578125,1.5537999999999998
0.183206106870229,1.4198473282442747,-2.732824427480916,-0.4462890625,-0.1416015625,-0.12646484375,1.5554999999999999
-0.015267175572519083,1.5572519083969465,-2.50381679389313,-0.449462890625,-0.14794921875,-0.121826171875,1.5572
0.061068702290076333,1.5877862595419847,-2.4732824427480917,-0.4541015625,-0.14599609375,-0.11962890625,1.5589
-0.0916030534351145,1.6641221374045803,-2.4580152671755724,-0.450439453125,-0.13916015625,-0.1181640625,1.5606
-0.16793893129770993,1.6641221374045803,-2.427480916030534,-0.452392578125,-0.140869140625,-0.1181640625,1.5623
-0.13740458015267176,1.4961832061068703,-2.3206106870229006,-0.457275390625,-0.141357421875,-0.11376953125,1.5639999999999998
-0.42748091603053434,1.786259541984733,-2.1526717557251906,-0.454833984375,-0.1337890625,-0.120361328125,1.5656999999999999
-0.5648854961832062,1.7099236641221374,-2.030534351145038,-0.4560546875,-0.13671875,-0.122802734375,1.5674
-0.6412213740458015,1.6793893129770991,-2.045801526717557,-0.449462890625,-0.137939453125,-0.121826171875,1.5691
-0.8396946564885496,1.633587786259542,-1.7709923664122138,-0.45068359375,-0.13671875,-0.116455078125,1.5708
-1.0687022900763359,1.6030534351145038,-1.8015267175572518,-0.44873046875,-0.13818359375,-0.123291015625,1.5725
-0.8854961832061069,1.5572519083969465,-1.618320610687023,-0.44873046875,-0.138427734375,-0.1259765625,1.5741999999999998
-0.9312977099236641,1.5725190839694656,-1.8015267175572518,-0.45068359375,-0.1396484375,-0.123291015625,1.5758999999999999
-0.7633587786259542,1.5725190839694656,-1.4809160305343512,-0.45361328125,-0.1376953125,-0.11962890625,1.5776
-0.9923664122137404,1.5572519083969465,-1.633587786259542,-0.4462890625,-0.13623046875,-0.119873046875,1.5793
-0.8854961832061069,1.3587786259541985,-1.3587786259541985,-0.447021484375,-0.14111328125,-0.120361328125,1.581
-1.1603053435114503,1.2213740458015268,-1.6793893129770991,-0.45068359375,-0.137939453125,-0.116455078125,1.5827
-1.0687022900763359,1.251908396946565,-1.4961832061068703,-0.44677734375,-0.14306640625,-0.1240234375,1.5843999999999998
-0.9312977099236641,1.1145038167938932,-1.4351145038167938,-0.449951171875,-0.14599609375,-0.120849609375,1.5860999999999998
-1.0229007633587786,1.0534351145038168,-1.4809160305343512,-0.4462890625,-0.140625,-0.12548828125,1.5877999999999999
-0.7786259541984732,1.1603053435114503,-1.4198473282442747,-0.443603515625,-0.144775390625,-0.115478515625,1.5895
-0.4732824427480916,1.1603053435114503,-1.5114503816793894,-0.444091796875,-0.148681640625,-0.125244140625,1.5912
-0.16793893129770993,1.3587786259541985,-1.4809160305343512,-0.44482421875,-0.150390625,-0.12841796875,1.5929
0.3969465648854962,1.6030534351145038,-1.6641221374045803,-0.447265625,-0.147705078125,-0.12646484375,1.5946
0.4580152671755725,1.83206106870229,-1.8931297709923665,-0.44384765625,-0.15087890625,-0.1298828125,1.5962999999999998
0.2748091603053435,2.0,-1.9541984732824427,-0.443115234375,-0.14697265625,-0.120361328125,1.5979999999999999
0.366412213740458,2.1374045801526718,-1.9694656488549618,-0.442138671875,-0.14404296875,-0.128662109375,1.5997
0.33587786259541985,2.2748091603053435,-2.2442748091603053,-0.44482421875,-0.146484375,-0.130615234375,1.6014
0.3969465648854962,2.2290076335877864,-2.564885496183206,-0.444091796875,-0.145751953125,-0.121337890625,1.6031
0.3053435114503817,2.2290076335877864,-2.351145038167939,-0.447509765625,-0.14697265625,-0.115966796875,1.6048
0.3053435114503817,2.2290076335877864,-2.595419847328244,-0.441650390625,-0.1416015625,-0.117431640625,1.6064999999999998
0.3053435114503817,2.030534351145038,-2.854961832061069,-0.442626953125,-0.14111328125,-0.118896484375,1.6081999999999999
0.5038167938931297,1.9083969465648856,-2.885496183206107,-0.439697265625,-0.1474609375,-0.1201171875,1.6098999999999999
0.4732824427480916,1.9083969465648856,-2.885496183206107,-0.440185546875,-0.145263671875,-0.118408203125,1.6116
0.44274809160305345,1.83206106870229,-3.4656488549618323,-0.44677734375,-0.14501953125,-0.125732421875,1.6133
0.4122137404580153,1.786259541984733,-3.3587786259541983,-0.44775390625,-0.14697265625,-0.12548828125,1.615
0.5343511450381679,1.7251908396946565,-3.435114503816794,-0.436279296875,-0.1455078125,-0.12060546875,1.6166999999999998
0.4122137404580153,1.7404580152671756,-3.480916030534351,-0.440673828125,-0.138427734375,-0.118896484375,1.6183999999999998
0.6412213740458015,1.6946564885496183,-3.6793893129770994,-0.445068359375,-0.13720703125,-0.123291015625,1.6200999999999999
0.8244274809160306,1.6793893129770991,-3.633587786259542,-0.447998046875,-0.135009765625,-0.127197265625,1.6218
0.6259541984732825,1.618320610687023,-3.9083969465648853,-0.444091796875,-0.13671875,-0.12744140625,1.6235
0.6259541984732825,1.4961832061068703,-3.7557251908396947,-0.446044921875,-0.135986328125,-0.12744140625,1.6252
0.6412213740458015,1.4809160305343512,-3.801526717557252,-0.4521484375,-0.13671875,-0.123046875,1.6269
0.5801526717557252,1.4045801526717556,-3.816793893129771,-0.451904296875,-0.13720703125,-0.127197265625,1.6285999999999998
0.5954198473282443,1.297709923664122,-3.7557251908396947,-0.447265625,-0.13525390625,-0.12451171875,1.6302999999999999
0.732824427480916,1.0229007633587786,-3.7099236641221376,-0.44921875,-0.13818359375,-0.123779296875,1.632
0.6106870229007634,1.2213740458015268,-3.877862595419847,-0.450439453125,-0.1376953125,-0.12451171875,1.6337
0.5190839694656488,1.251908396946565,-3.5419847328244276,-0.450439453125,-0.1416015625,-0.130615234375,1.6354
0.4732824427480916,1.0381679389312977,-3.7251908396946565,-0.449462890625,-0.13671875,-0.126953125,1.6371
0.366412213740458,1.1145038167938932,-3.5267175572519083,-0.44873046875,-0.1396484375,-0.13134765625,1.6387999999999998
0.22900763358778625,1.2366412213740459,-3.404580152671756,-0.450927734375,-0.135986328125,-0.12939453125,1.6404999999999998
-0.030534351145038167,1.251908396946565,-3.068702290076336,-0.447509765625,-0.140380859375,-0.12158203125,1.6421999999999999
-0.1984732824427481,1.3435114503816794,-3.282442748091603,-0.4462890625,-0.143310546875,-0.123291015625,1.6439
-0.22900763358778625,1.1603053435114503,-3.2977099236641223,-0.449462890625,-0.140625,-0.121826171875,1.6456
-0.33587786259541985,1.282442748091603,-2.900763358778626,-0.448486328125,-0.140869140625,-0.118408203125,1.6473
-0.3816793893129771,1.282442748091603,-2.931297709923664,-0.447021484375,-0.13427734375,-0.1171875,1.6489999999999998
-0.2900763358778626,1.297709923664122,-3.0229007633587788,-0.44677734375,-0.139404296875,-0.118896484375,1.6506999999999998
-0.44274809160305345,1.1297709923664123,-2.885496183206107,-0.451416015625,-0.13916015625,-0.121826171875,1.6523999999999999
-0.2748091603053435,1.1755725190839694,-2.6564885496183206,-0.446533203125,-0.13720703125,-0.128173828125,1.6541
-0.22900763358778625,1.1755725190839694,-2.6106870229007635,-0.45166015625,-0.135498046875,-0.117919921875,1.6558
-0.4580152671755725,1.251908396946565,-2.5801526717557253,-0.452880859375,-0.138916015625,-0.119384765625,1.6575
-0.48854961832061067,1.0534351145038168,-2.3969465648854964,-0.4501953125,-0.135009765625,-0.126953125,1.6592
-0.5343511450381679,0.8854961832061069,-2.3969465648854964,-0.442626953125,-0.134765625,-0.121826171875,1.6608999999999998
-0.4122137404580153,1.0076335877862594,-2.16793893129771,-0.448486328125,-0.135498046875,-0.123779296875,1.6625999999999999
-0.22900763358778625,1.099236641221374,-2.198473282442748,-0.44921875,-0.136962890625,-0.126708984375,1.6643
0.04580152671755725,0.7786259541984732,-2.0610687022900764,-0.44677734375,-0.139404296875,-0.11376953125,1.666
0.32061068702290074,0.7786259541984732,-2.122137404580153,-0.445556640625,-0.135009765625,-0.117431640625,1.6677
0.183206106870229,0.549618320610687,-1.8625954198473282,-0.445556640625,-0.1396484375,-0.1142578125,1.6694
0.22900763358778625,0.5648854961832062,-1.9083969465648856,-0.44384765625,-0.139892578125,-0.119384765625,1.6710999999999998
0.3053435114503817,0.6259541984732825,-1.8778625954198473,-0.439453125,-0.139892578125,-0.1201171875,1.6727999999999998
0.5038167938931297,0.5038167938931297,-1.9694656488549618,-0.444580078125,-0.135986328125,-0.126708984375,1.6744999999999999
0.42748091603053434,0.6259541984732825,-1.7557251908396947,-0.44677734375,-0.1416015625,-0.123779296875,1.6762
0.6106870229007634,0.5343511450381679,-1.7709923664122138,-0.445556640625,-0.144775390625,-0.116455078125,1.6779
0.6717557251908397,0.6412213740458015,-1.8625954198473282,-0.44677734375,-0.138427734375,-0.131103515625,1.6796
0.6717557251908397,0.7786259541984732,-1.7404580152671756,-0.44384765625,-0.142822265625,-0.126953125,1.6813
0.8091603053435115,1.0381679389312977,-1.5267175572519085,-0.43896484375,-0.141845703125,-0.1201171875,1.6829999999999998
0.549618320610687,0.916030534351145,-1.633587786259542,-0.43994140625,-0.138671875,-0.123779296875,1.6846999999999999
0.2900763358778626,0.8702290076335878,-1.5725190839694656,-0.447998046875,-0.13623046875,-0.125244140625,1.6864
0.21374045801526717,1.0381679389312977,-1.5114503816793894,-0.447509765625,-0.14208984375,-0.124755859375,1.6881
0.21374045801526717,1.1297709923664123,-1.6946564885496183,-0.446044921875,-0.14306640625,-0.129638671875,1.6898
0.33587786259541985,1.0076335877862594,-1.4809160305343512,-0.4482421875,-0.14208984375,-0.130126953125,1.6915
0.4732824427480916,1.2061068702290076,-1.7251908396946565,-0.446044921875,-0.1484375,-0.12890625,1.6931999999999998
0.7938931297709924,1.3893129770992367,-1.7099236641221374,-0.44384765625,-0.14501953125,-0.121826171875,1.6948999999999999
1.1145038167938932,1.4351145038167938,-2.030534351145038,-0.440673828125,-0.142822265625,-0.12060546875,1.6965999999999999
1.1450381679389312,1.4809160305343512,-1.984732824427481,-0.4404296875,-0.145263671875,-0.12255859375,1.6983
1.2213740458015268,1.450381679389313,-2.1068702290076335,-0.443603515625,-0.1484375,-0.122314453125,1.7
1.2366412213740459,1.282442748091603,-2.1068702290076335,-0.446044921875,-0.147705078125,-0.119873046875,1.7017
1.1297709923664123,1.0687022900763359,-2.381679389312977,-0.448486328125,-0.14501953125,-0.125244140625,1.7033999999999998
1.099236641221374,1.0687022900763359,-2.381679389312977,-0.44580078125,-0.148193359375,-0.124267578125,1.7050999999999998
0.7480916030534351,1.0229007633587786,-2.366412213740458,-0.448974609375,-0.146240234375,-0.127197265625,1.7067999999999999
0.44274809160305345,1.083969465648855,-2.50381679389313,-0.442626953125,-0.1494140625,-0.126708984375,1.7085
0.22900763358778625,0.9465648854961832,-2.5801526717557253,-0.445068359375,-0.1455078125,-0.126708984375,1.7102
-0.061068702290076333,0.8244274809160306,-2.6717557251908395,-0.447998046875,-0.150146484375,-0.125244140625,1.7119
-0.3053435114503817,0.8854961832061069,-2.687022900763359,-0.449951171875,-0.145751953125,-0.125244140625,1.7136
-0.4732824427480916,0.8702290076335878,-2.4732824427480917,-0.445556640625,-0.144775390625,-0.1240234375,1.7152999999999998
-0.6564885496183206,0.8854961832061069,-2.4885496183206106,-0.452880859375,-0.1435546875,-0.1240234375,1.7169999999999999
-0.4580152671755725,1.083969465648855,-2.6106870229007635,-0.45068359375,-0.146240234375,-0.13134765625,1.7187
-0.7175572519083969,1.083969465648855,-2.6106870229007635,-0.4462890625,-0.1435546875,-0.1259765625,1.7204
-0.7633587786259542,1.1603053435114503,-2.4122137404580153,-0.448486328125,-0.146728515625,-0.13134765625,1.7221
-0.6564885496183206,1.1450381679389312,-2.50381679389313,-0.445068359375,-0.14501953125,-0.12158203125,1.7238
-0.8549618320610687,1.0229007633587786,-2.4732824427480917,-0.447509765625,-0.14794921875,-0.114013671875,1.7254999999999998
-0.8091603053435115,1.2366412213740459,-2.5343511450381677,-0.452392578125,-0.138916015625,-0.128662109375,1.7271999999999998
-0.8702290076335878,0.9770992366412213,-2.6106870229007635,-0.453857421875,-0.142333984375,-0.130615234375,1.7288999999999999
-1.083969465648855,0.9465648854961832,-2.6412213740458017,-0.453369140625,-0.14013671875,-0.125244140625,1.7306
-1.297709923664122,0.8854961832061069,-2.4885496183206106,-0.451416015625,-0.140869140625,-0.116943359375,1.7323
-1.465648854961832,0.7480916030534351,-2.4580152671755724,-0.44970703125,-0.13671875,-0.1259765625,1.734
-1.5572519083969465,0.6259541984732825,-2.4885496183206106,-0.450927734375,-0.1376953125,-0.124267578125,1.7356999999999998
-1.7251908396946565,0.6412213740458015,-2.6412213740458017,-0.452880859375,-0.144287109375,-0.128662109375,1.7373999999999998
-1.6488549618320612,0.6564885496183206,-2.381679389312977,-0.448486328125,-0.1435546875,-0.1259765625,1.7390999999999999
-1.7251908396946565,0.5343511450381679,-2.595419847328244,-0.453369140625,-0.140625,-0.119140625,1.7408
-1.7099236641221374,0.6106870229007634,-2.213740458015267,-0.4501953125,-0.1435546875,-0.122802734375,1.7425
-1.8015267175572518,0.8396946564885496,-2.4580152671755724,-0.450927734375,-0.142578125,-0.123046875,1.7442
-1.618320610687023,0.916030534351145,-2.1374045801526718,-0.448486328125,-0.14208984375,-0.126220703125,1.7459
-1.5877862595419847,1.0381679389312977,-2.198473282442748,-0.452392578125,-0.140869140625,-0.126220703125,1.7475999999999998
-1.3587786259541985,1.282442748091603,-2.198473282442748,-0.456787109375,-0.142578125,-0.12548828125,1.7492999999999999
-0.8702290076335878,1.3435114503816794,-2.3206106870229006,-0.45849609375,-0.14306640625,-0.125732421875,1.751
-0.6106870229007634,1.4198473282442747,-2.030534351145038,-0.457763671875,-0.13818359375,-0.131591796875,1.7527
-0.4732824427480916,1.4809160305343512,-2.045801526717557,-0.448486328125,-0.13623046875,-0.112548828125,1.7544
-0.10687022900763359,1.450381679389313,-1.8625954198473282,-0.451416015625,-0.133544921875,-0.11962890625,1.7561
0.16793893129770993,1.4809160305343512,-2.1068702290076335,-0.45068359375,-0.13330078125,-0.124267578125,1.7577999999999998
0.15267175572519084,1.297709923664122,-2.0,-0.454345703125,-0.136474609375,-0.123046875,1.7594999999999998
0.15267175572519084,1.1908396946564885,-1.9694656488549618,-0.45458984375,-0.1376953125,-0.1279296875,1.7611999999999999
0.4732824427480916,1.2061068702290076,-1.786259541984733,-0.447265625,-0.138671875,-0.12939453125,1.7629
0.21374045801526717,1.0381679389312977,-1.9083969465648856,-0.45361328125,-0.14111328125,-0.120361328125,1.7646
0.366412213740458,1.083969465648855,-1.7404580152671756,-0.450439453125,-0.138916015625,-0.1142578125,1.7663
0.5801526717557252,0.9007633587786259,-1.7709923664122138,-0.447265625,-0.13916015625,-0.117919921875,1.7679999999999998
0.6106870229007634,0.8396946564885496,-1.786259541984733,-0.45166015625,-0.138671875,-0.121337890625,1.7696999999999998
0.6717557251908397,1.0229007633587786,-1.7251908396946565,-0.445068359375,-0.1376953125,-0.1318359375,1.7713999999999999
1.2061068702290076,1.099236641221374,-1.6488549618320612,-0.4453125,-0.14208984375,-0.127685546875,1.7731
1.0076335877862594,1.1603053435114503,-1.8473282442748091,-0.447998046875,-0.138671875,-0.119873046875,1.7748
1.083969465648855,1.3587786259541985,-1.8015267175572518,-0.44921875,-0.1494140625,-0.122802734375,1.7765
1.3587786259541985,1.282442748091603,-1.8015267175572518,-0.443603515625,-0.148681640625,-0.12548828125,1.7782
1.6946564885496183,1.3740458015267176,-1.6946564885496183,-0.446044921875,-0.144287109375,-0.123291015625,1.7798999999999998
1.984732824427481,1.5725190839694656,-2.0610687022900764,-0.44580078125,-0.142822265625,-0.11669921875,1.7815999999999999
