gyrox1,gyroy1,gyroz1,accelx1,accely1,accelz1,Time
2.1526717557251906,1.5114503816793894,-2.045801526717557,-0.452880859375,0.00244140625,-0.21533203125,0.0
2.122137404580153,1.465648854961832,-1.8625954198473282,-0.45263671875,0.0048828125,-0.2197265625,0.0017
2.1374045801526718,1.4809160305343512,-1.7709923664122138,-0.456298828125,0.004638671875,-0.223388671875,0.0034
1.984732824427481,1.618320610687023,-1.8473282442748091,-0.462158203125,-0.00341796875,-0.213134765625,0.0050999999999999995
2.2748091603053435,1.3129770992366412,-1.8625954198473282,-0.458740234375,-0.000732421875,-0.21923828125,0.0068
2.122137404580153,1.4198473282442747,-2.0763358778625953,-0.458740234375,0.0029296875,-0.215576171875,0.008499999999999999
1.984732824427481,1.633587786259542,-1.9389312977099236,-0.4541015625,0.004638671875,-0.20654296875,0.010199999999999999
2.198473282442748,1.5572519083969465,-1.984732824427481,-0.45654296875,0.001220703125,-0.213623046875,0.011899999999999999
2.045801526717557,1.5572519083969465,-1.786259541984733,-0.45703125,-0.002685546875,-0.21875,0.0136
2.1526717557251906,1.6030534351145038,-2.0916030534351147,-0.45556640625,0.005615234375,-0.215576171875,0.0153
1.8931297709923665,1.6641221374045803,-1.9083969465648856,-0.458251953125,0.002197265625,-0.224365234375,0.016999999999999998
1.9694656488549618,1.5877862595419847,-1.9389312977099236,-0.45703125,-0.00146484375,-0.20849609375,0.018699999999999998
1.9694656488549618,1.6488549618320612,-1.9083969465648856,-0.4541015625,0.001708984375,-0.22412109375,0.020399999999999998
1.9389312977099236,1.816793893129771,-2.1374045801526718,-0.456787109375,-0.003173828125,-0.218017578125,0.022099999999999998
1.984732824427481,1.8473282442748091,-1.8931297709923665,-0.454345703125,0.000244140625,-0.21923828125,0.023799999999999998
1.6946564885496183,1.6641221374045803,-1.8931297709923665,-0.454833984375,0.0,-0.217529296875,0.0255
1.8931297709923665,1.6488549618320612,-1.9694656488549618,-0.454345703125,-0.001953125,-0.218505859375,0.0272
1.9694656488549618,1.7251908396946565,-2.122137404580153,-0.452880859375,0.000732421875,-0.218994140625,0.0289
1.8473282442748091,1.7557251908396947,-1.8931297709923665,-0.45654296875,0.002197265625,-0.2236328125,0.0306
1.8015267175572518,1.6793893129770991,-2.0,-0.458251953125,-0.001220703125,-0.214599609375,0.032299999999999995
1.8625954198473282,1.6641221374045803,-2.015267175572519,-0.456787109375,0.00390625,-0.214599609375,0.033999999999999996
1.984732824427481,1.6641221374045803,-1.9694656488549618,-0.458740234375,0.000244140625,-0.21484375,0.035699999999999996
1.5267175572519085,1.7557251908396947,-1.9236641221374047,-0.460205078125,-0.00341796875,-0.21435546875,0.037399999999999996
1.6793893129770991,1.6793893129770991,-2.015267175572519,-0.45703125,-0.004638671875,-0.20947265625,0.039099999999999996
1.8625954198473282,1.4961832061068703,-2.030534351145038,-0.455078125,0.00146484375,-0.21484375,0.040799999999999996
1.8625954198473282,1.7404580152671756,-2.0,-0.46044921875,0.001953125,-0.214111328125,0.042499999999999996
1.4809160305343512,1.786259541984733,-2.030534351145038,-0.458984375,0.00244140625,-0.21728515625,0.044199999999999996
1.6641221374045803,1.816793893129771,-1.9389312977099236,-0.460205078125,-0.0009765625,-0.218994140625,0.045899999999999996
1.618320610687023,1.618320610687023,-1.8931297709923665,-0.45458984375,0.003173828125,-0.214599609375,0.047599999999999996
1.6030534351145038,1.5419847328244274,-2.1068702290076335,-0.457275390625,-0.000732421875,-0.21533203125,0.0493
1.5572519083969465,1.6793893129770991,-1.9083969465648856,-0.460205078125,0.00146484375,-0.224365234375,0.051
1.6030534351145038,1.83206106870229,-2.1068702290076335,-0.459228515625,-0.004150390625,-0.21337890625,0.0527
1.4809160305343512,1.5267175572519085,-2.198473282442748,-0.45361328125,-0.0029296875,-0.21630859375,0.0544
1.4351145038167938,1.633587786259542,-1.9083969465648856,-0.453125,-0.001708984375,-0.21728515625,0.0561
1.6030534351145038,1.6488549618320612,-1.9389312977099236,-0.457763671875,0.000732421875,-0.216552734375,0.0578
1.5114503816793894,1.5877862595419847,-1.9389312977099236,-0.45458984375,0.0,-0.215087890625,0.0595
1.5419847328244274,1.618320610687023,-1.9541984732824427,-0.460205078125,0.00390625,-0.21435546875,0.0612
1.297709923664122,1.8015267175572518,-2.0,-0.453857421875,0.005859375,-0.2216796875,0.0629
1.4198473282442747,1.633587786259542,-1.8778625954198473,-0.453857421875,-0.001220703125,-0.22216796875,0.06459999999999999
1.4961832061068703,1.5572519083969465,-1.786259541984733,-0.45703125,0.0009765625,-0.208984375,0.0663
1.4809160305343512,1.5419847328244274,-1.9236641221374047,-0.454345703125,-0.001708984375,-0.214599609375,0.06799999999999999
1.2213740458015268,1.6030534351145038,-1.9236641221374047,-0.45166015625,-0.0009765625,-0.2158203125,0.0697
1.2061068702290076,1.618320610687023,-1.8015267175572518,-0.4599609375,0.00439453125,-0.2158203125,0.07139999999999999
1.1908396946564885,1.7404580152671756,-1.9389312977099236,-0.459716796875,0.0029296875,-0.215087890625,0.0731
1.2366412213740459,1.4809160305343512,-1.83206106870229,-0.45263671875,0.000244140625,-0.21484375,0.07479999999999999
1.5114503816793894,1.3435114503816794,-1.816793893129771,-0.45751953125,0.002685546875,-0.216064453125,0.0765
1.3893129770992367,1.465648854961832,-1.8778625954198473,-0.453857421875,0.003173828125,-0.216796875,0.07819999999999999
1.2671755725190839,1.4961832061068703,-1.8473282442748091,-0.454345703125,-0.00048828125,-0.22119140625,0.0799
1.2366412213740459,1.465648854961832,-1.633587786259542,-0.455810546875,0.0087890625,-0.214111328125,0.08159999999999999
1.099236641221374,1.3587786259541985,-1.8015267175572518,-0.454833984375,0.00341796875,-0.21630859375,0.0833
1.3587786259541985,1.2366412213740459,-1.633587786259542,-0.45556640625,0.004638671875,-0.217529296875,0.08499999999999999
0.9465648854961832,1.5267175572519085,-1.6030534351145038,-0.4560546875,0.0009765625,-0.215576171875,0.0867
1.0229007633587786,1.2061068702290076,-1.6793893129770991,-0.4541015625,-0.00146484375,-0.207275390625,0.08839999999999999
1.3740458015267176,1.1450381679389312,-1.5572519083969465,-0.456787109375,0.005859375,-0.2099609375,0.0901
1.2366412213740459,1.3893129770992367,-1.5267175572519085,-0.454833984375,-0.001708984375,-0.220947265625,0.09179999999999999
1.1450381679389312,1.282442748091603,-1.4961832061068703,-0.458740234375,-0.00146484375,-0.2138671875,0.0935
1.2213740458015268,1.4198473282442747,-1.5572519083969465,-0.45654296875,-0.007080078125,-0.215087890625,0.09519999999999999
1.3129770992366412,1.1450381679389312,-1.6946564885496183,-0.457763671875,0.001708984375,-0.2216796875,0.0969
1.1297709923664123,1.3129770992366412,-1.3740458015267176,-0.4560546875,0.005615234375,-0.21630859375,0.0986
1.3282442748091603,1.3587786259541985,-1.6030534351145038,-0.4619140625,0.002685546875,-0.222412109375,0.1003
1.1755725190839694,1.3435114503816794,-1.7251908396946565,-0.4560546875,-0.004150390625,-0.215576171875,0.102
1.1297709923664123,1.251908396946565,-1.7251908396946565,-0.460205078125,0.00048828125,-0.222900390625,0.1037
1.4351145038167938,1.2366412213740459,-1.5267175572519085,-0.45703125,-0.001953125,-0.214599609375,0.1054
1.4045801526717556,1.2671755725190839,-1.6641221374045803,-0.45556640625,0.001220703125,-0.212158203125,0.1071
1.2213740458015268,1.1297709923664123,-1.5725190839694656,-0.453125,0.003173828125,-0.218017578125,0.1088
1.251908396946565,1.297709923664122,-1.5267175572519085,-0.457275390625,0.0,-0.221923828125,0.11049999999999999
1.4961832061068703,1.3129770992366412,-1.7099236641221374,-0.459716796875,0.000244140625,-0.217529296875,0.1122
1.282442748091603,0.9923664122137404,-1.4351145038167938,-0.45361328125,-0.003662109375,-0.212158203125,0.11389999999999999
1.3282442748091603,1.1603053435114503,-1.465648854961832,-0.4580078125,0.000732421875,-0.21484375,0.1156
1.450381679389313,1.2213740458015268,-1.4809160305343512,-0.461181640625,0.000732421875,-0.21630859375,0.11729999999999999
1.282442748091603,1.1297709923664123,-1.5114503816793894,-0.457275390625,0.002685546875,-0.2158203125,0.119
1.4809160305343512,0.9618320610687023,-1.5419847328244274,-0.453857421875,0.003173828125,-0.2197265625,0.12069999999999999
1.4045801526717556,1.2366412213740459,-1.5572519083969465,-0.458984375,0.003662109375,-0.22021484375,0.1224
1.251908396946565,1.4198473282442747,-1.450381679389313,-0.456787109375,0.00244140625,-0.216796875,0.12409999999999999
1.4351145038167938,1.4198473282442747,-1.4351145038167938,-0.459716796875,-0.0009765625,-0.222900390625,0.1258
1.282442748091603,1.3129770992366412,-1.3893129770992367,-0.454345703125,0.003662109375,-0.210693359375,0.1275
1.465648854961832,1.297709923664122,-1.4198473282442747,-0.456787109375,0.00537109375,-0.222900390625,0.12919999999999998
1.3435114503816794,1.3129770992366412,-1.450381679389313,-0.459716796875,-0.0009765625,-0.216796875,0.1309
1.3129770992366412,1.3282442748091603,-1.3435114503816794,-0.453857421875,-0.000244140625,-0.22021484375,0.1326
1.3129770992366412,1.297709923664122,-1.1450381679389312,-0.45556640625,0.00146484375,-0.211669921875,0.1343
1.465648854961832,1.3740458015267176,-1.3740458015267176,-0.449951171875,0.00048828125,-0.215576171875,0.13599999999999998
1.4045801526717556,1.3893129770992367,-1.282442748091603,-0.45703125,0.004150390625,-0.212646484375,0.1377
1.0687022900763359,1.3740458015267176,-1.2061068702290076,-0.453125,-0.002685546875,-0.21630859375,0.1394
1.2366412213740459,1.3587786259541985,-0.9618320610687023,-0.453857421875,-0.002197265625,-0.2138671875,0.1411
1.2366412213740459,1.1908396946564885,-1.2366412213740459,-0.455810546875,0.00048828125,-0.218017578125,0.14279999999999998
1.1755725190839694,1.3587786259541985,-0.9618320610687023,-0.453857421875,0.0009765625,-0.214599609375,0.1445
1.2671755725190839,1.5267175572519085,-1.1450381679389312,-0.4609375,-0.003173828125,-0.21630859375,0.1462
1.2213740458015268,1.450381679389313,-1.0534351145038168,-0.458984375,0.001953125,-0.215087890625,0.1479
1.1603053435114503,1.297709923664122,-1.0534351145038168,-0.456787109375,0.00341796875,-0.2158203125,0.14959999999999998
1.2213740458015268,1.2213740458015268,-1.0229007633587786,-0.45703125,0.005615234375,-0.21435546875,0.1513
0.9618320610687023,1.450381679389313,-1.0076335877862594,-0.461669921875,0.00244140625,-0.2158203125,0.153
1.2366412213740459,1.450381679389313,-0.8244274809160306,-0.4560546875,0.00244140625,-0.213623046875,0.1547
1.297709923664122,1.4351145038167938,-0.9923664122137404,-0.4599609375,0.003662109375,-0.213134765625,0.15639999999999998
0.9770992366412213,1.3435114503816794,-0.9618320610687023,-0.45166015625,0.0068359375,-0.2158203125,0.1581
1.0534351145038168,1.2061068702290076,-1.083969465648855,-0.457275390625,0.001220703125,-0.22265625,0.1598
1.1908396946564885,1.251908396946565,-0.916030534351145,-0.458984375,0.00244140625,-0.21484375,0.1615
1.1450381679389312,1.450381679389313,-1.1297709923664123,-0.4541015625,0.00537109375,-0.216064453125,0.16319999999999998
1.2366412213740459,1.1755725190839694,-1.2061068702290076,-0.454833984375,0.000732421875,-0.217041015625,0.1649
0.9770992366412213,1.3282442748091603,-1.3740458015267176,-0.45068359375,0.003173828125,-0.212158203125,0.1666
1.1297709923664123,1.251908396946565,-1.297709923664122,-0.457275390625,-0.000244140625,-0.221435546875,0.16829999999999998
0.8396946564885496,1.099236641221374,-1.4809160305343512,-0.452880859375,0.001953125,-0.219482421875,0.16999999999999998
0.9465648854961832,1.083969465648855,-1.6793893129770991,-0.453125,-0.000732421875,-0.2177734375,0.1717
1.282442748091603,0.9923664122137404,-1.5419847328244274,-0.4560546875,0.00732421875,-0.21875,0.1734
1.297709923664122,0.9923664122137404,-1.4961832061068703,-0.45263671875,0.00341796875,-0.218017578125,0.17509999999999998
1.1297709923664123,0.9312977099236641,-1.83206106870229,-0.459716796875,0.00048828125,-0.21240234375,0.17679999999999998
1.2061068702290076,0.9465648854961832,-1.816793893129771,-0.456298828125,0.007568359375,-0.2197265625,0.1785
1.2671755725190839,0.9923664122137404,-2.0763358778625953,-0.452880859375,0.003173828125,-0.214599609375,0.1802
1.282442748091603,1.1297709923664123,-1.8931297709923665,-0.45556640625,0.00830078125,-0.212646484375,0.18189999999999998
1.450381679389313,1.0229007633587786,-2.015267175572519,-0.46044921875,0.0029296875,-0.220703125,0.18359999999999999
1.2213740458015268,0.9923664122137404,-2.351145038167939,-0.45947265625,0.00390625,-0.221923828125,0.1853
1.4809160305343512,0.8702290076335878,-2.381679389312977,-0.455322265625,0.0009765625,-0.21435546875,0.187
1.4809160305343512,1.0076335877862594,-2.213740458015267,-0.448974609375,0.003173828125,-0.216552734375,0.18869999999999998
1.3129770992366412,0.9007633587786259,-2.2442748091603053,-0.451416015625,0.001708984375,-0.21875,0.19039999999999999
1.618320610687023,1.0229007633587786,-2.33587786259542,-0.45654296875,0.001220703125,-0.213623046875,0.1921
1.4961832061068703,1.0687022900763359,-2.33587786259542,-0.45849609375,0.0078125,-0.22216796875,0.1938
1.5572519083969465,1.1755725190839694,-2.0763358778625953,-0.4580078125,0.005126953125,-0.22265625,0.19549999999999998
1.5877862595419847,1.099236641221374,-2.3053435114503817,-0.45458984375,0.0029296875,-0.207763671875,0.1972
1.5114503816793894,0.9770992366412213,-2.50381679389313,-0.450439453125,0.003173828125,-0.20703125,0.1989
1.4351145038167938,1.297709923664122,-2.4122137404580153,-0.450927734375,0.00390625,-0.223876953125,0.2006
1.5725190839694656,1.1297709923664123,-2.381679389312977,-0.45703125,0.00244140625,-0.225341796875,0.20229999999999998
1.4351145038167938,1.083969465648855,-2.213740458015267,-0.455810546875,-0.0009765625,-0.208251953125,0.204
1.618320610687023,1.1450381679389312,-2.1526717557251906,-0.44921875,0.00634765625,-0.216796875,0.2057
1.6030534351145038,1.1297709923664123,-2.2442748091603053,-0.451416015625,0.0048828125,-0.21044921875,0.2074
1.6488549618320612,1.2671755725190839,-2.1526717557251906,-0.449462890625,0.002197265625,-0.212890625,0.20909999999999998
1.5267175572519085,1.2366412213740459,-2.1068702290076335,-0.45751953125,0.0009765625,-0.2236328125,0.2108
1.6641221374045803,1.0229007633587786,-1.9694656488549618,-0.458984375,0.000732421875,-0.21826171875,0.2125
1.6488549618320612,0.9923664122137404,-2.1068702290076335,-0.4560546875,0.00048828125,-0.215576171875,0.2142
1.5419847328244274,1.0381679389312977,-2.045801526717557,-0.45263671875,-0.001953125,-0.22119140625,0.21589999999999998
1.5419847328244274,0.8091603053435115,-1.9236641221374047,-0.451904296875,-0.003662109375,-0.20947265625,0.2176
1.7557251908396947,1.0076335877862594,-1.8778625954198473,-0.453857421875,-0.00537109375,-0.218505859375,0.2193
1.4809160305343512,0.9618320610687023,-1.9083969465648856,-0.452392578125,-0.001708984375,-0.2197265625,0.22099999999999997
1.6641221374045803,0.8549618320610687,-1.5419847328244274,-0.455322265625,-0.0029296875,-0.221923828125,0.22269999999999998
1.7404580152671756,0.8091603053435115,-1.7709923664122138,-0.453125,-0.0009765625,-0.220947265625,0.2244
1.7099236641221374,0.8549618320610687,-1.83206106870229,-0.454345703125,0.001708984375,-0.2119140625,0.2261
1.6946564885496183,0.732824427480916,-1.5267175572519085,-0.45263671875,0.00244140625,-0.218017578125,0.22779999999999997
1.633587786259542,0.6412213740458015,-1.5419847328244274,-0.455078125,0.000732421875,-0.222900390625,0.22949999999999998
1.633587786259542,0.732824427480916,-1.5725190839694656,-0.454345703125,-0.00048828125,-0.20849609375,0.2312
1.786259541984733,0.7633587786259542,-1.3587786259541985,-0.45556640625,-0.000732421875,-0.206787109375,0.2329
1.633587786259542,0.5343511450381679,-1.3129770992366412,-0.45263671875,-0.002685546875,-0.21923828125,0.23459999999999998
1.8625954198473282,0.7633587786259542,-1.3435114503816794,-0.459716796875,-0.001220703125,-0.219482421875,0.23629999999999998
1.6793893129770991,0.6412213740458015,-1.3282442748091603,-0.45849609375,0.002685546875,-0.212890625,0.238
1.9389312977099236,0.48854961832061067,-0.9923664122137404,-0.46142578125,0.002197265625,-0.2177734375,0.2397
1.7709923664122138,0.5954198473282443,-1.1603053435114503,-0.458251953125,0.00634765625,-0.224853515625,0.24139999999999998
1.5267175572519085,0.33587786259541985,-0.9465648854961832,-0.455078125,0.0,-0.217529296875,0.24309999999999998
1.7099236641221374,0.5190839694656488,-1.083969465648855,-0.458740234375,0.003662109375,-0.211669921875,0.2448
1.816793893129771,0.48854961832061067,-0.9007633587786259,-0.45849609375,0.002685546875,-0.213623046875,0.2465
2.045801526717557,0.4122137404580153,-0.8854961832061069,-0.454833984375,0.001953125,-0.213623046875,0.24819999999999998
1.83206106870229,0.42748091603053434,-0.8244274809160306,-0.45654296875,-0.00146484375,-0.21337890625,0.24989999999999998
1.8778625954198473,0.22900763358778625,-0.9923664122137404,-0.45703125,0.003173828125,-0.217529296875,0.2516
1.8931297709923665,0.44274809160305345,-0.8396946564885496,-0.45703125,0.0,-0.2119140625,0.25329999999999997
1.7404580152671756,0.44274809160305345,-0.8091603053435115,-0.455810546875,-0.00439453125,-0.21728515625,0.255
1.6030534351145038,0.183206106870229,-0.732824427480916,-0.4541015625,-0.005615234375,-0.21875,0.2567
1.816793893129771,0.2748091603053435,-0.7938931297709924,-0.45703125,-0.00439453125,-0.22021484375,0.25839999999999996
1.8625954198473282,0.1984732824427481,-0.9007633587786259,-0.454833984375,0.0,-0.219482421875,0.2601
1.6641221374045803,0.3969465648854962,-0.6412213740458015,-0.456298828125,-0.001708984375,-0.210205078125,0.2618
1.9694656488549618,0.24427480916030533,-0.6717557251908397,-0.454345703125,-0.004638671875,-0.21337890625,0.2635
1.83206106870229,0.07633587786259542,-0.7480916030534351,-0.453369140625,0.003173828125,-0.221923828125,0.2652
1.7557251908396947,0.42748091603053434,-0.8091603053435115,-0.45703125,0.000244140625,-0.2275390625,0.26689999999999997
1.6946564885496183,0.4122137404580153,-0.6259541984732825,-0.46044921875,0.005615234375,-0.21484375,0.2686
1.8625954198473282,0.5801526717557252,-0.8244274809160306,-0.451416015625,-0.00732421875,-0.2109375,0.2703
1.8931297709923665,0.44274809160305345,-0.5343511450381679,-0.457763671875,0.000732421875,-0.218994140625,0.27199999999999996
1.786259541984733,0.5648854961832062,-0.732824427480916,-0.453857421875,0.004150390625,-0.21240234375,0.2737
1.6641221374045803,0.6106870229007634,-0.6717557251908397,-0.462646484375,-0.00244140625,-0.215087890625,0.2754
1.6488549618320612,0.6564885496183206,-0.6870229007633588,-0.452880859375,-0.001953125,-0.213134765625,0.27709999999999996
1.5419847328244274,0.8091603053435115,-0.7175572519083969,-0.455078125,0.0,-0.2255859375,0.2788
1.5572519083969465,0.5190839694656488,-0.5954198473282443,-0.451904296875,-0.001220703125,-0.224365234375,0.28049999999999997
1.6030534351145038,0.5343511450381679,-0.6412213740458015,-0.455322265625,-0.00048828125,-0.218017578125,0.2822
1.3587786259541985,0.6870229007633588,-0.6564885496183206,-0.4599609375,-0.00537109375,-0.212158203125,0.2839
1.1755725190839694,0.6717557251908397,-0.6106870229007634,-0.45654296875,-0.001953125,-0.220458984375,0.28559999999999997
1.4351145038167938,0.8091603053435115,-0.4122137404580153,-0.451904296875,-0.0029296875,-0.218017578125,0.2873
1.0534351145038168,0.7480916030534351,-0.4732824427480916,-0.455322265625,0.00244140625,-0.21533203125,0.289
1.099236641221374,0.8396946564885496,-0.7633587786259542,-0.45947265625,-0.003173828125,-0.219482421875,0.29069999999999996
1.1145038167938932,0.7175572519083969,-0.5648854961832062,-0.455078125,-0.00634765625,-0.2197265625,0.2924
1.282442748091603,1.0534351145038168,-0.4732824427480916,-0.461181640625,0.001953125,-0.214111328125,0.2941
1.0229007633587786,0.8091603053435115,-0.5038167938931297,-0.45947265625,0.00244140625,-0.218505859375,0.2958
0.9465648854961832,0.8702290076335878,-0.4122137404580153,-0.45947265625,-0.00390625,-0.224853515625,0.2975
1.099236641221374,0.9465648854961832,-0.4122137404580153,-0.45458984375,-0.00439453125,-0.218994140625,0.29919999999999997
0.7633587786259542,1.1145038167938932,-0.3969465648854962,-0.45654296875,0.0,-0.220703125,0.3009
0.4580152671755725,1.1145038167938932,-0.4580152671755725,-0.457763671875,0.002685546875,-0.206787109375,0.3026
0.4122137404580153,1.0381679389312977,-0.6412213740458015,-0.458251953125,-0.002685546875,-0.216064453125,0.30429999999999996
0.4122137404580153,1.1450381679389312,-0.366412213740458,-0.45556640625,0.001953125,-0.2177734375,0.306
0.33587786259541985,1.2061068702290076,-0.3969465648854962,-0.45751953125,-0.001953125,-0.2177734375,0.3077
0.24427480916030533,1.3129770992366412,-0.061068702290076333,-0.454345703125,-0.00927734375,-0.215576171875,0.3094
0.32061068702290074,1.297709923664122,-0.15267175572519084,-0.451171875,-0.0048828125,-0.22119140625,0.3111
0.33587786259541985,1.3587786259541985,-0.2595419847328244,-0.457275390625,-0.0048828125,-0.216796875,0.31279999999999997
0.015267175572519083,1.3587786259541985,-0.42748091603053434,-0.451416015625,-0.0068359375,-0.216796875,0.3145
-0.0916030534351145,1.2366412213740459,-0.24427480916030533,-0.456298828125,0.000244140625,-0.2265625,0.3162
-0.2748091603053435,1.3435114503816794,-0.3053435114503817,-0.45751953125,-0.002197265625,-0.218505859375,0.31789999999999996
-0.3053435114503817,1.4198473282442747,-0.12213740458015267,-0.455810546875,-0.002197265625,-0.219482421875,0.3196
-0.183206106870229,1.251908396946565,-0.2900763358778626,-0.457763671875,-0.000244140625,-0.216064453125,0.3213
-0.21374045801526717,1.251908396946565,-0.3511450381679389,-0.458740234375,0.001708984375,-0.21142578125,0.323
-0.4122137404580153,1.3587786259541985,-0.2900763358778626,-0.451904296875,0.00048828125,-0.21240234375,0.3247
-0.6106870229007634,1.3435114503816794,-0.2900763358778626,-0.453125,0.001220703125,-0.21240234375,0.32639999999999997
-0.5954198473282443,1.3282442748091603,-0.42748091603053434,-0.454345703125,-0.00146484375,-0.216064453125,0.3281
-0.6564885496183206,1.5267175572519085,-0.3053435114503817,-0.4521484375,0.000244140625,-0.21923828125,0.3298
-0.6870229007633588,1.297709923664122,-0.3969465648854962,-0.457275390625,-0.00390625,-0.214111328125,0.33149999999999996
-0.549618320610687,1.297709923664122,-0.33587786259541985,-0.4580078125,-0.001953125,-0.2109375,0.3332
-0.8244274809160306,1.3435114503816794,-0.5343511450381679,-0.4541015625,0.00244140625,-0.21435546875,0.3349
-0.8702290076335878,1.3282442748091603,-0.3511450381679389,-0.455810546875,-0.000732421875,-0.21484375,0.33659999999999995
-0.8702290076335878,1.450381679389313,-0.5954198473282443,-0.456298828125,0.001953125,-0.218994140625,0.3383
-1.0229007633587786,1.251908396946565,-0.48854961832061067,-0.4541015625,0.000732421875,-0.22021484375,0.33999999999999997
-0.916030534351145,1.3282442748091603,-0.6106870229007634,-0.45361328125,-0.001220703125,-0.2177734375,0.3417
-0.7480916030534351,1.2366412213740459,-0.6259541984732825,-0.4521484375,0.001220703125,-0.218994140625,0.3434
-0.9618320610687023,1.2061068702290076,-0.6259541984732825,-0.456298828125,0.00341796875,-0.2158203125,0.34509999999999996
-0.9770992366412213,1.2213740458015268,-0.6870229007633588,-0.4580078125,-0.001953125,-0.210693359375,0.3468
-1.0076335877862594,1.2061068702290076,-0.7786259541984732,-0.449951171875,0.000244140625,-0.21142578125,0.3485
-0.916030534351145,1.0229007633587786,-0.7175572519083969,-0.45703125,-0.0009765625,-0.2197265625,0.35019999999999996
-1.1450381679389312,1.2671755725190839,-0.9007633587786259,-0.457763671875,0.003173828125,-0.218017578125,0.3519
-1.083969465648855,1.099236641221374,-0.8091603053435115,-0.455322265625,-0.0009765625,-0.21533203125,0.35359999999999997
-0.9312977099236641,0.9770992366412213,-0.8244274809160306,-0.461181640625,-0.002197265625,-0.21142578125,0.3553
-0.8091603053435115,1.099236641221374,-0.6106870229007634,-0.456298828125,0.002197265625,-0.212646484375,0.357
-1.1603053435114503,1.1755725190839694,-0.6564885496183206,-0.45361328125,0.00341796875,-0.20947265625,0.35869999999999996
-1.282442748091603,1.2061068702290076,-0.732824427480916,-0.4609375,0.009033203125,-0.216796875,0.3604
-0.8244274809160306,1.1755725190839694,-1.0229007633587786,-0.455810546875,0.00634765625,-0.216064453125,0.3621
-1.0381679389312977,1.1755725190839694,-0.7175572519083969,-0.45458984375,0.007080078125,-0.2138671875,0.36379999999999996
-1.1145038167938932,1.2366412213740459,-0.6717557251908397,-0.461181640625,0.0078125,-0.21533203125,0.3655
-0.9923664122137404,1.251908396946565,-0.6412213740458015,-0.458740234375,0.003662109375,-0.2216796875,0.36719999999999997
-1.0687022900763359,1.3435114503816794,-0.6564885496183206,-0.457275390625,0.00390625,-0.2216796875,0.3689
-1.0534351145038168,1.4351145038167938,-0.5648854961832062,-0.454833984375,0.00048828125,-0.21044921875,0.3706
-1.0687022900763359,1.3129770992366412,-0.7786259541984732,-0.457275390625,0.002197265625,-0.21728515625,0.37229999999999996
-0.8854961832061069,1.3587786259541985,-0.7022900763358778,-0.45556640625,0.009521484375,-0.220947265625,0.374
-0.7175572519083969,1.251908396946565,-0.732824427480916,-0.460693359375,0.0068359375,-0.2265625,0.3757
-0.8244274809160306,1.1450381679389312,-0.6412213740458015,-0.45361328125,0.0,-0.210693359375,0.37739999999999996
-0.9465648854961832,1.2671755725190839,-0.6717557251908397,-0.454833984375,0.00390625,-0.21435546875,0.3791
-0.8091603053435115,1.3129770992366412,-0.5954198473282443,-0.457763671875,0.002685546875,-0.215576171875,0.38079999999999997
-0.6259541984732825,1.3893129770992367,-0.6870229007633588,-0.458251953125,0.002197265625,-0.20947265625,0.38249999999999995
-0.6106870229007634,1.3282442748091603,-0.8091603053435115,-0.455810546875,0.00634765625,-0.218994140625,0.3842
-0.5801526717557252,1.3435114503816794,-0.7633587786259542,-0.456787109375,0.004638671875,-0.223388671875,0.38589999999999997
-0.7022900763358778,1.3893129770992367,-0.48854961832061067,-0.455322265625,0.01123046875,-0.212890625,0.3876
-0.5648854961832062,1.4045801526717556,-0.7633587786259542,-0.45263671875,0.010498046875,-0.2236328125,0.3893
-0.5954198473282443,1.251908396946565,-0.732824427480916,-0.45849609375,0.004150390625,-0.2177734375,0.39099999999999996
-0.3969465648854962,1.3282442748091603,-0.6717557251908397,-0.46044921875,0.007568359375,-0.22998046875,0.3927
-0.22900763358778625,1.4351145038167938,-0.732824427480916,-0.447998046875,0.00830078125,-0.213623046875,0.3944
-0.015267175572519083,1.297709923664122,-0.9312977099236641,-0.458251953125,0.009765625,-0.218017578125,0.39609999999999995
-0.10687022900763359,1.3587786259541985,-0.7786259541984732,-0.455322265625,0.008056640625,-0.210693359375,0.3978
-0.030534351145038167,1.465648854961832,-0.8549618320610687,-0.451171875,0.013671875,-0.216064453125,0.39949999999999997
0.0916030534351145,1.297709923664122,-0.6717557251908397,-0.455810546875,0.01513671875,-0.212646484375,0.4012
0.183206106870229,1.3435114503816794,-0.916030534351145,-0.4541015625,0.013671875,-0.21630859375,0.4029
0.2595419847328244,1.3435114503816794,-0.7633587786259542,-0.457763671875,0.00537109375,-0.211669921875,0.40459999999999996
0.3969465648854962,1.2671755725190839,-0.7786259541984732,-0.464111328125,0.008056640625,-0.2158203125,0.4063
0.42748091603053434,1.3893129770992367,-0.8244274809160306,-0.461669921875,0.007568359375,-0.212890625,0.408
0.5648854961832062,1.4351145038167938,-0.8396946564885496,-0.45458984375,0.003662109375,-0.21484375,0.40969999999999995
0.48854961832061067,1.3740458015267176,-0.9312977099236641,-0.45751953125,0.006103515625,-0.219970703125,0.4114
0.6717557251908397,1.4198473282442747,-1.0076335877862594,-0.454833984375,0.009521484375,-0.21435546875,0.41309999999999997
0.7175572519083969,1.5419847328244274,-1.0381679389312977,-0.459228515625,0.012451171875,-0.21728515625,0.4148
0.9465648854961832,1.3740458015267176,-1.0687022900763359,-0.453857421875,0.0087890625,-0.212158203125,0.4165
1.1145038167938932,1.4809160305343512,-0.9465648854961832,-0.455322265625,0.00439453125,-0.20556640625,0.41819999999999996
0.8702290076335878,1.4809160305343512,-0.9007633587786259,-0.458984375,0.009765625,-0.204345703125,0.4199
1.0381679389312977,1.5114503816793894,-0.9007633587786259,-0.453857421875,0.00537109375,-0.217041015625,0.4216
1.2213740458015268,1.5419847328244274,-1.1755725190839694,-0.454345703125,0.002197265625,-0.213623046875,0.42329999999999995
1.1145038167938932,1.618320610687023,-0.8549618320610687,-0.459716796875,0.002197265625,-0.215087890625,0.425
1.3587786259541985,1.450381679389313,-1.0076335877862594,-0.4521484375,0.010986328125,-0.2080078125,0.42669999999999997
1.5725190839694656,1.633587786259542,-1.099236641221374,-0.453125,0.004638671875,-0.216064453125,0.4284
1.6488549618320612,1.4809160305343512,-1.099236641221374,-0.457275390625,0.00439453125,-0.2158203125,0.4301
1.5572519083969465,1.450381679389313,-1.083969465648855,-0.457763671875,0.004150390625,-0.2197265625,0.43179999999999996
1.9083969465648856,1.5114503816793894,-1.2213740458015268,-0.458251953125,0.00732421875,-0.21826171875,0.4335
1.6793893129770991,1.450381679389313,-1.0381679389312977,-0.45458984375,0.00927734375,-0.22607421875,0.4352
1.5419847328244274,1.4351145038167938,-1.0687022900763359,-0.449951171875,0.008056640625,-0.215576171875,0.43689999999999996
1.7099236641221374,1.4045801526717556,-0.9618320610687023,-0.45947265625,0.0029296875,-0.21142578125,0.4386
1.786259541984733,1.4351145038167938,-1.099236641221374,-0.453369140625,0.009521484375,-0.224365234375,0.44029999999999997
2.015267175572519,1.3740458015267176,-0.8244274809160306,-0.455078125,0.011474609375,-0.21435546875,0.44199999999999995
1.83206106870229,1.4351145038167938,-0.9770992366412213,-0.45556640625,0.0087890625,-0.213134765625,0.4437
2.015267175572519,1.3129770992366412,-1.0534351145038168,-0.45068359375,0.00830078125,-0.2177734375,0.44539999999999996
2.213740458015267,1.282442748091603,-0.9770992366412213,-0.455810546875,0.005859375,-0.214111328125,0.4471
1.9236641221374047,1.5114503816793894,-0.916030534351145,-0.458984375,0.005859375,-0.20947265625,0.4488
1.9694656488549618,1.282442748091603,-1.0229007633587786,-0.452392578125,0.01025390625,-0.2138671875,0.45049999999999996
2.16793893129771,1.282442748091603,-0.8854961832061069,-0.4580078125,-0.000732421875,-0.21728515625,0.4522
2.213740458015267,1.3282442748091603,-0.9618320610687023,-0.459716796875,-0.001953125,-0.210205078125,0.45389999999999997
2.0,1.3740458015267176,-1.0687022900763359,-0.455322265625,0.007568359375,-0.2138671875,0.45559999999999995
2.0763358778625953,1.3435114503816794,-0.9007633587786259,-0.453857421875,0.00732421875,-0.21826171875,0.4573
2.16793893129771,1.3587786259541985,-0.916030534351145,-0.455322265625,0.00439453125,-0.219970703125,0.45899999999999996
2.183206106870229,1.3740458015267176,-0.9618320610687023,-0.45263671875,0.00830078125,-0.224853515625,0.4607
2.122137404580153,1.3740458015267176,-0.9770992366412213,-0.454345703125,0.0048828125,-0.226806640625,0.4624
2.16793893129771,1.450381679389313,-0.9312977099236641,-0.458984375,0.00634765625,-0.218994140625,0.46409999999999996
2.351145038167939,1.2671755725190839,-1.1908396946564885,-0.453369140625,-0.0009765625,-0.216552734375,0.4658
2.122137404580153,1.1755725190839694,-1.1450381679389312,-0.45361328125,0.006103515625,-0.21240234375,0.46749999999999997
2.1374045801526718,1.1603053435114503,-1.0381679389312977,-0.453369140625,0.00439453125,-0.21728515625,0.46919999999999995
1.984732824427481,1.251908396946565,-1.0381679389312977,-0.452392578125,0.0,-0.2197265625,0.4709
2.2900763358778624,1.4198473282442747,-1.0229007633587786,-0.45703125,0.006103515625,-0.211181640625,0.47259999999999996
2.2595419847328246,1.1450381679389312,-0.9770992366412213,-0.462158203125,0.00341796875,-0.209716796875,0.4743
2.2900763358778624,1.1145038167938932,-0.8244274809160306,-0.4580078125,0.003662109375,-0.217529296875,0.476
2.1526717557251906,1.1450381679389312,-0.9465648854961832,-0.4541015625,0.00830078125,-0.2138671875,0.47769999999999996
2.0763358778625953,1.2213740458015268,-1.1145038167938932,-0.458740234375,0.0009765625,-0.2138671875,0.4794
2.2595419847328246,1.0687022900763359,-0.9007633587786259,-0.45654296875,0.007080078125,-0.210693359375,0.48109999999999997
1.83206106870229,1.3435114503816794,-0.916030534351145,-0.459716796875,0.0,-0.213134765625,0.48279999999999995
2.1526717557251906,1.1450381679389312,-1.0534351145038168,-0.45556640625,-0.002197265625,-0.22607421875,0.4845
2.1068702290076335,1.1755725190839694,-0.9618320610687023,-0.456298828125,-0.001708984375,-0.2197265625,0.48619999999999997
2.122137404580153,1.0534351145038168,-0.9618320610687023,-0.4580078125,0.005615234375,-0.212158203125,0.4879
2.0763358778625953,1.1450381679389312,-1.2671755725190839,-0.45556640625,0.001953125,-0.213134765625,0.4896
2.0916030534351147,1.1145038167938932,-1.2061068702290076,-0.449462890625,0.005615234375,-0.209716796875,0.49129999999999996
1.8625954198473282,1.251908396946565,-1.2061068702290076,-0.44775390625,0.0029296875,-0.219482421875,0.493
1.9236641221374047,1.3435114503816794,-1.2366412213740459,-0.453857421875,0.00830078125,-0.218017578125,0.4947
1.8778625954198473,1.1908396946564885,-1.1908396946564885,-0.452880859375,0.00341796875,-0.21923828125,0.49639999999999995
2.015267175572519,1.2366412213740459,-1.2061068702290076,-0.45556640625,0.001953125,-0.212158203125,0.4981
1.83206106870229,1.1450381679389312,-1.2213740458015268,-0.458740234375,0.007568359375,-0.218017578125,0.49979999999999997
1.7251908396946565,1.297709923664122,-1.2671755725190839,-0.455810546875,0.002197265625,-0.22412109375,0.5015
1.7251908396946565,1.3282442748091603,-1.2061068702290076,-0.4541015625,0.0029296875,-0.230224609375,0.5032
1.8931297709923665,1.2061068702290076,-1.1908396946564885,-0.453857421875,0.0,-0.217529296875,0.5049
1.6030534351145038,1.251908396946565,-1.3893129770992367,-0.459716796875,0.004638671875,-0.21435546875,0.5065999999999999
1.6488549618320612,1.251908396946565,-1.282442748091603,-0.4560546875,0.00146484375,-0.220703125,0.5083
1.6793893129770991,1.4198473282442747,-1.099236641221374,-0.45556640625,-0.002197265625,-0.219970703125,0.51
1.5725190839694656,1.4809160305343512,-1.1908396946564885,-0.455322265625,-0.0009765625,-0.217529296875,0.5116999999999999
1.5725190839694656,1.3435114503816794,-1.4351145038167938,-0.453857421875,0.00390625,-0.2158203125,0.5134
1.5114503816793894,1.465648854961832,-1.4045801526717556,-0.461181640625,0.001708984375,-0.2158203125,0.5151
1.4351145038167938,1.5267175572519085,-1.2671755725190839,-0.458984375,-0.002685546875,-0.21044921875,0.5167999999999999
1.4961832061068703,1.5877862595419847,-1.2213740458015268,-0.46142578125,0.00244140625,-0.2158203125,0.5185
1.2061068702290076,1.5114503816793894,-1.3740458015267176,-0.45458984375,0.00341796875,-0.217529296875,0.5202
1.297709923664122,1.5725190839694656,-1.3587786259541985,-0.459716796875,0.001220703125,-0.2197265625,0.5218999999999999
1.3740458015267176,1.5572519083969465,-1.465648854961832,-0.454345703125,-0.0029296875,-0.21484375,0.5236
1.1450381679389312,1.5267175572519085,-1.465648854961832,-0.455322265625,-0.000732421875,-0.213134765625,0.5253
1.251908396946565,1.633587786259542,-1.4809160305343512,-0.454345703125,0.004150390625,-0.219970703125,0.527
1.2061068702290076,1.633587786259542,-1.2061068702290076,-0.456298828125,0.00048828125,-0.21533203125,0.5287
1.3435114503816794,1.786259541984733,-1.4351145038167938,-0.453369140625,0.0078125,-0.219970703125,0.5304
1.099236641221374,1.7404580152671756,-1.4809160305343512,-0.45703125,0.003662109375,-0.218994140625,0.5321
1.1755725190839694,1.7557251908396947,-1.1908396946564885,-0.457763671875,0.00634765625,-0.215576171875,0.5337999999999999
1.1755725190839694,1.7709923664122138,-1.251908396946565,-0.458984375,0.007080078125,-0.210205078125,0.5355
0.9770992366412213,1.8473282442748091,-1.465648854961832,-0.455322265625,0.003662109375,-0.212646484375,0.5372
0.8244274809160306,1.984732824427481,-1.3129770992366412,-0.453369140625,0.00048828125,-0.2158203125,0.5388999999999999
0.7938931297709924,1.83206106870229,-1.3740458015267176,-0.45458984375,0.0029296875,-0.216552734375,0.5406
0.6412213740458015,1.786259541984733,-1.3740458015267176,-0.457275390625,-0.00146484375,-0.2138671875,0.5423
0.9618320610687023,2.030534351145038,-1.297709923664122,-0.45703125,0.0068359375,-0.216552734375,0.5439999999999999
0.6870229007633588,2.030534351145038,-1.3893129770992367,-0.461181640625,-0.000244140625,-0.210205078125,0.5457
0.7938931297709924,1.9541984732824427,-1.5419847328244274,-0.459716796875,0.001708984375,-0.219970703125,0.5474
1.0687022900763359,1.9389312977099236,-1.3587786259541985,-0.456787109375,0.00341796875,-0.2158203125,0.5490999999999999
0.5954198473282443,1.7404580152671756,-1.450381679389313,-0.455322265625,0.0029296875,-0.22119140625,0.5508
0.44274809160305345,2.030534351145038,-1.4198473282442747,-0.46044921875,0.004638671875,-0.217041015625,0.5525
0.6259541984732825,1.8931297709923665,-1.4045801526717556,-0.45849609375,0.0029296875,-0.2177734375,0.5541999999999999
0.5954198473282443,1.9541984732824427,-1.3893129770992367,-0.45849609375,0.00732421875,-0.21826171875,0.5559
0.549618320610687,2.015267175572519,-1.5267175572519085,-0.45361328125,0.00634765625,-0.21923828125,0.5576
0.3969465648854962,1.9083969465648856,-1.450381679389313,-0.455322265625,0.004150390625,-0.223388671875,0.5593
0.6717557251908397,1.984732824427481,-1.5419847328244274,-0.453125,0.00341796875,-0.220703125,0.5609999999999999
0.5954198473282443,2.0763358778625953,-1.3282442748091603,-0.45556640625,0.006103515625,-0.20654296875,0.5627
0.42748091603053434,1.9236641221374047,-1.5114503816793894,-0.4580078125,0.007080078125,-0.206787109375,0.5644
0.5190839694656488,2.1374045801526718,-1.465648854961832,-0.455810546875,0.004638671875,-0.21875,0.5660999999999999
0.6259541984732825,2.2595419847328246,-1.4809160305343512,-0.455322265625,0.000244140625,-0.218994140625,0.5678
0.6106870229007634,2.0610687022900764,-1.4809160305343512,-0.454833984375,0.004638671875,-0.216796875,0.5695
0.5954198473282443,2.1068702290076335,-1.633587786259542,-0.456787109375,0.008544921875,-0.21484375,0.5711999999999999
0.2595419847328244,2.183206106870229,-1.618320610687023,-0.4580078125,0.009033203125,-0.216796875,0.5729
0.48854961832061067,2.045801526717557,-1.6488549618320612,-0.45361328125,0.006103515625,-0.211669921875,0.5746
0.7022900763358778,2.015267175572519,-1.465648854961832,-0.454345703125,0.003662109375,-0.22265625,0.5762999999999999
0.4580152671755725,2.0916030534351147,-1.5877862595419847,-0.454833984375,0.00146484375,-0.2197265625,0.578
0.42748091603053434,2.0916030534351147,-1.450381679389313,-0.458984375,0.001708984375,-0.219970703125,0.5797
0.5343511450381679,2.045801526717557,-1.5572519083969465,-0.453125,0.005126953125,-0.21826171875,0.5813999999999999
0.2595419847328244,2.198473282442748,-1.6488549618320612,-0.458984375,0.005615234375,-0.2177734375,0.5831
0.5343511450381679,1.9389312977099236,-1.6793893129770991,-0.4560546875,0.0087890625,-0.217529296875,0.5848
0.6564885496183206,2.1374045801526718,-1.6488549618320612,-0.453125,0.00830078125,-0.215576171875,0.5865
0.549618320610687,2.0916030534351147,-1.5267175572519085,-0.4658203125,0.006591796875,-0.21875,0.5882
0.5801526717557252,2.2442748091603053,-1.6641221374045803,-0.458251953125,0.005615234375,-0.2099609375,0.5899
0.6564885496183206,2.0763358778625953,-1.7251908396946565,-0.457275390625,0.00390625,-0.210693359375,0.5916
0.6106870229007634,1.8625954198473282,-1.3740458015267176,-0.4541015625,0.00537109375,-0.213134765625,0.5932999999999999
0.5801526717557252,2.16793893129771,-1.6641221374045803,-0.45458984375,0.011962890625,-0.216796875,0.595
0.7938931297709924,2.0916030534351147,-1.5267175572519085,-0.45849609375,0.0068359375,-0.214111328125,0.5967
0.6870229007633588,2.0763358778625953,-1.633587786259542,-0.456298828125,0.011474609375,-0.2197265625,0.5983999999999999
0.6259541984732825,2.0,-1.618320610687023,-0.450927734375,0.000244140625,-0.22314453125,0.6001
0.7938931297709924,2.1068702290076335,-1.5572519083969465,-0.4541015625,0.002685546875,-0.21923828125,0.6018
0.9312977099236641,2.213740458015267,-1.6030534351145038,-0.45458984375,0.008544921875,-0.22021484375,0.6034999999999999
0.7786259541984732,2.33587786259542,-1.8015267175572518,-0.456787109375,0.007080078125,-0.21728515625,0.6052
0.8091603053435115,2.1374045801526718,-1.465648854961832,-0.458251953125,0.00341796875,-0.222900390625,0.6069
1.0534351145038168,2.198473282442748,-1.7709923664122138,-0.45263671875,0.007568359375,-0.219482421875,0.6085999999999999
0.9312977099236641,2.1374045801526718,-1.6488549618320612,-0.456298828125,0.005126953125,-0.21533203125,0.6103
1.0534351145038168,2.0916030534351147,-1.618320610687023,-0.454345703125,0.00390625,-0.2158203125,0.612
0.9465648854961832,2.3053435114503817,-1.4351145038167938,-0.456787109375,0.00390625,-0.220947265625,0.6136999999999999
0.916030534351145,2.183206106870229,-1.7099236641221374,-0.45458984375,0.006103515625,-0.216552734375,0.6154
0.9618320610687023,2.045801526717557,-1.83206106870229,-0.457275390625,0.003662109375,-0.2255859375,0.6171
0.916030534351145,2.1526717557251906,-1.8015267175572518,-0.45849609375,0.00537109375,-0.214111328125,0.6188
1.0534351145038168,2.213740458015267,-1.618320610687023,-0.45751953125,0.00732421875,-0.20849609375,0.6204999999999999
1.1145038167938932,2.16793893129771,-1.6641221374045803,-0.457763671875,0.003662109375,-0.218017578125,0.6222
1.2213740458015268,2.2595419847328246,-1.6488549618320612,-0.454345703125,0.00341796875,-0.22119140625,0.6239
1.5572519083969465,2.3053435114503817,-1.6641221374045803,-0.455078125,0.002197265625,-0.2119140625,0.6255999999999999
1.3893129770992367,2.2900763358778624,-1.4961832061068703,-0.460693359375,0.00634765625,-0.2158203125,0.6273
1.4045801526717556,2.16793893129771,-1.450381679389313,-0.453857421875,0.005615234375,-0.222412109375,0.629
1.450381679389313,2.2595419847328246,-1.450381679389313,-0.455322265625,0.00341796875,-0.213623046875,0.6306999999999999
1.5114503816793894,2.2900763358778624,-1.6793893129770991,-0.456787109375,0.00439453125,-0.216796875,0.6324
1.6793893129770991,2.183206106870229,-1.7099236641221374,-0.454833984375,0.006591796875,-0.215087890625,0.6341
1.5267175572519085,2.1068702290076335,-1.5725190839694656,-0.454833984375,0.005126953125,-0.212158203125,0.6357999999999999
1.4198473282442747,2.1068702290076335,-1.465648854961832,-0.45703125,0.00537109375,-0.219970703125,0.6375
1.6946564885496183,2.1374045801526718,-1.5877862595419847,-0.457763671875,0.008056640625,-0.222900390625,0.6392
1.786259541984733,2.3053435114503817,-1.5725190839694656,-0.45751953125,0.004638671875,-0.223388671875,0.6408999999999999
1.6488549618320612,2.2900763358778624,-1.4198473282442747,-0.455078125,0.003662109375,-0.220458984375,0.6426
1.6641221374045803,2.2442748091603053,-1.5419847328244274,-0.453125,0.008056640625,-0.212646484375,0.6443
1.5572519083969465,2.0610687022900764,-1.4961832061068703,-0.460205078125,0.00830078125,-0.217529296875,0.646
1.83206106870229,2.213740458015267,-1.5267175572519085,-0.45458984375,0.009033203125,-0.21630859375,0.6476999999999999
1.7709923664122138,2.2442748091603053,-1.4198473282442747,-0.455322265625,0.0078125,-0.221435546875,0.6494
1.9389312977099236,2.2442748091603053,-1.4809160305343512,-0.459228515625,0.007080078125,-0.22216796875,0.6511
1.83206106870229,2.1526717557251906,-1.450381679389313,-0.45947265625,0.0029296875,-0.21337890625,0.6527999999999999
1.8015267175572518,2.3053435114503817,-1.3282442748091603,-0.4609375,0.001953125,-0.211181640625,0.6545
1.83206106870229,2.16793893129771,-1.5114503816793894,-0.45654296875,0.005615234375,-0.212646484375,0.6562
1.8015267175572518,2.3969465648854964,-1.5267175572519085,-0.455322265625,0.00244140625,-0.21630859375,0.6578999999999999
1.8778625954198473,2.3206106870229006,-1.4809160305343512,-0.455078125,0.00439453125,-0.2177734375,0.6596
1.984732824427481,2.2748091603053435,-1.450381679389313,-0.454833984375,0.00341796875,-0.21826171875,0.6613
1.7709923664122138,2.2748091603053435,-1.4045801526717556,-0.45654296875,0.002197265625,-0.224365234375,0.6629999999999999
1.9389312977099236,2.366412213740458,-1.2671755725190839,-0.45654296875,0.00048828125,-0.212646484375,0.6647
1.9541984732824427,2.366412213740458,-1.3282442748091603,-0.455810546875,0.005615234375,-0.228515625,0.6664
1.8015267175572518,2.50381679389313,-1.4198473282442747,-0.45654296875,0.0048828125,-0.219970703125,0.6680999999999999
2.015267175572519,2.381679389312977,-1.3435114503816794,-0.4560546875,0.0068359375,-0.21826171875,0.6698
1.9541984732824427,2.3969465648854964,-1.4351145038167938,-0.454833984375,0.009033203125,-0.220947265625,0.6715
2.030534351145038,2.549618320610687,-1.465648854961832,-0.45703125,0.001708984375,-0.2275390625,0.6731999999999999
1.9236641221374047,2.2748091603053435,-1.5877862595419847,-0.455322265625,0.002685546875,-0.218017578125,0.6748999999999999
2.0916030534351147,2.2900763358778624,-1.618320610687023,-0.453369140625,0.0029296875,-0.220458984375,0.6766
1.984732824427481,2.33587786259542,-1.4198473282442747,-0.4560546875,0.00244140625,-0.211669921875,0.6783
2.3053435114503817,2.4732824427480917,-1.3587786259541985,-0.453857421875,0.000244140625,-0.2216796875,0.6799999999999999
2.1374045801526718,2.351145038167939,-1.3587786259541985,-0.458251953125,0.0029296875,-0.221435546875,0.6817
1.9083969465648856,2.4580152671755724,-1.450381679389313,-0.452880859375,0.00634765625,-0.213134765625,0.6834
1.9236641221374047,2.3206106870229006,-1.5114503816793894,-0.45849609375,0.0029296875,-0.224853515625,0.6850999999999999
1.9236641221374047,2.381679389312977,-1.4351145038167938,-0.453857421875,0.006591796875,-0.210693359375,0.6868
1.7404580152671756,2.2900763358778624,-1.6030534351145038,-0.450927734375,0.00244140625,-0.212158203125,0.6885
1.984732824427481,2.595419847328244,-1.4809160305343512,-0.462646484375,0.002197265625,-0.2197265625,0.6901999999999999
1.786259541984733,2.4580152671755724,-1.618320610687023,-0.455322265625,0.011962890625,-0.2158203125,0.6919
2.015267175572519,2.3206106870229006,-1.5572519083969465,-0.451904296875,0.0078125,-0.21240234375,0.6936
1.7251908396946565,2.381679389312977,-1.6030534351145038,-0.453125,0.006103515625,-0.217529296875,0.6952999999999999
1.8473282442748091,2.2900763358778624,-1.5419847328244274,-0.462646484375,-0.000732421875,-0.218505859375,0.697
1.9541984732824427,2.3053435114503817,-1.786259541984733,-0.456298828125,0.0048828125,-0.2177734375,0.6987
1.9389312977099236,2.427480916030534,-1.6641221374045803,-0.458984375,0.0029296875,-0.218994140625,0.7003999999999999
1.9389312977099236,2.2595419847328246,-1.5725190839694656,-0.455078125,0.00146484375,-0.21923828125,0.7021
1.8625954198473282,2.2900763358778624,-1.7251908396946565,-0.455322265625,0.001708984375,-0.2216796875,0.7038
1.6030534351145038,2.351145038167939,-1.450381679389313,-0.455078125,0.00048828125,-0.21533203125,0.7055
1.6030534351145038,2.366412213740458,-1.5114503816793894,-0.46142578125,0.000732421875,-0.22216796875,0.7071999999999999
1.8473282442748091,2.183206106870229,-1.633587786259542,-0.45556640625,0.000244140625,-0.218994140625,0.7089
1.8015267175572518,2.366412213740458,-1.7251908396946565,-0.456787109375,0.001953125,-0.21337890625,0.7106
1.5267175572519085,2.5801526717557253,-1.816793893129771,-0.457275390625,0.00390625,-0.20849609375,0.7122999999999999
1.5419847328244274,2.4427480916030535,-1.5419847328244274,-0.457275390625,0.003662109375,-0.220458984375,0.714
1.6488549618320612,2.3053435114503817,-1.6030534351145038,-0.453857421875,0.001708984375,-0.21337890625,0.7157
1.7099236641221374,2.3969465648854964,-1.6641221374045803,-0.45654296875,0.00341796875,-0.21240234375,0.7173999999999999
1.5725190839694656,2.2442748091603053,-1.786259541984733,-0.45751953125,0.002197265625,-0.21435546875,0.7191
1.7099236641221374,2.3969465648854964,-1.7099236641221374,-0.45458984375,0.000732421875,-0.22705078125,0.7208
1.5877862595419847,2.3206106870229006,-1.6641221374045803,-0.455078125,0.001953125,-0.216796875,0.7224999999999999
1.5267175572519085,2.4732824427480917,-1.633587786259542,-0.451904296875,-0.001220703125,-0.22314453125,0.7242
1.4198473282442747,2.4580152671755724,-1.6793893129770991,-0.455322265625,0.001708984375,-0.21875,0.7259
1.4961832061068703,2.4122137404580153,-1.6030534351145038,-0.4541015625,0.005126953125,-0.21923828125,0.7275999999999999
1.4045801526717556,2.519083969465649,-1.7709923664122138,-0.460693359375,0.004150390625,-0.219482421875,0.7293
1.2671755725190839,2.4122137404580153,-1.5572519083969465,-0.456787109375,-0.00439453125,-0.21923828125,0.731
1.3282442748091603,2.3969465648854964,-1.7099236641221374,-0.4580078125,-0.001708984375,-0.217041015625,0.7326999999999999
1.1450381679389312,2.2900763358778624,-1.5572519083969465,-0.4521484375,-0.0029296875,-0.2197265625,0.7343999999999999
1.282442748091603,2.183206106870229,-1.6488549618320612,-0.45654296875,-0.00244140625,-0.22021484375,0.7361
1.2061068702290076,2.183206106870229,-1.6030534351145038,-0.459228515625,0.0029296875,-0.220703125,0.7378
1.297709923664122,2.381679389312977,-1.7251908396946565,-0.451171875,0.001708984375,-0.21826171875,0.7394999999999999
1.3129770992366412,2.2748091603053435,-1.5419847328244274,-0.454833984375,0.002197265625,-0.213623046875,0.7412
1.3129770992366412,2.3969465648854964,-1.6946564885496183,-0.460205078125,0.0,-0.22119140625,0.7429
1.1755725190839694,2.2748091603053435,-1.6030534351145038,-0.45068359375,0.0029296875,-0.220703125,0.7445999999999999
1.1908396946564885,2.198473282442748,-1.6793893129770991,-0.450927734375,0.002685546875,-0.218505859375,0.7463
1.099236641221374,2.427480916030534,-1.5877862595419847,-0.453857421875,0.001708984375,-0.215576171875,0.748
1.3129770992366412,2.2595419847328246,-1.5114503816793894,-0.456787109375,0.002685546875,-0.21337890625,0.7496999999999999
1.1755725190839694,2.1374045801526718,-1.4045801526717556,-0.457763671875,0.001220703125,-0.218505859375,0.7514
1.0687022900763359,2.564885496183206,-1.8015267175572518,-0.450927734375,-0.000244140625,-0.214111328125,0.7531
1.1145038167938932,2.213740458015267,-1.4198473282442747,-0.452880859375,0.0,-0.21484375,0.7547999999999999
1.0229007633587786,2.122137404580153,-1.6030534351145038,-0.453125,0.000732421875,-0.218017578125,0.7565
0.8854961832061069,1.984732824427481,-1.5877862595419847,-0.45556640625,0.002685546875,-0.21630859375,0.7582
1.0381679389312977,2.2290076335877864,-1.7404580152671756,-0.452392578125,0.001708984375,-0.22412109375,0.7598999999999999
1.099236641221374,2.1068702290076335,-1.4351145038167938,-0.450927734375,-0.003662109375,-0.219482421875,0.7615999999999999
1.0381679389312977,2.0610687022900764,-1.5877862595419847,-0.45458984375,0.004150390625,-0.22119140625,0.7633
0.9923664122137404,2.2595419847328246,-1.618320610687023,-0.448486328125,0.003173828125,-0.223388671875,0.7649999999999999
0.9465648854961832,2.0610687022900764,-1.6641221374045803,-0.452880859375,0.00732421875,-0.218994140625,0.7666999999999999
0.9465648854961832,2.0,-1.282442748091603,-0.45849609375,0.005126953125,-0.22021484375,0.7684
1.083969465648855,1.8778625954198473,-1.5572519083969465,-0.45166015625,0.005615234375,-0.225830078125,0.7701
0.8854961832061069,2.1068702290076335,-1.5114503816793894,-0.45849609375,0.003662109375,-0.22265625,0.7717999999999999
0.9923664122137404,2.0610687022900764,-1.3740458015267176,-0.451904296875,0.00390625,-0.2158203125,0.7735
1.0076335877862594,2.0,-1.3893129770992367,-0.45458984375,0.00244140625,-0.218017578125,0.7752
1.0076335877862594,2.030534351145038,-1.6030534351145038,-0.453369140625,0.004638671875,-0.22265625,0.7768999999999999
0.8396946564885496,1.9389312977099236,-1.4961832061068703,-0.450927734375,0.005126953125,-0.21630859375,0.7786
0.8549618320610687,2.045801526717557,-1.465648854961832,-0.448974609375,0.0029296875,-0.216796875,0.7803
0.9770992366412213,2.030534351145038,-1.4351145038167938,-0.44921875,0.00244140625,-0.218017578125,0.7819999999999999
1.0229007633587786,1.9236641221374047,-1.450381679389313,-0.4541015625,0.0,-0.216796875,0.7837
0.7633587786259542,1.8778625954198473,-1.4045801526717556,-0.4521484375,0.004638671875,-0.2109375,0.7854
0.916030534351145,1.8473282442748091,-1.450381679389313,-0.45263671875,0.005615234375,-0.22021484375,0.7870999999999999
0.9465648854961832,1.9083969465648856,-1.4198473282442747,-0.454345703125,0.00244140625,-0.219482421875,0.7888
0.8702290076335878,1.7557251908396947,-1.6030534351145038,-0.455322265625,0.0078125,-0.21728515625,0.7905
0.8396946564885496,1.786259541984733,-1.251908396946565,-0.45361328125,0.00146484375,-0.210693359375,0.7921999999999999
0.8244274809160306,1.8473282442748091,-1.297709923664122,-0.45361328125,0.002685546875,-0.21484375,0.7938999999999999
0.9618320610687023,1.6641221374045803,-1.2061068702290076,-0.45556640625,0.003173828125,-0.211181640625,0.7956
0.8244274809160306,1.5725190839694656,-1.2671755725190839,-0.45458984375,0.003173828125,-0.217041015625,0.7973
0.9618320610687023,1.816793893129771,-1.2213740458015268,-0.455322265625,0.0009765625,-0.21728515625,0.7989999999999999
1.1145038167938932,1.7251908396946565,-1.3740458015267176,-0.453369140625,0.00439453125,-0.227783203125,0.8007
1.0687022900763359,1.8625954198473282,-1.297709923664122,-0.454833984375,0.000732421875,-0.225341796875,0.8024
0.9618320610687023,1.9083969465648856,-1.3435114503816794,-0.458984375,0.00146484375,-0.216796875,0.8040999999999999
0.9465648854961832,1.786259541984733,-1.297709923664122,-0.45458984375,-0.001953125,-0.21728515625,0.8058
0.9465648854961832,1.7251908396946565,-1.0381679389312977,-0.45654296875,0.001708984375,-0.218994140625,0.8075
0.9770992366412213,1.9541984732824427,-1.099236641221374,-0.45849609375,0.002197265625,-0.217529296875,0.8091999999999999
1.1145038167938932,1.9541984732824427,-1.2366412213740459,-0.462158203125,0.009033203125,-0.211669921875,0.8109
1.2061068702290076,1.7404580152671756,-1.1297709923664123,-0.46142578125,0.008056640625,-0.216796875,0.8126
1.0534351145038168,1.7709923664122138,-1.1450381679389312,-0.457275390625,0.006591796875,-0.21875,0.8142999999999999
0.8549618320610687,1.786259541984733,-1.083969465648855,-0.455810546875,0.0068359375,-0.216552734375,0.816
1.0687022900763359,1.7251908396946565,-1.1908396946564885,-0.45849609375,0.000244140625,-0.225830078125,0.8177
1.0687022900763359,1.633587786259542,-1.251908396946565,-0.4560546875,-0.001220703125,-0.218505859375,0.8193999999999999
1.1297709923664123,1.7557251908396947,-1.282442748091603,-0.454345703125,0.003662109375,-0.22119140625,0.8210999999999999
1.1603053435114503,1.7404580152671756,-1.0687022900763359,-0.457275390625,-0.00048828125,-0.22119140625,0.8228
0.9923664122137404,1.6030534351145038,-1.3282442748091603,-0.45263671875,0.0068359375,-0.212890625,0.8244999999999999
1.0534351145038168,1.5572519083969465,-1.3129770992366412,-0.457763671875,0.000732421875,-0.221435546875,0.8261999999999999
1.3587786259541985,1.5572519083969465,-1.2061068702290076,-0.45556640625,0.00439453125,-0.22021484375,0.8279
1.083969465648855,1.7557251908396947,-1.099236641221374,-0.452880859375,0.004638671875,-0.222900390625,0.8296
1.282442748091603,1.83206106870229,-1.3893129770992367,-0.455810546875,0.005859375,-0.219970703125,0.8312999999999999
1.1603053435114503,1.8473282442748091,-1.3587786259541985,-0.456298828125,0.0087890625,-0.22802734375,0.833
1.2366412213740459,1.9236641221374047,-1.2366412213740459,-0.458251953125,0.001220703125,-0.2275390625,0.8347
1.1908396946564885,1.8473282442748091,-1.1603053435114503,-0.455322265625,0.00341796875,-0.218505859375,0.8363999999999999
1.1145038167938932,2.0916030534351147,-1.3435114503816794,-0.45458984375,0.00439453125,-0.21875,0.8381
1.1450381679389312,2.198473282442748,-1.4198473282442747,-0.456787109375,-0.00048828125,-0.218505859375,0.8398
1.083969465648855,2.1526717557251906,-1.297709923664122,-0.455810546875,0.00390625,-0.225341796875,0.8414999999999999
1.1755725190839694,1.9389312977099236,-1.1450381679389312,-0.45556640625,0.00341796875,-0.228759765625,0.8432
1.099236641221374,1.8473282442748091,-1.1908396946564885,-0.453125,0.001708984375,-0.225830078125,0.8449
1.1603053435114503,1.9083969465648856,-1.2671755725190839,-0.453857421875,0.00341796875,-0.22314453125,0.8465999999999999
1.1755725190839694,2.198473282442748,-1.3129770992366412,-0.4560546875,0.001708984375,-0.217041015625,0.8482999999999999
1.3129770992366412,2.1068702290076335,-1.2671755725190839,-0.45458984375,0.00390625,-0.2216796875,0.85
1.0381679389312977,2.122137404580153,-1.297709923664122,-0.454833984375,0.003662109375,-0.22802734375,0.8516999999999999
1.0534351145038168,2.0763358778625953,-1.2213740458015268,-0.450927734375,-0.002685546875,-0.22119140625,0.8533999999999999
1.0687022900763359,1.8625954198473282,-1.4198473282442747,-0.454833984375,0.000244140625,-0.216064453125,0.8551
1.0534351145038168,2.183206106870229,-1.2061068702290076,-0.45361328125,0.002197265625,-0.2197265625,0.8568
1.2061068702290076,2.2900763358778624,-1.083969465648855,-0.4609375,-0.002197265625,-0.220947265625,0.8584999999999999
0.916030534351145,1.9083969465648856,-1.1755725190839694,-0.452880859375,0.00146484375,-0.2236328125,0.8602
1.083969465648855,2.122137404580153,-1.2671755725190839,-0.45556640625,0.004638671875,-0.226806640625,0.8619
0.8702290076335878,2.2748091603053435,-1.2061068702290076,-0.45556640625,0.001220703125,-0.21728515625,0.8635999999999999
1.0534351145038168,1.8931297709923665,-1.3129770992366412,-0.453125,0.002197265625,-0.218017578125,0.8653
0.9312977099236641,2.0916030534351147,-1.3893129770992367,-0.452880859375,-0.0009765625,-0.212646484375,0.867
0.8396946564885496,2.122137404580153,-1.1450381679389312,-0.45263671875,0.00048828125,-0.2197265625,0.8686999999999999
0.9312977099236641,1.9694656488549618,-1.2366412213740459,-0.452392578125,0.00341796875,-0.221435546875,0.8704
1.0076335877862594,1.8931297709923665,-1.3435114503816794,-0.45263671875,0.0,-0.215576171875,0.8721
1.0687022900763359,1.7709923664122138,-1.1603053435114503,-0.45263671875,0.0009765625,-0.219482421875,0.8737999999999999
0.8549618320610687,1.633587786259542,-1.5725190839694656,-0.45166015625,0.005126953125,-0.22216796875,0.8755
0.9007633587786259,1.6793893129770991,-1.4961832061068703,-0.451171875,0.005859375,-0.21630859375,0.8772
1.0534351145038168,1.618320610687023,-1.3587786259541985,-0.45458984375,0.00341796875,-0.2138671875,0.8788999999999999
0.916030534351145,1.633587786259542,-1.5572519083969465,-0.46044921875,0.007568359375,-0.213134765625,0.8805999999999999
1.0381679389312977,1.6030534351145038,-1.8015267175572518,-0.452880859375,0.00439453125,-0.218017578125,0.8823
0.9312977099236641,1.6030534351145038,-1.9694656488549618,-0.457275390625,0.004638671875,-0.211181640625,0.8839999999999999
1.0381679389312977,1.5877862595419847,-1.9694656488549618,-0.458984375,0.001708984375,-0.219482421875,0.8856999999999999
1.1297709923664123,1.465648854961832,-2.0610687022900764,-0.45263671875,0.00390625,-0.219970703125,0.8874
1.0229007633587786,1.3587786259541985,-2.1526717557251906,-0.4521484375,0.003173828125,-0.21728515625,0.8891
1.0534351145038168,1.5572519083969465,-2.1374045801526718,-0.457763671875,0.004150390625,-0.22021484375,0.8907999999999999
1.2061068702290076,1.5725190839694656,-2.0763358778625953,-0.454345703125,0.0078125,-0.22265625,0.8925
1.1145038167938932,1.5267175572519085,-2.33587786259542,-0.4560546875,0.000732421875,-0.22412109375,0.8942
1.0381679389312977,1.450381679389313,-2.3206106870229006,-0.454345703125,0.00390625,-0.21533203125,0.8958999999999999
1.1297709923664123,1.5419847328244274,-2.4427480916030535,-0.455078125,0.0048828125,-0.22265625,0.8976
1.2671755725190839,1.3587786259541985,-2.3206106870229006,-0.456298828125,0.005615234375,-0.22314453125,0.8993
1.083969465648855,1.450381679389313,-2.4885496183206106,-0.454345703125,0.00634765625,-0.218994140625,0.9009999999999999
1.465648854961832,1.4809160305343512,-2.427480916030534,-0.448486328125,0.005615234375,-0.2216796875,0.9027
1.2366412213740459,1.3435114503816794,-2.4427480916030535,-0.453369140625,0.005126953125,-0.229736328125,0.9044
1.4045801526717556,1.2671755725190839,-2.33587786259542,-0.44970703125,0.00439453125,-0.2314453125,0.9060999999999999
1.3740458015267176,1.3587786259541985,-2.427480916030534,-0.45556640625,0.007080078125,-0.22216796875,0.9077999999999999
1.3129770992366412,1.4045801526717556,-2.427480916030534,-0.45263671875,0.004150390625,-0.21630859375,0.9095
1.3893129770992367,1.2366412213740459,-2.3053435114503817,-0.4541015625,0.00341796875,-0.218017578125,0.9111999999999999
1.5114503816793894,1.297709923664122,-2.4427480916030535,-0.456787109375,0.00146484375,-0.216064453125,0.9128999999999999
1.297709923664122,1.1603053435114503,-2.564885496183206,-0.451171875,0.002197265625,-0.218505859375,0.9146
1.6030534351145038,1.083969465648855,-2.366412213740458,-0.453125,0.00439453125,-0.220947265625,0.9163
1.5572519083969465,1.2366412213740459,-2.5801526717557253,-0.45068359375,0.00341796875,-0.21728515625,0.9179999999999999
1.5877862595419847,1.1297709923664123,-2.2442748091603053,-0.456298828125,0.00537109375,-0.220947265625,0.9197
1.618320610687023,0.9312977099236641,-2.366412213740458,-0.45849609375,0.00341796875,-0.21435546875,0.9214
1.5114503816793894,1.1297709923664123,-2.0,-0.4521484375,-0.000244140625,-0.215087890625,0.9230999999999999
1.4809160305343512,0.9465648854961832,-2.1374045801526718,-0.452392578125,0.001953125,-0.218505859375,0.9248
1.7099236641221374,0.916030534351145,-2.0763358778625953,-0.452880859375,0.001220703125,-0.215576171875,0.9265
1.633587786259542,1.099236641221374,-2.015267175572519,-0.4521484375,0.00439453125,-0.216552734375,0.9281999999999999
1.6946564885496183,1.099236641221374,-1.9694656488549618,-0.455078125,0.00341796875,-0.216064453125,0.9299
1.6488549618320612,1.0687022900763359,-1.8015267175572518,-0.45947265625,0.009521484375,-0.218505859375,0.9316
1.8625954198473282,1.0076335877862594,-1.8625954198473282,-0.46142578125,0.00537109375,-0.216552734375,0.9332999999999999
1.7099236641221374,0.8396946564885496,-1.8473282442748091,-0.456787109375,0.0029296875,-0.218505859375,0.9349999999999999
1.8473282442748091,0.8396946564885496,-1.4961832061068703,-0.451904296875,0.00341796875,-0.227294921875,0.9367
1.7099236641221374,0.6717557251908397,-1.4961832061068703,-0.4501953125,-0.00048828125,-0.223876953125,0.9383999999999999
1.633587786259542,0.732824427480916,-1.4351145038167938,-0.456787109375,0.004150390625,-0.223388671875,0.9400999999999999
1.7404580152671756,1.0381679389312977,-1.4809160305343512,-0.461181640625,0.00634765625,-0.223876953125,0.9418
1.9236641221374047,1.0381679389312977,-1.1755725190839694,-0.461181640625,0.002197265625,-0.221923828125,0.9434999999999999
1.8015267175572518,0.7633587786259542,-1.251908396946565,-0.4521484375,0.0,-0.212890625,0.9451999999999999
1.8778625954198473,0.7633587786259542,-1.0534351145038168,-0.4541015625,0.00048828125,-0.22119140625,0.9469
1.9694656488549618,0.6106870229007634,-1.3129770992366412,-0.44921875,0.000732421875,-0.21630859375,0.9486
2.030534351145038,0.5801526717557252,-1.1297709923664123,-0.45703125,0.00341796875,-0.22021484375,0.9502999999999999
1.786259541984733,0.5343511450381679,-1.083969465648855,-0.45166015625,0.001953125,-0.216552734375,0.952
2.0763358778625953,0.5648854961832062,-0.9618320610687023,-0.454345703125,0.001220703125,-0.217529296875,0.9537
2.1374045801526718,0.4732824427480916,-0.9007633587786259,-0.45458984375,-0.00048828125,-0.222412109375,0.9553999999999999
2.1068702290076335,0.48854961832061067,-0.7480916030534351,-0.456787109375,0.005615234375,-0.218994140625,0.9571
1.7557251908396947,0.48854961832061067,-0.8854961832061069,-0.454345703125,-0.003173828125,-0.21728515625,0.9588
1.83206106870229,0.7786259541984732,-0.8396946564885496,-0.4560546875,0.000732421875,-0.21875,0.9604999999999999
2.2595419847328246,0.5801526717557252,-0.7633587786259542,-0.457275390625,0.001708984375,-0.219970703125,0.9621999999999999
2.16793893129771,0.5190839694656488,-0.6564885496183206,-0.4541015625,-0.002197265625,-0.222412109375,0.9639
2.0916030534351147,0.6259541984732825,-0.9923664122137404,-0.45166015625,0.001220703125,-0.22265625,0.9655999999999999
2.0763358778625953,0.6259541984732825,-0.7786259541984732,-0.455810546875,0.001220703125,-0.213134765625,0.9672999999999999
2.0916030534351147,0.6259541984732825,-0.732824427480916,-0.45361328125,0.0048828125,-0.217041015625,0.969
2.045801526717557,0.48854961832061067,-0.8091603053435115,-0.45458984375,-0.00244140625,-0.21875,0.9706999999999999
2.0763358778625953,0.5343511450381679,-0.732824427480916,-0.45703125,-0.002685546875,-0.220458984375,0.9723999999999999
2.0610687022900764,0.5190839694656488,-0.6717557251908397,-0.453857421875,-0.002685546875,-0.216796875,0.9741
2.0,0.5343511450381679,-0.916030534351145,-0.456298828125,-0.002685546875,-0.21240234375,0.9758
2.1526717557251906,0.6412213740458015,-0.6412213740458015,-0.453857421875,0.000244140625,-0.215576171875,0.9774999999999999
1.9083969465648856,0.7022900763358778,-0.6717557251908397,-0.4560546875,-0.0009765625,-0.222900390625,0.9792
2.0,0.549618320610687,-0.8702290076335878,-0.455078125,-0.00341796875,-0.218994140625,0.9809
1.6946564885496183,0.7480916030534351,-0.8854961832061069,-0.453857421875,0.005126953125,-0.21630859375,0.9825999999999999
1.9236641221374047,0.7022900763358778,-0.7480916030534351,-0.4521484375,0.00146484375,-0.21875,0.9843
1.7557251908396947,0.7175572519083969,-0.7633587786259542,-0.453125,-0.0009765625,-0.22314453125,0.986
1.816793893129771,0.7175572519083969,-0.6259541984732825,-0.456787109375,-0.00048828125,-0.21826171875,0.9876999999999999
1.6946564885496183,0.6564885496183206,-0.7175572519083969,-0.4609375,0.0,-0.224365234375,0.9894
1.7099236641221374,0.732824427480916,-0.7175572519083969,-0.450927734375,0.002197265625,-0.2197265625,0.9911
1.6641221374045803,0.7480916030534351,-0.7633587786259542,-0.455322265625,-0.00634765625,-0.220703125,0.9927999999999999
1.5419847328244274,0.8244274809160306,-0.6870229007633588,-0.456298828125,0.00048828125,-0.22314453125,0.9944999999999999
1.6488549618320612,0.6870229007633588,-0.732824427480916,-0.45361328125,-0.001220703125,-0.222900390625,0.9962
1.1603053435114503,0.8854961832061069,-0.6564885496183206,-0.4580078125,0.000732421875,-0.22119140625,0.9978999999999999
1.0687022900763359,1.0076335877862594,-0.6717557251908397,-0.456787109375,-0.001953125,-0.21435546875,0.9995999999999999
1.4351145038167938,1.0229007633587786,-0.42748091603053434,-0.453369140625,-0.000732421875,-0.211181640625,1.0012999999999999
1.1603053435114503,1.0381679389312977,-0.7938931297709924,-0.454345703125,-0.0029296875,-0.2177734375,1.003
1.1450381679389312,1.1908396946564885,-0.6259541984732825,-0.457763671875,0.000244140625,-0.214599609375,1.0047
1.251908396946565,1.083969465648855,-0.732824427480916,-0.4580078125,-0.0009765625,-0.2197265625,1.0064
0.7786259541984732,1.099236641221374,-0.4732824427480916,-0.45703125,-0.00244140625,-0.22119140625,1.0081
0.7175572519083969,1.251908396946565,-0.2900763358778626,-0.457763671875,-0.00390625,-0.224365234375,1.0098
0.5190839694656488,1.1755725190839694,-0.32061068702290074,-0.45263671875,-0.002197265625,-0.21728515625,1.0114999999999998
0.6564885496183206,1.1603053435114503,-0.549618320610687,-0.46044921875,-0.0029296875,-0.2109375,1.0131999999999999
0.6259541984732825,1.3740458015267176,-0.33587786259541985,-0.45751953125,-0.004638671875,-0.222900390625,1.0149
0.4122137404580153,1.4045801526717556,-0.2748091603053435,-0.4560546875,-0.007080078125,-0.225341796875,1.0166
0.32061068702290074,1.2366412213740459,-0.33587786259541985,-0.45947265625,0.0029296875,-0.225341796875,1.0183
0.33587786259541985,1.450381679389313,-0.44274809160305345,-0.45849609375,0.000732421875,-0.219970703125,1.02
0.10687022900763359,1.2671755725190839,-0.2900763358778626,-0.451171875,-0.000244140625,-0.22265625,1.0217
0.15267175572519084,1.4045801526717556,-0.366412213740458,-0.450439453125,-0.001708984375,-0.21728515625,1.0233999999999999
-0.04580152671755725,1.450381679389313,-0.5190839694656488,-0.45654296875,-0.001220703125,-0.220947265625,1.0251
-0.183206106870229,1.5114503816793894,-0.4122137404580153,-0.460693359375,-0.004638671875,-0.217041015625,1.0268
-0.183206106870229,1.4198473282442747,-0.42748091603053434,-0.4541015625,-0.00146484375,-0.221923828125,1.0285
-0.2900763358778626,1.3282442748091603,-0.4580152671755725,-0.4560546875,-0.0048828125,-0.219482421875,1.0302
-0.44274809160305345,1.4961832061068703,-0.4122137404580153,-0.45556640625,-0.0029296875,-0.22216796875,1.0319
-0.3816793893129771,1.5267175572519085,-0.44274809160305345,-0.459716796875,-0.002197265625,-0.218505859375,1.0335999999999999
-0.33587786259541985,1.3740458015267176,-0.33587786259541985,-0.456298828125,-0.002685546875,-0.217529296875,1.0352999999999999
-0.7175572519083969,1.5572519083969465,-0.4580152671755725,-0.4580078125,0.0029296875,-0.216552734375,1.037
-0.7175572519083969,1.5419847328244274,-0.4580152671755725,-0.456787109375,0.00146484375,-0.217041015625,1.0387
-0.8091603053435115,1.5877862595419847,-0.5038167938931297,-0.462646484375,0.001953125,-0.217041015625,1.0404
-0.8854961832061069,1.4351145038167938,-0.4732824427480916,-0.4580078125,0.003173828125,-0.220947265625,1.0421
-0.9923664122137404,1.3740458015267176,-0.48854961832061067,-0.459716796875,0.000244140625,-0.22802734375,1.0437999999999998
-0.7938931297709924,1.4961832061068703,-0.6717557251908397,-0.458740234375,0.000732421875,-0.22021484375,1.0454999999999999
-0.6106870229007634,1.5114503816793894,-0.6564885496183206,-0.452880859375,0.000732421875,-0.227294921875,1.0472
-0.9007633587786259,1.618320610687023,-0.6412213740458015,-0.455810546875,0.0029296875,-0.218994140625,1.0489
-1.1755725190839694,1.465648854961832,-0.7633587786259542,-0.455078125,0.001708984375,-0.219970703125,1.0506
-1.099236641221374,1.465648854961832,-0.8549618320610687,-0.4580078125,0.004638671875,-0.220458984375,1.0523
-0.9007633587786259,1.4809160305343512,-0.7786259541984732,-0.4521484375,0.0029296875,-0.216552734375,1.054
-1.1145038167938932,1.3587786259541985,-0.8396946564885496,-0.451416015625,0.001953125,-0.21875,1.0556999999999999
-0.9465648854961832,1.3282442748091603,-0.9770992366412213,-0.453369140625,0.0,-0.209716796875,1.0574
-1.0534351145038168,1.282442748091603,-0.9618320610687023,-0.453369140625,0.0009765625,-0.222412109375,1.0591
-0.9465648854961832,1.465648854961832,-0.9312977099236641,-0.45703125,0.004150390625,-0.226806640625,1.0608
-0.9618320610687023,1.3129770992366412,-1.083969465648855,-0.45947265625,0.002197265625,-0.218505859375,1.0625
-1.1297709923664123,1.2366412213740459,-0.916030534351145,-0.4560546875,0.001953125,-0.2109375,1.0642
-1.0381679389312977,1.4351145038167938,-0.9465648854961832,-0.4541015625,0.0029296875,-0.213623046875,1.0658999999999998
-0.8396946564885496,1.3893129770992367,-1.0534351145038168,-0.453857421875,0.00732421875,-0.21875,1.0675999999999999
-1.0229007633587786,1.450381679389313,-1.0534351145038168,-0.457275390625,0.004638671875,-0.21875,1.0693
-0.916030534351145,1.3282442748091603,-0.8549618320610687,-0.45703125,0.006591796875,-0.21435546875,1.071
-1.083969465648855,1.4198473282442747,-0.9465648854961832,-0.455078125,0.004150390625,-0.217041015625,1.0727
-0.9618320610687023,1.5114503816793894,-0.9923664122137404,-0.4609375,0.005126953125,-0.22119140625,1.0744
-0.8854961832061069,1.4351145038167938,-1.083969465648855,-0.456787109375,0.01025390625,-0.219482421875,1.0760999999999998
-0.7786259541984732,1.4961832061068703,-0.8091603053435115,-0.45458984375,0.00634765625,-0.21728515625,1.0777999999999999
-0.7022900763358778,1.618320610687023,-0.9465648854961832,-0.455810546875,0.006103515625,-0.223388671875,1.0795
-0.7480916030534351,1.7709923664122138,-0.9618320610687023,-0.4560546875,0.001953125,-0.20556640625,1.0812
-0.6564885496183206,1.3435114503816794,-1.0381679389312977,-0.460205078125,0.00634765625,-0.219970703125,1.0829
-0.7938931297709924,1.450381679389313,-0.7786259541984732,-0.461181640625,0.01025390625,-0.224853515625,1.0846
-0.7480916030534351,1.450381679389313,-0.8396946564885496,-0.454833984375,0.006591796875,-0.2236328125,1.0863
-0.6564885496183206,1.7099236641221374,-0.7480916030534351,-0.458251953125,0.001708984375,-0.218505859375,1.0879999999999999
-0.6717557251908397,1.3282442748091603,-0.9312977099236641,-0.455322265625,0.00390625,-0.220703125,1.0897
-0.5038167938931297,1.3893129770992367,-0.7175572519083969,-0.4521484375,0.007568359375,-0.224609375,1.0914
-0.4580152671755725,1.465648854961832,-0.8854961832061069,-0.45458984375,0.0087890625,-0.217529296875,1.0931
-0.2900763358778626,1.5572519083969465,-1.0076335877862594,-0.45361328125,0.007568359375,-0.221923828125,1.0948
-0.24427480916030533,1.4961832061068703,-1.0076335877862594,-0.455322265625,0.006103515625,-0.21630859375,1.0965
-0.16793893129770993,1.4961832061068703,-0.8702290076335878,-0.451904296875,0.006591796875,-0.218994140625,1.0981999999999998
-0.12213740458015267,1.5419847328244274,-1.0229007633587786,-0.458984375,0.007080078125,-0.213623046875,1.0998999999999999
-0.10687022900763359,1.4198473282442747,-0.9007633587786259,-0.461181640625,0.006591796875,-0.222900390625,1.1016
0.061068702290076333,1.5725190839694656,-0.8549618320610687,-0.45166015625,0.009765625,-0.215087890625,1.1033
0.04580152671755725,1.7404580152671756,-0.8854961832061069,-0.454833984375,0.014892578125,-0.217529296875,1.105
0.32061068702290074,1.5114503816793894,-1.0229007633587786,-0.454345703125,0.012451171875,-0.21875,1.1067
0.3511450381679389,1.6641221374045803,-0.8854961832061069,-0.454833984375,0.0068359375,-0.21728515625,1.1083999999999998
0.2595419847328244,1.5877862595419847,-1.0381679389312977,-0.451904296875,0.0078125,-0.22119140625,1.1100999999999999
0.48854961832061067,1.6793893129770991,-1.099236641221374,-0.45458984375,0.0087890625,-0.221923828125,1.1118
0.7480916030534351,1.465648854961832,-1.0076335877862594,-0.453369140625,0.00732421875,-0.220703125,1.1135
0.6412213740458015,1.5419847328244274,-0.9007633587786259,-0.45654296875,0.010498046875,-0.22119140625,1.1152
0.7480916030534351,1.4809160305343512,-1.0381679389312977,-0.45263671875,0.009033203125,-0.220947265625,1.1169
0.9312977099236641,1.3740458015267176,-0.9312977099236641,-0.4541015625,0.00927734375,-0.220703125,1.1186
0.9312977099236641,1.3893129770992367,-1.1297709923664123,-0.4560546875,0.01025390625,-0.21337890625,1.1202999999999999
0.8854961832061069,1.4961832061068703,-1.099236641221374,-0.455810546875,0.010986328125,-0.221923828125,1.1219999999999999
1.083969465648855,1.5419847328244274,-1.2213740458015268,-0.4541015625,0.007080078125,-0.220458984375,1.1237
1.297709923664122,1.450381679389313,-1.0076335877862594,-0.455322265625,0.01025390625,-0.214599609375,1.1254
1.4045801526717556,1.5267175572519085,-1.1450381679389312,-0.455810546875,0.005859375,-0.218994140625,1.1271
1.251908396946565,1.5572519083969465,-1.0076335877862594,-0.459228515625,0.012451171875,-0.21484375,1.1288
1.450381679389313,1.5114503816793894,-1.0534351145038168,-0.455810546875,0.00830078125,-0.219970703125,1.1304999999999998
1.4045801526717556,1.5877862595419847,-1.0687022900763359,-0.454345703125,0.00439453125,-0.21728515625,1.1321999999999999
1.7404580152671756,1.5419847328244274,-1.297709923664122,-0.4541015625,0.0068359375,-0.21337890625,1.1339
1.7709923664122138,1.5419847328244274,-1.1603053435114503,-0.45849609375,0.008056640625,-0.215087890625,1.1356
1.6793893129770991,1.4198473282442747,-1.083969465648855,-0.458984375,0.00830078125,-0.214599609375,1.1373
1.9694656488549618,1.5419847328244274,-1.297709923664122,-0.4580078125,0.007568359375,-0.2177734375,1.139
2.1374045801526718,1.4351145038167938,-1.2366412213740459,-0.4560546875,0.0087890625,-0.2177734375,1.1407
1.8015267175572518,1.465648854961832,-1.0076335877862594,-0.455322265625,0.00439453125,-0.21533203125,1.1423999999999999
1.9236641221374047,1.5267175572519085,-1.1908396946564885,-0.453125,0.01123046875,-0.21923828125,1.1441
2.045801526717557,1.4351145038167938,-1.1145038167938932,-0.4541015625,0.010009765625,-0.217041015625,1.1458
2.045801526717557,1.5419847328244274,-0.9618320610687023,-0.45703125,0.003662109375,-0.21533203125,1.1475
2.0610687022900764,1.251908396946565,-1.099236641221374,-0.45703125,0.005859375,-0.218994140625,1.1492
2.030534351145038,1.282442748091603,-1.1145038167938932,-0.45263671875,0.005126953125,-0.218505859375,1.1509
2.3053435114503817,1.3893129770992367,-1.0076335877862594,-0.451171875,0.0087890625,-0.21630859375,1.1525999999999998
2.1526717557251906,1.297709923664122,-1.1755725190839694,-0.452880859375,0.00146484375,-0.223876953125,1.1542999999999999
2.3053435114503817,1.2671755725190839,-1.0076335877862594,-0.454345703125,0.009521484375,-0.209228515625,1.156
2.213740458015267,1.3587786259541985,-1.0381679389312977,-0.453857421875,0.011962890625,-0.21435546875,1.1577
2.4427480916030535,1.3282442748091603,-1.0534351145038168,-0.453857421875,0.009765625,-0.215576171875,1.1594
2.3206106870229006,1.2671755725190839,-1.2061068702290076,-0.45263671875,0.0048828125,-0.225341796875,1.1611
2.3969465648854964,1.3893129770992367,-0.9007633587786259,-0.453369140625,0.00439453125,-0.221923828125,1.1627999999999998
2.381679389312977,1.1450381679389312,-1.0687022900763359,-0.457275390625,0.006591796875,-0.217529296875,1.1644999999999999
2.519083969465649,1.282442748091603,-1.1908396946564885,-0.45263671875,0.007568359375,-0.220947265625,1.1662
2.381679389312977,1.2366412213740459,-1.1297709923664123,-0.454833984375,0.00341796875,-0.22021484375,1.1679
2.351145038167939,1.0534351145038168,-0.9465648854961832,-0.460205078125,0.007568359375,-0.221923828125,1.1696
2.1526717557251906,1.0076335877862594,-1.0534351145038168,-0.46142578125,0.00341796875,-0.208740234375,1.1713
2.183206106870229,1.0229007633587786,-0.9312977099236641,-0.4580078125,0.005126953125,-0.21240234375,1.173
2.2595419847328246,1.0534351145038168,-0.8396946564885496,-0.45556640625,0.002685546875,-0.213623046875,1.1746999999999999
2.3053435114503817,1.1603053435114503,-0.7175572519083969,-0.456298828125,0.004150390625,-0.217529296875,1.1764
2.0916030534351147,1.0687022900763359,-0.9923664122137404,-0.4560546875,-0.0009765625,-0.224609375,1.1781
2.381679389312977,1.099236641221374,-0.916030534351145,-0.4560546875,0.005126953125,-0.223876953125,1.1798
2.3206106870229006,1.099236641221374,-1.0229007633587786,-0.454833984375,0.0,-0.219482421875,1.1815
2.030534351145038,1.0687022900763359,-0.9618320610687023,-0.456298828125,-0.00439453125,-0.213623046875,1.1832
2.122137404580153,1.1603053435114503,-0.9770992366412213,-0.455810546875,0.000732421875,-0.220703125,1.1848999999999998
2.2442748091603053,1.0687022900763359,-0.9770992366412213,-0.455810546875,0.004150390625,-0.219970703125,1.1865999999999999
2.045801526717557,1.1603053435114503,-1.1603053435114503,-0.45654296875,0.004638671875,-0.2255859375,1.1883
2.122137404580153,0.9618320610687023,-0.9923664122137404,-0.459716796875,0.0029296875,-0.220458984375,1.19
2.0,0.9923664122137404,-1.1145038167938932,-0.45166015625,0.002197265625,-0.22216796875,1.1917
1.9694656488549618,1.2366412213740459,-1.2366412213740459,-0.45703125,0.00634765625,-0.2216796875,1.1934
2.030534351145038,1.1297709923664123,-1.282442748091603,-0.4560546875,0.0087890625,-0.21484375,1.1950999999999998
1.9541984732824427,1.0534351145038168,-1.1450381679389312,-0.454833984375,0.0087890625,-0.217041015625,1.1967999999999999
1.8015267175572518,1.0229007633587786,-1.0687022900763359,-0.4560546875,0.003173828125,-0.214599609375,1.1985
1.7099236641221374,1.0229007633587786,-1.1908396946564885,-0.452880859375,0.00048828125,-0.224853515625,1.2002
1.8931297709923665,1.083969465648855,-1.282442748091603,-0.45654296875,-0.000244140625,-0.221923828125,1.2019
1.6793893129770991,0.9770992366412213,-1.2061068702290076,-0.449462890625,0.00390625,-0.21533203125,1.2036
1.8473282442748091,0.9923664122137404,-1.251908396946565,-0.45947265625,-0.00048828125,-0.21484375,1.2053
1.7557251908396947,1.0687022900763359,-1.1145038167938932,-0.4599609375,-0.001953125,-0.22314453125,1.2069999999999999
1.5114503816793894,1.1603053435114503,-1.099236641221374,-0.455078125,0.001708984375,-0.212890625,1.2086999999999999
1.6488549618320612,1.1145038167938932,-1.1755725190839694,-0.453125,-0.00244140625,-0.22412109375,1.2104
1.6030534351145038,1.2213740458015268,-1.4045801526717556,-0.453857421875,0.000732421875,-0.215576171875,1.2121
1.297709923664122,1.0381679389312977,-1.2213740458015268,-0.45068359375,0.005126953125,-0.222412109375,1.2138
1.4809160305343512,1.3435114503816794,-1.1755725190839694,-0.455322265625,0.000244140625,-0.222412109375,1.2155
1.3282442748091603,1.1450381679389312,-1.0687022900763359,-0.456298828125,0.004150390625,-0.22216796875,1.2171999999999998
1.2671755725190839,1.1908396946564885,-1.1450381679389312,-0.45654296875,0.006103515625,-0.218994140625,1.2188999999999999
1.1297709923664123,1.2061068702290076,-1.1908396946564885,-0.45166015625,0.001953125,-0.216064453125,1.2206
1.0229007633587786,1.1755725190839694,-1.3435114503816794,-0.460205078125,0.00146484375,-0.228271484375,1.2223
1.2061068702290076,1.4351145038167938,-1.2061068702290076,-0.45849609375,-0.00146484375,-0.219482421875,1.224
1.0381679389312977,1.2671755725190839,-1.4045801526717556,-0.458740234375,0.000244140625,-0.219482421875,1.2257
0.7175572519083969,1.3282442748091603,-1.2061068702290076,-0.45849609375,0.004638671875,-0.221435546875,1.2273999999999998
0.9007633587786259,1.465648854961832,-1.1755725190839694,-0.461669921875,0.001708984375,-0.2177734375,1.2290999999999999
1.0076335877862594,1.3282442748091603,-1.3129770992366412,-0.457763671875,0.0029296875,-0.22119140625,1.2308
0.7938931297709924,1.297709923664122,-1.3587786259541985,-0.45654296875,0.0029296875,-0.218505859375,1.2325
0.9923664122137404,1.3893129770992367,-1.2213740458015268,-0.455810546875,0.005126953125,-0.215576171875,1.2342
0.8244274809160306,1.4809160305343512,-1.251908396946565,-0.455078125,0.005126953125,-0.213134765625,1.2359
0.5954198473282443,1.3740458015267176,-1.1908396946564885,-0.456787109375,0.00341796875,-0.218017578125,1.2376
0.7480916030534351,1.3587786259541985,-1.1297709923664123,-0.45458984375,0.0029296875,-0.218017578125,1.2392999999999998
0.32061068702290074,1.465648854961832,-1.3435114503816794,-0.456787109375,0.007080078125,-0.211669921875,1.2409999999999999
0.5648854961832062,1.450381679389313,-1.3435114503816794,-0.45751953125,0.001953125,-0.220458984375,1.2427
0.5801526717557252,1.5572519083969465,-1.3740458015267176,-0.451904296875,0.002197265625,-0.21533203125,1.2444
0.6259541984732825,1.6488549618320612,-1.4045801526717556,-0.457275390625,0.002685546875,-0.220458984375,1.2461
0.42748091603053434,1.3740458015267176,-1.4045801526717556,-0.45556640625,0.004638671875,-0.2119140625,1.2478
0.4580152671755725,1.5877862595419847,-1.4045801526717556,-0.45654296875,0.006103515625,-0.217041015625,1.2494999999999998
0.3053435114503817,1.4045801526717556,-1.3435114503816794,-0.458984375,0.006591796875,-0.213623046875,1.2511999999999999
0.5038167938931297,1.5572519083969465,-1.251908396946565,-0.4560546875,-0.000244140625,-0.222900390625,1.2529
0.2748091603053435,1.6641221374045803,-1.2671755725190839,-0.457763671875,0.002685546875,-0.214599609375,1.2546
0.2748091603053435,1.4809160305343512,-1.4045801526717556,-0.459716796875,0.006103515625,-0.22021484375,1.2563
0.07633587786259542,1.8015267175572518,-1.1603053435114503,-0.45849609375,0.00732421875,-0.223876953125,1.258
0.22900763358778625,1.6030534351145038,-1.251908396946565,-0.454345703125,-0.001953125,-0.22265625,1.2596999999999998
0.2595419847328244,1.6030534351145038,-1.4351145038167938,-0.457763671875,0.005615234375,-0.223876953125,1.2613999999999999
0.3816793893129771,1.633587786259542,-1.2061068702290076,-0.459716796875,0.004150390625,-0.217041015625,1.2631
0.15267175572519084,1.7099236641221374,-1.2366412213740459,-0.4521484375,0.006591796875,-0.215087890625,1.2648
0.0916030534351145,1.7709923664122138,-1.3282442748091603,-0.457275390625,0.002685546875,-0.22314453125,1.2665
0.10687022900763359,1.6641221374045803,-1.3893129770992367,-0.456787109375,0.001953125,-0.228515625,1.2682
-0.030534351145038167,1.6641221374045803,-1.1145038167938932,-0.45556640625,0.002197265625,-0.213134765625,1.2699
0.22900763358778625,1.83206106870229,-1.3587786259541985,-0.456298828125,0.0029296875,-0.219970703125,1.2715999999999998
0.10687022900763359,1.8015267175572518,-1.3129770992366412,-0.460205078125,-0.001708984375,-0.21923828125,1.2732999999999999
-0.030534351145038167,1.633587786259542,-1.282442748091603,-0.45654296875,0.00244140625,-0.2216796875,1.275
0.015267175572519083,1.83206106870229,-1.2061068702290076,-0.45166015625,0.00048828125,-0.222412109375,1.2767
0.10687022900763359,1.8015267175572518,-1.3893129770992367,-0.4541015625,0.00439453125,-0.21044921875,1.2784
-0.04580152671755725,1.786259541984733,-1.3129770992366412,-0.4521484375,0.003662109375,-0.212158203125,1.2801
-0.030534351145038167,1.7709923664122138,-1.4198473282442747,-0.45751953125,0.002197265625,-0.224365234375,1.2817999999999998
0.04580152671755725,1.7557251908396947,-1.2671755725190839,-0.452880859375,0.00048828125,-0.22314453125,1.2834999999999999
0.1984732824427481,1.8778625954198473,-1.4351145038167938,-0.451904296875,0.00537109375,-0.223388671875,1.2852
0.24427480916030533,1.9083969465648856,-1.3282442748091603,-0.4560546875,0.010009765625,-0.21875,1.2869
0.0916030534351145,1.8015267175572518,-1.3282442748091603,-0.455078125,0.001220703125,-0.226806640625,1.2886
0.04580152671755725,1.7099236641221374,-1.3282442748091603,-0.458740234375,0.00048828125,-0.22119140625,1.2903
0.0916030534351145,1.7404580152671756,-1.3435114503816794,-0.45458984375,0.001220703125,-0.21533203125,1.292
0.16793893129770993,2.122137404580153,-1.2366412213740459,-0.453369140625,0.00390625,-0.223388671875,1.2936999999999999
0.3053435114503817,1.6641221374045803,-1.4198473282442747,-0.457763671875,0.005126953125,-0.228515625,1.2953999999999999
0.1984732824427481,1.7404580152671756,-1.2366412213740459,-0.453125,0.005859375,-0.225341796875,1.2971
0.3969465648854962,1.6946564885496183,-1.450381679389313,-0.455322265625,0.0029296875,-0.21630859375,1.2988
0.33587786259541985,1.633587786259542,-1.2213740458015268,-0.454345703125,0.010498046875,-0.219970703125,1.3005
0.2748091603053435,1.7404580152671756,-1.4809160305343512,-0.452880859375,0.0087890625,-0.2197265625,1.3022
0.3969465648854962,1.6793893129770991,-1.3740458015267176,-0.453125,0.01025390625,-0.219482421875,1.3038999999999998
0.2595419847328244,1.618320610687023,-1.4198473282442747,-0.456298828125,0.006103515625,-0.218505859375,1.3055999999999999
0.5038167938931297,1.6641221374045803,-1.3893129770992367,-0.452392578125,0.005126953125,-0.223388671875,1.3073
0.42748091603053434,1.5877862595419847,-1.4961832061068703,-0.4580078125,0.00732421875,-0.21240234375,1.309
0.6564885496183206,1.6946564885496183,-1.282442748091603,-0.455322265625,0.004638671875,-0.219482421875,1.3107
0.6259541984732825,1.6946564885496183,-1.3587786259541985,-0.451171875,0.0048828125,-0.2158203125,1.3124
0.6106870229007634,1.7557251908396947,-1.3129770992366412,-0.45361328125,0.009765625,-0.217529296875,1.3140999999999998
0.5190839694656488,1.7251908396946565,-1.5877862595419847,-0.450927734375,0.001953125,-0.220703125,1.3157999999999999
0.6412213740458015,1.7099236641221374,-1.282442748091603,-0.458251953125,0.005126953125,-0.220703125,1.3175
0.7022900763358778,1.7251908396946565,-1.1908396946564885,-0.451904296875,0.00830078125,-0.217041015625,1.3192
0.7633587786259542,1.6641221374045803,-1.2061068702290076,-0.45361328125,0.00537109375,-0.21826171875,1.3209
0.7633587786259542,1.83206106870229,-1.1297709923664123,-0.451171875,0.00341796875,-0.21923828125,1.3226
0.8091603053435115,1.8625954198473282,-1.282442748091603,-0.4560546875,0.005126953125,-0.21630859375,1.3243
0.9923664122137404,1.7251908396946565,-1.297709923664122,-0.453125,0.005615234375,-0.212646484375,1.3259999999999998
1.0534351145038168,1.786259541984733,-1.0534351145038168,-0.456787109375,0.00537109375,-0.215087890625,1.3276999999999999
0.9465648854961832,1.6030534351145038,-1.1755725190839694,-0.455322265625,0.009765625,-0.211669921875,1.3294
0.9770992366412213,1.7099236641221374,-1.1603053435114503,-0.457763671875,0.01025390625,-0.213623046875,1.3311
0.9770992366412213,1.8778625954198473,-1.282442748091603,-0.457275390625,0.010498046875,-0.22021484375,1.3328
1.1603053435114503,1.7404580152671756,-1.1145038167938932,-0.45458984375,0.00634765625,-0.2265625,1.3345
1.1603053435114503,1.6793893129770991,-1.0687022900763359,-0.455078125,0.003662109375,-0.2216796875,1.3361999999999998
1.1297709923664123,1.8473282442748091,-0.9007633587786259,-0.4599609375,0.00732421875,-0.22314453125,1.3378999999999999
1.1908396946564885,1.8015267175572518,-1.251908396946565,-0.453125,0.0087890625,-0.218994140625,1.3396
1.1603053435114503,1.83206106870229,-1.0687022900763359,-0.454833984375,0.006591796875,-0.22021484375,1.3413
1.282442748091603,1.786259541984733,-1.1755725190839694,-0.45751953125,0.00390625,-0.224853515625,1.343
1.282442748091603,1.9083969465648856,-0.916030534351145,-0.4580078125,0.004638671875,-0.21630859375,1.3447
1.465648854961832,2.045801526717557,-0.9770992366412213,-0.4599609375,0.008056640625,-0.218505859375,1.3463999999999998
1.465648854961832,1.9236641221374047,-1.251908396946565,-0.459228515625,0.006591796875,-0.216064453125,1.3480999999999999
1.5572519083969465,1.786259541984733,-1.1297709923664123,-0.453125,0.007080078125,-0.220703125,1.3497999999999999
1.3435114503816794,1.7099236641221374,-1.0076335877862594,-0.45556640625,0.004150390625,-0.214111328125,1.3515
1.618320610687023,1.6488549618320612,-1.1603053435114503,-0.451416015625,0.00634765625,-0.223388671875,1.3532
1.5572519083969465,1.7404580152671756,-1.0229007633587786,-0.452392578125,0.005126953125,-0.228271484375,1.3549
1.6488549618320612,1.7557251908396947,-1.1297709923664123,-0.454345703125,0.006591796875,-0.21484375,1.3566
1.7709923664122138,1.6641221374045803,-0.8702290076335878,-0.459228515625,0.00146484375,-0.218505859375,1.3582999999999998
1.5725190839694656,1.8778625954198473,-1.0381679389312977,-0.455322265625,0.00634765625,-0.217041015625,1.3599999999999999
1.6030534351145038,1.8625954198473282,-1.2061068702290076,-0.45703125,0.005126953125,-0.21826171875,1.3617
1.6793893129770991,1.9389312977099236,-1.0076335877862594,-0.45703125,0.00537109375,-0.222412109375,1.3634
1.6030534351145038,2.1374045801526718,-0.916030534351145,-0.458740234375,0.0,-0.22314453125,1.3651
1.618320610687023,1.9694656488549618,-1.2061068702290076,-0.45703125,0.002685546875,-0.2255859375,1.3668
1.7251908396946565,1.7251908396946565,-1.0534351145038168,-0.4521484375,0.005615234375,-0.224609375,1.3684999999999998
1.816793893129771,1.9083969465648856,-1.282442748091603,-0.453125,0.007080078125,-0.220703125,1.3701999999999999
1.7251908396946565,1.786259541984733,-1.0687022900763359,-0.455810546875,0.003662109375,-0.220947265625,1.3719
1.7709923664122138,1.9236641221374047,-1.099236641221374,-0.453857421875,0.003662109375,-0.21533203125,1.3736
1.7099236641221374,1.9694656488549618,-0.9618320610687023,-0.4560546875,0.00634765625,-0.22021484375,1.3753
1.9236641221374047,1.9694656488549618,-1.0687022900763359,-0.4580078125,0.003662109375,-0.224365234375,1.377
1.786259541984733,1.9389312977099236,-0.9465648854961832,-0.455322265625,0.002685546875,-0.21826171875,1.3786999999999998
1.8931297709923665,1.7557251908396947,-1.1450381679389312,-0.455322265625,0.000732421875,-0.220947265625,1.3803999999999998
1.7099236641221374,1.9541984732824427,-1.0229007633587786,-0.455322265625,0.0087890625,-0.223876953125,1.3820999999999999
1.6793893129770991,1.9694656488549618,-1.2061068702290076,-0.45263671875,0.009765625,-0.220947265625,1.3838
1.8015267175572518,1.9083969465648856,-1.1145038167938932,-0.457763671875,0.0078125,-0.2216796875,1.3855
1.8015267175572518,1.9541984732824427,-1.251908396946565,-0.459716796875,0.00390625,-0.22021484375,1.3872
1.5419847328244274,1.9389312977099236,-1.0534351145038168,-0.45361328125,0.005126953125,-0.2236328125,1.3889
1.5572519083969465,1.9389312977099236,-1.0687022900763359,-0.455322265625,0.005126953125,-0.215576171875,1.3905999999999998
1.7099236641221374,2.030534351145038,-1.0076335877862594,-0.45166015625,0.00048828125,-0.22119140625,1.3922999999999999
1.7709923664122138,1.8931297709923665,-1.083969465648855,-0.450927734375,0.005615234375,-0.21337890625,1.394
1.5267175572519085,2.030534351145038,-1.1755725190839694,-0.45556640625,0.0078125,-0.217041015625,1.3957
1.465648854961832,2.183206106870229,-1.2671755725190839,-0.45556640625,0.005126953125,-0.2177734375,1.3974
1.5725190839694656,1.9389312977099236,-1.2671755725190839,-0.456298828125,0.00439453125,-0.220947265625,1.3991
1.633587786259542,2.1526717557251906,-1.1145038167938932,-0.45361328125,0.009521484375,-0.22509765625,1.4007999999999998
1.5572519083969465,2.015267175572519,-1.2213740458015268,-0.457275390625,0.005615234375,-0.224365234375,1.4024999999999999
1.6793893129770991,1.9083969465648856,-1.1145038167938932,-0.454833984375,-0.0009765625,-0.219482421875,1.4042
1.3129770992366412,1.9083969465648856,-1.0534351145038168,-0.456787109375,0.009033203125,-0.21826171875,1.4059
1.3282442748091603,1.984732824427481,-1.2366412213740459,-0.453125,0.0048828125,-0.224609375,1.4076
1.4961832061068703,2.0610687022900764,-1.2213740458015268,-0.4501953125,0.00146484375,-0.218994140625,1.4093
1.465648854961832,1.9083969465648856,-1.3129770992366412,-0.45703125,0.009521484375,-0.220458984375,1.411
1.3740458015267176,2.1374045801526718,-1.2671755725190839,-0.4560546875,0.0048828125,-0.2216796875,1.4126999999999998
1.4198473282442747,2.0610687022900764,-1.1603053435114503,-0.45556640625,0.000244140625,-0.218505859375,1.4143999999999999
0.9465648854961832,1.8931297709923665,-1.3587786259541985,-0.45751953125,-0.002685546875,-0.22900390625,1.4161
1.4351145038167938,2.030534351145038,-1.465648854961832,-0.450439453125,-0.004150390625,-0.2158203125,1.4178
1.4351145038167938,2.045801526717557,-1.3893129770992367,-0.453125,0.004150390625,-0.223876953125,1.4195
1.2671755725190839,2.122137404580153,-1.3129770992366412,-0.4580078125,0.00439453125,-0.22998046875,1.4212
1.1908396946564885,2.030534351145038,-1.2671755725190839,-0.45751953125,0.00390625,-0.22802734375,1.4228999999999998
1.1603053435114503,2.16793893129771,-1.2366412213740459,-0.458251953125,0.002197265625,-0.228759765625,1.4245999999999999
0.9312977099236641,2.213740458015267,-1.3893129770992367,-0.44921875,0.00634765625,-0.224853515625,1.4263
1.1145038167938932,1.8931297709923665,-1.2671755725190839,-0.45361328125,0.001220703125,-0.223876953125,1.428
1.1145038167938932,2.0610687022900764,-1.2366412213740459,-0.45654296875,0.002197265625,-0.21728515625,1.4297
0.9618320610687023,2.183206106870229,-1.4198473282442747,-0.45263671875,0.0,-0.225341796875,1.4314
1.0534351145038168,2.015267175572519,-1.3587786259541985,-0.462646484375,0.00341796875,-0.219482421875,1.4330999999999998
0.9770992366412213,1.786259541984733,-1.251908396946565,-0.451171875,0.005859375,-0.219970703125,1.4347999999999999
1.0381679389312977,2.0,-1.5267175572519085,-0.452880859375,0.006591796875,-0.2275390625,1.4364999999999999
0.9770992366412213,2.0916030534351147,-1.450381679389313,-0.45458984375,0.000732421875,-0.22412109375,1.4382
1.0534351145038168,1.786259541984733,-1.450381679389313,-0.449951171875,-0.001220703125,-0.21875,1.4399
0.9312977099236641,2.030534351145038,-1.3282442748091603,-0.448974609375,-0.00244140625,-0.216796875,1.4416
0.6717557251908397,2.030534351145038,-1.4809160305343512,-0.451171875,0.001220703125,-0.220947265625,1.4433
1.0229007633587786,1.9389312977099236,-1.4809160305343512,-0.45947265625,0.0009765625,-0.221435546875,1.4449999999999998
0.9923664122137404,1.8015267175572518,-1.7099236641221374,-0.4521484375,0.002685546875,-0.224365234375,1.4466999999999999
0.7175572519083969,1.9083969465648856,-1.465648854961832,-0.453125,0.000732421875,-0.220458984375,1.4484
0.6870229007633588,2.015267175572519,-1.4198473282442747,-0.457763671875,0.0078125,-0.216552734375,1.4501
0.7175572519083969,1.816793893129771,-1.3282442748091603,-0.453857421875,0.0029296875,-0.21875,1.4518
0.7786259541984732,2.045801526717557,-1.5114503816793894,-0.45361328125,0.0029296875,-0.22119140625,1.4535
0.7633587786259542,1.7709923664122138,-1.3893129770992367,-0.456787109375,0.007568359375,-0.223388671875,1.4551999999999998
0.549618320610687,1.8778625954198473,-1.5572519083969465,-0.452392578125,0.001708984375,-0.21630859375,1.4568999999999999
0.5954198473282443,1.8625954198473282,-1.5877862595419847,-0.45556640625,0.001708984375,-0.22021484375,1.4586
0.9007633587786259,1.8778625954198473,-1.3893129770992367,-0.453857421875,0.005615234375,-0.2255859375,1.4603
0.6106870229007634,1.6793893129770991,-1.450381679389313,-0.45654296875,0.00048828125,-0.21826171875,1.462
0.5038167938931297,1.7251908396946565,-1.3740458015267176,-0.4521484375,-0.000244140625,-0.218994140625,1.4637
0.8396946564885496,1.6946564885496183,-1.5114503816793894,-0.4599609375,0.00146484375,-0.22314453125,1.4653999999999998
0.732824427480916,1.6793893129770991,-1.4809160305343512,-0.46240234375,0.0009765625,-0.2265625,1.4670999999999998
0.3511450381679389,1.7557251908396947,-1.5267175572519085,-0.4560546875,0.00439453125,-0.2177734375,1.4687999999999999
0.6106870229007634,1.7404580152671756,-1.5725190839694656,-0.45458984375,0.004638671875,-0.22021484375,1.4705
0.8549618320610687,1.7404580152671756,-1.4351145038167938,-0.456298828125,0.014892578125,-0.218505859375,1.4722
0.7480916030534351,1.7557251908396947,-1.4045801526717556,-0.450927734375,0.007568359375,-0.223388671875,1.4739
0.5343511450381679,1.7557251908396947,-1.4961832061068703,-0.453125,0.008056640625,-0.22705078125,1.4756
0.8702290076335878,1.6793893129770991,-1.4045801526717556,-0.456787109375,0.01025390625,-0.223876953125,1.4772999999999998
0.7633587786259542,1.5572519083969465,-1.3129770992366412,-0.45361328125,0.00341796875,-0.220703125,1.4789999999999999
0.6259541984732825,1.6030534351145038,-1.4198473282442747,-0.453125,0.0029296875,-0.229248046875,1.4807
0.5801526717557252,1.786259541984733,-1.5419847328244274,-0.451416015625,0.003662109375,-0.21142578125,1.4824
0.732824427480916,1.618320610687023,-1.4961832061068703,-0.452880859375,0.006103515625,-0.220458984375,1.4841
0.8091603053435115,1.5267175572519085,-1.3893129770992367,-0.45263671875,0.009033203125,-0.22021484375,1.4858
0.6717557251908397,1.618320610687023,-1.5114503816793894,-0.453125,0.008056640625,-0.216796875,1.4874999999999998
0.7633587786259542,1.6030534351145038,-1.465648854961832,-0.4560546875,0.006103515625,-0.22314453125,1.4891999999999999
0.8549618320610687,1.5725190839694656,-1.5114503816793894,-0.450439453125,0.00634765625,-0.22119140625,1.4909
0.6412213740458015,1.4198473282442747,-1.3129770992366412,-0.45458984375,0.00390625,-0.22119140625,1.4926
0.7938931297709924,1.465648854961832,-1.6030534351145038,-0.45556640625,0.005615234375,-0.221923828125,1.4943
0.7633587786259542,1.5114503816793894,-1.450381679389313,-0.4521484375,0.008544921875,-0.217041015625,1.496
0.7633587786259542,1.3740458015267176,-1.4351145038167938,-0.451416015625,0.005126953125,-0.218017578125,1.4976999999999998
0.8549618320610687,1.297709923664122,-1.450381679389313,-0.44921875,0.00634765625,-0.220458984375,1.4993999999999998
0.8854961832061069,1.4351145038167938,-1.450381679389313,-0.45654296875,0.006591796875,-0.220947265625,1.5010999999999999
0.7786259541984732,1.3740458015267176,-1.3435114503816794,-0.452880859375,0.005615234375,-0.219970703125,1.5028
0.8702290076335878,1.3282442748091603,-1.5267175572519085,-0.457763671875,0.00537109375,-0.216064453125,1.5045
1.2366412213740459,1.251908396946565,-1.099236641221374,-0.4541015625,0.00390625,-0.219970703125,1.5062
0.9770992366412213,1.0687022900763359,-1.4045801526717556,-0.455078125,0.0078125,-0.221435546875,1.5079
0.8091603053435115,1.2671755725190839,-1.3893129770992367,-0.457763671875,0.010009765625,-0.21044921875,1.5095999999999998
1.251908396946565,1.3893129770992367,-1.3282442748091603,-0.456298828125,0.006103515625,-0.222900390625,1.5112999999999999
0.9923664122137404,1.1145038167938932,-1.1603053435114503,-0.45556640625,0.0068359375,-0.2255859375,1.513
1.0229007633587786,1.4045801526717556,-1.2213740458015268,-0.45556640625,0.006103515625,-0.22021484375,1.5147
1.2061068702290076,1.3587786259541985,-1.251908396946565,-0.448486328125,0.00390625,-0.2158203125,1.5164
1.2061068702290076,1.2366412213740459,-1.282442748091603,-0.453125,-0.00048828125,-0.218994140625,1.5181
1.0381679389312977,1.1603053435114503,-1.2213740458015268,-0.451416015625,0.00439453125,-0.21435546875,1.5197999999999998
1.0076335877862594,1.1603053435114503,-1.1145038167938932,-0.451904296875,0.00732421875,-0.224365234375,1.5214999999999999
1.1908396946564885,1.1297709923664123,-1.0687022900763359,-0.45703125,0.00341796875,-0.220458984375,1.5231999999999999
1.2366412213740459,1.0381679389312977,-1.2366412213740459,-0.45458984375,0.00537109375,-0.21875,1.5249
1.4351145038167938,1.251908396946565,-0.9923664122137404,-0.453857421875,0.003173828125,-0.23095703125,1.5266
1.2061068702290076,1.282442748091603,-1.2213740458015268,-0.45703125,0.0029296875,-0.220458984375,1.5283
1.2671755725190839,1.1908396946564885,-1.0687022900763359,-0.462890625,0.00634765625,-0.22265625,1.5299999999999998
1.251908396946565,1.1603053435114503,-1.1297709923664123,-0.46142578125,0.005859375,-0.2275390625,1.5316999999999998
1.2366412213740459,1.1603053435114503,-1.1603053435114503,-0.4619140625,0.00634765625,-0.22705078125,1.5333999999999999
1.2213740458015268,1.1145038167938932,-0.9770992366412213,-0.45654296875,0.00341796875,-0.228515625,1.5351
1.3893129770992367,1.3740458015267176,-1.0076335877862594,-0.458251953125,0.0048828125,-0.227783203125,1.5368
1.3893129770992367,1.5419847328244274,-1.0534351145038168,-0.456787109375,0.009521484375,-0.224365234375,1.5385
1.3587786259541985,1.3435114503816794,-0.916030534351145,-0.460205078125,0.010498046875,-0.221435546875,1.5402
1.4045801526717556,1.2366412213740459,-1.0534351145038168,-0.45703125,0.00732421875,-0.21875,1.5418999999999998
1.6488549618320612,1.3587786259541985,-1.0534351145038168,-0.45703125,0.009033203125,-0.217529296875,1.5435999999999999
1.5114503816793894,1.3282442748091603,-1.297709923664122,-0.457763671875,0.00244140625,-0.2236328125,1.5453
1.4045801526717556,1.3740458015267176,-1.099236641221374,-0.45947265625,0.00341796875,-0.223876953125,1.547
1.450381679389313,1.3282442748091603,-1.0687022900763359,-0.459228515625,-0.001708984375,-0.23193359375,1.5487
1.4961832061068703,1.251908396946565,-1.1145038167938932,-0.456787109375,0.00341796875,-0.228271484375,1.5504
1.5877862595419847,1.4045801526717556,-1.2213740458015268,-0.4599609375,0.004150390625,-0.22314453125,1.5520999999999998
1.4045801526717556,1.450381679389313,-1.0381679389312977,-0.455078125,0.00439453125,-0.2255859375,1.5537999999999998
1.6488549618320612,1.282442748091603,-1.2671755725190839,-0.46044921875,0.00244140625,-0.227783203125,1.5554999999999999
1.5267175572519085,1.3587786259541985,-1.2061068702290076,-0.4541015625,0.00830078125,-0.229248046875,1.5572
1.5114503816793894,1.465648854961832,-1.2671755725190839,-0.454833984375,0.013671875,-0.22412109375,1.5589
1.5572519083969465,1.465648854961832,-1.4198473282442747,-0.456787109375,0.006103515625,-0.2236328125,1.5606
1.618320610687023,1.465648854961832,-1.4351145038167938,-0.456298828125,-0.003662109375,-0.222412109375,1.5623
1.2366412213740459,1.618320610687023,-1.3740458015267176,-0.454833984375,0.0,-0.222412109375,1.5639999999999998
1.4351145038167938,1.5419847328244274,-1.5114503816793894,-0.453369140625,0.00439453125,-0.218017578125,1.5656999999999999
1.4961832061068703,1.6793893129770991,-1.3893129770992367,-0.450439453125,0.00341796875,-0.228759765625,1.5674
1.4198473282442747,1.7404580152671756,-1.4961832061068703,-0.460693359375,0.0048828125,-0.220947265625,1.5691
1.2061068702290076,1.5725190839694656,-1.5572519083969465,-0.45556640625,0.00146484375,-0.22265625,1.5708
1.5725190839694656,1.618320610687023,-1.4809160305343512,-0.448486328125,0.0087890625,-0.22265625,1.5725
1.4045801526717556,1.8625954198473282,-1.4351145038167938,-0.459228515625,0.011962890625,-0.221923828125,1.5741999999999998
1.5419847328244274,1.8015267175572518,-1.4351145038167938,-0.4619140625,0.00390625,-0.21240234375,1.5758999999999999
1.3587786259541985,1.7099236641221374,-1.5725190839694656,-0.453857421875,0.001953125,-0.225341796875,1.5776
1.3129770992366412,1.6030534351145038,-1.6030534351145038,-0.454345703125,0.006591796875,-0.22607421875,1.5793
1.450381679389313,1.633587786259542,-1.5725190839694656,-0.456298828125,0.013427734375,-0.22021484375,1.581
1.3129770992366412,1.7404580152671756,-1.6793893129770991,-0.45556640625,0.004638671875,-0.219482421875,1.5827
1.2213740458015268,1.7404580152671756,-1.618320610687023,-0.460205078125,0.0029296875,-0.22216796875,1.5843999999999998
1.2671755725190839,1.7251908396946565,-1.5267175572519085,-0.45703125,0.008544921875,-0.21240234375,1.5860999999999998
1.297709923664122,1.7557251908396947,-1.5267175572519085,-0.451416015625,0.008056640625,-0.220947265625,1.5877999999999999
1.3740458015267176,1.8931297709923665,-1.5419847328244274,-0.4619140625,0.0029296875,-0.218017578125,1.5895
1.3435114503816794,1.7557251908396947,-1.5572519083969465,-0.458251953125,0.005615234375,-0.223388671875,1.5912
1.1755725190839694,1.7709923664122138,-1.633587786259542,-0.44921875,0.00390625,-0.224853515625,1.5929
1.2061068702290076,1.786259541984733,-1.4045801526717556,-0.452880859375,0.0029296875,-0.22314453125,1.5946
1.251908396946565,1.7557251908396947,-1.5877862595419847,-0.460205078125,0.00048828125,-0.221923828125,1.5962999999999998
1.282442748091603,1.7251908396946565,-1.618320610687023,-0.4580078125,0.00439453125,-0.217529296875,1.5979999999999999
0.9923664122137404,1.7404580152671756,-1.6641221374045803,-0.454833984375,0.010009765625,-0.22265625,1.5997
0.916030534351145,1.6030534351145038,-1.7557251908396947,-0.45068359375,0.00244140625,-0.217529296875,1.6014
1.2213740458015268,1.5419847328244274,-1.6488549618320612,-0.453125,0.00390625,-0.22119140625,1.6031
0.9770992366412213,1.5572519083969465,-1.816793893129771,-0.45263671875,0.007568359375,-0.232421875,1.6048
1.282442748091603,1.4351145038167938,-1.9389312977099236,-0.4560546875,0.004638671875,-0.216552734375,1.6064999999999998
1.099236641221374,1.4198473282442747,-1.8473282442748091,-0.455078125,0.009033203125,-0.213623046875,1.6081999999999999
1.1755725190839694,1.251908396946565,-1.9694656488549618,-0.449462890625,0.0068359375,-0.21630859375,1.6098999999999999
1.3129770992366412,1.3740458015267176,-1.9541984732824427,-0.44921875,0.00244140625,-0.2197265625,1.6116
1.297709923664122,1.4198473282442747,-2.0916030534351147,-0.451904296875,0.0107421875,-0.22216796875,1.6133
1.1908396946564885,1.3587786259541985,-2.3206106870229006,-0.454833984375,0.0068359375,-0.220703125,1.615
1.2366412213740459,1.2213740458015268,-2.4580152671755724,-0.4560546875,0.00634765625,-0.2216796875,1.6166999999999998
1.282442748091603,1.4045801526717556,-2.5343511450381677,-0.4501953125,0.004150390625,-0.217529296875,1.6183999999999998
1.0534351145038168,1.3435114503816794,-2.3969465648854964,-0.448486328125,0.005615234375,-0.22216796875,1.6200999999999999
1.251908396946565,1.1145038167938932,-2.366412213740458,-0.44873046875,0.009033203125,-0.22021484375,1.6218
1.4198473282442747,1.1603053435114503,-2.549618320610687,-0.454833984375,0.001953125,-0.21923828125,1.6235
1.3740458015267176,1.1297709923664123,-2.6106870229007635,-0.459716796875,0.003173828125,-0.222900390625,1.6252
1.3129770992366412,1.083969465648855,-2.7022900763358777,-0.45654296875,0.00146484375,-0.21533203125,1.6269
1.4198473282442747,1.0381679389312977,-2.595419847328244,-0.4541015625,0.0048828125,-0.224853515625,1.6285999999999998
1.5114503816793894,1.2671755725190839,-2.6564885496183206,-0.44970703125,0.005615234375,-0.2138671875,1.6302999999999999
1.5114503816793894,1.251908396946565,-2.6106870229007635,-0.456787109375,0.001708984375,-0.219970703125,1.632
1.450381679389313,1.1297709923664123,-2.595419847328244,-0.45068359375,0.005615234375,-0.21044921875,1.6337
1.6030534351145038,1.1908396946564885,-2.6412213740458017,-0.455078125,0.007080078125,-0.218994140625,1.6354
1.633587786259542,1.1450381679389312,-2.732824427480916,-0.45751953125,0.0048828125,-0.22265625,1.6371
1.4961832061068703,1.2213740458015268,-2.7022900763358777,-0.4521484375,0.009765625,-0.218017578125,1.6387999999999998
1.618320610687023,1.282442748091603,-2.564885496183206,-0.458740234375,0.0009765625,-0.218017578125,1.6404999999999998
1.8778625954198473,1.251908396946565,-2.7786259541984735,-0.452880859375,0.002685546875,-0.21826171875,1.6421999999999999
1.7404580152671756,1.2213740458015268,-2.6106870229007635,-0.454833984375,0.00390625,-0.22265625,1.6439
1.816793893129771,1.2366412213740459,-2.687022900763359,-0.453857421875,0.0087890625,-0.220947265625,1.6456
1.8473282442748091,1.099236641221374,-2.6564885496183206,-0.45068359375,0.00830078125,-0.217529296875,1.6473
1.7404580152671756,1.1755725190839694,-2.7022900763358777,-0.45361328125,0.003173828125,-0.218994140625,1.6489999999999998
1.816793893129771,1.1908396946564885,-2.4122137404580153,-0.4521484375,0.003173828125,-0.226318359375,1.6506999999999998
2.015267175572519,0.9923664122137404,-2.6717557251908395,-0.4501953125,0.00341796875,-0.22265625,1.6523999999999999
1.786259541984733,0.9007633587786259,-2.4427480916030535,-0.4501953125,0.004638671875,-0.22021484375,1.6541
1.984732824427481,1.0229007633587786,-2.3053435114503817,-0.453857421875,0.000732421875,-0.221435546875,1.6558
2.045801526717557,0.8091603053435115,-2.198473282442748,-0.4521484375,0.0,-0.218994140625,1.6575
2.213740458015267,0.9465648854961832,-2.351145038167939,-0.452880859375,0.005859375,-0.224609375,1.6592
2.1068702290076335,0.9007633587786259,-2.030534351145038,-0.4501953125,0.005615234375,-0.216064453125,1.6608999999999998
2.0763358778625953,0.6564885496183206,-2.0763358778625953,-0.453857421875,0.00390625,-0.219970703125,1.6625999999999999
2.1068702290076335,0.8702290076335878,-2.1068702290076335,-0.454345703125,0.00341796875,-0.219482421875,1.6643
2.198473282442748,0.7633587786259542,-2.030534351145038,-0.455322265625,0.001953125,-0.220458984375,1.666
2.2442748091603053,0.6870229007633588,-1.6946564885496183,-0.454833984375,0.005859375,-0.2265625,1.6677
2.045801526717557,0.7022900763358778,-1.8625954198473282,-0.454345703125,0.00439453125,-0.22607421875,1.6694
2.213740458015267,0.8396946564885496,-1.984732824427481,-0.450439453125,0.0029296875,-0.222412109375,1.6710999999999998
2.2595419847328246,0.7633587786259542,-1.4809160305343512,-0.450439453125,0.008056640625,-0.225341796875,1.6727999999999998
2.2442748091603053,0.7022900763358778,-1.450381679389313,-0.453857421875,0.007568359375,-0.22021484375,1.6744999999999999
2.3206106870229006,0.8396946564885496,-1.5572519083969465,-0.45556640625,0.008544921875,-0.219970703125,1.6762
2.4122137404580153,0.7022900763358778,-1.465648854961832,-0.457275390625,0.00244140625,-0.2265625,1.6779
2.33587786259542,0.6259541984732825,-1.251908396946565,-0.451416015625,0.000732421875,-0.218505859375,1.6796
2.2442748091603053,0.48854961832061067,-1.2671755725190839,-0.457763671875,0.00244140625,-0.219482421875,1.6813
2.4122137404580153,0.4580152671755725,-1.5419847328244274,-0.45654296875,0.003662109375,-0.22509765625,1.6829999999999998
2.427480916030534,0.6564885496183206,-1.099236641221374,-0.454345703125,0.004638671875,-0.231201171875,1.6846999999999999
2.6412213740458017,0.4580152671755725,-1.1755725190839694,-0.45263671875,0.000732421875,-0.21826171875,1.6864
2.595419847328244,0.5648854961832062,-1.099236641221374,-0.453125,-0.00048828125,-0.218505859375,1.6881
2.2900763358778624,0.5190839694656488,-1.1297709923664123,-0.447021484375,0.006103515625,-0.22412109375,1.6898
2.5343511450381677,0.2595419847328244,-1.3587786259541985,-0.45068359375,0.006103515625,-0.22314453125,1.6915
2.4427480916030535,0.4732824427480916,-1.3129770992366412,-0.454345703125,0.004638671875,-0.21728515625,1.6931999999999998
2.4732824427480917,0.4732824427480916,-1.0381679389312977,-0.45263671875,0.00634765625,-0.22216796875,1.6948999999999999
2.3969465648854964,0.2900763358778626,-1.1145038167938932,-0.45263671875,0.002685546875,-0.22216796875,1.6965999999999999
2.122137404580153,0.42748091603053434,-1.1603053435114503,-0.44873046875,0.00146484375,-0.220947265625,1.6983
2.6106870229007635,0.3816793893129771,-1.2671755725190839,-0.45263671875,-0.0009765625,-0.217529296875,1.7
2.595419847328244,0.16793893129770993,-1.1450381679389312,-0.45654296875,-0.0009765625,-0.22021484375,1.7017
2.427480916030534,0.2748091603053435,-1.1297709923664123,-0.453369140625,0.000732421875,-0.219482421875,1.7033999999999998
2.366412213740458,0.33587786259541985,-1.099236641221374,-0.457275390625,0.0,-0.22119140625,1.7050999999999998
2.519083969465649,0.366412213740458,-1.251908396946565,-0.4560546875,-0.0009765625,-0.218994140625,1.7067999999999999
2.50381679389313,0.16793893129770993,-1.0687022900763359,-0.45947265625,-0.001220703125,-0.216552734375,1.7085
2.2595419847328246,0.32061068702290074,-1.1145038167938932,-0.456787109375,0.001220703125,-0.214599609375,1.7102
2.366412213740458,0.2748091603053435,-1.1145038167938932,-0.453369140625,0.00146484375,-0.211669921875,1.7119
2.381679389312977,0.4122137404580153,-1.1297709923664123,-0.45361328125,0.00439453125,-0.226318359375,1.7136
2.4122137404580153,0.4580152671755725,-1.0534351145038168,-0.45751953125,0.001220703125,-0.222412109375,1.7152999999999998
2.1374045801526718,0.42748091603053434,-1.1755725190839694,-0.455322265625,0.0009765625,-0.217529296875,1.7169999999999999
2.213740458015267,0.183206106870229,-1.0229007633587786,-0.454345703125,0.001708984375,-0.22705078125,1.7187
2.030534351145038,0.366412213740458,-1.2213740458015268,-0.45556640625,-0.002197265625,-0.226806640625,1.7204
2.015267175572519,0.5954198473282443,-0.9465648854961832,-0.458740234375,-0.002685546875,-0.219970703125,1.7221
2.0916030534351147,0.3816793893129771,-1.2061068702290076,-0.45263671875,0.000732421875,-0.220947265625,1.7238
2.0610687022900764,0.48854961832061067,-0.9923664122137404,-0.453857421875,-0.00048828125,-0.22216796875,1.7254999999999998
1.8625954198473282,0.48854961832061067,-1.1145038167938932,-0.447998046875,0.00244140625,-0.22314453125,1.7271999999999998
1.9083969465648856,0.5038167938931297,-0.9007633587786259,-0.451416015625,0.0,-0.2177734375,1.7288999999999999
1.8473282442748091,0.4732824427480916,-1.3893129770992367,-0.4501953125,0.00244140625,-0.21337890625,1.7306
1.6946564885496183,0.7022900763358778,-1.0534351145038168,-0.453857421875,0.0,-0.22021484375,1.7323
1.5877862595419847,0.8702290076335878,-1.0534351145038168,-0.451171875,-0.00146484375,-0.224365234375,1.734
1.4045801526717556,0.7938931297709924,-0.916030534351145,-0.455078125,0.00830078125,-0.21826171875,1.7356999999999998
1.5267175572519085,0.7175572519083969,-1.0229007633587786,-0.458984375,0.0048828125,-0.22216796875,1.7373999999999998
1.2213740458015268,0.7175572519083969,-0.8702290076335878,-0.45703125,-0.000732421875,-0.226318359375,1.7390999999999999
1.3740458015267176,0.8702290076335878,-1.0229007633587786,-0.45751953125,-0.00048828125,-0.22412109375,1.7408
1.1908396946564885,0.8549618320610687,-1.0381679389312977,-0.4541015625,0.001220703125,-0.220947265625,1.7425
1.1297709923664123,0.8396946564885496,-0.7022900763358778,-0.457763671875,-0.00146484375,-0.21630859375,1.7442
1.0076335877862594,1.1603053435114503,-0.8549618320610687,-0.45703125,0.001953125,-0.2236328125,1.7459
0.8091603053435115,1.1603053435114503,-0.916030534351145,-0.4521484375,-0.0029296875,-0.224365234375,1.7475999999999998
0.8549618320610687,1.1450381679389312,-0.732824427480916,-0.453369140625,-0.0009765625,-0.224365234375,1.7492999999999999
0.732824427480916,1.2671755725190839,-0.8396946564885496,-0.453857421875,-0.00341796875,-0.22265625,1.751
0.5801526717557252,1.0076335877862594,-0.9312977099236641,-0.455810546875,0.001708984375,-0.216796875,1.7527
0.5801526717557252,1.0076335877862594,-0.9465648854961832,-0.452392578125,0.003173828125,-0.218505859375,1.7544
0.3969465648854962,1.297709923664122,-0.7938931297709924,-0.457275390625,0.003173828125,-0.228759765625,1.7561
0.48854961832061067,1.251908396946565,-0.8396946564885496,-0.45849609375,0.0009765625,-0.22314453125,1.7577999999999998
0.2748091603053435,1.2366412213740459,-0.8244274809160306,-0.45751953125,-0.0048828125,-0.216796875,1.7594999999999998
0.183206106870229,1.1297709923664123,-0.8702290076335878,-0.454833984375,-0.0009765625,-0.221923828125,1.7611999999999999
0.16793893129770993,1.099236641221374,-0.6717557251908397,-0.458984375,0.0009765625,-0.22509765625,1.7629
-0.015267175572519083,1.0229007633587786,-1.0229007633587786,-0.465576171875,0.00146484375,-0.212158203125,1.7646
0.22900763358778625,1.2061068702290076,-0.8091603053435115,-0.45751953125,-0.00146484375,-0.212890625,1.7663
0.12213740458015267,1.2671755725190839,-1.1145038167938932,-0.453857421875,0.0029296875,-0.219970703125,1.7679999999999998
-0.22900763358778625,1.3893129770992367,-1.0534351145038168,-0.456787109375,0.00244140625,-0.22802734375,1.7696999999999998
-0.3053435114503817,1.2671755725190839,-1.0687022900763359,-0.457275390625,0.00244140625,-0.222412109375,1.7713999999999999
-0.13740458015267176,1.297709923664122,-0.9923664122137404,-0.452392578125,0.00732421875,-0.2216796875,1.7731
0.030534351145038167,1.282442748091603,-1.2671755725190839,-0.456298828125,0.002197265625,-0.220947265625,1.7748
-0.16793893129770993,1.297709923664122,-1.1908396946564885,-0.45654296875,0.001953125,-0.22509765625,1.7765
0.07633587786259542,1.2061068702290076,-1.1603053435114503,-0.44921875,0.0029296875,-0.22119140625,1.7782
-0.3969465648854962,1.2671755725190839,-1.3282442748091603,-0.454345703125,0.003173828125,-0.21435546875,1.7798999999999998
-0.4122137404580153,1.1755725190839694,-1.450381679389313,-0.4541015625,0.003662109375,-0.225341796875,1.7815999999999999
-0.0916030534351145,1.2366412213740459,-1.3893129770992367,-0.456298828125,0.00927734375,-0.224853515625,1.7832999999999999
-0.3053435114503817,1.1297709923664123,-1.4045801526717556,-0.454833984375,0.001708984375,-0.223388671875,1.785
-0.32061068702290074,1.0229007633587786,-1.450381679389313,-0.455322265625,0.006591796875,-0.23095703125,1.7867
-0.3053435114503817,1.1755725190839694,-1.3893129770992367,-0.453369140625,0.006591796875,-0.223388671875,1.7884
-0.3511450381679389,1.1145038167938932,-1.3893129770992367,-0.453857421875,0.006591796875,-0.223388671875,1.7900999999999998
-0.2595419847328244,1.1755725190839694,-1.618320610687023,-0.459716796875,-0.002197265625,-0.21533203125,1.7917999999999998
-0.32061068702290074,1.3129770992366412,-1.7251908396946565,-0.45263671875,-0.005615234375,-0.219482421875,1.7934999999999999
-0.04580152671755725,1.0534351145038168,-1.5725190839694656,-0.45703125,0.009521484375,-0.220947265625,1.7952
-0.12213740458015267,1.2366412213740459,-1.5114503816793894,-0.459228515625,0.00341796875,-0.22412109375,1.7969
-0.2595419847328244,1.1603053435114503,-1.6488549618320612,-0.454833984375,0.005615234375,-0.2236328125,1.7986
0.04580152671755725,1.3282442748091603,-1.5419847328244274,-0.4541015625,0.010986328125,-0.228759765625,1.8002999999999998
0.0,1.4045801526717556,-1.633587786259542,-0.460693359375,0.002197265625,-0.220947265625,1.8019999999999998
