gyrox1,gyroy1,gyroz1,accelx1,accely1,accelz1,Time
1.9541984732824427,0.7480916030534351,-0.9618320610687023,-0.455810546875,-0.099853515625,-0.15234375,0.0
1.816793893129771,0.549618320610687,-0.8244274809160306,-0.45166015625,-0.099609375,-0.1533203125,0.0017
1.9541984732824427,0.5648854961832062,-1.0229007633587786,-0.453125,-0.10009765625,-0.1533203125,0.0034
1.6641221374045803,0.48854961832061067,-0.9312977099236641,-0.45361328125,-0.099609375,-0.156982421875,0.0050999999999999995
1.8015267175572518,0.44274809160305345,-0.9618320610687023,-0.4609375,-0.1064453125,-0.152099609375,0.0068
1.7709923664122138,0.16793893129770993,-1.0076335877862594,-0.461181640625,-0.102294921875,-0.147216796875,0.008499999999999999
1.3893129770992367,0.22900763358778625,-1.1450381679389312,-0.456298828125,-0.10302734375,-0.158935546875,0.010199999999999999
1.4809160305343512,0.3816793893129771,-1.2213740458015268,-0.454345703125,-0.10888671875,-0.15771484375,0.011899999999999999
1.5267175572519085,0.1984732824427481,-1.1908396946564885,-0.454345703125,-0.10498046875,-0.16259765625,0.0136
1.2671755725190839,0.22900763358778625,-1.251908396946565,-0.45849609375,-0.10546875,-0.15185546875,0.0153
0.9465648854961832,0.2748091603053435,-1.3282442748091603,-0.45263671875,-0.107421875,-0.155029296875,0.016999999999999998
1.3129770992366412,0.2900763358778626,-1.2671755725190839,-0.451904296875,-0.108642578125,-0.15576171875,0.018699999999999998
1.4961832061068703,0.3511450381679389,-1.618320610687023,-0.46044921875,-0.10986328125,-0.1552734375,0.020399999999999998
1.465648854961832,0.8244274809160306,-1.5572519083969465,-0.46044921875,-0.10546875,-0.151611328125,0.022099999999999998
1.282442748091603,0.7480916030534351,-1.5114503816793894,-0.457763671875,-0.107666015625,-0.156494140625,0.023799999999999998
1.3893129770992367,0.7786259541984732,-1.5419847328244274,-0.455810546875,-0.110107421875,-0.149169921875,0.0255
1.6793893129770991,1.1145038167938932,-1.5419847328244274,-0.457763671875,-0.1044921875,-0.158935546875,0.0272
1.7404580152671756,1.251908396946565,-1.5572519083969465,-0.455810546875,-0.106689453125,-0.1572265625,0.0289
1.4351145038167938,1.4809160305343512,-1.633587786259542,-0.455810546875,-0.10595703125,-0.157958984375,0.0306
1.5725190839694656,1.450381679389313,-1.6946564885496183,-0.452392578125,-0.107666015625,-0.147216796875,0.032299999999999995
1.5572519083969465,1.4351145038167938,-1.7557251908396947,-0.4482421875,-0.10595703125,-0.150634765625,0.033999999999999996
1.6641221374045803,1.4198473282442747,-1.6488549618320612,-0.450927734375,-0.101318359375,-0.1474609375,0.035699999999999996
1.7099236641221374,1.633587786259542,-1.7709923664122138,-0.451171875,-0.103515625,-0.150146484375,0.037399999999999996
1.4809160305343512,1.4809160305343512,-1.618320610687023,-0.4541015625,-0.102783203125,-0.15185546875,0.039099999999999996
1.6488549618320612,1.251908396946565,-1.5114503816793894,-0.45263671875,-0.1064453125,-0.154052734375,0.040799999999999996
1.8931297709923665,1.4198473282442747,-1.6488549618320612,-0.45654296875,-0.10400390625,-0.14794921875,0.042499999999999996
1.5267175572519085,1.1908396946564885,-1.6793893129770991,-0.451416015625,-0.104736328125,-0.153076171875,0.044199999999999996
1.4198473282442747,0.9923664122137404,-1.5725190839694656,-0.451416015625,-0.1025390625,-0.151123046875,0.045899999999999996
1.4198473282442747,0.916030534351145,-1.4045801526717556,-0.449462890625,-0.100341796875,-0.155517578125,0.047599999999999996
1.633587786259542,1.083969465648855,-1.5114503816793894,-0.453125,-0.09619140625,-0.14697265625,0.0493
1.7557251908396947,1.2061068702290076,-1.5114503816793894,-0.45556640625,-0.1025390625,-0.14794921875,0.051
1.6488549618320612,1.1603053435114503,-1.4351145038167938,-0.45166015625,-0.1083984375,-0.1484375,0.0527
1.7251908396946565,0.9923664122137404,-1.297709923664122,-0.451171875,-0.103759765625,-0.147705078125,0.0544
1.5725190839694656,0.9770992366412213,-1.1908396946564885,-0.458251953125,-0.099853515625,-0.1513671875,0.0561
1.5114503816793894,0.9312977099236641,-1.3587786259541985,-0.44970703125,-0.100830078125,-0.14697265625,0.0578
1.5267175572519085,0.8549618320610687,-1.2061068702290076,-0.451416015625,-0.099609375,-0.143310546875,0.0595
1.5572519083969465,0.8549618320610687,-1.3129770992366412,-0.45361328125,-0.099853515625,-0.15478515625,0.0612
1.633587786259542,0.8702290076335878,-1.083969465648855,-0.44921875,-0.098876953125,-0.147705078125,0.0629
1.5877862595419847,0.7938931297709924,-1.0229007633587786,-0.45166015625,-0.106201171875,-0.1484375,0.06459999999999999
1.4351145038167938,0.7175572519083969,-1.0076335877862594,-0.45703125,-0.10302734375,-0.148193359375,0.0663
1.4809160305343512,0.7938931297709924,-0.9465648854961832,-0.455322265625,-0.10546875,-0.15234375,0.06799999999999999
1.450381679389313,0.8396946564885496,-1.0076335877862594,-0.448974609375,-0.1044921875,-0.14892578125,0.0697
1.1145038167938932,0.5954198473282443,-0.9618320610687023,-0.455078125,-0.102294921875,-0.153564453125,0.07139999999999999
1.4809160305343512,0.5954198473282443,-1.0229007633587786,-0.458740234375,-0.1083984375,-0.149658203125,0.0731
1.2366412213740459,0.48854961832061067,-0.9618320610687023,-0.4482421875,-0.100341796875,-0.1513671875,0.07479999999999999
1.2061068702290076,0.6564885496183206,-0.916030534351145,-0.454345703125,-0.10205078125,-0.149169921875,0.0765
1.0381679389312977,0.8549618320610687,-0.8549618320610687,-0.45947265625,-0.1064453125,-0.145263671875,0.07819999999999999
1.1603053435114503,0.8244274809160306,-0.916030534351145,-0.451416015625,-0.105224609375,-0.1513671875,0.0799
0.8396946564885496,0.8091603053435115,-0.9923664122137404,-0.452880859375,-0.103271484375,-0.1533203125,0.08159999999999999
0.8549618320610687,0.8549618320610687,-0.8244274809160306,-0.447509765625,-0.10498046875,-0.1494140625,0.0833
1.1450381679389312,0.9923664122137404,-1.0076335877862594,-0.45556640625,-0.104736328125,-0.147705078125,0.08499999999999999
1.2061068702290076,1.0687022900763359,-0.9007633587786259,-0.4560546875,-0.103515625,-0.147705078125,0.0867
1.2213740458015268,1.1297709923664123,-1.0229007633587786,-0.45263671875,-0.1044921875,-0.15478515625,0.08839999999999999
1.1755725190839694,1.0381679389312977,-1.2213740458015268,-0.45361328125,-0.109375,-0.151123046875,0.0901
1.2213740458015268,1.2366412213740459,-1.0534351145038168,-0.454833984375,-0.108154296875,-0.150390625,0.09179999999999999
1.1145038167938932,1.282442748091603,-1.1297709923664123,-0.46142578125,-0.106689453125,-0.1484375,0.0935
1.083969465648855,1.1755725190839694,-0.9770992366412213,-0.451904296875,-0.10546875,-0.148193359375,0.09519999999999999
1.3435114503816794,1.1755725190839694,-1.1297709923664123,-0.450439453125,-0.1064453125,-0.150390625,0.0969
1.2061068702290076,1.1908396946564885,-1.1450381679389312,-0.451416015625,-0.1025390625,-0.145263671875,0.0986
1.1603053435114503,1.0534351145038168,-1.2366412213740459,-0.452880859375,-0.103759765625,-0.154296875,0.1003
1.3129770992366412,1.1145038167938932,-0.9923664122137404,-0.45458984375,-0.09912109375,-0.14794921875,0.102
1.1297709923664123,1.099236641221374,-1.2061068702290076,-0.451171875,-0.099609375,-0.142333984375,0.1037
0.9312977099236641,1.0687022900763359,-1.1755725190839694,-0.4521484375,-0.107666015625,-0.1474609375,0.1054
0.8854961832061069,0.7938931297709924,-1.0381679389312977,-0.4560546875,-0.1015625,-0.151611328125,0.1071
0.4732824427480916,1.0076335877862594,-1.0687022900763359,-0.454345703125,-0.1044921875,-0.153076171875,0.1088
0.48854961832061067,0.9312977099236641,-1.1450381679389312,-0.45654296875,-0.10595703125,-0.1611328125,0.11049999999999999
0.6259541984732825,0.5954198473282443,-0.9312977099236641,-0.45703125,-0.102783203125,-0.150634765625,0.1122
0.44274809160305345,0.6259541984732825,-0.9465648854961832,-0.45751953125,-0.10595703125,-0.159423828125,0.11389999999999999
0.16793893129770993,0.9312977099236641,-0.916030534351145,-0.45263671875,-0.102783203125,-0.1552734375,0.1156
0.2595419847328244,0.5343511450381679,-1.1450381679389312,-0.45556640625,-0.098876953125,-0.150390625,0.11729999999999999
0.12213740458015267,0.5190839694656488,-1.0381679389312977,-0.455078125,-0.097412109375,-0.149658203125,0.119
0.030534351145038167,0.7022900763358778,-1.0687022900763359,-0.4560546875,-0.095703125,-0.149169921875,0.12069999999999999
0.16793893129770993,0.6106870229007634,-1.0534351145038168,-0.4580078125,-0.105224609375,-0.155029296875,0.1224
0.2900763358778626,0.8244274809160306,-0.9923664122137404,-0.4560546875,-0.0986328125,-0.150390625,0.12409999999999999
0.366412213740458,0.7938931297709924,-1.0229007633587786,-0.455810546875,-0.09619140625,-0.147705078125,0.1258
0.2900763358778626,0.8702290076335878,-0.9618320610687023,-0.458984375,-0.096435546875,-0.1552734375,0.1275
0.44274809160305345,0.9923664122137404,-0.9465648854961832,-0.461181640625,-0.0966796875,-0.1533203125,0.12919999999999998
0.42748091603053434,0.8396946564885496,-1.0687022900763359,-0.4560546875,-0.09765625,-0.148193359375,0.1309
0.6106870229007634,1.0534351145038168,-0.9465648854961832,-0.460693359375,-0.096435546875,-0.147705078125,0.1326
0.7786259541984732,0.9618320610687023,-1.099236641221374,-0.4580078125,-0.1015625,-0.146240234375,0.1343
0.8091603053435115,0.9923664122137404,-1.1755725190839694,-0.455078125,-0.094970703125,-0.15283203125,0.13599999999999998
1.0381679389312977,1.0076335877862594,-1.0534351145038168,-0.4599609375,-0.0986328125,-0.155517578125,0.1377
0.8091603053435115,0.9618320610687023,-0.8396946564885496,-0.455810546875,-0.10205078125,-0.14794921875,0.1394
1.0687022900763359,1.1603053435114503,-1.1755725190839694,-0.45263671875,-0.10205078125,-0.153564453125,0.1411
1.0381679389312977,0.916030534351145,-1.0229007633587786,-0.45947265625,-0.09619140625,-0.146240234375,0.14279999999999998
1.3893129770992367,1.0687022900763359,-1.0687022900763359,-0.455078125,-0.099853515625,-0.14306640625,0.1445
1.5572519083969465,1.083969465648855,-0.9923664122137404,-0.45263671875,-0.104736328125,-0.15185546875,0.1462
1.6946564885496183,1.2671755725190839,-1.083969465648855,-0.453125,-0.10107421875,-0.151611328125,0.1479
1.6030534351145038,1.2213740458015268,-1.1145038167938932,-0.4560546875,-0.104248046875,-0.151611328125,0.14959999999999998
1.816793893129771,1.4809160305343512,-1.1755725190839694,-0.4541015625,-0.1025390625,-0.148193359375,0.1513
2.0,1.4198473282442747,-1.1450381679389312,-0.449951171875,-0.102294921875,-0.14208984375,0.153
1.7404580152671756,1.3282442748091603,-1.1603053435114503,-0.454345703125,-0.097412109375,-0.151611328125,0.1547
1.816793893129771,1.3587786259541985,-1.099236641221374,-0.454345703125,-0.10205078125,-0.1513671875,0.15639999999999998
1.8931297709923665,1.2671755725190839,-1.3282442748091603,-0.453125,-0.10302734375,-0.15478515625,0.1581
2.16793893129771,1.618320610687023,-1.1603053435114503,-0.450927734375,-0.097900390625,-0.15380859375,0.1598
2.2748091603053435,1.6488549618320612,-1.3282442748091603,-0.4560546875,-0.098876953125,-0.155517578125,0.1615
2.33587786259542,1.5114503816793894,-1.1297709923664123,-0.454833984375,-0.10009765625,-0.15234375,0.16319999999999998
2.2900763358778624,1.3740458015267176,-1.297709923664122,-0.45556640625,-0.0966796875,-0.15869140625,0.1649
2.3969465648854964,1.5419847328244274,-1.4198473282442747,-0.4560546875,-0.099853515625,-0.1494140625,0.1666
2.3969465648854964,1.3587786259541985,-1.450381679389313,-0.4560546875,-0.103759765625,-0.146240234375,0.16829999999999998
2.2900763358778624,1.2213740458015268,-1.3587786259541985,-0.457275390625,-0.099365234375,-0.14697265625,0.16999999999999998
2.198473282442748,1.3435114503816794,-1.2671755725190839,-0.455322265625,-0.099853515625,-0.14697265625,0.1717
2.2900763358778624,1.2671755725190839,-1.282442748091603,-0.456787109375,-0.10595703125,-0.153076171875,0.1734
2.2290076335877864,1.1603053435114503,-1.3893129770992367,-0.4521484375,-0.10498046875,-0.15869140625,0.17509999999999998
2.3053435114503817,1.2061068702290076,-1.251908396946565,-0.456298828125,-0.097900390625,-0.1494140625,0.17679999999999998
2.045801526717557,0.9923664122137404,-1.5572519083969465,-0.452392578125,-0.103271484375,-0.1484375,0.1785
1.633587786259542,0.8702290076335878,-1.3587786259541985,-0.44921875,-0.103515625,-0.153076171875,0.1802
1.5725190839694656,0.8244274809160306,-1.5877862595419847,-0.450439453125,-0.103759765625,-0.15234375,0.18189999999999998
1.5114503816793894,0.5190839694656488,-1.1755725190839694,-0.4521484375,-0.09814453125,-0.143310546875,0.18359999999999999
1.4045801526717556,0.6106870229007634,-1.4961832061068703,-0.45361328125,-0.104248046875,-0.147216796875,0.1853
1.1908396946564885,0.6259541984732825,-1.2213740458015268,-0.45703125,-0.107421875,-0.14794921875,0.187
1.099236641221374,0.6564885496183206,-1.282442748091603,-0.454345703125,-0.1005859375,-0.15283203125,0.18869999999999998
0.9007633587786259,0.6259541984732825,-1.3587786259541985,-0.45068359375,-0.104248046875,-0.145263671875,0.19039999999999999
0.5648854961832062,0.6412213740458015,-1.2671755725190839,-0.452392578125,-0.1044921875,-0.150146484375,0.1921
0.8396946564885496,0.7480916030534351,-1.099236641221374,-0.456298828125,-0.102783203125,-0.146240234375,0.1938
0.5801526717557252,0.8549618320610687,-1.0687022900763359,-0.453857421875,-0.10595703125,-0.147216796875,0.19549999999999998
0.549618320610687,0.6412213740458015,-0.9770992366412213,-0.452880859375,-0.1044921875,-0.153564453125,0.1972
0.7175572519083969,0.7480916030534351,-1.282442748091603,-0.453369140625,-0.104736328125,-0.1533203125,0.1989
0.6259541984732825,0.6106870229007634,-1.1297709923664123,-0.4541015625,-0.1025390625,-0.144775390625,0.2006
0.7786259541984732,0.5190839694656488,-1.0534351145038168,-0.448974609375,-0.10546875,-0.145751953125,0.20229999999999998
0.5801526717557252,0.4122137404580153,-0.916030534351145,-0.453125,-0.10595703125,-0.137451171875,0.204
0.6564885496183206,0.4122137404580153,-1.1450381679389312,-0.45849609375,-0.102783203125,-0.151123046875,0.2057
0.7938931297709924,0.3969465648854962,-1.1145038167938932,-0.45556640625,-0.10009765625,-0.1376953125,0.2074
0.7786259541984732,0.2595419847328244,-1.099236641221374,-0.456298828125,-0.1015625,-0.14794921875,0.20909999999999998
0.6259541984732825,0.366412213740458,-0.9923664122137404,-0.453125,-0.101806640625,-0.1455078125,0.2108
0.5648854961832062,0.4580152671755725,-1.0687022900763359,-0.451904296875,-0.10009765625,-0.158447265625,0.2125
0.7175572519083969,0.15267175572519084,-0.9923664122137404,-0.452880859375,-0.101806640625,-0.142822265625,0.2142
0.916030534351145,0.10687022900763359,-1.0229007633587786,-0.453125,-0.10205078125,-0.149169921875,0.21589999999999998
1.0229007633587786,0.4732824427480916,-1.0381679389312977,-0.452880859375,-0.098388671875,-0.153076171875,0.2176
1.0229007633587786,0.44274809160305345,-1.1603053435114503,-0.45849609375,-0.100830078125,-0.152587890625,0.2193
0.9770992366412213,0.366412213740458,-0.9618320610687023,-0.454345703125,-0.1015625,-0.14697265625,0.22099999999999997
0.916030534351145,0.3969465648854962,-1.1450381679389312,-0.452880859375,-0.103271484375,-0.153564453125,0.22269999999999998
1.1603053435114503,0.6106870229007634,-1.2213740458015268,-0.455322265625,-0.09912109375,-0.150634765625,0.2244
1.0076335877862594,0.33587786259541985,-1.2366412213740459,-0.451904296875,-0.0986328125,-0.154296875,0.2261
0.8091603053435115,0.366412213740458,-0.8549618320610687,-0.4521484375,-0.1025390625,-0.14501953125,0.22779999999999997
1.0687022900763359,0.6564885496183206,-1.0687022900763359,-0.456787109375,-0.1044921875,-0.150146484375,0.22949999999999998
1.1450381679389312,0.7480916030534351,-1.1450381679389312,-0.453125,-0.102783203125,-0.1572265625,0.2312
1.1450381679389312,0.7938931297709924,-0.9923664122137404,-0.456298828125,-0.100830078125,-0.151611328125,0.2329
1.3740458015267176,0.9007633587786259,-1.251908396946565,-0.459228515625,-0.1015625,-0.154052734375,0.23459999999999998
1.3282442748091603,1.0381679389312977,-1.099236641221374,-0.454833984375,-0.1025390625,-0.153564453125,0.23629999999999998
1.3587786259541985,1.0381679389312977,-1.2671755725190839,-0.457763671875,-0.10205078125,-0.156494140625,0.238
1.1145038167938932,1.1908396946564885,-1.4351145038167938,-0.4560546875,-0.10595703125,-0.14794921875,0.2397
1.633587786259542,1.3435114503816794,-1.2671755725190839,-0.459716796875,-0.096435546875,-0.152587890625,0.24139999999999998
1.6793893129770991,1.3587786259541985,-1.3587786259541985,-0.45556640625,-0.101318359375,-0.156494140625,0.24309999999999998
1.4961832061068703,1.450381679389313,-1.3129770992366412,-0.4609375,-0.106201171875,-0.150634765625,0.2448
1.4961832061068703,1.7099236641221374,-1.5114503816793894,-0.45556640625,-0.099365234375,-0.154541015625,0.2465
1.8473282442748091,1.465648854961832,-1.465648854961832,-0.45751953125,-0.104736328125,-0.15380859375,0.24819999999999998
1.618320610687023,1.5114503816793894,-1.5725190839694656,-0.455322265625,-0.099853515625,-0.151123046875,0.24989999999999998
1.3587786259541985,1.4198473282442747,-1.4961832061068703,-0.456298828125,-0.103759765625,-0.147216796875,0.2516
1.5419847328244274,1.2671755725190839,-1.465648854961832,-0.45556640625,-0.10009765625,-0.143798828125,0.25329999999999997
1.5267175572519085,1.1908396946564885,-1.5877862595419847,-0.4560546875,-0.101318359375,-0.1416015625,0.255
1.5877862595419847,1.3282442748091603,-1.6641221374045803,-0.45068359375,-0.09765625,-0.153564453125,0.2567
1.4961832061068703,1.1145038167938932,-1.4045801526717556,-0.452880859375,-0.1025390625,-0.15380859375,0.25839999999999996
1.2366412213740459,1.0687022900763359,-1.7251908396946565,-0.454345703125,-0.103759765625,-0.149169921875,0.2601
1.3282442748091603,1.3129770992366412,-1.786259541984733,-0.46044921875,-0.106201171875,-0.156494140625,0.2618
1.099236641221374,1.3435114503816794,-1.7099236641221374,-0.45361328125,-0.10205078125,-0.1484375,0.2635
1.2213740458015268,1.2213740458015268,-1.633587786259542,-0.453857421875,-0.10107421875,-0.147705078125,0.2652
1.282442748091603,1.3740458015267176,-1.6946564885496183,-0.4462890625,-0.100830078125,-0.1572265625,0.26689999999999997
1.2061068702290076,1.2213740458015268,-1.633587786259542,-0.4560546875,-0.10009765625,-0.149169921875,0.2686
1.2213740458015268,1.0381679389312977,-1.786259541984733,-0.4609375,-0.09765625,-0.14794921875,0.2703
1.0687022900763359,1.1297709923664123,-1.6030534351145038,-0.4580078125,-0.10009765625,-0.14892578125,0.27199999999999996
1.0381679389312977,1.1450381679389312,-1.5572519083969465,-0.4541015625,-0.09716796875,-0.14990234375,0.2737
1.2671755725190839,1.0381679389312977,-1.465648854961832,-0.454345703125,-0.105224609375,-0.150390625,0.2754
1.297709923664122,1.0229007633587786,-1.633587786259542,-0.449951171875,-0.102294921875,-0.15576171875,0.27709999999999996
1.297709923664122,1.0381679389312977,-1.4809160305343512,-0.45654296875,-0.100830078125,-0.14794921875,0.2788
0.9007633587786259,0.9770992366412213,-1.6030534351145038,-0.455322265625,-0.10107421875,-0.153076171875,0.28049999999999997
1.1908396946564885,0.7633587786259542,-1.5267175572519085,-0.451416015625,-0.09912109375,-0.151611328125,0.2822
1.251908396946565,0.9465648854961832,-1.2366412213740459,-0.459228515625,-0.099365234375,-0.148193359375,0.2839
1.282442748091603,0.7480916030534351,-1.5725190839694656,-0.460693359375,-0.10546875,-0.150390625,0.28559999999999997
1.282442748091603,0.8396946564885496,-1.633587786259542,-0.457763671875,-0.104248046875,-0.151123046875,0.2873
1.083969465648855,0.7786259541984732,-1.5419847328244274,-0.462158203125,-0.099365234375,-0.15234375,0.289
1.1908396946564885,0.7022900763358778,-1.3435114503816794,-0.459228515625,-0.09912109375,-0.151611328125,0.29069999999999996
1.1908396946564885,0.8396946564885496,-1.3282442748091603,-0.449462890625,-0.103515625,-0.146240234375,0.2924
1.3129770992366412,0.5801526717557252,-1.1297709923664123,-0.45849609375,-0.102294921875,-0.1474609375,0.2941
1.1755725190839694,0.6412213740458015,-1.3893129770992367,-0.460693359375,-0.098388671875,-0.15673828125,0.2958
1.4045801526717556,0.5954198473282443,-1.5725190839694656,-0.453125,-0.09765625,-0.146240234375,0.2975
1.1145038167938932,0.8549618320610687,-1.465648854961832,-0.4521484375,-0.103759765625,-0.146240234375,0.29919999999999997
1.4198473282442747,0.5801526717557252,-1.251908396946565,-0.4521484375,-0.102294921875,-0.14453125,0.3009
1.4961832061068703,0.5801526717557252,-1.4351145038167938,-0.4501953125,-0.106201171875,-0.154541015625,0.3026
1.3435114503816794,0.6564885496183206,-1.4961832061068703,-0.4501953125,-0.10546875,-0.16064453125,0.30429999999999996
1.0687022900763359,0.5648854961832062,-1.4351145038167938,-0.452392578125,-0.099853515625,-0.14013671875,0.306
1.1145038167938932,0.549618320610687,-1.251908396946565,-0.45849609375,-0.09765625,-0.150634765625,0.3077
1.099236641221374,0.5801526717557252,-1.465648854961832,-0.45458984375,-0.100830078125,-0.1484375,0.3094
0.9312977099236641,0.5954198473282443,-1.3282442748091603,-0.46044921875,-0.10498046875,-0.14794921875,0.3111
1.0076335877862594,0.6870229007633588,-1.5419847328244274,-0.45703125,-0.10546875,-0.152587890625,0.31279999999999997
1.0229007633587786,0.3816793893129771,-1.6030534351145038,-0.456298828125,-0.1103515625,-0.143798828125,0.3145
0.9312977099236641,0.33587786259541985,-1.4198473282442747,-0.456787109375,-0.1103515625,-0.1552734375,0.3162
0.8396946564885496,0.6259541984732825,-1.4961832061068703,-0.458740234375,-0.10595703125,-0.157470703125,0.31789999999999996
0.8244274809160306,0.5190839694656488,-1.4198473282442747,-0.457763671875,-0.109619140625,-0.155517578125,0.3196
0.9312977099236641,0.5648854961832062,-1.450381679389313,-0.458740234375,-0.1064453125,-0.15283203125,0.3213
0.916030534351145,0.6106870229007634,-1.450381679389313,-0.45556640625,-0.099365234375,-0.153564453125,0.323
0.6412213740458015,0.6106870229007634,-1.4198473282442747,-0.4541015625,-0.099853515625,-0.148681640625,0.3247
0.6564885496183206,0.8396946564885496,-1.4809160305343512,-0.45263671875,-0.1064453125,-0.1552734375,0.32639999999999997
0.9007633587786259,0.8702290076335878,-1.3740458015267176,-0.458251953125,-0.104736328125,-0.1572265625,0.3281
0.9465648854961832,0.9618320610687023,-1.4351145038167938,-0.45556640625,-0.099365234375,-0.158935546875,0.3298
0.9007633587786259,1.1908396946564885,-1.3282442748091603,-0.45361328125,-0.10400390625,-0.153564453125,0.33149999999999996
0.8091603053435115,1.0534351145038168,-1.6641221374045803,-0.453369140625,-0.103271484375,-0.155029296875,0.3332
1.1450381679389312,1.1755725190839694,-1.3740458015267176,-0.45263671875,-0.10302734375,-0.15576171875,0.3349
1.083969465648855,1.083969465648855,-1.450381679389313,-0.449462890625,-0.1025390625,-0.149169921875,0.33659999999999995
0.8549618320610687,1.099236641221374,-1.465648854961832,-0.448974609375,-0.10205078125,-0.147216796875,0.3383
0.9770992366412213,1.1145038167938932,-1.7099236641221374,-0.457275390625,-0.09814453125,-0.14697265625,0.33999999999999997
0.9923664122137404,0.8091603053435115,-1.4198473282442747,-0.459716796875,-0.104248046875,-0.150634765625,0.3417
1.083969465648855,0.7938931297709924,-1.3587786259541985,-0.4619140625,-0.102783203125,-0.146728515625,0.3434
1.0687022900763359,1.0229007633587786,-1.3740458015267176,-0.456298828125,-0.101806640625,-0.148681640625,0.34509999999999996
1.099236641221374,0.9007633587786259,-1.465648854961832,-0.454345703125,-0.108154296875,-0.146484375,0.3468
1.2671755725190839,0.8244274809160306,-1.4198473282442747,-0.45654296875,-0.10498046875,-0.154052734375,0.3485
1.1145038167938932,0.6870229007633588,-1.3129770992366412,-0.451904296875,-0.103759765625,-0.14501953125,0.35019999999999996
1.2213740458015268,0.916030534351145,-1.3740458015267176,-0.4580078125,-0.102294921875,-0.157470703125,0.3519
1.2366412213740459,0.916030534351145,-1.6641221374045803,-0.45751953125,-0.1005859375,-0.1494140625,0.35359999999999997
1.3282442748091603,0.9465648854961832,-1.2671755725190839,-0.453125,-0.1044921875,-0.146484375,0.3553
1.3587786259541985,1.1145038167938932,-1.450381679389313,-0.45458984375,-0.0986328125,-0.14453125,0.357
1.3587786259541985,1.0229007633587786,-1.3587786259541985,-0.45166015625,-0.097412109375,-0.14892578125,0.35869999999999996
1.1908396946564885,0.8854961832061069,-1.282442748091603,-0.45166015625,-0.098388671875,-0.156494140625,0.3604
1.3282442748091603,0.916030534351145,-1.3129770992366412,-0.4521484375,-0.09912109375,-0.155029296875,0.3621
1.450381679389313,0.9312977099236641,-1.4809160305343512,-0.452880859375,-0.095947265625,-0.141845703125,0.36379999999999996
1.5572519083969465,0.8854961832061069,-1.5419847328244274,-0.455322265625,-0.101318359375,-0.143310546875,0.3655
1.2213740458015268,0.7633587786259542,-1.8625954198473282,-0.454345703125,-0.10107421875,-0.148681640625,0.36719999999999997
1.251908396946565,0.6870229007633588,-1.3740458015267176,-0.45849609375,-0.0966796875,-0.15966796875,0.3689
1.5572519083969465,0.6106870229007634,-1.5877862595419847,-0.454345703125,-0.09814453125,-0.15283203125,0.3706
1.450381679389313,0.7480916030534351,-1.618320610687023,-0.458984375,-0.098876953125,-0.147705078125,0.37229999999999996
1.3435114503816794,0.8244274809160306,-1.633587786259542,-0.4541015625,-0.100830078125,-0.144775390625,0.374
1.450381679389313,0.9312977099236641,-1.4198473282442747,-0.45654296875,-0.102783203125,-0.14599609375,0.3757
1.3893129770992367,0.7633587786259542,-1.6030534351145038,-0.45458984375,-0.107666015625,-0.151611328125,0.37739999999999996
1.4351145038167938,0.8549618320610687,-1.7404580152671756,-0.45654296875,-0.10302734375,-0.149658203125,0.3791
1.297709923664122,0.9923664122137404,-1.7251908396946565,-0.454833984375,-0.1005859375,-0.1396484375,0.38079999999999997
1.2213740458015268,1.1297709923664123,-1.5419847328244274,-0.452880859375,-0.1015625,-0.149658203125,0.38249999999999995
1.251908396946565,1.1145038167938932,-1.6641221374045803,-0.44677734375,-0.1025390625,-0.147216796875,0.3842
1.1603053435114503,1.1755725190839694,-1.6793893129770991,-0.4560546875,-0.103515625,-0.15673828125,0.38589999999999997
1.6488549618320612,1.4809160305343512,-1.8015267175572518,-0.461181640625,-0.10107421875,-0.14599609375,0.3876
1.4809160305343512,1.3435114503816794,-1.6641221374045803,-0.4580078125,-0.101806640625,-0.14306640625,0.3893
1.3129770992366412,1.3740458015267176,-1.7251908396946565,-0.455322265625,-0.09716796875,-0.151611328125,0.39099999999999996
1.7557251908396947,1.3893129770992367,-1.5725190839694656,-0.45703125,-0.100341796875,-0.157470703125,0.3927
1.786259541984733,1.2671755725190839,-1.618320610687023,-0.45654296875,-0.102783203125,-0.1484375,0.3944
1.7099236641221374,1.4045801526717556,-1.5877862595419847,-0.462158203125,-0.100341796875,-0.14990234375,0.39609999999999995
1.5725190839694656,1.450381679389313,-1.3740458015267176,-0.456298828125,-0.099365234375,-0.157958984375,0.3978
1.618320610687023,1.450381679389313,-1.450381679389313,-0.4560546875,-0.094970703125,-0.15576171875,0.39949999999999997
1.7709923664122138,1.3893129770992367,-1.6488549618320612,-0.45458984375,-0.1044921875,-0.161376953125,0.4012
1.5725190839694656,1.4351145038167938,-1.4045801526717556,-0.455322265625,-0.103271484375,-0.15576171875,0.4029
1.6793893129770991,1.450381679389313,-1.4809160305343512,-0.455322265625,-0.103515625,-0.15087890625,0.40459999999999996
1.7099236641221374,1.3740458015267176,-1.251908396946565,-0.453369140625,-0.10400390625,-0.151123046875,0.4063
1.7404580152671756,1.2061068702290076,-1.5114503816793894,-0.447509765625,-0.1025390625,-0.144775390625,0.408
1.4809160305343512,1.1145038167938932,-1.4351145038167938,-0.452880859375,-0.099853515625,-0.146484375,0.40969999999999995
1.6488549618320612,1.1450381679389312,-1.1755725190839694,-0.45458984375,-0.10205078125,-0.1513671875,0.4114
1.3893129770992367,1.083969465648855,-1.4045801526717556,-0.455078125,-0.1025390625,-0.15283203125,0.41309999999999997
1.3893129770992367,1.2213740458015268,-1.3129770992366412,-0.454833984375,-0.103271484375,-0.156005859375,0.4148
1.465648854961832,0.9312977099236641,-1.297709923664122,-0.454833984375,-0.10107421875,-0.151123046875,0.4165
1.3893129770992367,0.916030534351145,-1.297709923664122,-0.454833984375,-0.1005859375,-0.153564453125,0.41819999999999996
1.3435114503816794,0.9923664122137404,-1.2213740458015268,-0.455322265625,-0.108154296875,-0.149169921875,0.4199
0.9923664122137404,0.7480916030534351,-1.2366412213740459,-0.4580078125,-0.103759765625,-0.15185546875,0.4216
1.0076335877862594,0.7480916030534351,-1.1450381679389312,-0.453857421875,-0.104736328125,-0.149658203125,0.42329999999999995
0.9923664122137404,0.5801526717557252,-1.251908396946565,-0.4541015625,-0.105224609375,-0.146728515625,0.425
1.0534351145038168,0.5343511450381679,-1.1297709923664123,-0.452392578125,-0.106689453125,-0.1494140625,0.42669999999999997
0.8854961832061069,0.7175572519083969,-1.297709923664122,-0.452392578125,-0.098876953125,-0.156005859375,0.4284
0.7786259541984732,0.6106870229007634,-1.1145038167938932,-0.4541015625,-0.094482421875,-0.156982421875,0.4301
0.8091603053435115,0.42748091603053434,-1.1450381679389312,-0.45556640625,-0.103515625,-0.146484375,0.43179999999999996
1.1908396946564885,0.4732824427480916,-1.3740458015267176,-0.458984375,-0.104736328125,-0.152099609375,0.4335
1.0687022900763359,0.5343511450381679,-1.3740458015267176,-0.457275390625,-0.100830078125,-0.1630859375,0.4352
0.8549618320610687,0.5343511450381679,-1.1908396946564885,-0.45947265625,-0.098388671875,-0.1494140625,0.43689999999999996
0.8396946564885496,0.4732824427480916,-1.3435114503816794,-0.460693359375,-0.102783203125,-0.155029296875,0.4386
1.1755725190839694,0.48854961832061067,-1.1297709923664123,-0.4599609375,-0.10302734375,-0.151123046875,0.44029999999999997
1.4045801526717556,0.732824427480916,-1.4045801526717556,-0.45751953125,-0.104248046875,-0.14453125,0.44199999999999995
1.1297709923664123,0.8854961832061069,-1.3282442748091603,-0.455078125,-0.1025390625,-0.1494140625,0.4437
1.1755725190839694,0.5648854961832062,-1.5114503816793894,-0.455078125,-0.1044921875,-0.150390625,0.44539999999999996
1.2213740458015268,0.5648854961832062,-1.282442748091603,-0.45849609375,-0.096923828125,-0.15234375,0.4471
1.2061068702290076,0.5343511450381679,-1.4198473282442747,-0.459228515625,-0.0966796875,-0.153564453125,0.4488
1.465648854961832,0.6412213740458015,-1.1297709923664123,-0.457275390625,-0.102783203125,-0.152587890625,0.45049999999999996
1.2061068702290076,0.9007633587786259,-1.3129770992366412,-0.459228515625,-0.10498046875,-0.15087890625,0.4522
1.0381679389312977,0.7480916030534351,-1.2366412213740459,-0.45068359375,-0.105712890625,-0.145263671875,0.45389999999999997
1.4198473282442747,0.7786259541984732,-1.099236641221374,-0.45458984375,-0.106689453125,-0.145263671875,0.45559999999999995
1.1908396946564885,0.7175572519083969,-1.3282442748091603,-0.452392578125,-0.097900390625,-0.154052734375,0.4573
1.3282442748091603,0.8549618320610687,-1.099236641221374,-0.455810546875,-0.103759765625,-0.14404296875,0.45899999999999996
1.2213740458015268,0.8854961832061069,-1.099236641221374,-0.45556640625,-0.1044921875,-0.145263671875,0.4607
1.099236641221374,0.7786259541984732,-1.3893129770992367,-0.4580078125,-0.102783203125,-0.145751953125,0.4624
0.916030534351145,0.8549618320610687,-1.1908396946564885,-0.451904296875,-0.103759765625,-0.137451171875,0.46409999999999996
0.9770992366412213,0.8091603053435115,-1.282442748091603,-0.453369140625,-0.102783203125,-0.153564453125,0.4658
1.1755725190839694,0.8702290076335878,-1.099236641221374,-0.453369140625,-0.1015625,-0.150390625,0.46749999999999997
0.8854961832061069,0.8854961832061069,-1.1908396946564885,-0.4580078125,-0.1044921875,-0.145263671875,0.46919999999999995
1.2366412213740459,0.7633587786259542,-1.0534351145038168,-0.45947265625,-0.100830078125,-0.149169921875,0.4709
1.1297709923664123,0.7633587786259542,-1.3282442748091603,-0.459228515625,-0.097900390625,-0.15380859375,0.47259999999999996
0.9465648854961832,0.8549618320610687,-1.3587786259541985,-0.454345703125,-0.106689453125,-0.149658203125,0.4743
0.9618320610687023,0.8549618320610687,-1.2671755725190839,-0.45849609375,-0.095947265625,-0.151611328125,0.476
0.9618320610687023,0.7480916030534351,-1.3587786259541985,-0.4609375,-0.09814453125,-0.152587890625,0.47769999999999996
1.1908396946564885,0.8396946564885496,-1.2061068702290076,-0.4541015625,-0.103759765625,-0.1494140625,0.4794
1.083969465648855,0.8702290076335878,-1.251908396946565,-0.457275390625,-0.10107421875,-0.147216796875,0.48109999999999997
1.4045801526717556,0.7022900763358778,-1.465648854961832,-0.459228515625,-0.105224609375,-0.151123046875,0.48279999999999995
1.251908396946565,0.8854961832061069,-1.4045801526717556,-0.454833984375,-0.104248046875,-0.156494140625,0.4845
1.3587786259541985,0.7786259541984732,-1.2671755725190839,-0.45361328125,-0.103271484375,-0.147705078125,0.48619999999999997
1.282442748091603,0.8091603053435115,-1.3893129770992367,-0.45361328125,-0.100341796875,-0.150390625,0.4879
1.297709923664122,0.8854961832061069,-1.3740458015267176,-0.453369140625,-0.105712890625,-0.1513671875,0.4896
1.633587786259542,0.7480916030534351,-1.4961832061068703,-0.45458984375,-0.102783203125,-0.14306640625,0.49129999999999996
1.5572519083969465,0.6259541984732825,-1.3587786259541985,-0.4580078125,-0.103515625,-0.15185546875,0.493
1.4351145038167938,0.7480916030534351,-1.3435114503816794,-0.45751953125,-0.100341796875,-0.151611328125,0.4947
1.3740458015267176,0.7175572519083969,-1.5572519083969465,-0.45361328125,-0.103759765625,-0.154296875,0.49639999999999995
1.3740458015267176,0.7022900763358778,-1.3282442748091603,-0.455078125,-0.10546875,-0.140869140625,0.4981
1.5725190839694656,0.916030534351145,-1.1145038167938932,-0.45654296875,-0.10546875,-0.14453125,0.49979999999999997
1.251908396946565,1.099236641221374,-1.2213740458015268,-0.45458984375,-0.1015625,-0.14892578125,0.5015
1.5877862595419847,1.1603053435114503,-1.1603053435114503,-0.450927734375,-0.105712890625,-0.147705078125,0.5032
1.4198473282442747,1.2213740458015268,-1.0534351145038168,-0.4501953125,-0.108154296875,-0.158935546875,0.5049
1.4198473282442747,1.4351145038167938,-1.0687022900763359,-0.457763671875,-0.101318359375,-0.15087890625,0.5065999999999999
1.4351145038167938,1.3129770992366412,-1.1603053435114503,-0.451416015625,-0.10302734375,-0.15576171875,0.5083
1.450381679389313,1.3740458015267176,-1.0381679389312977,-0.454345703125,-0.1044921875,-0.146240234375,0.51
1.3129770992366412,1.3129770992366412,-1.1297709923664123,-0.456787109375,-0.104248046875,-0.145263671875,0.5116999999999999
1.4198473282442747,1.297709923664122,-1.0076335877862594,-0.45703125,-0.100341796875,-0.14794921875,0.5134
1.1908396946564885,1.3282442748091603,-1.1145038167938932,-0.454345703125,-0.105224609375,-0.15576171875,0.5151
1.3129770992366412,1.4198473282442747,-1.1908396946564885,-0.451171875,-0.09912109375,-0.152587890625,0.5167999999999999
1.251908396946565,1.3129770992366412,-1.1755725190839694,-0.4521484375,-0.100830078125,-0.14404296875,0.5185
0.9770992366412213,1.0534351145038168,-1.2061068702290076,-0.455322265625,-0.101806640625,-0.143798828125,0.5202
0.6717557251908397,1.099236641221374,-1.3435114503816794,-0.456787109375,-0.10205078125,-0.146240234375,0.5218999999999999
0.8549618320610687,0.6717557251908397,-1.1755725190839694,-0.45849609375,-0.09619140625,-0.143798828125,0.5236
0.7786259541984732,0.9465648854961832,-1.297709923664122,-0.44921875,-0.102783203125,-0.1435546875,0.5253
0.48854961832061067,0.6564885496183206,-1.4045801526717556,-0.451171875,-0.1064453125,-0.145263671875,0.527
0.5954198473282443,0.549618320610687,-1.2671755725190839,-0.453857421875,-0.1044921875,-0.14599609375,0.5287
0.366412213740458,0.3511450381679389,-1.3129770992366412,-0.45458984375,-0.10205078125,-0.153076171875,0.5304
0.2595419847328244,0.366412213740458,-1.4045801526717556,-0.455810546875,-0.099853515625,-0.146728515625,0.5321
0.2595419847328244,0.183206106870229,-1.3740458015267176,-0.45703125,-0.100341796875,-0.150146484375,0.5337999999999999
0.13740458015267176,0.1984732824427481,-1.3435114503816794,-0.453125,-0.10107421875,-0.148681640625,0.5355
0.2595419847328244,0.366412213740458,-1.3282442748091603,-0.45947265625,-0.1025390625,-0.146240234375,0.5372
0.3053435114503817,0.42748091603053434,-1.5114503816793894,-0.458984375,-0.103759765625,-0.14453125,0.5388999999999999
0.07633587786259542,0.4732824427480916,-1.3893129770992367,-0.4560546875,-0.098388671875,-0.14697265625,0.5406
0.07633587786259542,0.366412213740458,-1.450381679389313,-0.455078125,-0.099609375,-0.15380859375,0.5423
0.13740458015267176,0.6564885496183206,-1.251908396946565,-0.4560546875,-0.095458984375,-0.1513671875,0.5439999999999999
0.5190839694656488,0.7175572519083969,-1.5725190839694656,-0.460205078125,-0.105224609375,-0.152099609375,0.5457
0.366412213740458,0.9007633587786259,-1.282442748091603,-0.455322265625,-0.097900390625,-0.1552734375,0.5474
0.3511450381679389,0.7786259541984732,-1.4351145038167938,-0.45849609375,-0.097900390625,-0.15234375,0.5490999999999999
0.549618320610687,1.099236641221374,-1.4351145038167938,-0.4580078125,-0.099853515625,-0.16015625,0.5508
0.5801526717557252,1.1450381679389312,-1.4809160305343512,-0.456298828125,-0.09765625,-0.156494140625,0.5525
0.7175572519083969,1.2061068702290076,-1.2671755725190839,-0.458740234375,-0.095458984375,-0.155517578125,0.5541999999999999
0.4122137404580153,1.1755725190839694,-1.2671755725190839,-0.4599609375,-0.10009765625,-0.1513671875,0.5559
0.7633587786259542,1.083969465648855,-1.4045801526717556,-0.45458984375,-0.09912109375,-0.156982421875,0.5576
0.7786259541984732,0.8854961832061069,-1.3435114503816794,-0.460693359375,-0.09765625,-0.152099609375,0.5593
0.7938931297709924,1.0229007633587786,-1.3740458015267176,-0.458251953125,-0.103515625,-0.144287109375,0.5609999999999999
0.8091603053435115,1.0381679389312977,-1.3893129770992367,-0.459716796875,-0.1044921875,-0.148193359375,0.5627
1.0076335877862594,1.1908396946564885,-1.2061068702290076,-0.4560546875,-0.10546875,-0.155517578125,0.5644
1.0381679389312977,0.9923664122137404,-1.3129770992366412,-0.45458984375,-0.102294921875,-0.152587890625,0.5660999999999999
0.7938931297709924,1.0687022900763359,-1.3129770992366412,-0.456298828125,-0.101806640625,-0.15673828125,0.5678
0.9618320610687023,1.297709923664122,-1.297709923664122,-0.45703125,-0.102294921875,-0.156982421875,0.5695
1.1297709923664123,1.2366412213740459,-1.1145038167938932,-0.456298828125,-0.108642578125,-0.1533203125,0.5711999999999999
1.2061068702290076,1.0076335877862594,-1.251908396946565,-0.456298828125,-0.105224609375,-0.157470703125,0.5729
1.0534351145038168,1.297709923664122,-1.3435114503816794,-0.45458984375,-0.10302734375,-0.1494140625,0.5746
1.1145038167938932,1.2213740458015268,-1.3893129770992367,-0.45654296875,-0.101806640625,-0.1513671875,0.5762999999999999
1.2366412213740459,1.2213740458015268,-1.0534351145038168,-0.459716796875,-0.10400390625,-0.14990234375,0.578
1.2213740458015268,1.0687022900763359,-1.3129770992366412,-0.4541015625,-0.103759765625,-0.15576171875,0.5797
1.4198473282442747,1.251908396946565,-1.2671755725190839,-0.456787109375,-0.103271484375,-0.14794921875,0.5813999999999999
1.1755725190839694,1.0381679389312977,-1.3129770992366412,-0.455810546875,-0.10009765625,-0.15087890625,0.5831
1.4961832061068703,0.9007633587786259,-1.5419847328244274,-0.455810546875,-0.1005859375,-0.15576171875,0.5848
1.3587786259541985,1.1450381679389312,-1.5419847328244274,-0.45654296875,-0.105712890625,-0.151611328125,0.5865
1.4198473282442747,1.099236641221374,-1.3893129770992367,-0.45849609375,-0.099365234375,-0.158447265625,0.5882
1.4045801526717556,0.9618320610687023,-1.4809160305343512,-0.448486328125,-0.104736328125,-0.15185546875,0.5899
1.5877862595419847,0.7633587786259542,-1.2061068702290076,-0.45166015625,-0.10205078125,-0.149658203125,0.5916
1.3893129770992367,0.9618320610687023,-1.3893129770992367,-0.452392578125,-0.103271484375,-0.15478515625,0.5932999999999999
1.4198473282442747,0.7175572519083969,-1.4351145038167938,-0.45458984375,-0.106689453125,-0.152099609375,0.595
1.0687022900763359,0.5038167938931297,-1.4809160305343512,-0.456787109375,-0.1025390625,-0.15380859375,0.5967
0.8854961832061069,0.549618320610687,-1.450381679389313,-0.4521484375,-0.107666015625,-0.151611328125,0.5983999999999999
1.083969465648855,0.6412213740458015,-1.5267175572519085,-0.450927734375,-0.10498046875,-0.148681640625,0.6001
1.1450381679389312,0.6412213740458015,-1.450381679389313,-0.4501953125,-0.10546875,-0.144775390625,0.6018
1.1755725190839694,1.0381679389312977,-1.6946564885496183,-0.44921875,-0.10595703125,-0.156005859375,0.6034999999999999
1.0076335877862594,0.8396946564885496,-1.4198473282442747,-0.44580078125,-0.103515625,-0.14990234375,0.6052
1.1450381679389312,0.8244274809160306,-1.5725190839694656,-0.452880859375,-0.109375,-0.1572265625,0.6069
1.0076335877862594,0.7938931297709924,-1.3587786259541985,-0.4521484375,-0.101806640625,-0.149169921875,0.6085999999999999
0.9923664122137404,1.0076335877862594,-1.5114503816793894,-0.446533203125,-0.100830078125,-0.14404296875,0.6103
1.1145038167938932,0.9923664122137404,-1.4045801526717556,-0.45166015625,-0.099365234375,-0.14990234375,0.612
0.9007633587786259,1.1603053435114503,-1.5572519083969465,-0.449462890625,-0.095458984375,-0.154541015625,0.6136999999999999
1.0229007633587786,1.1145038167938932,-1.2366412213740459,-0.449951171875,-0.1044921875,-0.1474609375,0.6154
0.916030534351145,1.0534351145038168,-1.5572519083969465,-0.45166015625,-0.100830078125,-0.14306640625,0.6171
0.732824427480916,1.2366412213740459,-1.5725190839694656,-0.455078125,-0.101318359375,-0.140869140625,0.6188
1.0534351145038168,1.2213740458015268,-1.5114503816793894,-0.458251953125,-0.09716796875,-0.151123046875,0.6204999999999999
0.9465648854961832,1.1755725190839694,-1.3435114503816794,-0.45703125,-0.0966796875,-0.1435546875,0.6222
0.7938931297709924,1.0229007633587786,-1.450381679389313,-0.458740234375,-0.09716796875,-0.1435546875,0.6239
0.7633587786259542,1.0076335877862594,-1.4198473282442747,-0.46142578125,-0.102294921875,-0.150390625,0.6255999999999999
0.6870229007633588,0.8854961832061069,-1.5114503816793894,-0.449462890625,-0.1015625,-0.146484375,0.6273
0.5954198473282443,1.1297709923664123,-1.4198473282442747,-0.454345703125,-0.10302734375,-0.146484375,0.629
0.5801526717557252,0.9770992366412213,-1.282442748091603,-0.453125,-0.1015625,-0.149169921875,0.6306999999999999
0.7022900763358778,0.9618320610687023,-0.9618320610687023,-0.452880859375,-0.10400390625,-0.140380859375,0.6324
0.4122137404580153,0.9312977099236641,-1.282442748091603,-0.4560546875,-0.097900390625,-0.145751953125,0.6341
0.10687022900763359,0.9618320610687023,-0.9312977099236641,-0.451904296875,-0.09912109375,-0.151611328125,0.6357999999999999
0.07633587786259542,0.8854961832061069,-1.2213740458015268,-0.451171875,-0.104248046875,-0.156982421875,0.6375
0.030534351145038167,0.6412213740458015,-1.0076335877862594,-0.46044921875,-0.09912109375,-0.154296875,0.6392
0.030534351145038167,0.9770992366412213,-0.9465648854961832,-0.456787109375,-0.101318359375,-0.15087890625,0.6408999999999999
0.0916030534351145,0.8091603053435115,-0.732824427480916,-0.451904296875,-0.098876953125,-0.150146484375,0.6426
0.16793893129770993,0.7022900763358778,-0.8702290076335878,-0.4580078125,-0.101806640625,-0.1494140625,0.6443
-0.15267175572519084,0.9007633587786259,-0.9465648854961832,-0.455078125,-0.100341796875,-0.1455078125,0.646
-0.24427480916030533,0.5801526717557252,-0.8854961832061069,-0.45361328125,-0.100341796875,-0.145751953125,0.6476999999999999
0.015267175572519083,0.9618320610687023,-0.7022900763358778,-0.460205078125,-0.10498046875,-0.144287109375,0.6494
-0.15267175572519084,0.9618320610687023,-0.8396946564885496,-0.461181640625,-0.1064453125,-0.150634765625,0.6511
0.21374045801526717,0.7786259541984732,-0.8396946564885496,-0.4580078125,-0.10498046875,-0.146728515625,0.6527999999999999
0.5648854961832062,0.8854961832061069,-0.9007633587786259,-0.45947265625,-0.103759765625,-0.14892578125,0.6545
0.3816793893129771,0.8854961832061069,-0.9618320610687023,-0.45654296875,-0.106689453125,-0.1474609375,0.6562
0.5190839694656488,0.8702290076335878,-1.1145038167938932,-0.4599609375,-0.102783203125,-0.15576171875,0.6578999999999999
0.5343511450381679,0.8549618320610687,-0.9312977099236641,-0.45751953125,-0.1015625,-0.152099609375,0.6596
0.7786259541984732,0.8244274809160306,-0.8702290076335878,-0.456787109375,-0.10205078125,-0.15478515625,0.6613
0.8702290076335878,0.9007633587786259,-0.9465648854961832,-0.460205078125,-0.1025390625,-0.152099609375,0.6629999999999999
0.7480916030534351,0.9770992366412213,-1.1145038167938932,-0.460205078125,-0.1025390625,-0.156982421875,0.6647
0.6412213740458015,0.9465648854961832,-0.9312977099236641,-0.456298828125,-0.109619140625,-0.158447265625,0.6664
0.8396946564885496,0.9770992366412213,-1.1450381679389312,-0.457275390625,-0.107421875,-0.156005859375,0.6680999999999999
1.0381679389312977,0.9770992366412213,-0.9923664122137404,-0.45556640625,-0.110595703125,-0.16015625,0.6698
0.5648854961832062,0.7633587786259542,-1.0229007633587786,-0.46044921875,-0.09814453125,-0.15673828125,0.6715
0.5343511450381679,1.0534351145038168,-0.8702290076335878,-0.457763671875,-0.103271484375,-0.15283203125,0.6731999999999999
0.7480916030534351,1.083969465648855,-0.9923664122137404,-0.459228515625,-0.103515625,-0.1474609375,0.6748999999999999
0.6412213740458015,1.099236641221374,-1.1145038167938932,-0.45947265625,-0.101806640625,-0.157958984375,0.6766
0.42748091603053434,1.3129770992366412,-1.0076335877862594,-0.4580078125,-0.099365234375,-0.15185546875,0.6783
0.5343511450381679,1.3435114503816794,-0.9007633587786259,-0.460693359375,-0.105712890625,-0.153564453125,0.6799999999999999
0.5954198473282443,1.251908396946565,-1.0534351145038168,-0.45703125,-0.0986328125,-0.15185546875,0.6817
0.183206106870229,1.4961832061068703,-1.0381679389312977,-0.46044921875,-0.09619140625,-0.15478515625,0.6834
0.13740458015267176,1.633587786259542,-1.0687022900763359,-0.456787109375,-0.09814453125,-0.14990234375,0.6850999999999999
0.15267175572519084,1.2213740458015268,-0.9465648854961832,-0.461181640625,-0.099853515625,-0.157470703125,0.6868
0.4122137404580153,1.465648854961832,-1.0076335877862594,-0.45751953125,-0.0986328125,-0.157958984375,0.6885
0.42748091603053434,1.5572519083969465,-0.9770992366412213,-0.453857421875,-0.098876953125,-0.151123046875,0.6901999999999999
0.3816793893129771,1.5572519083969465,-1.0229007633587786,-0.456787109375,-0.10205078125,-0.1484375,0.6919
0.5954198473282443,1.633587786259542,-1.3435114503816794,-0.456298828125,-0.096435546875,-0.158203125,0.6936
0.6564885496183206,1.3587786259541985,-1.297709923664122,-0.453369140625,-0.100830078125,-0.14697265625,0.6952999999999999
0.6106870229007634,1.3587786259541985,-1.083969465648855,-0.4541015625,-0.10400390625,-0.145263671875,0.697
0.9007633587786259,1.4045801526717556,-1.1450381679389312,-0.456298828125,-0.10546875,-0.14697265625,0.6987
0.732824427480916,1.1297709923664123,-1.1908396946564885,-0.457763671875,-0.1015625,-0.152099609375,0.7003999999999999
0.7786259541984732,1.0381679389312977,-1.2366412213740459,-0.452392578125,-0.099853515625,-0.147216796875,0.7021
0.7633587786259542,0.8854961832061069,-1.3282442748091603,-0.45361328125,-0.105712890625,-0.151611328125,0.7038
1.3435114503816794,1.0687022900763359,-1.3587786259541985,-0.451904296875,-0.100830078125,-0.144775390625,0.7055
1.251908396946565,0.9923664122137404,-1.2671755725190839,-0.455810546875,-0.098388671875,-0.14697265625,0.7071999999999999
1.0229007633587786,0.9770992366412213,-1.450381679389313,-0.4541015625,-0.099365234375,-0.155029296875,0.7089
1.251908396946565,1.0229007633587786,-1.633587786259542,-0.44921875,-0.099853515625,-0.14892578125,0.7106
1.1603053435114503,0.9923664122137404,-1.3893129770992367,-0.449951171875,-0.103515625,-0.142578125,0.7122999999999999
1.1755725190839694,1.1145038167938932,-1.3893129770992367,-0.45361328125,-0.101318359375,-0.14794921875,0.714
1.1908396946564885,1.2213740458015268,-1.4045801526717556,-0.45703125,-0.104736328125,-0.149658203125,0.7157
1.2671755725190839,1.5725190839694656,-1.6030534351145038,-0.458251953125,-0.105224609375,-0.15087890625,0.7173999999999999
1.3282442748091603,1.6641221374045803,-1.5114503816793894,-0.453857421875,-0.104736328125,-0.157470703125,0.7191
1.1603053435114503,1.5267175572519085,-1.465648854961832,-0.453369140625,-0.099853515625,-0.14208984375,0.7208
0.8396946564885496,1.5725190839694656,-1.7099236641221374,-0.45361328125,-0.09716796875,-0.14208984375,0.7224999999999999
1.1603053435114503,1.5419847328244274,-1.633587786259542,-0.4541015625,-0.1025390625,-0.14208984375,0.7242
1.0687022900763359,1.786259541984733,-1.3587786259541985,-0.453369140625,-0.09912109375,-0.152587890625,0.7259
0.9923664122137404,1.7251908396946565,-1.6641221374045803,-0.456298828125,-0.097412109375,-0.14794921875,0.7275999999999999
0.7786259541984732,1.7251908396946565,-1.5267175572519085,-0.454833984375,-0.100341796875,-0.146240234375,0.7293
0.6717557251908397,1.7404580152671756,-1.5725190839694656,-0.458251953125,-0.099853515625,-0.14404296875,0.731
0.6412213740458015,1.6793893129770991,-1.7404580152671756,-0.45947265625,-0.09521484375,-0.147216796875,0.7326999999999999
0.5954198473282443,1.633587786259542,-1.5572519083969465,-0.455810546875,-0.096435546875,-0.150634765625,0.7343999999999999
0.6412213740458015,1.6641221374045803,-1.633587786259542,-0.452392578125,-0.096923828125,-0.145751953125,0.7361
0.4732824427480916,1.3435114503816794,-1.633587786259542,-0.454345703125,-0.103759765625,-0.149169921875,0.7378
0.3511450381679389,1.2671755725190839,-1.6946564885496183,-0.452392578125,-0.097412109375,-0.148681640625,0.7394999999999999
0.32061068702290074,1.1755725190839694,-1.5419847328244274,-0.44921875,-0.0966796875,-0.152099609375,0.7412
0.6259541984732825,1.282442748091603,-1.450381679389313,-0.4521484375,-0.09619140625,-0.14599609375,0.7429
0.6412213740458015,1.0687022900763359,-1.4045801526717556,-0.452880859375,-0.09619140625,-0.148681640625,0.7445999999999999
0.21374045801526717,0.8549618320610687,-1.3893129770992367,-0.45458984375,-0.09814453125,-0.14404296875,0.7463
0.3816793893129771,0.9312977099236641,-1.465648854961832,-0.456787109375,-0.09716796875,-0.147216796875,0.748
0.6259541984732825,0.916030534351145,-1.282442748091603,-0.45263671875,-0.1025390625,-0.15234375,0.7496999999999999
0.5190839694656488,1.0229007633587786,-1.3587786259541985,-0.44970703125,-0.0986328125,-0.147705078125,0.7514
0.42748091603053434,0.8091603053435115,-1.3435114503816794,-0.45654296875,-0.0986328125,-0.155517578125,0.7531
0.33587786259541985,0.9618320610687023,-1.450381679389313,-0.45263671875,-0.095458984375,-0.1484375,0.7547999999999999
0.5038167938931297,0.9007633587786259,-1.297709923664122,-0.452392578125,-0.091552734375,-0.144287109375,0.7565
0.5038167938931297,0.7022900763358778,-1.251908396946565,-0.450927734375,-0.099853515625,-0.152099609375,0.7582
0.7786259541984732,0.6870229007633588,-1.282442748091603,-0.454345703125,-0.093994140625,-0.14892578125,0.7598999999999999
0.8091603053435115,0.8396946564885496,-1.282442748091603,-0.455078125,-0.100341796875,-0.146240234375,0.7615999999999999
0.6870229007633588,0.7175572519083969,-1.1603053435114503,-0.452880859375,-0.1005859375,-0.149658203125,0.7633
0.8854961832061069,0.7633587786259542,-1.297709923664122,-0.4560546875,-0.10009765625,-0.146728515625,0.7649999999999999
0.732824427480916,0.732824427480916,-1.282442748091603,-0.4541015625,-0.099365234375,-0.15234375,0.7666999999999999
0.732824427480916,0.7022900763358778,-1.1908396946564885,-0.4580078125,-0.09423828125,-0.153564453125,0.7684
0.6259541984732825,0.5801526717557252,-1.2366412213740459,-0.453125,-0.099853515625,-0.151611328125,0.7701
0.7175572519083969,0.6870229007633588,-1.1755725190839694,-0.45263671875,-0.099853515625,-0.148681640625,0.7717999999999999
0.4122137404580153,0.6259541984732825,-1.1450381679389312,-0.450927734375,-0.102294921875,-0.15625,0.7735
0.3969465648854962,0.6412213740458015,-1.2366412213740459,-0.45654296875,-0.106201171875,-0.158447265625,0.7752
0.7022900763358778,0.7480916030534351,-0.9465648854961832,-0.451171875,-0.09765625,-0.155517578125,0.7768999999999999
0.5190839694656488,0.7022900763358778,-1.1908396946564885,-0.455322265625,-0.0986328125,-0.15771484375,0.7786
0.5648854961832062,0.8091603053435115,-1.0687022900763359,-0.4521484375,-0.10009765625,-0.150390625,0.7803
0.6412213740458015,0.9618320610687023,-1.3282442748091603,-0.454345703125,-0.101318359375,-0.14892578125,0.7819999999999999
0.6564885496183206,0.8854961832061069,-1.1603053435114503,-0.45654296875,-0.10400390625,-0.1572265625,0.7837
0.9312977099236641,0.9312977099236641,-1.2366412213740459,-0.460205078125,-0.104736328125,-0.16357421875,0.7854
0.6259541984732825,0.8702290076335878,-1.2366412213740459,-0.453369140625,-0.099853515625,-0.15380859375,0.7870999999999999
0.9007633587786259,1.0076335877862594,-1.465648854961832,-0.450439453125,-0.101806640625,-0.15185546875,0.7888
0.6870229007633588,1.1145038167938932,-1.3740458015267176,-0.45361328125,-0.1005859375,-0.1494140625,0.7905
0.7022900763358778,1.0687022900763359,-1.4351145038167938,-0.45556640625,-0.103759765625,-0.1455078125,0.7921999999999999
0.8702290076335878,0.9923664122137404,-1.1297709923664123,-0.45703125,-0.10498046875,-0.146728515625,0.7938999999999999
0.9312977099236641,0.9923664122137404,-1.251908396946565,-0.45068359375,-0.102294921875,-0.148681640625,0.7956
0.7938931297709924,0.9465648854961832,-1.3282442748091603,-0.457763671875,-0.105712890625,-0.14697265625,0.7973
0.5343511450381679,1.0381679389312977,-1.6488549618320612,-0.461181640625,-0.1025390625,-0.151123046875,0.7989999999999999
0.7786259541984732,0.9618320610687023,-1.3893129770992367,-0.455078125,-0.10693359375,-0.14453125,0.8007
1.0534351145038168,1.083969465648855,-1.450381679389313,-0.4580078125,-0.1083984375,-0.151123046875,0.8024
0.7786259541984732,0.9618320610687023,-1.5725190839694656,-0.457763671875,-0.103759765625,-0.154541015625,0.8040999999999999
0.5343511450381679,1.2061068702290076,-1.6946564885496183,-0.45947265625,-0.10693359375,-0.153564453125,0.8058
0.6259541984732825,1.0076335877862594,-1.5877862595419847,-0.460205078125,-0.107421875,-0.145263671875,0.8075
0.7786259541984732,1.1297709923664123,-1.6488549618320612,-0.457275390625,-0.103759765625,-0.149658203125,0.8091999999999999
0.9312977099236641,1.1755725190839694,-1.5114503816793894,-0.4560546875,-0.103515625,-0.155517578125,0.8109
0.9312977099236641,1.1297709923664123,-1.5419847328244274,-0.459716796875,-0.101806640625,-0.150634765625,0.8126
0.7022900763358778,1.0687022900763359,-1.6793893129770991,-0.451904296875,-0.10498046875,-0.144287109375,0.8142999999999999
0.8549618320610687,1.3129770992366412,-1.6488549618320612,-0.454345703125,-0.106689453125,-0.14404296875,0.816
0.7938931297709924,1.3740458015267176,-1.6488549618320612,-0.451904296875,-0.1025390625,-0.14794921875,0.8177
0.6106870229007634,1.3587786259541985,-1.618320610687023,-0.454345703125,-0.101806640625,-0.15478515625,0.8193999999999999
0.4732824427480916,1.1755725190839694,-1.618320610687023,-0.45751953125,-0.107177734375,-0.151611328125,0.8210999999999999
0.549618320610687,1.5419847328244274,-1.5572519083969465,-0.45703125,-0.103515625,-0.1513671875,0.8228
0.3969465648854962,1.4809160305343512,-1.7251908396946565,-0.4560546875,-0.104736328125,-0.150146484375,0.8244999999999999
0.2900763358778626,1.450381679389313,-1.6030534351145038,-0.453857421875,-0.09814453125,-0.1494140625,0.8261999999999999
0.3969465648854962,1.465648854961832,-1.618320610687023,-0.456787109375,-0.099853515625,-0.14453125,0.8279
0.3053435114503817,1.465648854961832,-1.816793893129771,-0.457763671875,-0.104248046875,-0.1513671875,0.8296
0.549618320610687,1.450381679389313,-1.7251908396946565,-0.458740234375,-0.104736328125,-0.14453125,0.8312999999999999
0.48854961832061067,1.465648854961832,-1.7099236641221374,-0.46142578125,-0.1015625,-0.148193359375,0.833
0.5648854961832062,1.7404580152671756,-1.7251908396946565,-0.457275390625,-0.10107421875,-0.14404296875,0.8347
0.6564885496183206,1.6793893129770991,-1.6946564885496183,-0.458740234375,-0.10546875,-0.15478515625,0.8363999999999999
0.7633587786259542,1.465648854961832,-1.4961832061068703,-0.45556640625,-0.100341796875,-0.13623046875,0.8381
1.0229007633587786,1.6793893129770991,-1.4961832061068703,-0.460205078125,-0.1025390625,-0.151123046875,0.8398
1.0076335877862594,1.3282442748091603,-1.5419847328244274,-0.451171875,-0.10546875,-0.146240234375,0.8414999999999999
0.9923664122137404,1.4809160305343512,-1.450381679389313,-0.455810546875,-0.1015625,-0.1533203125,0.8432
1.0229007633587786,1.2366412213740459,-1.3893129770992367,-0.45458984375,-0.1005859375,-0.15283203125,0.8449
1.4809160305343512,1.2671755725190839,-1.618320610687023,-0.455810546875,-0.0986328125,-0.149658203125,0.8465999999999999
1.3129770992366412,1.2366412213740459,-1.4198473282442747,-0.457275390625,-0.105224609375,-0.151611328125,0.8482999999999999
1.251908396946565,1.2213740458015268,-1.618320610687023,-0.463134765625,-0.102783203125,-0.150634765625,0.85
1.3740458015267176,1.0381679389312977,-1.4045801526717556,-0.459228515625,-0.106689453125,-0.15380859375,0.8516999999999999
1.282442748091603,1.251908396946565,-1.4198473282442747,-0.45458984375,-0.09912109375,-0.1455078125,0.8533999999999999
1.4809160305343512,0.9465648854961832,-1.3740458015267176,-0.453125,-0.101318359375,-0.148681640625,0.8551
1.2671755725190839,0.8244274809160306,-1.3740458015267176,-0.45703125,-0.102294921875,-0.150146484375,0.8568
1.0229007633587786,0.9770992366412213,-1.2213740458015268,-0.453369140625,-0.099853515625,-0.14599609375,0.8584999999999999
1.3129770992366412,0.9923664122137404,-1.1908396946564885,-0.459228515625,-0.100341796875,-0.148193359375,0.8602
1.1755725190839694,0.9770992366412213,-1.251908396946565,-0.4541015625,-0.10009765625,-0.14990234375,0.8619
1.1908396946564885,0.9312977099236641,-1.0687022900763359,-0.453857421875,-0.09814453125,-0.149658203125,0.8635999999999999
1.450381679389313,0.8854961832061069,-1.1603053435114503,-0.45458984375,-0.104736328125,-0.155517578125,0.8653
1.2213740458015268,0.9312977099236641,-0.9465648854961832,-0.452880859375,-0.1005859375,-0.149169921875,0.867
1.0687022900763359,0.9007633587786259,-0.9618320610687023,-0.450927734375,-0.10205078125,-0.146484375,0.8686999999999999
1.1450381679389312,0.8549618320610687,-1.1755725190839694,-0.448486328125,-0.107177734375,-0.146484375,0.8704
0.9618320610687023,0.6564885496183206,-1.0076335877862594,-0.45361328125,-0.100830078125,-0.15087890625,0.8721
1.1297709923664123,0.7175572519083969,-1.0229007633587786,-0.44580078125,-0.1025390625,-0.1533203125,0.8737999999999999
1.1603053435114503,0.7175572519083969,-1.1297709923664123,-0.447509765625,-0.102294921875,-0.149658203125,0.8755
1.083969465648855,0.5648854961832062,-0.9465648854961832,-0.454345703125,-0.10693359375,-0.15771484375,0.8772
1.0687022900763359,0.6870229007633588,-0.8702290076335878,-0.45263671875,-0.103271484375,-0.154052734375,0.8788999999999999
0.9770992366412213,0.5038167938931297,-1.099236641221374,-0.4521484375,-0.095703125,-0.156494140625,0.8805999999999999
1.083969465648855,0.4580152671755725,-0.8549618320610687,-0.4501953125,-0.101806640625,-0.16259765625,0.8823
1.0534351145038168,0.48854961832061067,-1.1297709923664123,-0.453857421875,-0.10595703125,-0.146728515625,0.8839999999999999
1.0229007633587786,0.32061068702290074,-1.0534351145038168,-0.4580078125,-0.100341796875,-0.145751953125,0.8856999999999999
0.9770992366412213,0.48854961832061067,-0.8854961832061069,-0.45556640625,-0.101806640625,-0.1494140625,0.8874
0.6717557251908397,0.6870229007633588,-1.0076335877862594,-0.4580078125,-0.10595703125,-0.15283203125,0.8891
0.8854961832061069,0.7175572519083969,-1.1297709923664123,-0.45263671875,-0.0986328125,-0.158447265625,0.8907999999999999
0.7938931297709924,0.6259541984732825,-0.8549618320610687,-0.453857421875,-0.10498046875,-0.1513671875,0.8925
0.9312977099236641,1.0534351145038168,-1.1450381679389312,-0.452392578125,-0.10595703125,-0.153076171875,0.8942
1.0381679389312977,1.450381679389313,-1.0534351145038168,-0.4541015625,-0.102783203125,-0.156005859375,0.8958999999999999
0.8549618320610687,1.1450381679389312,-1.0076335877862594,-0.454833984375,-0.103271484375,-0.15185546875,0.8976
1.1450381679389312,1.1297709923664123,-1.1603053435114503,-0.456298828125,-0.104736328125,-0.16162109375,0.8993
0.9007633587786259,1.3129770992366412,-1.4351145038167938,-0.456787109375,-0.10107421875,-0.14794921875,0.9009999999999999
1.0534351145038168,1.3587786259541985,-1.450381679389313,-0.45703125,-0.1005859375,-0.1494140625,0.9027
1.099236641221374,1.465648854961832,-1.6793893129770991,-0.46044921875,-0.10498046875,-0.15283203125,0.9044
1.297709923664122,1.3587786259541985,-1.0534351145038168,-0.45556640625,-0.107666015625,-0.146484375,0.9060999999999999
1.5725190839694656,1.3893129770992367,-1.2366412213740459,-0.4541015625,-0.104248046875,-0.15966796875,0.9077999999999999
1.5877862595419847,1.5877862595419847,-1.3435114503816794,-0.45361328125,-0.10546875,-0.146240234375,0.9095
1.6946564885496183,1.5877862595419847,-1.2213740458015268,-0.4541015625,-0.1044921875,-0.154296875,0.9111999999999999
1.450381679389313,1.5572519083969465,-1.251908396946565,-0.45654296875,-0.10205078125,-0.15478515625,0.9128999999999999
1.83206106870229,1.633587786259542,-1.282442748091603,-0.455810546875,-0.100830078125,-0.150634765625,0.9146
2.1374045801526718,1.6030534351145038,-1.3435114503816794,-0.455322265625,-0.10107421875,-0.1494140625,0.9163
1.9389312977099236,1.6488549618320612,-1.3587786259541985,-0.45361328125,-0.104736328125,-0.15234375,0.9179999999999999
2.122137404580153,1.4198473282442747,-1.1908396946564885,-0.449951171875,-0.0986328125,-0.156005859375,0.9197
1.9541984732824427,1.465648854961832,-1.3893129770992367,-0.4501953125,-0.100830078125,-0.15576171875,0.9214
1.6793893129770991,1.4045801526717556,-1.297709923664122,-0.453125,-0.099853515625,-0.15185546875,0.9230999999999999
1.8625954198473282,1.3587786259541985,-1.2061068702290076,-0.451904296875,-0.1005859375,-0.146484375,0.9248
1.83206106870229,1.4809160305343512,-1.2061068702290076,-0.45654296875,-0.10302734375,-0.15625,0.9265
1.8473282442748091,1.5572519083969465,-1.1908396946564885,-0.451416015625,-0.100830078125,-0.156494140625,0.9281999999999999
1.9541984732824427,1.5419847328244274,-1.1908396946564885,-0.457763671875,-0.101806640625,-0.14306640625,0.9299
1.816793893129771,1.2061068702290076,-0.9923664122137404,-0.45263671875,-0.10302734375,-0.152587890625,0.9316
1.8625954198473282,1.4198473282442747,-1.1755725190839694,-0.45361328125,-0.09814453125,-0.1494140625,0.9332999999999999
1.7709923664122138,1.1145038167938932,-1.1755725190839694,-0.456298828125,-0.101806640625,-0.1513671875,0.9349999999999999
1.7557251908396947,1.0229007633587786,-0.9618320610687023,-0.454833984375,-0.10693359375,-0.147216796875,0.9367
1.5877862595419847,1.251908396946565,-0.9465648854961832,-0.452880859375,-0.103759765625,-0.14990234375,0.9383999999999999
1.6946564885496183,1.099236641221374,-1.0534351145038168,-0.4560546875,-0.10693359375,-0.1484375,0.9400999999999999
1.5877862595419847,0.9312977099236641,-1.0076335877862594,-0.4560546875,-0.105224609375,-0.14892578125,0.9418
1.3893129770992367,1.0229007633587786,-0.916030534351145,-0.456787109375,-0.1025390625,-0.14794921875,0.9434999999999999
1.3435114503816794,1.0381679389312977,-0.8244274809160306,-0.46240234375,-0.107421875,-0.153564453125,0.9451999999999999
1.0534351145038168,1.0229007633587786,-0.9618320610687023,-0.458251953125,-0.103759765625,-0.150390625,0.9469
0.916030534351145,0.6412213740458015,-0.9007633587786259,-0.454833984375,-0.102294921875,-0.15380859375,0.9486
0.8549618320610687,0.7175572519083969,-0.8244274809160306,-0.451904296875,-0.10546875,-0.145751953125,0.9502999999999999
0.8244274809160306,0.5954198473282443,-0.8549618320610687,-0.456298828125,-0.109130859375,-0.1455078125,0.952
0.6259541984732825,0.7022900763358778,-0.9618320610687023,-0.45654296875,-0.103271484375,-0.146728515625,0.9537
0.549618320610687,0.732824427480916,-0.9618320610687023,-0.454833984375,-0.106201171875,-0.144287109375,0.9553999999999999
0.549618320610687,0.6412213740458015,-0.8091603053435115,-0.458251953125,-0.1025390625,-0.153076171875,0.9571
0.2595419847328244,0.6564885496183206,-0.8091603053435115,-0.45361328125,-0.103759765625,-0.144775390625,0.9588
0.3969465648854962,0.5648854961832062,-0.916030534351145,-0.45068359375,-0.1064453125,-0.152099609375,0.9604999999999999
0.21374045801526717,0.5038167938931297,-0.8396946564885496,-0.457763671875,-0.100830078125,-0.14306640625,0.9621999999999999
0.12213740458015267,0.7786259541984732,-0.9618320610687023,-0.452392578125,-0.107177734375,-0.146484375,0.9639
0.366412213740458,0.7633587786259542,-0.7633587786259542,-0.451171875,-0.10107421875,-0.152099609375,0.9655999999999999
0.030534351145038167,0.8091603053435115,-0.9465648854961832,-0.452880859375,-0.105224609375,-0.148681640625,0.9672999999999999
0.16793893129770993,0.7633587786259542,-0.916030534351145,-0.450927734375,-0.1025390625,-0.150146484375,0.969
0.22900763358778625,0.7480916030534351,-0.8244274809160306,-0.453125,-0.1044921875,-0.152099609375,0.9706999999999999
0.4580152671755725,0.7480916030534351,-0.8854961832061069,-0.459716796875,-0.098876953125,-0.1513671875,0.9723999999999999
0.42748091603053434,0.7786259541984732,-1.0534351145038168,-0.460205078125,-0.100830078125,-0.1513671875,0.9741
0.1984732824427481,0.8091603053435115,-0.8396946564885496,-0.45654296875,-0.10205078125,-0.1455078125,0.9758
0.2748091603053435,0.7480916030534351,-1.1145038167938932,-0.455322265625,-0.100341796875,-0.1484375,0.9774999999999999
0.3053435114503817,0.732824427480916,-1.083969465648855,-0.45703125,-0.09765625,-0.1484375,0.9792
0.6259541984732825,0.6106870229007634,-0.9770992366412213,-0.456298828125,-0.1025390625,-0.152587890625,0.9809
0.6412213740458015,0.6259541984732825,-1.083969465648855,-0.454345703125,-0.0947265625,-0.159912109375,0.9825999999999999
0.6564885496183206,0.5801526717557252,-1.1755725190839694,-0.455810546875,-0.100830078125,-0.15576171875,0.9843
0.44274809160305345,0.4732824427480916,-0.8549618320610687,-0.45751953125,-0.09912109375,-0.15087890625,0.986
0.4732824427480916,0.6412213740458015,-0.8549618320610687,-0.452880859375,-0.099365234375,-0.155517578125,0.9876999999999999
0.48854961832061067,0.42748091603053434,-0.8549618320610687,-0.45703125,-0.10693359375,-0.147216796875,0.9894
0.8549618320610687,0.4580152671755725,-1.0381679389312977,-0.455810546875,-0.099853515625,-0.15087890625,0.9911
0.8854961832061069,0.7022900763358778,-0.8702290076335878,-0.45654296875,-0.10009765625,-0.160400390625,0.9927999999999999
0.8549618320610687,0.48854961832061067,-0.9465648854961832,-0.4501953125,-0.095947265625,-0.151123046875,0.9944999999999999
1.099236641221374,0.6564885496183206,-0.9312977099236641,-0.45361328125,-0.10205078125,-0.1533203125,0.9962
1.3282442748091603,0.9465648854961832,-0.9923664122137404,-0.451904296875,-0.1015625,-0.15380859375,0.9978999999999999
1.2671755725190839,0.9770992366412213,-0.9618320610687023,-0.453369140625,-0.097412109375,-0.156494140625,0.9995999999999999
1.282442748091603,1.0381679389312977,-1.0534351145038168,-0.4599609375,-0.094970703125,-0.154296875,1.0012999999999999
1.5725190839694656,1.2366412213740459,-1.1908396946564885,-0.45361328125,-0.090087890625,-0.15087890625,1.003
1.4045801526717556,1.2213740458015268,-0.9923664122137404,-0.45947265625,-0.100830078125,-0.15673828125,1.0047
1.3893129770992367,1.2213740458015268,-0.8854961832061069,-0.44970703125,-0.10009765625,-0.15478515625,1.0064
1.5419847328244274,1.282442748091603,-1.2213740458015268,-0.456298828125,-0.1015625,-0.146484375,1.0081
1.816793893129771,1.2061068702290076,-1.282442748091603,-0.455078125,-0.100830078125,-0.15185546875,1.0098
1.7251908396946565,1.4045801526717556,-1.083969465648855,-0.46044921875,-0.09716796875,-0.1484375,1.0114999999999998
1.3587786259541985,1.282442748091603,-0.9923664122137404,-0.454833984375,-0.100830078125,-0.14794921875,1.0131999999999999
1.5877862595419847,1.083969465648855,-1.1755725190839694,-0.45458984375,-0.099609375,-0.150146484375,1.0149
1.6793893129770991,1.3587786259541985,-1.2213740458015268,-0.455322265625,-0.097900390625,-0.144775390625,1.0166
1.633587786259542,1.3435114503816794,-1.297709923664122,-0.45556640625,-0.10498046875,-0.15625,1.0183
1.8473282442748091,1.2061068702290076,-1.4198473282442747,-0.456298828125,-0.103271484375,-0.15771484375,1.02
1.8015267175572518,1.2671755725190839,-1.3740458015267176,-0.4560546875,-0.10986328125,-0.15185546875,1.0217
1.7404580152671756,1.1755725190839694,-1.1908396946564885,-0.456298828125,-0.103759765625,-0.146240234375,1.0233999999999999
1.618320610687023,1.282442748091603,-1.2366412213740459,-0.453857421875,-0.102783203125,-0.15625,1.0251
1.6488549618320612,1.1603053435114503,-1.3893129770992367,-0.457763671875,-0.10693359375,-0.15478515625,1.0268
1.786259541984733,1.3893129770992367,-1.3740458015267176,-0.455078125,-0.1025390625,-0.1552734375,1.0285
2.0,1.4198473282442747,-1.3435114503816794,-0.454833984375,-0.1025390625,-0.149658203125,1.0302
1.816793893129771,1.1145038167938932,-1.3740458015267176,-0.451171875,-0.100341796875,-0.14990234375,1.0319
1.7404580152671756,1.0534351145038168,-1.4809160305343512,-0.4560546875,-0.1064453125,-0.15185546875,1.0335999999999999
1.5114503816793894,1.3435114503816794,-1.3740458015267176,-0.4521484375,-0.106201171875,-0.14794921875,1.0352999999999999
1.7709923664122138,1.2366412213740459,-1.1908396946564885,-0.4560546875,-0.0986328125,-0.145751953125,1.037
1.6488549618320612,1.099236641221374,-1.297709923664122,-0.451416015625,-0.103515625,-0.15234375,1.0387
1.6641221374045803,1.1755725190839694,-1.5419847328244274,-0.455322265625,-0.099365234375,-0.15087890625,1.0404
1.6641221374045803,1.099236641221374,-1.5725190839694656,-0.45361328125,-0.099365234375,-0.150146484375,1.0421
1.465648854961832,1.2061068702290076,-1.4351145038167938,-0.458251953125,-0.105712890625,-0.140625,1.0437999999999998
1.3740458015267176,1.099236641221374,-1.5419847328244274,-0.452880859375,-0.103271484375,-0.14404296875,1.0454999999999999
1.4809160305343512,0.8396946564885496,-1.1145038167938932,-0.4580078125,-0.10498046875,-0.150634765625,1.0472
1.297709923664122,0.7480916030534351,-1.4198473282442747,-0.45458984375,-0.1025390625,-0.149169921875,1.0489
1.0534351145038168,0.9007633587786259,-1.3893129770992367,-0.45263671875,-0.099853515625,-0.155517578125,1.0506
0.7633587786259542,0.7022900763358778,-1.297709923664122,-0.45556640625,-0.09814453125,-0.154541015625,1.0523
0.8549618320610687,0.6412213740458015,-1.297709923664122,-0.453857421875,-0.098876953125,-0.145751953125,1.054
0.916030534351145,0.7633587786259542,-1.1755725190839694,-0.45361328125,-0.10546875,-0.143798828125,1.0556999999999999
0.8854961832061069,0.6412213740458015,-1.1603053435114503,-0.456298828125,-0.10546875,-0.146484375,1.0574
0.3816793893129771,0.5801526717557252,-1.3587786259541985,-0.45458984375,-0.10400390625,-0.152587890625,1.0591
0.4122137404580153,0.5648854961832062,-1.251908396946565,-0.452880859375,-0.101318359375,-0.15576171875,1.0608
0.3816793893129771,0.6564885496183206,-1.2366412213740459,-0.450439453125,-0.103271484375,-0.140380859375,1.0625
0.21374045801526717,0.732824427480916,-0.9465648854961832,-0.454833984375,-0.099609375,-0.154541015625,1.0642
0.04580152671755725,0.5801526717557252,-1.1450381679389312,-0.460205078125,-0.099609375,-0.145751953125,1.0658999999999998
0.07633587786259542,0.6106870229007634,-1.1908396946564885,-0.45458984375,-0.105224609375,-0.149169921875,1.0675999999999999
-0.030534351145038167,0.8091603053435115,-1.1755725190839694,-0.447998046875,-0.104248046875,-0.15087890625,1.0693
-0.1984732824427481,0.5648854961832062,-1.0229007633587786,-0.455078125,-0.10107421875,-0.140869140625,1.071
0.3053435114503817,0.8702290076335878,-0.9770992366412213,-0.451416015625,-0.10009765625,-0.154052734375,1.0727
0.21374045801526717,0.9618320610687023,-1.1450381679389312,-0.453369140625,-0.099365234375,-0.14892578125,1.0744
0.07633587786259542,0.8702290076335878,-1.099236641221374,-0.456298828125,-0.0986328125,-0.1552734375,1.0760999999999998
0.07633587786259542,0.6717557251908397,-1.0534351145038168,-0.456298828125,-0.1005859375,-0.153564453125,1.0777999999999999
0.07633587786259542,0.6870229007633588,-0.9312977099236641,-0.45947265625,-0.100341796875,-0.15087890625,1.0795
0.32061068702290074,0.6717557251908397,-0.7786259541984732,-0.455078125,-0.103271484375,-0.156005859375,1.0812
0.44274809160305345,0.6259541984732825,-0.8396946564885496,-0.458984375,-0.10546875,-0.155029296875,1.0829
0.42748091603053434,0.44274809160305345,-1.0687022900763359,-0.455078125,-0.103759765625,-0.157958984375,1.0846
0.5190839694656488,0.6564885496183206,-1.2671755725190839,-0.4580078125,-0.1005859375,-0.158935546875,1.0863
0.5343511450381679,0.6564885496183206,-1.083969465648855,-0.455322265625,-0.1025390625,-0.146728515625,1.0879999999999999
0.5801526717557252,0.7480916030534351,-1.2366412213740459,-0.45458984375,-0.09814453125,-0.1494140625,1.0897
0.8091603053435115,0.7633587786259542,-1.083969465648855,-0.459228515625,-0.10595703125,-0.147216796875,1.0914
0.7480916030534351,0.8091603053435115,-1.3129770992366412,-0.456298828125,-0.100341796875,-0.153076171875,1.0931
0.7633587786259542,0.6717557251908397,-1.3740458015267176,-0.45849609375,-0.096923828125,-0.14892578125,1.0948
0.6717557251908397,0.7938931297709924,-1.3282442748091603,-0.451904296875,-0.09912109375,-0.153076171875,1.0965
0.6412213740458015,1.0229007633587786,-1.0534351145038168,-0.452880859375,-0.09619140625,-0.155029296875,1.0981999999999998
0.8702290076335878,1.3893129770992367,-1.3893129770992367,-0.4521484375,-0.105224609375,-0.165771484375,1.0998999999999999
0.6717557251908397,1.0381679389312977,-1.4809160305343512,-0.458740234375,-0.09912109375,-0.1591796875,1.1016
0.8549618320610687,0.916030534351145,-1.4351145038167938,-0.45947265625,-0.103271484375,-0.159912109375,1.1033
0.8091603053435115,1.1603053435114503,-1.3129770992366412,-0.454345703125,-0.10107421875,-0.155029296875,1.105
0.7633587786259542,0.9465648854961832,-1.5725190839694656,-0.453857421875,-0.09814453125,-0.151123046875,1.1067
0.7175572519083969,1.0534351145038168,-1.4351145038167938,-0.454345703125,-0.096435546875,-0.156005859375,1.1083999999999998
0.8549618320610687,1.1450381679389312,-1.450381679389313,-0.455078125,-0.10546875,-0.150634765625,1.1100999999999999
0.9312977099236641,1.099236641221374,-1.5419847328244274,-0.4580078125,-0.099609375,-0.152587890625,1.1118
0.7175572519083969,1.083969465648855,-1.633587786259542,-0.456298828125,-0.10302734375,-0.162353515625,1.1135
0.8396946564885496,1.297709923664122,-1.5877862595419847,-0.459228515625,-0.0966796875,-0.14794921875,1.1152
1.1603053435114503,1.3587786259541985,-1.7099236641221374,-0.458984375,-0.096435546875,-0.145263671875,1.1169
0.916030534351145,1.465648854961832,-1.6641221374045803,-0.46240234375,-0.10009765625,-0.151611328125,1.1186
1.0381679389312977,1.5877862595419847,-1.7251908396946565,-0.461181640625,-0.101318359375,-0.156005859375,1.1202999999999999
1.2061068702290076,1.5877862595419847,-1.633587786259542,-0.459228515625,-0.099609375,-0.15966796875,1.1219999999999999
1.0381679389312977,1.7099236641221374,-1.6488549618320612,-0.460693359375,-0.1015625,-0.151123046875,1.1237
1.1450381679389312,1.7251908396946565,-1.618320610687023,-0.45458984375,-0.1025390625,-0.150390625,1.1254
1.3435114503816794,1.786259541984733,-1.6641221374045803,-0.458984375,-0.099365234375,-0.146240234375,1.1271
1.297709923664122,2.0,-1.6946564885496183,-0.4541015625,-0.1044921875,-0.14599609375,1.1288
1.4045801526717556,1.8778625954198473,-1.8473282442748091,-0.45947265625,-0.103271484375,-0.138671875,1.1304999999999998
1.4961832061068703,1.6641221374045803,-1.786259541984733,-0.452880859375,-0.100830078125,-0.1455078125,1.1321999999999999
1.465648854961832,1.6793893129770991,-1.7557251908396947,-0.451904296875,-0.1005859375,-0.155029296875,1.1339
1.6946564885496183,1.6641221374045803,-1.450381679389313,-0.457275390625,-0.10009765625,-0.152587890625,1.1356
1.3587786259541985,1.5725190839694656,-1.7099236641221374,-0.4521484375,-0.0966796875,-0.149658203125,1.1373
1.6946564885496183,1.5114503816793894,-1.6030534351145038,-0.453369140625,-0.10009765625,-0.1513671875,1.139
1.4961832061068703,1.4809160305343512,-1.5877862595419847,-0.45263671875,-0.100341796875,-0.157470703125,1.1407
1.2366412213740459,1.3435114503816794,-1.5419847328244274,-0.4541015625,-0.102783203125,-0.146240234375,1.1423999999999999
1.4961832061068703,1.4809160305343512,-1.8778625954198473,-0.460693359375,-0.099365234375,-0.14404296875,1.1441
1.450381679389313,1.1450381679389312,-1.5725190839694656,-0.450927734375,-0.097412109375,-0.146484375,1.1458
1.1755725190839694,1.1755725190839694,-1.633587786259542,-0.454345703125,-0.103271484375,-0.14794921875,1.1475
1.297709923664122,1.0381679389312977,-1.450381679389313,-0.45361328125,-0.105712890625,-0.155029296875,1.1492
1.2213740458015268,0.8244274809160306,-1.4045801526717556,-0.4541015625,-0.104736328125,-0.155029296875,1.1509
0.9007633587786259,0.9312977099236641,-1.2213740458015268,-0.453857421875,-0.10400390625,-0.154541015625,1.1525999999999998
0.9312977099236641,0.8396946564885496,-1.251908396946565,-0.454833984375,-0.099853515625,-0.14794921875,1.1542999999999999
0.9007633587786259,0.7938931297709924,-1.5877862595419847,-0.456298828125,-0.09912109375,-0.14892578125,1.156
0.8396946564885496,0.7786259541984732,-1.5877862595419847,-0.45458984375,-0.100830078125,-0.14501953125,1.1577
0.5190839694656488,0.7022900763358778,-1.5725190839694656,-0.455322265625,-0.10791015625,-0.147216796875,1.1594
0.5038167938931297,0.6564885496183206,-1.3435114503816794,-0.45458984375,-0.099365234375,-0.1572265625,1.1611
0.2900763358778626,0.6564885496183206,-1.282442748091603,-0.449462890625,-0.102294921875,-0.142578125,1.1627999999999998
0.4580152671755725,0.7480916030534351,-1.5725190839694656,-0.44921875,-0.106201171875,-0.150390625,1.1644999999999999
0.3053435114503817,0.9007633587786259,-1.450381679389313,-0.457763671875,-0.09521484375,-0.154296875,1.1662
0.2900763358778626,0.6870229007633588,-1.2213740458015268,-0.453125,-0.101806640625,-0.150390625,1.1679
0.3511450381679389,0.549618320610687,-1.099236641221374,-0.452880859375,-0.09619140625,-0.149658203125,1.1696
0.33587786259541985,0.7022900763358778,-1.5419847328244274,-0.453369140625,-0.10302734375,-0.146240234375,1.1713
0.2748091603053435,0.8549618320610687,-1.4351145038167938,-0.453125,-0.10107421875,-0.153076171875,1.173
0.16793893129770993,0.7480916030534351,-1.4198473282442747,-0.45361328125,-0.10205078125,-0.15087890625,1.1746999999999999
0.2595419847328244,0.6717557251908397,-1.3587786259541985,-0.451416015625,-0.10107421875,-0.145263671875,1.1764
0.4122137404580153,0.8702290076335878,-1.251908396946565,-0.45654296875,-0.104736328125,-0.159912109375,1.1781
0.183206106870229,0.8702290076335878,-1.1755725190839694,-0.458740234375,-0.095947265625,-0.153076171875,1.1798
0.16793893129770993,0.6106870229007634,-1.3129770992366412,-0.451904296875,-0.098876953125,-0.1513671875,1.1815
0.0916030534351145,0.5954198473282443,-1.2671755725190839,-0.452880859375,-0.105224609375,-0.15625,1.1832
0.13740458015267176,0.6870229007633588,-1.465648854961832,-0.45458984375,-0.104248046875,-0.153076171875,1.1848999999999998
0.16793893129770993,0.5190839694656488,-1.4351145038167938,-0.456787109375,-0.103759765625,-0.14501953125,1.1865999999999999
0.24427480916030533,0.366412213740458,-1.3129770992366412,-0.45654296875,-0.098876953125,-0.150146484375,1.1883
0.366412213740458,0.7175572519083969,-1.3435114503816794,-0.4560546875,-0.10498046875,-0.153564453125,1.19
0.2748091603053435,0.6717557251908397,-1.2671755725190839,-0.451171875,-0.10302734375,-0.15673828125,1.1917
0.3816793893129771,0.5954198473282443,-1.282442748091603,-0.451171875,-0.096435546875,-0.1552734375,1.1934
0.48854961832061067,0.6412213740458015,-1.2061068702290076,-0.452392578125,-0.107177734375,-0.145263671875,1.1950999999999998
0.8549618320610687,0.8244274809160306,-1.2061068702290076,-0.4599609375,-0.10009765625,-0.15185546875,1.1967999999999999
0.7786259541984732,0.7480916030534351,-1.1450381679389312,-0.455810546875,-0.102294921875,-0.158203125,1.1985
0.9923664122137404,0.8244274809160306,-1.4809160305343512,-0.451416015625,-0.10400390625,-0.14990234375,1.2002
0.7938931297709924,0.9007633587786259,-1.3587786259541985,-0.455322265625,-0.103271484375,-0.15380859375,1.2019
1.2213740458015268,1.0534351145038168,-1.3740458015267176,-0.4580078125,-0.101318359375,-0.154541015625,1.2036
1.1450381679389312,1.0534351145038168,-1.5419847328244274,-0.4521484375,-0.101318359375,-0.14306640625,1.2053
0.9923664122137404,1.1297709923664123,-1.5114503816793894,-0.454345703125,-0.102294921875,-0.152587890625,1.2069999999999999
0.9618320610687023,1.1450381679389312,-1.4809160305343512,-0.450439453125,-0.1015625,-0.14990234375,1.2086999999999999
1.0687022900763359,0.9312977099236641,-1.3129770992366412,-0.456787109375,-0.104736328125,-0.155029296875,1.2104
1.0076335877862594,1.0534351145038168,-1.3435114503816794,-0.456298828125,-0.096923828125,-0.155517578125,1.2121
0.8702290076335878,1.099236641221374,-1.5725190839694656,-0.4580078125,-0.103759765625,-0.145263671875,1.2138
1.099236641221374,1.2061068702290076,-1.6030534351145038,-0.459716796875,-0.1025390625,-0.153564453125,1.2155
1.1145038167938932,0.8702290076335878,-1.465648854961832,-0.454833984375,-0.099365234375,-0.15185546875,1.2171999999999998
1.251908396946565,1.0534351145038168,-1.7099236641221374,-0.459228515625,-0.108154296875,-0.153564453125,1.2188999999999999
1.099236641221374,1.0229007633587786,-1.7251908396946565,-0.4580078125,-0.1025390625,-0.152099609375,1.2206
1.2061068702290076,1.099236641221374,-1.6641221374045803,-0.459228515625,-0.1015625,-0.14990234375,1.2223
1.2671755725190839,1.282442748091603,-1.6641221374045803,-0.453125,-0.100341796875,-0.15673828125,1.224
1.3435114503816794,1.2061068702290076,-1.5572519083969465,-0.452392578125,-0.099365234375,-0.1611328125,1.2257
1.3129770992366412,1.2366412213740459,-1.618320610687023,-0.45556640625,-0.09814453125,-0.157470703125,1.2273999999999998
1.3740458015267176,1.450381679389313,-1.786259541984733,-0.452880859375,-0.103515625,-0.157958984375,1.2290999999999999
1.2366412213740459,1.5267175572519085,-1.6946564885496183,-0.455810546875,-0.1015625,-0.154541015625,1.2308
1.3740458015267176,1.4961832061068703,-1.5877862595419847,-0.4580078125,-0.100341796875,-0.154296875,1.2325
1.282442748091603,1.5419847328244274,-1.8473282442748091,-0.4521484375,-0.098388671875,-0.151611328125,1.2342
1.297709923664122,1.7404580152671756,-1.7099236641221374,-0.45654296875,-0.101806640625,-0.1533203125,1.2359
1.5267175572519085,1.7404580152671756,-1.6488549618320612,-0.452880859375,-0.102783203125,-0.149658203125,1.2376
1.4045801526717556,1.5419847328244274,-1.5419847328244274,-0.4560546875,-0.097412109375,-0.151123046875,1.2392999999999998
1.4961832061068703,1.6946564885496183,-1.786259541984733,-0.453369140625,-0.100341796875,-0.15185546875,1.2409999999999999
1.6793893129770991,1.5419847328244274,-1.7557251908396947,-0.454833984375,-0.09716796875,-0.14794921875,1.2427
1.6030534351145038,1.5114503816793894,-1.6946564885496183,-0.451416015625,-0.099609375,-0.14306640625,1.2444
1.5114503816793894,1.4961832061068703,-1.450381679389313,-0.455078125,-0.10009765625,-0.1484375,1.2461
1.5114503816793894,1.4961832061068703,-1.6946564885496183,-0.45751953125,-0.101806640625,-0.153076171875,1.2478
1.5877862595419847,1.1755725190839694,-1.6488549618320612,-0.452880859375,-0.098876953125,-0.153076171875,1.2494999999999998
1.3740458015267176,1.2671755725190839,-1.7404580152671756,-0.453369140625,-0.1015625,-0.150390625,1.2511999999999999
1.3435114503816794,0.9770992366412213,-1.5267175572519085,-0.45556640625,-0.108154296875,-0.15380859375,1.2529
1.0229007633587786,1.0381679389312977,-1.6641221374045803,-0.45361328125,-0.101318359375,-0.150390625,1.2546
1.099236641221374,1.0076335877862594,-1.4961832061068703,-0.455322265625,-0.107421875,-0.151611328125,1.2563
0.8091603053435115,0.732824427480916,-1.5114503816793894,-0.4501953125,-0.104736328125,-0.151611328125,1.258
1.083969465648855,0.6564885496183206,-1.3893129770992367,-0.45458984375,-0.1015625,-0.1494140625,1.2596999999999998
0.9923664122137404,0.5801526717557252,-1.4198473282442747,-0.455810546875,-0.103759765625,-0.151123046875,1.2613999999999999
0.6717557251908397,0.6106870229007634,-1.4351145038167938,-0.451416015625,-0.10107421875,-0.14453125,1.2631
0.6717557251908397,0.5038167938931297,-1.3435114503816794,-0.45849609375,-0.1015625,-0.149169921875,1.2648
0.6259541984732825,0.3969465648854962,-1.251908396946565,-0.455322265625,-0.1015625,-0.15380859375,1.2665
0.5038167938931297,0.5648854961832062,-1.2671755725190839,-0.45458984375,-0.10302734375,-0.15283203125,1.2682
0.732824427480916,0.4732824427480916,-1.251908396946565,-0.4521484375,-0.10107421875,-0.154541015625,1.2699
0.732824427480916,0.6259541984732825,-1.2061068702290076,-0.45458984375,-0.103759765625,-0.14892578125,1.2715999999999998
0.5343511450381679,0.6564885496183206,-1.1145038167938932,-0.453369140625,-0.097900390625,-0.152099609375,1.2732999999999999
0.732824427480916,0.8091603053435115,-1.1755725190839694,-0.45458984375,-0.10400390625,-0.143310546875,1.275
0.7480916030534351,0.6412213740458015,-1.1145038167938932,-0.452880859375,-0.10205078125,-0.1474609375,1.2767
0.5648854961832062,0.7786259541984732,-1.1755725190839694,-0.45361328125,-0.097900390625,-0.141845703125,1.2784
0.4580152671755725,0.8549618320610687,-1.2061068702290076,-0.457275390625,-0.10302734375,-0.14453125,1.2801
0.6259541984732825,0.7175572519083969,-1.3587786259541985,-0.4541015625,-0.095703125,-0.1474609375,1.2817999999999998
0.6717557251908397,0.6106870229007634,-1.1908396946564885,-0.454345703125,-0.09912109375,-0.1533203125,1.2834999999999999
0.5343511450381679,0.9618320610687023,-1.4198473282442747,-0.4560546875,-0.096923828125,-0.152587890625,1.2852
0.6259541984732825,0.7022900763358778,-1.0687022900763359,-0.452880859375,-0.098876953125,-0.153564453125,1.2869
0.5801526717557252,0.7480916030534351,-1.099236641221374,-0.453125,-0.09912109375,-0.145751953125,1.2886
0.7633587786259542,1.0534351145038168,-1.1450381679389312,-0.45703125,-0.098388671875,-0.141845703125,1.2903
0.549618320610687,0.8702290076335878,-1.5267175572519085,-0.45849609375,-0.096923828125,-0.151123046875,1.292
0.8244274809160306,0.9007633587786259,-1.2213740458015268,-0.4541015625,-0.100341796875,-0.14697265625,1.2936999999999999
0.9312977099236641,0.8244274809160306,-1.297709923664122,-0.453857421875,-0.099853515625,-0.155029296875,1.2953999999999999
0.9465648854961832,0.8549618320610687,-1.3893129770992367,-0.45947265625,-0.0966796875,-0.1533203125,1.2971
0.8549618320610687,0.8854961832061069,-1.1297709923664123,-0.455810546875,-0.102783203125,-0.15576171875,1.2988
0.9465648854961832,1.0687022900763359,-1.0534351145038168,-0.458984375,-0.09912109375,-0.15087890625,1.3005
1.1908396946564885,0.8549618320610687,-1.2366412213740459,-0.4541015625,-0.103759765625,-0.159912109375,1.3022
1.4351145038167938,0.9465648854961832,-1.2671755725190839,-0.45361328125,-0.099365234375,-0.159423828125,1.3038999999999998
1.3587786259541985,1.1145038167938932,-1.3740458015267176,-0.454345703125,-0.1005859375,-0.15869140625,1.3055999999999999
1.3282442748091603,1.083969465648855,-1.1908396946564885,-0.450439453125,-0.09716796875,-0.1484375,1.3073
1.3893129770992367,0.9465648854961832,-1.3129770992366412,-0.452880859375,-0.097412109375,-0.143310546875,1.309
1.618320610687023,0.9007633587786259,-1.2061068702290076,-0.45703125,-0.09423828125,-0.143798828125,1.3107
1.6488549618320612,0.8702290076335878,-1.1603053435114503,-0.455078125,-0.09375,-0.1396484375,1.3124
1.5114503816793894,1.1755725190839694,-1.083969465648855,-0.456787109375,-0.10107421875,-0.1494140625,1.3140999999999998
1.6488549618320612,1.2213740458015268,-1.1450381679389312,-0.449951171875,-0.10498046875,-0.160400390625,1.3157999999999999
1.4961832061068703,1.0534351145038168,-0.9770992366412213,-0.455078125,-0.1025390625,-0.148193359375,1.3175
1.83206106870229,0.9465648854961832,-1.3129770992366412,-0.45458984375,-0.099365234375,-0.1435546875,1.3192
1.83206106870229,1.1297709923664123,-1.3587786259541985,-0.45703125,-0.09912109375,-0.1416015625,1.3209
1.5572519083969465,1.1755725190839694,-1.282442748091603,-0.456787109375,-0.10400390625,-0.15576171875,1.3226
1.6946564885496183,1.1145038167938932,-1.4045801526717556,-0.455810546875,-0.10205078125,-0.143798828125,1.3243
1.83206106870229,1.1908396946564885,-1.3740458015267176,-0.455810546875,-0.10595703125,-0.144775390625,1.3259999999999998
1.5572519083969465,1.4045801526717556,-1.5114503816793894,-0.45654296875,-0.1005859375,-0.15625,1.3276999999999999
1.4809160305343512,1.2671755725190839,-1.5114503816793894,-0.453857421875,-0.107177734375,-0.1513671875,1.3294
1.7404580152671756,1.4351145038167938,-1.5725190839694656,-0.456298828125,-0.103271484375,-0.1533203125,1.3311
1.786259541984733,1.465648854961832,-1.4351145038167938,-0.454833984375,-0.102783203125,-0.147705078125,1.3328
1.7099236641221374,1.251908396946565,-1.618320610687023,-0.4580078125,-0.103271484375,-0.145263671875,1.3345
1.3129770992366412,1.4351145038167938,-1.8473282442748091,-0.45458984375,-0.10693359375,-0.143798828125,1.3361999999999998
1.297709923664122,1.450381679389313,-1.618320610687023,-0.455322265625,-0.104248046875,-0.151611328125,1.3378999999999999
1.5114503816793894,1.2366412213740459,-1.8015267175572518,-0.46044921875,-0.104736328125,-0.150390625,1.3396
1.3587786259541985,1.3282442748091603,-1.786259541984733,-0.45166015625,-0.10498046875,-0.1455078125,1.3413
1.1603053435114503,1.5572519083969465,-1.7404580152671756,-0.455322265625,-0.103271484375,-0.147216796875,1.343
1.2213740458015268,1.465648854961832,-1.9389312977099236,-0.453857421875,-0.104248046875,-0.1484375,1.3447
1.6030534351145038,1.4961832061068703,-1.8778625954198473,-0.45263671875,-0.10546875,-0.1484375,1.3463999999999998
1.4045801526717556,1.5419847328244274,-1.7557251908396947,-0.458984375,-0.10498046875,-0.153076171875,1.3480999999999999
1.3282442748091603,1.5572519083969465,-1.816793893129771,-0.457275390625,-0.1025390625,-0.156494140625,1.3497999999999999
1.1908396946564885,1.7099236641221374,-1.7251908396946565,-0.458251953125,-0.10205078125,-0.154052734375,1.3515
1.5725190839694656,1.4961832061068703,-1.9694656488549618,-0.455322265625,-0.10400390625,-0.151123046875,1.3532
1.618320610687023,1.3435114503816794,-1.633587786259542,-0.455810546875,-0.098876953125,-0.159912109375,1.3549
1.4045801526717556,1.5419847328244274,-1.7251908396946565,-0.45458984375,-0.0966796875,-0.16015625,1.3566
1.3129770992366412,1.5877862595419847,-1.7251908396946565,-0.45703125,-0.104248046875,-0.153076171875,1.3582999999999998
1.4045801526717556,1.6641221374045803,-1.9236641221374047,-0.454833984375,-0.101806640625,-0.151123046875,1.3599999999999999
1.4809160305343512,1.633587786259542,-1.6488549618320612,-0.453125,-0.097900390625,-0.150390625,1.3617
1.450381679389313,1.7251908396946565,-1.6946564885496183,-0.455078125,-0.0986328125,-0.151123046875,1.3634
1.3129770992366412,1.4961832061068703,-1.633587786259542,-0.451904296875,-0.10107421875,-0.1591796875,1.3651
1.0381679389312977,1.4198473282442747,-1.7251908396946565,-0.452880859375,-0.103759765625,-0.14794921875,1.3668
1.099236641221374,1.3740458015267176,-1.5267175572519085,-0.456298828125,-0.10302734375,-0.144775390625,1.3684999999999998
1.2061068702290076,1.465648854961832,-1.618320610687023,-0.4521484375,-0.104248046875,-0.143310546875,1.3701999999999999
1.3282442748091603,1.4045801526717556,-1.7251908396946565,-0.45849609375,-0.0986328125,-0.14501953125,1.3719
1.2213740458015268,1.251908396946565,-1.83206106870229,-0.4580078125,-0.101318359375,-0.148681640625,1.3736
1.251908396946565,1.099236641221374,-1.6030534351145038,-0.454345703125,-0.099365234375,-0.150634765625,1.3753
1.1450381679389312,1.0381679389312977,-1.6030534351145038,-0.455810546875,-0.09765625,-0.142822265625,1.377
0.9007633587786259,1.1297709923664123,-1.3129770992366412,-0.45166015625,-0.103759765625,-0.141357421875,1.3786999999999998
1.1908396946564885,1.1145038167938932,-1.5877862595419847,-0.452880859375,-0.10302734375,-0.1435546875,1.3803999999999998
1.2366412213740459,1.0534351145038168,-1.5114503816793894,-0.4541015625,-0.102783203125,-0.14794921875,1.3820999999999999
0.8854961832061069,1.1297709923664123,-1.4351145038167938,-0.458251953125,-0.10107421875,-0.15380859375,1.3838
0.7633587786259542,1.0534351145038168,-1.4351145038167938,-0.4521484375,-0.101318359375,-0.151611328125,1.3855
0.8396946564885496,1.0534351145038168,-1.4351145038167938,-0.451904296875,-0.1015625,-0.147216796875,1.3872
0.8549618320610687,1.1603053435114503,-1.3587786259541985,-0.45361328125,-0.101806640625,-0.153564453125,1.3889
0.9465648854961832,1.0076335877862594,-1.3587786259541985,-0.4541015625,-0.099365234375,-0.154541015625,1.3905999999999998
0.8396946564885496,1.083969465648855,-1.3129770992366412,-0.451416015625,-0.102294921875,-0.153564453125,1.3922999999999999
0.8091603053435115,1.0534351145038168,-1.3587786259541985,-0.452392578125,-0.103515625,-0.151611328125,1.394
1.099236641221374,1.099236641221374,-1.282442748091603,-0.457275390625,-0.09765625,-0.15087890625,1.3957
0.7022900763358778,1.1603053435114503,-1.2671755725190839,-0.453125,-0.09765625,-0.1455078125,1.3974
0.9618320610687023,1.3282442748091603,-1.1145038167938932,-0.451416015625,-0.1015625,-0.14453125,1.3991
0.6564885496183206,1.1908396946564885,-1.083969465648855,-0.451416015625,-0.1025390625,-0.153564453125,1.4007999999999998
0.7480916030534351,1.1603053435114503,-1.1145038167938932,-0.45556640625,-0.099365234375,-0.147216796875,1.4024999999999999
0.7175572519083969,1.099236641221374,-0.9770992366412213,-0.453857421875,-0.099365234375,-0.14306640625,1.4042
0.8396946564885496,0.9312977099236641,-1.0381679389312977,-0.452880859375,-0.1044921875,-0.140380859375,1.4059
0.916030534351145,0.8244274809160306,-1.0076335877862594,-0.45458984375,-0.102783203125,-0.14892578125,1.4076
1.0076335877862594,0.9465648854961832,-0.8549618320610687,-0.45166015625,-0.100830078125,-0.142578125,1.4093
0.8244274809160306,0.6564885496183206,-1.0687022900763359,-0.45361328125,-0.103759765625,-0.1513671875,1.411
0.8702290076335878,0.7175572519083969,-0.8702290076335878,-0.44970703125,-0.1025390625,-0.1494140625,1.4126999999999998
0.8549618320610687,0.5190839694656488,-0.9923664122137404,-0.4541015625,-0.10498046875,-0.1484375,1.4143999999999999
0.9923664122137404,0.4580152671755725,-1.1755725190839694,-0.4501953125,-0.103515625,-0.15283203125,1.4161
0.7175572519083969,0.6412213740458015,-0.9312977099236641,-0.4560546875,-0.099609375,-0.1474609375,1.4178
0.732824427480916,0.5343511450381679,-1.1755725190839694,-0.45361328125,-0.108154296875,-0.149658203125,1.4195
0.42748091603053434,0.2748091603053435,-1.1908396946564885,-0.451904296875,-0.104736328125,-0.149658203125,1.4212
0.7786259541984732,0.366412213740458,-1.1908396946564885,-0.454833984375,-0.103271484375,-0.15185546875,1.4228999999999998
0.6870229007633588,0.549618320610687,-1.3435114503816794,-0.44921875,-0.101806640625,-0.1552734375,1.4245999999999999
0.6412213740458015,0.4732824427480916,-1.251908396946565,-0.45263671875,-0.100830078125,-0.15625,1.4263
0.6412213740458015,0.33587786259541985,-1.3893129770992367,-0.456787109375,-0.1005859375,-0.153076171875,1.428
0.4732824427480916,0.44274809160305345,-1.1908396946564885,-0.45166015625,-0.109375,-0.151611328125,1.4297
0.6106870229007634,0.5190839694656488,-1.465648854961832,-0.452880859375,-0.10009765625,-0.14599609375,1.4314
0.6106870229007634,0.7480916030534351,-1.1603053435114503,-0.4560546875,-0.09814453125,-0.155029296875,1.4330999999999998
0.732824427480916,0.7786259541984732,-1.5725190839694656,-0.458251953125,-0.099365234375,-0.147705078125,1.4347999999999999
0.7480916030534351,0.8702290076335878,-1.786259541984733,-0.45263671875,-0.0947265625,-0.15478515625,1.4364999999999999
1.0229007633587786,0.7786259541984732,-1.5419847328244274,-0.45263671875,-0.1005859375,-0.147705078125,1.4382
1.251908396946565,0.9618320610687023,-1.7404580152671756,-0.44775390625,-0.098388671875,-0.15673828125,1.4399
1.1297709923664123,1.1450381679389312,-1.5419847328244274,-0.455078125,-0.09912109375,-0.162109375,1.4416
0.7786259541984732,1.0381679389312977,-1.4198473282442747,-0.456298828125,-0.098388671875,-0.159423828125,1.4433
1.2061068702290076,1.1908396946564885,-1.465648854961832,-0.45654296875,-0.098876953125,-0.14892578125,1.4449999999999998
1.3282442748091603,1.083969465648855,-1.5267175572519085,-0.454345703125,-0.1005859375,-0.146484375,1.4466999999999999
1.1908396946564885,1.1450381679389312,-1.4045801526717556,-0.454833984375,-0.100341796875,-0.15576171875,1.4484
1.2366412213740459,1.2366412213740459,-1.6641221374045803,-0.454345703125,-0.099853515625,-0.156005859375,1.4501
1.1603053435114503,1.1145038167938932,-1.450381679389313,-0.45361328125,-0.102783203125,-0.1484375,1.4518
1.1145038167938932,1.2213740458015268,-1.5114503816793894,-0.453369140625,-0.09912109375,-0.14306640625,1.4535
1.251908396946565,1.1908396946564885,-1.4045801526717556,-0.45556640625,-0.1025390625,-0.143798828125,1.4551999999999998
1.1450381679389312,1.4198473282442747,-1.5267175572519085,-0.455810546875,-0.1005859375,-0.1474609375,1.4568999999999999
1.3435114503816794,1.2366412213740459,-1.4198473282442747,-0.447509765625,-0.100341796875,-0.1396484375,1.4586
1.450381679389313,1.1603053435114503,-1.3282442748091603,-0.450439453125,-0.101806640625,-0.13916015625,1.4603
1.2671755725190839,1.2366412213740459,-1.3282442748091603,-0.456298828125,-0.10302734375,-0.154541015625,1.462
1.282442748091603,1.297709923664122,-1.3435114503816794,-0.454833984375,-0.10107421875,-0.149169921875,1.4637
1.1145038167938932,1.5267175572519085,-1.297709923664122,-0.452392578125,-0.099853515625,-0.1494140625,1.4653999999999998
1.0229007633587786,1.4961832061068703,-1.2213740458015268,-0.458984375,-0.1015625,-0.1396484375,1.4670999999999998
1.3587786259541985,1.4198473282442747,-1.4045801526717556,-0.45458984375,-0.0986328125,-0.143798828125,1.4687999999999999
1.1603053435114503,1.282442748091603,-1.3282442748091603,-0.4560546875,-0.099365234375,-0.151611328125,1.4705
1.0687022900763359,1.450381679389313,-1.1450381679389312,-0.457763671875,-0.103759765625,-0.150146484375,1.4722
0.9618320610687023,1.450381679389313,-1.4198473282442747,-0.456298828125,-0.09716796875,-0.15576171875,1.4739
0.8244274809160306,1.4809160305343512,-1.0687022900763359,-0.45703125,-0.10009765625,-0.15380859375,1.4756
0.8244274809160306,1.2671755725190839,-1.0534351145038168,-0.46044921875,-0.102783203125,-0.14453125,1.4772999999999998
0.7022900763358778,1.1908396946564885,-1.1450381679389312,-0.4580078125,-0.1025390625,-0.146240234375,1.4789999999999999
0.48854961832061067,1.1755725190839694,-1.1908396946564885,-0.455322265625,-0.1005859375,-0.153076171875,1.4807
0.4732824427480916,1.2061068702290076,-1.1297709923664123,-0.455322265625,-0.100830078125,-0.150146484375,1.4824
0.6259541984732825,1.0534351145038168,-1.251908396946565,-0.45849609375,-0.107421875,-0.150390625,1.4841
0.5038167938931297,0.9618320610687023,-1.1450381679389312,-0.45849609375,-0.104736328125,-0.1484375,1.4858
0.4122137404580153,0.9465648854961832,-1.083969465648855,-0.4580078125,-0.1044921875,-0.151123046875,1.4874999999999998
0.0916030534351145,0.8549618320610687,-1.0534351145038168,-0.4521484375,-0.10595703125,-0.157958984375,1.4891999999999999
0.3053435114503817,0.9618320610687023,-1.0534351145038168,-0.456787109375,-0.10791015625,-0.150390625,1.4909
0.44274809160305345,0.916030534351145,-1.0076335877862594,-0.45556640625,-0.106201171875,-0.15576171875,1.4926
0.3816793893129771,0.7480916030534351,-1.1450381679389312,-0.454833984375,-0.109130859375,-0.1513671875,1.4943
0.33587786259541985,0.7938931297709924,-1.0229007633587786,-0.45849609375,-0.105224609375,-0.15087890625,1.496
0.13740458015267176,0.7938931297709924,-1.0534351145038168,-0.458251953125,-0.107177734375,-0.1494140625,1.4976999999999998
0.15267175572519084,0.8091603053435115,-1.0229007633587786,-0.45703125,-0.10693359375,-0.150390625,1.4993999999999998
0.32061068702290074,0.7633587786259542,-0.9618320610687023,-0.456298828125,-0.102294921875,-0.151123046875,1.5010999999999999
0.24427480916030533,0.7938931297709924,-1.0381679389312977,-0.460205078125,-0.10595703125,-0.15087890625,1.5028
0.24427480916030533,0.4580152671755725,-1.0229007633587786,-0.46240234375,-0.103271484375,-0.154052734375,1.5045
0.5038167938931297,0.5190839694656488,-0.9770992366412213,-0.4619140625,-0.102783203125,-0.15771484375,1.5062
0.2900763358778626,0.8091603053435115,-1.1145038167938932,-0.456298828125,-0.103515625,-0.154296875,1.5079
0.13740458015267176,0.9923664122137404,-0.8854961832061069,-0.457763671875,-0.104736328125,-0.163330078125,1.5095999999999998
0.030534351145038167,0.8549618320610687,-1.0687022900763359,-0.454833984375,-0.1064453125,-0.154296875,1.5112999999999999
0.33587786259541985,0.9007633587786259,-0.9618320610687023,-0.458251953125,-0.09814453125,-0.150390625,1.513
0.2595419847328244,0.916030534351145,-0.9465648854961832,-0.46044921875,-0.102294921875,-0.153564453125,1.5147
0.015267175572519083,0.7480916030534351,-0.8549618320610687,-0.456787109375,-0.101806640625,-0.153076171875,1.5164
0.12213740458015267,0.8854961832061069,-1.1755725190839694,-0.452392578125,-0.107666015625,-0.146728515625,1.5181
0.15267175572519084,1.1145038167938932,-0.8549618320610687,-0.45458984375,-0.10595703125,-0.150146484375,1.5197999999999998
-0.0916030534351145,1.2061068702290076,-0.9312977099236641,-0.4580078125,-0.099609375,-0.149169921875,1.5214999999999999
0.04580152671755725,1.0381679389312977,-1.0381679389312977,-0.457763671875,-0.098876953125,-0.14697265625,1.5231999999999999
-0.061068702290076333,0.9618320610687023,-1.1908396946564885,-0.459228515625,-0.1005859375,-0.15625,1.5249
0.030534351145038167,1.2366412213740459,-1.1603053435114503,-0.449951171875,-0.1005859375,-0.15576171875,1.5266
-0.10687022900763359,1.1755725190839694,-1.083969465648855,-0.453369140625,-0.098876953125,-0.16064453125,1.5283
0.10687022900763359,1.1603053435114503,-1.1908396946564885,-0.45751953125,-0.09912109375,-0.14306640625,1.5299999999999998
-0.07633587786259542,0.9618320610687023,-1.2213740458015268,-0.45361328125,-0.09716796875,-0.149169921875,1.5316999999999998
0.10687022900763359,1.0534351145038168,-1.0229007633587786,-0.453857421875,-0.099853515625,-0.14794921875,1.5333999999999999
0.2900763358778626,0.9923664122137404,-1.4351145038167938,-0.453857421875,-0.0947265625,-0.150390625,1.5351
0.12213740458015267,1.099236641221374,-1.2061068702290076,-0.453125,-0.1005859375,-0.150146484375,1.5368
0.13740458015267176,1.1755725190839694,-1.2671755725190839,-0.453857421875,-0.1015625,-0.150634765625,1.5385
0.366412213740458,1.2671755725190839,-1.3282442748091603,-0.454833984375,-0.09375,-0.14501953125,1.5402
0.4122137404580153,1.3282442748091603,-1.2366412213740459,-0.459716796875,-0.10009765625,-0.154052734375,1.5418999999999998
0.48854961832061067,1.282442748091603,-1.2061068702290076,-0.45458984375,-0.09912109375,-0.150634765625,1.5435999999999999
0.5343511450381679,1.2671755725190839,-1.3435114503816794,-0.449951171875,-0.098388671875,-0.151611328125,1.5453
0.5190839694656488,1.1755725190839694,-1.1450381679389312,-0.455322265625,-0.10400390625,-0.153076171875,1.547
0.6259541984732825,1.465648854961832,-1.0687022900763359,-0.45263671875,-0.09765625,-0.1416015625,1.5487
0.916030534351145,1.4045801526717556,-1.1450381679389312,-0.454833984375,-0.099609375,-0.148681640625,1.5504
0.6717557251908397,1.5267175572519085,-1.3129770992366412,-0.44873046875,-0.098876953125,-0.14404296875,1.5520999999999998
0.6870229007633588,1.4809160305343512,-1.4961832061068703,-0.45458984375,-0.098388671875,-0.1474609375,1.5537999999999998
0.9007633587786259,1.618320610687023,-1.282442748091603,-0.454345703125,-0.095458984375,-0.142822265625,1.5554999999999999
0.9312977099236641,1.6793893129770991,-1.1450381679389312,-0.453857421875,-0.097900390625,-0.149658203125,1.5572
1.0076335877862594,1.4198473282442747,-1.2366412213740459,-0.453857421875,-0.09912109375,-0.144287109375,1.5589
0.7938931297709924,1.465648854961832,-0.9465648854961832,-0.453857421875,-0.09619140625,-0.1455078125,1.5606
0.6564885496183206,1.282442748091603,-1.251908396946565,-0.452880859375,-0.0966796875,-0.145751953125,1.5623
0.6106870229007634,1.2671755725190839,-1.2366412213740459,-0.455810546875,-0.097900390625,-0.154052734375,1.5639999999999998
0.33587786259541985,1.3435114503816794,-1.282442748091603,-0.454833984375,-0.095947265625,-0.153564453125,1.5656999999999999
0.48854961832061067,1.4045801526717556,-1.1297709923664123,-0.4482421875,-0.09765625,-0.151123046875,1.5674
0.42748091603053434,0.8549618320610687,-1.282442748091603,-0.454345703125,-0.096923828125,-0.15087890625,1.5691
0.44274809160305345,0.9007633587786259,-1.0076335877862594,-0.45703125,-0.093505859375,-0.14892578125,1.5708
0.366412213740458,1.0076335877862594,-1.099236641221374,-0.452880859375,-0.095947265625,-0.152587890625,1.5725
0.549618320610687,0.9923664122137404,-1.1603053435114503,-0.45556640625,-0.10009765625,-0.149658203125,1.5741999999999998
0.44274809160305345,0.8854961832061069,-1.1755725190839694,-0.452392578125,-0.1005859375,-0.150390625,1.5758999999999999
0.8091603053435115,0.916030534351145,-1.0076335877862594,-0.452880859375,-0.095947265625,-0.145751953125,1.5776
0.7480916030534351,0.8396946564885496,-1.282442748091603,-0.455810546875,-0.096923828125,-0.158935546875,1.5793
0.9312977099236641,0.9465648854961832,-0.9923664122137404,-0.454345703125,-0.0986328125,-0.15234375,1.581
0.9007633587786259,0.9618320610687023,-1.2671755725190839,-0.45556640625,-0.095703125,-0.15478515625,1.5827
1.083969465648855,0.7633587786259542,-1.083969465648855,-0.4560546875,-0.09423828125,-0.144775390625,1.5843999999999998
1.099236641221374,0.9923664122137404,-0.916030534351145,-0.457275390625,-0.100830078125,-0.149658203125,1.5860999999999998
1.2213740458015268,1.0534351145038168,-0.8244274809160306,-0.462646484375,-0.099853515625,-0.153076171875,1.5877999999999999
1.083969465648855,0.9770992366412213,-1.0381679389312977,-0.460205078125,-0.10302734375,-0.159423828125,1.5895
1.297709923664122,1.1297709923664123,-1.1297709923664123,-0.45654296875,-0.096923828125,-0.145263671875,1.5912
1.465648854961832,0.9923664122137404,-1.083969465648855,-0.45751953125,-0.098388671875,-0.155029296875,1.5929
1.6030534351145038,1.0687022900763359,-0.9312977099236641,-0.456298828125,-0.10546875,-0.15576171875,1.5946
1.5419847328244274,1.099236641221374,-1.099236641221374,-0.446533203125,-0.094482421875,-0.155517578125,1.5962999999999998
1.2671755725190839,1.0534351145038168,-1.1450381679389312,-0.4541015625,-0.100341796875,-0.141845703125,1.5979999999999999
1.465648854961832,1.0687022900763359,-1.251908396946565,-0.454833984375,-0.100341796875,-0.15185546875,1.5997
1.6946564885496183,1.0381679389312977,-1.2061068702290076,-0.4521484375,-0.101318359375,-0.15185546875,1.6014
1.5572519083969465,1.1755725190839694,-1.2366412213740459,-0.456298828125,-0.10302734375,-0.156494140625,1.6031
1.450381679389313,1.0687022900763359,-1.083969465648855,-0.45751953125,-0.099853515625,-0.1435546875,1.6048
1.633587786259542,0.9923664122137404,-1.1145038167938932,-0.45751953125,-0.104248046875,-0.14697265625,1.6064999999999998
1.5725190839694656,0.7175572519083969,-1.3435114503816794,-0.451416015625,-0.103515625,-0.150390625,1.6081999999999999
1.3893129770992367,1.0687022900763359,-1.1145038167938932,-0.4541015625,-0.100830078125,-0.147216796875,1.6098999999999999
1.4198473282442747,0.9923664122137404,-1.0381679389312977,-0.45458984375,-0.097900390625,-0.152587890625,1.6116
1.3282442748091603,0.916030534351145,-1.0687022900763359,-0.45361328125,-0.1015625,-0.146484375,1.6133
1.4351145038167938,1.0534351145038168,-1.0534351145038168,-0.45263671875,-0.1044921875,-0.153564453125,1.615
1.5114503816793894,1.0076335877862594,-1.1908396946564885,-0.45458984375,-0.10205078125,-0.158935546875,1.6166999999999998
1.1755725190839694,1.2213740458015268,-1.3282442748091603,-0.454833984375,-0.102294921875,-0.144775390625,1.6183999999999998
1.4045801526717556,1.1297709923664123,-1.3893129770992367,-0.45458984375,-0.098876953125,-0.150634765625,1.6200999999999999
1.3129770992366412,1.0076335877862594,-1.083969465648855,-0.45263671875,-0.1005859375,-0.143798828125,1.6218
1.1145038167938932,1.0076335877862594,-1.2061068702290076,-0.45947265625,-0.09521484375,-0.151123046875,1.6235
1.083969465648855,0.9618320610687023,-1.2213740458015268,-0.454345703125,-0.1015625,-0.154296875,1.6252
0.9465648854961832,1.083969465648855,-1.1755725190839694,-0.45703125,-0.09619140625,-0.15087890625,1.6269
1.0534351145038168,1.0534351145038168,-1.1908396946564885,-0.4541015625,-0.099365234375,-0.153564453125,1.6285999999999998
0.9618320610687023,1.1297709923664123,-1.282442748091603,-0.451171875,-0.100830078125,-0.146240234375,1.6302999999999999
0.7938931297709924,1.0687022900763359,-1.2213740458015268,-0.4521484375,-0.09912109375,-0.1494140625,1.632
0.7938931297709924,1.0534351145038168,-1.1908396946564885,-0.457275390625,-0.099609375,-0.15087890625,1.6337
0.7480916030534351,1.0534351145038168,-1.1755725190839694,-0.45654296875,-0.097412109375,-0.145751953125,1.6354
0.5038167938931297,0.9770992366412213,-0.916030534351145,-0.457763671875,-0.104248046875,-0.148681640625,1.6371
0.7175572519083969,0.7938931297709924,-1.0229007633587786,-0.4560546875,-0.103271484375,-0.148193359375,1.6387999999999998
0.6412213740458015,0.7786259541984732,-1.1145038167938932,-0.44970703125,-0.09765625,-0.152587890625,1.6404999999999998
0.5801526717557252,0.9007633587786259,-0.9618320610687023,-0.45166015625,-0.09912109375,-0.149169921875,1.6421999999999999
0.32061068702290074,0.916030534351145,-0.9770992366412213,-0.4521484375,-0.097412109375,-0.148681640625,1.6439
0.7633587786259542,0.9465648854961832,-1.1450381679389312,-0.45751953125,-0.095947265625,-0.14599609375,1.6456
0.549618320610687,0.916030534351145,-0.8091603053435115,-0.4599609375,-0.100341796875,-0.1474609375,1.6473
0.6106870229007634,0.8702290076335878,-0.8396946564885496,-0.454345703125,-0.095458984375,-0.14599609375,1.6489999999999998
0.7175572519083969,0.9312977099236641,-0.9465648854961832,-0.454833984375,-0.098388671875,-0.15380859375,1.6506999999999998
0.7480916030534351,1.1450381679389312,-1.0076335877862594,-0.451171875,-0.0986328125,-0.15087890625,1.6523999999999999
0.8702290076335878,0.9618320610687023,-0.9465648854961832,-0.454833984375,-0.101806640625,-0.14501953125,1.6541
0.8396946564885496,0.9923664122137404,-1.2213740458015268,-0.45361328125,-0.096435546875,-0.147216796875,1.6558
0.8549618320610687,0.7786259541984732,-1.1603053435114503,-0.455810546875,-0.092529296875,-0.15576171875,1.6575
1.0534351145038168,1.0534351145038168,-1.1297709923664123,-0.4541015625,-0.097412109375,-0.153076171875,1.6592
1.083969465648855,0.9618320610687023,-0.9465648854961832,-0.45849609375,-0.09716796875,-0.156005859375,1.6608999999999998
1.1908396946564885,0.7938931297709924,-1.0381679389312977,-0.45947265625,-0.09814453125,-0.14892578125,1.6625999999999999
1.3740458015267176,0.916030534351145,-1.2671755725190839,-0.460693359375,-0.09765625,-0.152587890625,1.6643
1.4961832061068703,0.8549618320610687,-1.3587786259541985,-0.455078125,-0.09912109375,-0.143310546875,1.666
1.5877862595419847,0.9770992366412213,-1.3129770992366412,-0.45751953125,-0.0986328125,-0.15234375,1.6677
1.7251908396946565,0.9770992366412213,-1.2671755725190839,-0.459228515625,-0.09765625,-0.145263671875,1.6694
1.6030534351145038,1.1755725190839694,-1.3435114503816794,-0.461669921875,-0.095458984375,-0.1572265625,1.6710999999999998
1.6793893129770991,1.3435114503816794,-1.1755725190839694,-0.45556640625,-0.099365234375,-0.145751953125,1.6727999999999998
1.8931297709923665,1.2213740458015268,-1.282442748091603,-0.45751953125,-0.09619140625,-0.151611328125,1.6744999999999999
1.9694656488549618,1.450381679389313,-1.465648854961832,-0.45263671875,-0.09912109375,-0.14990234375,1.6762
2.183206106870229,1.6641221374045803,-1.450381679389313,-0.45654296875,-0.098876953125,-0.14453125,1.6779
2.1526717557251906,1.618320610687023,-1.4809160305343512,-0.454833984375,-0.09814453125,-0.150390625,1.6796
1.8931297709923665,1.6030534351145038,-1.633587786259542,-0.452392578125,-0.103271484375,-0.145751953125,1.6813
1.9083969465648856,1.7404580152671756,-1.633587786259542,-0.4580078125,-0.104248046875,-0.152587890625,1.6829999999999998
2.183206106870229,1.7404580152671756,-1.450381679389313,-0.4580078125,-0.103271484375,-0.150146484375,1.6846999999999999
2.3053435114503817,1.83206106870229,-1.7709923664122138,-0.4599609375,-0.09716796875,-0.15478515625,1.6864
2.1526717557251906,1.816793893129771,-1.6641221374045803,-0.452880859375,-0.103515625,-0.1513671875,1.6881
2.1526717557251906,1.6488549618320612,-1.5419847328244274,-0.457275390625,-0.10205078125,-0.148193359375,1.6898
2.1526717557251906,1.633587786259542,-1.5877862595419847,-0.456787109375,-0.097900390625,-0.14990234375,1.6915
2.1526717557251906,1.633587786259542,-1.5877862595419847,-0.458984375,-0.10009765625,-0.16064453125,1.6931999999999998
2.1374045801526718,1.6030534351145038,-1.3893129770992367,-0.456298828125,-0.1015625,-0.14794921875,1.6948999999999999
2.1374045801526718,1.618320610687023,-1.6793893129770991,-0.457275390625,-0.0966796875,-0.1484375,1.6965999999999999
2.2290076335877864,1.5267175572519085,-1.465648854961832,-0.457275390625,-0.105224609375,-0.14794921875,1.6983
2.045801526717557,1.4198473282442747,-1.4198473282442747,-0.452880859375,-0.101318359375,-0.14892578125,1.7
2.045801526717557,1.3282442748091603,-1.5877862595419847,-0.45849609375,-0.10107421875,-0.147705078125,1.7017
2.3969465648854964,1.5725190839694656,-1.4961832061068703,-0.452392578125,-0.09912109375,-0.149169921875,1.7033999999999998
2.045801526717557,1.5419847328244274,-1.3893129770992367,-0.4541015625,-0.0966796875,-0.148681640625,1.7050999999999998
2.045801526717557,1.4045801526717556,-1.4961832061068703,-0.44775390625,-0.098876953125,-0.142333984375,1.7067999999999999
2.213740458015267,1.2366412213740459,-1.3435114503816794,-0.455810546875,-0.10205078125,-0.152099609375,1.7085
2.183206106870229,1.4809160305343512,-1.3587786259541985,-0.45458984375,-0.102783203125,-0.146728515625,1.7102
2.1374045801526718,1.3129770992366412,-1.4198473282442747,-0.4560546875,-0.10302734375,-0.148681640625,1.7119
2.122137404580153,1.2213740458015268,-1.3893129770992367,-0.45263671875,-0.09912109375,-0.140869140625,1.7136
2.16793893129771,1.251908396946565,-1.3282442748091603,-0.456298828125,-0.10009765625,-0.1416015625,1.7152999999999998
2.030534351145038,1.099236641221374,-1.3282442748091603,-0.456298828125,-0.096923828125,-0.13525390625,1.7169999999999999
1.9389312977099236,1.0534351145038168,-1.083969465648855,-0.452880859375,-0.097900390625,-0.139404296875,1.7187
2.3053435114503817,0.9312977099236641,-1.3129770992366412,-0.45849609375,-0.101318359375,-0.148193359375,1.7204
2.1526717557251906,0.9007633587786259,-1.2213740458015268,-0.45263671875,-0.094482421875,-0.142578125,1.7221
2.1526717557251906,0.6412213740458015,-1.282442748091603,-0.450927734375,-0.097900390625,-0.1455078125,1.7238
1.8625954198473282,0.48854961832061067,-1.0687022900763359,-0.44921875,-0.098876953125,-0.1435546875,1.7254999999999998
2.015267175572519,0.5038167938931297,-1.1908396946564885,-0.454345703125,-0.096435546875,-0.141845703125,1.7271999999999998
1.7709923664122138,0.6412213740458015,-1.2061068702290076,-0.454833984375,-0.10009765625,-0.14990234375,1.7288999999999999
1.7404580152671756,0.5190839694656488,-1.1755725190839694,-0.45751953125,-0.101806640625,-0.149658203125,1.7306
1.450381679389313,0.5038167938931297,-1.2671755725190839,-0.44873046875,-0.097412109375,-0.14697265625,1.7323
1.4351145038167938,0.3969465648854962,-1.0076335877862594,-0.44873046875,-0.099853515625,-0.149658203125,1.734
1.4198473282442747,0.5190839694656488,-1.1145038167938932,-0.45556640625,-0.105224609375,-0.14599609375,1.7356999999999998
1.4045801526717556,0.6412213740458015,-1.1908396946564885,-0.454833984375,-0.09765625,-0.152099609375,1.7373999999999998
1.282442748091603,0.5648854961832062,-1.099236641221374,-0.455810546875,-0.1015625,-0.149169921875,1.7390999999999999
1.618320610687023,0.732824427480916,-1.0076335877862594,-0.45556640625,-0.0986328125,-0.150390625,1.7408
1.4198473282442747,0.6870229007633588,-0.9465648854961832,-0.45458984375,-0.10009765625,-0.15625,1.7425
1.465648854961832,0.7633587786259542,-1.1297709923664123,-0.453125,-0.101318359375,-0.1474609375,1.7442
1.5572519083969465,0.9770992366412213,-1.0381679389312977,-0.45556640625,-0.098876953125,-0.142578125,1.7459
1.6946564885496183,0.8549618320610687,-1.1450381679389312,-0.451416015625,-0.104248046875,-0.146728515625,1.7475999999999998
1.5572519083969465,0.8396946564885496,-1.0229007633587786,-0.4580078125,-0.100341796875,-0.148681640625,1.7492999999999999
1.6641221374045803,0.9007633587786259,-0.9923664122137404,-0.45361328125,-0.107666015625,-0.14990234375,1.751
1.9694656488549618,1.0381679389312977,-1.1603053435114503,-0.4501953125,-0.10107421875,-0.150634765625,1.7527
1.9694656488549618,1.1603053435114503,-1.2061068702290076,-0.456298828125,-0.1025390625,-0.162841796875,1.7544
1.9083969465648856,1.2213740458015268,-0.9312977099236641,-0.45654296875,-0.105224609375,-0.164306640625,1.7561
1.9389312977099236,1.2213740458015268,-1.2213740458015268,-0.45703125,-0.10498046875,-0.153076171875,1.7577999999999998
2.0763358778625953,1.1755725190839694,-1.1145038167938932,-0.458251953125,-0.10205078125,-0.1494140625,1.7594999999999998
2.2290076335877864,1.1755725190839694,-1.251908396946565,-0.45947265625,-0.100830078125,-0.15185546875,1.7611999999999999
2.351145038167939,1.3435114503816794,-1.1755725190839694,-0.4580078125,-0.10498046875,-0.145263671875,1.7629
2.381679389312977,1.2671755725190839,-1.3282442748091603,-0.45458984375,-0.1005859375,-0.1484375,1.7646
2.3206106870229006,1.3740458015267176,-1.1908396946564885,-0.46044921875,-0.102294921875,-0.15625,1.7663
2.381679389312977,1.4198473282442747,-1.282442748091603,-0.455810546875,-0.10546875,-0.164794921875,1.7679999999999998
2.213740458015267,1.3129770992366412,-1.3893129770992367,-0.455322265625,-0.104736328125,-0.157470703125,1.7696999999999998
2.427480916030534,1.633587786259542,-1.3587786259541985,-0.45703125,-0.09423828125,-0.1552734375,1.7713999999999999
2.519083969465649,1.5572519083969465,-1.2671755725190839,-0.455078125,-0.10107421875,-0.152099609375,1.7731
2.5343511450381677,1.3893129770992367,-1.6793893129770991,-0.45751953125,-0.1015625,-0.150390625,1.7748
2.3969465648854964,1.3587786259541985,-1.3435114503816794,-0.45751953125,-0.103759765625,-0.151611328125,1.7765
2.4732824427480917,1.4045801526717556,-1.5725190839694656,-0.460205078125,-0.100341796875,-0.15625,1.7782
2.381679389312977,1.3893129770992367,-1.7099236641221374,-0.460693359375,-0.0986328125,-0.15673828125,1.7798999999999998
2.519083969465649,1.3587786259541985,-1.618320610687023,-0.457275390625,-0.108642578125,-0.15869140625,1.7815999999999999
2.427480916030534,1.4809160305343512,-1.7251908396946565,-0.4580078125,-0.10107421875,-0.1572265625,1.7832999999999999
