gyrox1,gyroy1,gyroz1,accelx1,accely1,accelz1,Time
2.854961832061069,0.24427480916030533,-1.8778625954198473,-0.437744140625,0.021728515625,-0.28173828125,0.0
2.9923664122137406,0.1984732824427481,-1.5725190839694656,-0.4345703125,0.025634765625,-0.275390625,0.0017
3.0839694656488548,0.16793893129770993,-1.5877862595419847,-0.4326171875,0.026123046875,-0.278564453125,0.0034
3.068702290076336,0.2595419847328244,-1.7404580152671756,-0.4296875,0.023193359375,-0.282470703125,0.0050999999999999995
3.3282442748091605,0.32061068702290074,-1.83206106870229,-0.434326171875,0.01904296875,-0.2705078125,0.0068
3.1755725190839694,0.183206106870229,-1.8778625954198473,-0.432861328125,0.024169921875,-0.288818359375,0.008499999999999999
3.145038167938931,0.16793893129770993,-1.7709923664122138,-0.4306640625,0.019287109375,-0.27734375,0.010199999999999999
3.450381679389313,0.2595419847328244,-1.7251908396946565,-0.432373046875,0.023193359375,-0.2841796875,0.011899999999999999
3.5572519083969465,0.33587786259541985,-1.7404580152671756,-0.434814453125,0.02294921875,-0.282470703125,0.0136
3.6030534351145036,0.3816793893129771,-1.816793893129771,-0.437744140625,0.02001953125,-0.278076171875,0.0153
3.49618320610687,0.2900763358778626,-1.8015267175572518,-0.43408203125,0.02294921875,-0.281005859375,0.016999999999999998
3.6946564885496183,0.2900763358778626,-1.8778625954198473,-0.43017578125,0.0244140625,-0.27099609375,0.018699999999999998
3.8625954198473282,0.42748091603053434,-1.816793893129771,-0.43359375,0.02001953125,-0.27490234375,0.020399999999999998
3.7099236641221376,0.32061068702290074,-1.7557251908396947,-0.43310546875,0.024658203125,-0.27880859375,0.022099999999999998
3.66412213740458,0.4122137404580153,-1.9694656488549618,-0.428466796875,0.02001953125,-0.282470703125,0.023799999999999998
3.5267175572519083,0.32061068702290074,-2.0763358778625953,-0.43408203125,0.0234375,-0.27978515625,0.0255
3.450381679389313,0.42748091603053434,-2.1374045801526718,-0.4326171875,0.022216796875,-0.27978515625,0.0272
3.83206106870229,0.3969465648854962,-1.8931297709923665,-0.42919921875,0.019775390625,-0.28271484375,0.0289
3.8473282442748094,0.2595419847328244,-1.7099236641221374,-0.43115234375,0.020751953125,-0.2880859375,0.0306
3.786259541984733,0.5343511450381679,-1.8778625954198473,-0.428955078125,0.01904296875,-0.28564453125,0.032299999999999995
3.7557251908396947,0.5648854961832062,-2.0,-0.431884765625,0.017822265625,-0.276611328125,0.033999999999999996
3.7404580152671754,0.5343511450381679,-1.8625954198473282,-0.431884765625,0.020263671875,-0.27880859375,0.035699999999999996
3.3282442748091605,0.5954198473282443,-1.4809160305343512,-0.434326171875,0.017822265625,-0.278076171875,0.037399999999999996
3.5419847328244276,0.3969465648854962,-1.633587786259542,-0.433837890625,0.018798828125,-0.2802734375,0.039099999999999996
3.7404580152671754,0.3053435114503817,-1.5114503816793894,-0.432861328125,0.019775390625,-0.2880859375,0.040799999999999996
3.5572519083969465,0.4122137404580153,-1.618320610687023,-0.433837890625,0.019287109375,-0.2841796875,0.042499999999999996
3.49618320610687,0.5954198473282443,-1.633587786259542,-0.4326171875,0.0205078125,-0.28515625,0.044199999999999996
3.4198473282442747,0.5801526717557252,-1.6793893129770991,-0.43701171875,0.012451171875,-0.280029296875,0.045899999999999996
3.3587786259541983,0.5954198473282443,-1.6946564885496183,-0.433349609375,0.01953125,-0.27197265625,0.047599999999999996
3.2977099236641223,0.6106870229007634,-1.465648854961832,-0.431884765625,0.016845703125,-0.27490234375,0.0493
3.267175572519084,0.5648854961832062,-1.6793893129770991,-0.438232421875,0.0126953125,-0.279541015625,0.051
3.282442748091603,0.6564885496183206,-1.633587786259542,-0.432861328125,0.019287109375,-0.28271484375,0.0527
3.282442748091603,0.8702290076335878,-1.3740458015267176,-0.43408203125,0.02001953125,-0.27880859375,0.0544
2.9618320610687023,0.7022900763358778,-1.450381679389313,-0.435791015625,0.019775390625,-0.2783203125,0.0561
3.0229007633587788,0.8396946564885496,-1.4351145038167938,-0.436767578125,0.0126953125,-0.273681640625,0.0578
3.099236641221374,0.8396946564885496,-1.4809160305343512,-0.435546875,0.0205078125,-0.26953125,0.0595
3.0229007633587788,0.5801526717557252,-1.4198473282442747,-0.43017578125,0.019287109375,-0.27587890625,0.0612
3.0076335877862594,0.8396946564885496,-1.4198473282442747,-0.4365234375,0.014404296875,-0.28564453125,0.0629
2.8396946564885495,0.8702290076335878,-1.4809160305343512,-0.435546875,0.018798828125,-0.27685546875,0.06459999999999999
2.9923664122137406,0.5801526717557252,-1.4961832061068703,-0.431640625,0.0166015625,-0.28076171875,0.0663
2.6106870229007635,0.8854961832061069,-1.3129770992366412,-0.433837890625,0.0166015625,-0.278076171875,0.06799999999999999
2.717557251908397,0.9923664122137404,-1.1755725190839694,-0.432373046875,0.017333984375,-0.28857421875,0.0697
2.732824427480916,0.9007633587786259,-1.083969465648855,-0.431396484375,0.0146484375,-0.28759765625,0.07139999999999999
2.6106870229007635,0.9465648854961832,-1.465648854961832,-0.43408203125,0.019287109375,-0.27392578125,0.0731
2.6564885496183206,0.9312977099236641,-1.099236641221374,-0.43505859375,0.016357421875,-0.28076171875,0.07479999999999999
2.6412213740458017,1.083969465648855,-1.282442748091603,-0.434326171875,0.01708984375,-0.2890625,0.0765
2.50381679389313,1.2061068702290076,-1.0076335877862594,-0.433837890625,0.015625,-0.28271484375,0.07819999999999999
2.2290076335877864,1.3129770992366412,-1.251908396946565,-0.437744140625,0.0185546875,-0.274658203125,0.0799
2.366412213740458,1.2366412213740459,-1.1908396946564885,-0.43115234375,0.014892578125,-0.280517578125,0.08159999999999999
2.4122137404580153,1.3893129770992367,-1.4351145038167938,-0.435791015625,0.014404296875,-0.274169921875,0.0833
2.2290076335877864,1.282442748091603,-1.2671755725190839,-0.4326171875,0.016845703125,-0.2724609375,0.08499999999999999
2.0763358778625953,1.3893129770992367,-1.2213740458015268,-0.4365234375,0.015625,-0.277587890625,0.0867
2.1374045801526718,1.450381679389313,-1.1450381679389312,-0.4375,0.0146484375,-0.2783203125,0.08839999999999999
1.9083969465648856,1.3893129770992367,-1.1603053435114503,-0.438720703125,0.013916015625,-0.289306640625,0.0901
1.9083969465648856,1.6030534351145038,-1.251908396946565,-0.440185546875,0.019775390625,-0.283203125,0.09179999999999999
2.351145038167939,1.5877862595419847,-1.450381679389313,-0.43212890625,0.01708984375,-0.283203125,0.0935
1.8625954198473282,1.618320610687023,-1.2213740458015268,-0.433349609375,0.017578125,-0.28515625,0.09519999999999999
1.9389312977099236,1.618320610687023,-1.2366412213740459,-0.434326171875,0.016357421875,-0.281494140625,0.0969
2.0763358778625953,1.633587786259542,-1.5267175572519085,-0.434814453125,0.015869140625,-0.281982421875,0.0986
1.8778625954198473,1.7404580152671756,-1.3893129770992367,-0.4326171875,0.02001953125,-0.28173828125,0.1003
1.83206106870229,2.122137404580153,-1.3282442748091603,-0.435546875,0.01611328125,-0.2744140625,0.102
1.8625954198473282,1.9694656488549618,-1.5877862595419847,-0.436279296875,0.013427734375,-0.2802734375,0.1037
1.6488549618320612,1.7251908396946565,-1.4198473282442747,-0.43603515625,0.01953125,-0.28271484375,0.1054
1.6030534351145038,2.015267175572519,-1.7404580152671756,-0.43359375,0.017578125,-0.286865234375,0.1071
1.5877862595419847,2.122137404580153,-1.4809160305343512,-0.43994140625,0.013427734375,-0.277587890625,0.1088
1.5114503816793894,1.9083969465648856,-1.5725190839694656,-0.441162109375,0.02001953125,-0.273681640625,0.11049999999999999
1.6946564885496183,2.0916030534351147,-1.450381679389313,-0.433837890625,0.016357421875,-0.28662109375,0.1122
1.6030534351145038,2.045801526717557,-1.786259541984733,-0.4365234375,0.0146484375,-0.27783203125,0.11389999999999999
1.7709923664122138,1.8778625954198473,-1.5419847328244274,-0.4345703125,0.013671875,-0.28564453125,0.1156
1.4809160305343512,1.9541984732824427,-1.7099236641221374,-0.437744140625,0.01611328125,-0.2900390625,0.11729999999999999
1.4198473282442747,2.1068702290076335,-1.5419847328244274,-0.434326171875,0.01708984375,-0.27294921875,0.119
1.6488549618320612,2.122137404580153,-1.7709923664122138,-0.427490234375,0.02001953125,-0.278564453125,0.12069999999999999
1.4809160305343512,2.0763358778625953,-1.7099236641221374,-0.431396484375,0.0146484375,-0.277099609375,0.1224
1.4198473282442747,2.1374045801526718,-1.7251908396946565,-0.43115234375,0.01611328125,-0.27783203125,0.12409999999999999
1.4809160305343512,1.9236641221374047,-1.5267175572519085,-0.428955078125,0.01708984375,-0.27587890625,0.1258
1.3893129770992367,2.030534351145038,-1.7099236641221374,-0.4306640625,0.014404296875,-0.286865234375,0.1275
1.251908396946565,2.198473282442748,-1.3587786259541985,-0.4306640625,0.015380859375,-0.283203125,0.12919999999999998
1.3740458015267176,2.015267175572519,-1.633587786259542,-0.43359375,0.0205078125,-0.273681640625,0.1309
1.4045801526717556,1.816793893129771,-1.5572519083969465,-0.428466796875,0.01611328125,-0.276611328125,0.1326
1.0381679389312977,1.9541984732824427,-1.5267175572519085,-0.430419921875,0.014892578125,-0.28857421875,0.1343
1.083969465648855,1.9694656488549618,-1.450381679389313,-0.4345703125,0.014404296875,-0.28466796875,0.13599999999999998
1.0687022900763359,1.8931297709923665,-1.465648854961832,-0.43994140625,0.014892578125,-0.281494140625,0.1377
0.9923664122137404,2.198473282442748,-1.2366412213740459,-0.4326171875,0.018310546875,-0.2783203125,0.1394
1.0229007633587786,2.0916030534351147,-1.4961832061068703,-0.43359375,0.014892578125,-0.28662109375,0.1411
1.099236641221374,2.1374045801526718,-1.3740458015267176,-0.427001953125,0.020263671875,-0.28173828125,0.14279999999999998
0.9770992366412213,2.0916030534351147,-1.450381679389313,-0.431884765625,0.017822265625,-0.281494140625,0.1445
1.083969465648855,2.0763358778625953,-1.4809160305343512,-0.427734375,0.021728515625,-0.29345703125,0.1462
0.732824427480916,2.198473282442748,-1.4351145038167938,-0.431640625,0.01806640625,-0.2919921875,0.1479
0.9465648854961832,2.1526717557251906,-1.3435114503816794,-0.431396484375,0.025390625,-0.282470703125,0.14959999999999998
0.8091603053435115,2.2748091603053435,-1.4961832061068703,-0.4306640625,0.016357421875,-0.287109375,0.1513
1.0534351145038168,2.2442748091603053,-1.3282442748091603,-0.427978515625,0.0166015625,-0.28662109375,0.153
1.0381679389312977,1.9083969465648856,-1.3587786259541985,-0.426025390625,0.01904296875,-0.27978515625,0.1547
0.6259541984732825,1.9389312977099236,-1.2213740458015268,-0.4306640625,0.0205078125,-0.28076171875,0.15639999999999998
0.7175572519083969,1.8473282442748091,-1.5267175572519085,-0.4296875,0.021484375,-0.283935546875,0.1581
0.8396946564885496,2.0763358778625953,-1.3282442748091603,-0.433349609375,0.01904296875,-0.294189453125,0.1598
0.916030534351145,2.1068702290076335,-1.465648854961832,-0.4326171875,0.01904296875,-0.292724609375,0.1615
0.8244274809160306,1.9083969465648856,-1.5114503816793894,-0.43017578125,0.01806640625,-0.281982421875,0.16319999999999998
0.6717557251908397,1.8625954198473282,-1.3893129770992367,-0.43017578125,0.02099609375,-0.285400390625,0.1649
0.5190839694656488,1.8931297709923665,-1.282442748091603,-0.4267578125,0.018798828125,-0.2880859375,0.1666
0.6564885496183206,1.8778625954198473,-1.450381679389313,-0.433837890625,0.01611328125,-0.280029296875,0.16829999999999998
0.6259541984732825,2.045801526717557,-1.4961832061068703,-0.427978515625,0.021484375,-0.2890625,0.16999999999999998
0.7633587786259542,1.8015267175572518,-1.633587786259542,-0.431640625,0.023193359375,-0.288330078125,0.1717
0.6870229007633588,1.7251908396946565,-1.297709923664122,-0.427490234375,0.01953125,-0.286865234375,0.1734
0.8091603053435115,1.9083969465648856,-1.3435114503816794,-0.43359375,0.022216796875,-0.28271484375,0.17509999999999998
0.7633587786259542,1.8931297709923665,-1.5572519083969465,-0.4267578125,0.020751953125,-0.290283203125,0.17679999999999998
0.7786259541984732,1.7709923664122138,-1.6030534351145038,-0.4326171875,0.0166015625,-0.295654296875,0.1785
0.8396946564885496,1.7404580152671756,-1.5114503816793894,-0.43017578125,0.020751953125,-0.286865234375,0.1802
0.7633587786259542,1.7557251908396947,-1.5877862595419847,-0.42529296875,0.0166015625,-0.28369140625,0.18189999999999998
1.083969465648855,1.6946564885496183,-1.6488549618320612,-0.428466796875,0.022216796875,-0.28173828125,0.18359999999999999
0.8854961832061069,1.5419847328244274,-1.6488549618320612,-0.427490234375,0.021728515625,-0.283935546875,0.1853
0.916030534351145,1.6488549618320612,-1.5114503816793894,-0.431640625,0.02001953125,-0.29541015625,0.187
0.7633587786259542,1.633587786259542,-1.5877862595419847,-0.427734375,0.020263671875,-0.291748046875,0.18869999999999998
0.7022900763358778,1.786259541984733,-1.633587786259542,-0.43359375,0.0205078125,-0.281005859375,0.19039999999999999
1.0229007633587786,1.5572519083969465,-1.5419847328244274,-0.427978515625,0.021484375,-0.288330078125,0.1921
0.916030534351145,1.5877862595419847,-1.633587786259542,-0.427001953125,0.019775390625,-0.291015625,0.1938
1.083969465648855,1.5877862595419847,-1.5114503816793894,-0.43017578125,0.02197265625,-0.28369140625,0.19549999999999998
1.282442748091603,1.5114503816793894,-1.4961832061068703,-0.43115234375,0.017822265625,-0.27734375,0.1972
1.1297709923664123,1.450381679389313,-1.465648854961832,-0.42822265625,0.024169921875,-0.28125,0.1989
1.3587786259541985,1.3282442748091603,-1.4809160305343512,-0.42919921875,0.0185546875,-0.277099609375,0.2006
1.3740458015267176,1.5114503816793894,-1.3587786259541985,-0.429443359375,0.02099609375,-0.281005859375,0.20229999999999998
1.2061068702290076,1.5419847328244274,-1.6946564885496183,-0.42724609375,0.0185546875,-0.28515625,0.204
1.4351145038167938,1.4809160305343512,-1.6641221374045803,-0.426025390625,0.021484375,-0.286376953125,0.2057
1.3129770992366412,1.4961832061068703,-1.5419847328244274,-0.427001953125,0.020751953125,-0.285400390625,0.2074
1.4045801526717556,1.282442748091603,-1.5267175572519085,-0.429931640625,0.018310546875,-0.282958984375,0.20909999999999998
1.3129770992366412,1.297709923664122,-1.5267175572519085,-0.427490234375,0.015380859375,-0.2880859375,0.2108
1.297709923664122,1.3435114503816794,-1.618320610687023,-0.42919921875,0.02880859375,-0.285888671875,0.2125
1.5419847328244274,1.282442748091603,-1.5114503816793894,-0.426513671875,0.019775390625,-0.27685546875,0.2142
1.4045801526717556,1.1908396946564885,-1.5267175572519085,-0.429443359375,0.014404296875,-0.28662109375,0.21589999999999998
1.3129770992366412,1.1908396946564885,-1.7251908396946565,-0.430419921875,0.014892578125,-0.294921875,0.2176
1.4351145038167938,1.3587786259541985,-1.5572519083969465,-0.427734375,0.01904296875,-0.28515625,0.2193
1.6488549618320612,1.251908396946565,-1.465648854961832,-0.425048828125,0.021240234375,-0.28515625,0.22099999999999997
1.6946564885496183,1.2366412213740459,-1.3587786259541985,-0.429931640625,0.02001953125,-0.28662109375,0.22269999999999998
1.4198473282442747,1.3129770992366412,-1.4198473282442747,-0.43359375,0.02099609375,-0.278076171875,0.2244
1.3587786259541985,1.0229007633587786,-1.2671755725190839,-0.435791015625,0.01708984375,-0.273681640625,0.2261
1.5572519083969465,0.9923664122137404,-1.4961832061068703,-0.427490234375,0.019775390625,-0.282958984375,0.22779999999999997
1.4809160305343512,1.0229007633587786,-1.5267175572519085,-0.42626953125,0.02783203125,-0.2841796875,0.22949999999999998
1.6793893129770991,1.0381679389312977,-1.5114503816793894,-0.43017578125,0.020263671875,-0.283203125,0.2312
1.6946564885496183,0.8244274809160306,-1.3435114503816794,-0.430419921875,0.015869140625,-0.282958984375,0.2329
1.5725190839694656,0.8854961832061069,-1.3129770992366412,-0.428955078125,0.013427734375,-0.27978515625,0.23459999999999998
1.7557251908396947,0.8854961832061069,-1.3587786259541985,-0.4326171875,0.017578125,-0.28369140625,0.23629999999999998
1.7709923664122138,0.9312977099236641,-1.3129770992366412,-0.42822265625,0.02001953125,-0.2890625,0.238
2.030534351145038,0.6259541984732825,-1.3587786259541985,-0.427734375,0.01611328125,-0.2822265625,0.2397
1.7099236641221374,0.7480916030534351,-1.1297709923664123,-0.42822265625,0.023193359375,-0.280029296875,0.24139999999999998
1.816793893129771,0.732824427480916,-1.1908396946564885,-0.42626953125,0.0244140625,-0.286376953125,0.24309999999999998
1.83206106870229,0.5343511450381679,-1.251908396946565,-0.429443359375,0.02587890625,-0.288330078125,0.2448
1.618320610687023,0.3969465648854962,-1.0534351145038168,-0.429443359375,0.0205078125,-0.284912109375,0.2465
1.786259541984733,0.5038167938931297,-1.1603053435114503,-0.432861328125,0.017333984375,-0.28662109375,0.24819999999999998
1.8473282442748091,0.732824427480916,-1.0687022900763359,-0.430908203125,0.020263671875,-0.28662109375,0.24989999999999998
1.8931297709923665,0.7480916030534351,-1.1297709923664123,-0.4248046875,0.02099609375,-0.285400390625,0.2516
1.8625954198473282,0.366412213740458,-1.0381679389312977,-0.42919921875,0.01806640625,-0.282470703125,0.25329999999999997
2.0,0.4732824427480916,-1.0229007633587786,-0.428955078125,0.021240234375,-0.286376953125,0.255
2.2442748091603053,0.44274809160305345,-0.9007633587786259,-0.42919921875,0.01806640625,-0.280029296875,0.2567
2.1374045801526718,0.366412213740458,-1.099236641221374,-0.43017578125,0.017822265625,-0.278564453125,0.25839999999999996
1.8473282442748091,0.5038167938931297,-0.916030534351145,-0.431884765625,0.02197265625,-0.285888671875,0.2601
2.16793893129771,0.1984732824427481,-0.8091603053435115,-0.427490234375,0.028076171875,-0.286865234375,0.2618
2.1526717557251906,0.2900763358778626,-1.0381679389312977,-0.42724609375,0.02001953125,-0.2841796875,0.2635
2.198473282442748,0.0916030534351145,-1.1145038167938932,-0.431884765625,0.024658203125,-0.28759765625,0.2652
2.0916030534351147,0.183206106870229,-1.3587786259541985,-0.4296875,0.02490234375,-0.284423828125,0.26689999999999997
1.8015267175572518,0.2595419847328244,-1.1755725190839694,-0.432373046875,0.017822265625,-0.2861328125,0.2686
2.16793893129771,0.12213740458015267,-0.8854961832061069,-0.432373046875,0.017822265625,-0.2958984375,0.2703
2.183206106870229,0.16793893129770993,-1.0534351145038168,-0.427978515625,0.026611328125,-0.2958984375,0.27199999999999996
2.2290076335877864,0.21374045801526717,-1.0229007633587786,-0.429931640625,0.026611328125,-0.292724609375,0.2737
2.16793893129771,0.24427480916030533,-1.0381679389312977,-0.430908203125,0.01904296875,-0.282958984375,0.2754
2.3206106870229006,0.030534351145038167,-0.8702290076335878,-0.4287109375,0.01953125,-0.285888671875,0.27709999999999996
2.2290076335877864,-0.04580152671755725,-1.251908396946565,-0.425048828125,0.01611328125,-0.28662109375,0.2788
2.50381679389313,0.15267175572519084,-0.8854961832061069,-0.42724609375,0.013427734375,-0.291015625,0.28049999999999997
2.045801526717557,0.015267175572519083,-0.9770992366412213,-0.433349609375,0.018798828125,-0.29443359375,0.2822
2.381679389312977,-0.12213740458015267,-0.9312977099236641,-0.438232421875,0.0224609375,-0.28271484375,0.2839
2.351145038167939,0.12213740458015267,-1.1908396946564885,-0.436767578125,0.017822265625,-0.2822265625,0.28559999999999997
2.1068702290076335,0.16793893129770993,-1.0076335877862594,-0.4326171875,0.017822265625,-0.28857421875,0.2873
2.3206106870229006,-0.015267175572519083,-0.916030534351145,-0.434326171875,0.0224609375,-0.286865234375,0.289
2.2900763358778624,0.07633587786259542,-1.0534351145038168,-0.43603515625,0.023193359375,-0.28076171875,0.29069999999999996
2.4732824427480917,0.030534351145038167,-1.1755725190839694,-0.428466796875,0.02001953125,-0.2841796875,0.2924
2.2748091603053435,-0.24427480916030533,-0.8854961832061069,-0.43310546875,0.023681640625,-0.283203125,0.2941
2.213740458015267,-0.030534351145038167,-1.0076335877862594,-0.43359375,0.017578125,-0.28662109375,0.2958
2.198473282442748,0.04580152671755725,-0.7786259541984732,-0.434814453125,0.021728515625,-0.280029296875,0.2975
2.2748091603053435,-0.2748091603053435,-1.0534351145038168,-0.428955078125,0.021484375,-0.28466796875,0.29919999999999997
2.4732824427480917,0.15267175572519084,-1.0534351145038168,-0.43115234375,0.0146484375,-0.28662109375,0.3009
2.1374045801526718,0.15267175572519084,-1.251908396946565,-0.43359375,0.017333984375,-0.27734375,0.3026
2.0916030534351147,-0.10687022900763359,-0.9312977099236641,-0.432373046875,0.0224609375,-0.28662109375,0.30429999999999996
2.3053435114503817,-0.04580152671755725,-0.9465648854961832,-0.436279296875,0.02099609375,-0.2841796875,0.306
2.2900763358778624,-0.061068702290076333,-1.1145038167938932,-0.43017578125,0.020263671875,-0.2822265625,0.3077
2.0610687022900764,-0.015267175572519083,-1.1297709923664123,-0.43212890625,0.020263671875,-0.28466796875,0.3094
1.8931297709923665,-0.10687022900763359,-0.8244274809160306,-0.431396484375,0.017578125,-0.284423828125,0.3111
2.045801526717557,-0.0916030534351145,-1.1908396946564885,-0.433837890625,0.017822265625,-0.277587890625,0.31279999999999997
2.0763358778625953,-0.21374045801526717,-1.1603053435114503,-0.433349609375,0.016845703125,-0.2861328125,0.3145
1.8625954198473282,-0.16793893129770993,-1.1145038167938932,-0.43212890625,0.015380859375,-0.275390625,0.3162
1.6946564885496183,0.0,-1.099236641221374,-0.43310546875,0.01708984375,-0.27783203125,0.31789999999999996
1.8931297709923665,0.12213740458015267,-1.1908396946564885,-0.4326171875,0.019287109375,-0.27685546875,0.3196
1.9236641221374047,0.13740458015267176,-1.099236641221374,-0.432373046875,0.018310546875,-0.283935546875,0.3213
2.0,-0.015267175572519083,-1.1450381679389312,-0.433349609375,0.019775390625,-0.283447265625,0.323
1.7404580152671756,0.0,-1.0076335877862594,-0.43310546875,0.011474609375,-0.279296875,0.3247
1.5725190839694656,0.183206106870229,-1.1603053435114503,-0.43017578125,0.020751953125,-0.2822265625,0.32639999999999997
1.9389312977099236,0.015267175572519083,-0.9465648854961832,-0.4345703125,0.01611328125,-0.28564453125,0.3281
1.7557251908396947,0.0916030534351145,-1.251908396946565,-0.430908203125,0.024169921875,-0.2822265625,0.3298
1.5267175572519085,0.0,-1.0534351145038168,-0.429443359375,0.018798828125,-0.287353515625,0.33149999999999996
1.8931297709923665,-0.07633587786259542,-1.2061068702290076,-0.435302734375,0.0166015625,-0.286865234375,0.3332
1.5877862595419847,0.1984732824427481,-1.2061068702290076,-0.434326171875,0.01904296875,-0.283447265625,0.3349
1.7557251908396947,0.04580152671755725,-1.3740458015267176,-0.43408203125,0.024169921875,-0.283447265625,0.33659999999999995
1.5572519083969465,0.16793893129770993,-1.1145038167938932,-0.43212890625,0.018310546875,-0.278076171875,0.3383
1.4961832061068703,0.12213740458015267,-1.3740458015267176,-0.43359375,0.01806640625,-0.274658203125,0.33999999999999997
1.5267175572519085,0.12213740458015267,-1.297709923664122,-0.431396484375,0.013427734375,-0.282470703125,0.3417
1.4351145038167938,0.13740458015267176,-1.4198473282442747,-0.433349609375,0.01953125,-0.2744140625,0.3434
1.3282442748091603,0.0,-1.450381679389313,-0.433349609375,0.02197265625,-0.276611328125,0.34509999999999996
1.3282442748091603,-0.24427480916030533,-1.450381679389313,-0.43310546875,0.017578125,-0.2802734375,0.3468
1.282442748091603,0.1984732824427481,-1.3129770992366412,-0.43798828125,0.02001953125,-0.287109375,0.3485
1.2366412213740459,-0.061068702290076333,-1.3282442748091603,-0.42919921875,0.0205078125,-0.2802734375,0.35019999999999996
1.2671755725190839,-0.015267175572519083,-1.3435114503816794,-0.43310546875,0.02001953125,-0.280029296875,0.3519
1.1755725190839694,-0.12213740458015267,-1.5419847328244274,-0.429931640625,0.015625,-0.284423828125,0.35359999999999997
1.099236641221374,0.183206106870229,-1.6030534351145038,-0.429443359375,0.016845703125,-0.281005859375,0.3553
1.251908396946565,0.12213740458015267,-1.465648854961832,-0.432373046875,0.012939453125,-0.284423828125,0.357
1.3129770992366412,-0.061068702290076333,-1.3893129770992367,-0.430908203125,0.01953125,-0.281982421875,0.35869999999999996
1.2061068702290076,0.030534351145038167,-1.5877862595419847,-0.430419921875,0.022216796875,-0.27880859375,0.3604
1.0381679389312977,-0.061068702290076333,-1.4045801526717556,-0.43115234375,0.021240234375,-0.283935546875,0.3621
0.9007633587786259,0.07633587786259542,-1.4961832061068703,-0.431884765625,0.019775390625,-0.279541015625,0.36379999999999996
1.1450381679389312,-0.015267175572519083,-1.450381679389313,-0.42822265625,0.02001953125,-0.27587890625,0.3655
0.9465648854961832,0.030534351145038167,-1.5572519083969465,-0.43408203125,0.02294921875,-0.2744140625,0.36719999999999997
1.0381679389312977,0.07633587786259542,-1.5725190839694656,-0.431640625,0.018310546875,-0.283203125,0.3689
1.1603053435114503,-0.15267175572519084,-1.633587786259542,-0.427490234375,0.01708984375,-0.283203125,0.3706
1.282442748091603,0.13740458015267176,-1.4351145038167938,-0.43017578125,0.018310546875,-0.27685546875,0.37229999999999996
1.0076335877862594,-0.13740458015267176,-1.618320610687023,-0.432373046875,0.0185546875,-0.2802734375,0.374
0.9618320610687023,-0.21374045801526717,-1.5114503816793894,-0.434814453125,0.015625,-0.279541015625,0.3757
1.1145038167938932,0.07633587786259542,-1.6946564885496183,-0.433837890625,0.019775390625,-0.277587890625,0.37739999999999996
1.1297709923664123,-0.0916030534351145,-1.6641221374045803,-0.43017578125,0.021240234375,-0.276123046875,0.3791
0.8091603053435115,-0.061068702290076333,-1.6030534351145038,-0.436767578125,0.01904296875,-0.27880859375,0.38079999999999997
0.9923664122137404,0.1984732824427481,-1.4809160305343512,-0.42822265625,0.017578125,-0.28076171875,0.38249999999999995
1.2061068702290076,0.2900763358778626,-1.6793893129770991,-0.431396484375,0.021484375,-0.279052734375,0.3842
1.099236641221374,0.061068702290076333,-1.5572519083969465,-0.431884765625,0.0185546875,-0.28125,0.38589999999999997
1.0229007633587786,-0.22900763358778625,-1.5877862595419847,-0.43603515625,0.025146484375,-0.278564453125,0.3876
0.916030534351145,0.061068702290076333,-1.7099236641221374,-0.433837890625,0.01904296875,-0.283203125,0.3893
1.1908396946564885,0.2900763358778626,-1.5419847328244274,-0.431640625,0.02099609375,-0.282470703125,0.39099999999999996
1.0229007633587786,0.0916030534351145,-1.4809160305343512,-0.431884765625,0.017822265625,-0.28515625,0.3927
1.0534351145038168,-0.15267175572519084,-1.6488549618320612,-0.432373046875,0.017333984375,-0.2724609375,0.3944
1.0076335877862594,-0.21374045801526717,-1.4961832061068703,-0.4345703125,0.013427734375,-0.27685546875,0.39609999999999995
0.8854961832061069,-0.3816793893129771,-1.5114503816793894,-0.4384765625,0.019287109375,-0.28125,0.3978
1.083969465648855,-0.21374045801526717,-1.9236641221374047,-0.432373046875,0.02197265625,-0.27294921875,0.39949999999999997
1.2671755725190839,-0.2748091603053435,-1.6488549618320612,-0.431884765625,0.021484375,-0.2822265625,0.4012
1.3282442748091603,-0.44274809160305345,-1.5419847328244274,-0.431884765625,0.015380859375,-0.28515625,0.4029
1.2671755725190839,-0.4732824427480916,-1.5877862595419847,-0.4287109375,0.02392578125,-0.278076171875,0.40459999999999996
1.1603053435114503,-0.3511450381679389,-1.6946564885496183,-0.4267578125,0.022216796875,-0.277099609375,0.4063
1.3893129770992367,-0.4732824427480916,-1.5267175572519085,-0.43408203125,0.019775390625,-0.282958984375,0.408
1.0229007633587786,-0.4122137404580153,-1.5267175572519085,-0.435791015625,0.01611328125,-0.275634765625,0.40969999999999995
1.297709923664122,-0.48854961832061067,-1.5725190839694656,-0.435302734375,0.02001953125,-0.274169921875,0.4114
1.450381679389313,-0.48854961832061067,-1.4961832061068703,-0.434326171875,0.019775390625,-0.280029296875,0.41309999999999997
1.099236641221374,-0.6412213740458015,-1.3893129770992367,-0.4326171875,0.022216796875,-0.276123046875,0.4148
1.251908396946565,-0.3969465648854962,-1.6030534351145038,-0.436767578125,0.02392578125,-0.285400390625,0.4165
1.3587786259541985,-0.183206106870229,-1.3740458015267176,-0.437255859375,0.022216796875,-0.288818359375,0.41819999999999996
0.9465648854961832,0.061068702290076333,-1.3740458015267176,-0.44091796875,0.019775390625,-0.289794921875,0.4199
1.0229007633587786,0.2900763358778626,-1.465648854961832,-0.435546875,0.02392578125,-0.280517578125,0.4216
0.9923664122137404,0.6564885496183206,-1.4045801526717556,-0.438232421875,0.0244140625,-0.279541015625,0.42329999999999995
1.099236641221374,0.6870229007633588,-1.4045801526717556,-0.431884765625,0.017822265625,-0.269287109375,0.425
1.0534351145038168,0.6564885496183206,-1.3282442748091603,-0.43505859375,0.0205078125,-0.276123046875,0.42669999999999997
1.1450381679389312,0.5190839694656488,-1.3893129770992367,-0.437255859375,0.01806640625,-0.275390625,0.4284
0.9312977099236641,0.4580152671755725,-1.251908396946565,-0.430419921875,0.021484375,-0.277099609375,0.4301
0.9465648854961832,0.33587786259541985,-1.465648854961832,-0.434326171875,0.020263671875,-0.27685546875,0.43179999999999996
1.2213740458015268,0.3816793893129771,-1.5419847328244274,-0.43212890625,0.016845703125,-0.278564453125,0.4335
1.4045801526717556,0.061068702290076333,-1.5419847328244274,-0.430908203125,0.015625,-0.282958984375,0.4352
1.1450381679389312,-0.183206106870229,-1.4351145038167938,-0.42626953125,0.020751953125,-0.278076171875,0.43689999999999996
1.3893129770992367,-0.24427480916030533,-1.4198473282442747,-0.431640625,0.020263671875,-0.27734375,0.4386
1.251908396946565,-0.2900763358778626,-1.4351145038167938,-0.427978515625,0.02197265625,-0.2841796875,0.44029999999999997
1.2671755725190839,-0.22900763358778625,-1.5114503816793894,-0.435791015625,0.013916015625,-0.2822265625,0.44199999999999995
1.5114503816793894,-0.24427480916030533,-1.4198473282442747,-0.434814453125,0.018310546875,-0.2763671875,0.4437
1.3893129770992367,-0.15267175572519084,-1.3740458015267176,-0.43359375,0.0205078125,-0.274658203125,0.44539999999999996
1.3282442748091603,-0.015267175572519083,-1.1908396946564885,-0.438232421875,0.018310546875,-0.280029296875,0.4471
1.1755725190839694,0.0916030534351145,-1.1755725190839694,-0.43701171875,0.0234375,-0.28271484375,0.4488
1.282442748091603,0.16793893129770993,-1.099236641221374,-0.435302734375,0.021484375,-0.269775390625,0.45049999999999996
1.4045801526717556,0.3053435114503817,-1.3282442748091603,-0.4365234375,0.018798828125,-0.270263671875,0.4522
1.3435114503816794,0.33587786259541985,-1.3282442748091603,-0.439453125,0.01708984375,-0.277587890625,0.45389999999999997
0.8244274809160306,0.44274809160305345,-1.450381679389313,-0.43798828125,0.019775390625,-0.273681640625,0.45559999999999995
1.1908396946564885,0.6717557251908397,-1.465648854961832,-0.432861328125,0.020751953125,-0.281494140625,0.4573
1.465648854961832,0.5801526717557252,-1.450381679389313,-0.433837890625,0.0224609375,-0.274169921875,0.45899999999999996
1.1297709923664123,0.6412213740458015,-1.282442748091603,-0.4345703125,0.024658203125,-0.278564453125,0.4607
1.251908396946565,0.6717557251908397,-1.2213740458015268,-0.429931640625,0.019287109375,-0.281005859375,0.4624
1.3893129770992367,0.6259541984732825,-1.2061068702290076,-0.4296875,0.01904296875,-0.276123046875,0.46409999999999996
1.3435114503816794,0.33587786259541985,-1.2213740458015268,-0.43115234375,0.01904296875,-0.283447265625,0.4658
1.2366412213740459,0.2900763358778626,-1.251908396946565,-0.431640625,0.017578125,-0.27978515625,0.46749999999999997
1.282442748091603,0.33587786259541985,-1.2366412213740459,-0.430908203125,0.0205078125,-0.28076171875,0.46919999999999995
1.4961832061068703,0.32061068702290074,-1.2671755725190839,-0.43310546875,0.023193359375,-0.280517578125,0.4709
1.0229007633587786,0.3816793893129771,-1.1145038167938932,-0.4326171875,0.021728515625,-0.26904296875,0.47259999999999996
1.0229007633587786,0.549618320610687,-1.282442748091603,-0.42919921875,0.0244140625,-0.276611328125,0.4743
1.4045801526717556,0.32061068702290074,-0.9923664122137404,-0.432861328125,0.02392578125,-0.2822265625,0.476
1.3129770992366412,0.24427480916030533,-1.297709923664122,-0.43310546875,0.023681640625,-0.28369140625,0.47769999999999996
1.4198473282442747,0.3816793893129771,-1.2213740458015268,-0.4365234375,0.023681640625,-0.279296875,0.4794
1.3740458015267176,0.4580152671755725,-1.2366412213740459,-0.4326171875,0.0166015625,-0.271728515625,0.48109999999999997
1.251908396946565,0.5801526717557252,-1.1145038167938932,-0.431640625,0.021728515625,-0.27734375,0.48279999999999995
1.297709923664122,0.5038167938931297,-1.2213740458015268,-0.436279296875,0.02197265625,-0.27392578125,0.4845
1.2671755725190839,0.48854961832061067,-1.3740458015267176,-0.435791015625,0.022216796875,-0.28271484375,0.48619999999999997
1.3893129770992367,0.5038167938931297,-1.2061068702290076,-0.434326171875,0.020263671875,-0.2783203125,0.4879
1.282442748091603,0.5343511450381679,-1.2061068702290076,-0.435302734375,0.022216796875,-0.27001953125,0.4896
1.3587786259541985,0.6717557251908397,-1.4045801526717556,-0.433837890625,0.02490234375,-0.27734375,0.49129999999999996
1.251908396946565,0.5190839694656488,-1.2061068702290076,-0.436767578125,0.017822265625,-0.280517578125,0.493
1.0229007633587786,0.4122137404580153,-1.2366412213740459,-0.434326171875,0.025146484375,-0.282470703125,0.4947
1.1755725190839694,0.5648854961832062,-1.1145038167938932,-0.437255859375,0.0205078125,-0.27587890625,0.49639999999999995
1.4351145038167938,0.8396946564885496,-1.282442748091603,-0.4384765625,0.022216796875,-0.279052734375,0.4981
1.1450381679389312,0.8091603053435115,-1.1603053435114503,-0.437744140625,0.020751953125,-0.276123046875,0.49979999999999997
1.3435114503816794,0.7633587786259542,-1.1603053435114503,-0.439208984375,0.020263671875,-0.28271484375,0.5015
1.3435114503816794,0.9923664122137404,-1.2061068702290076,-0.43896484375,0.02294921875,-0.281494140625,0.5032
1.2366412213740459,1.0229007633587786,-1.1297709923664123,-0.435791015625,0.02392578125,-0.27685546875,0.5049
1.4351145038167938,0.8091603053435115,-0.9770992366412213,-0.435302734375,0.0234375,-0.2744140625,0.5065999999999999
1.3893129770992367,0.7480916030534351,-1.3282442748091603,-0.435302734375,0.020263671875,-0.276611328125,0.5083
1.3893129770992367,1.0229007633587786,-1.4045801526717556,-0.437744140625,0.02294921875,-0.28662109375,0.51
1.2671755725190839,0.9923664122137404,-1.1297709923664123,-0.43798828125,0.024658203125,-0.27734375,0.5116999999999999
1.3587786259541985,0.8549618320610687,-1.282442748091603,-0.43505859375,0.02099609375,-0.27978515625,0.5134
1.4809160305343512,1.2366412213740459,-1.2671755725190839,-0.43701171875,0.022216796875,-0.2802734375,0.5151
1.3740458015267176,1.2366412213740459,-1.1908396946564885,-0.440673828125,0.022705078125,-0.28564453125,0.5167999999999999
1.4351145038167938,1.3282442748091603,-1.1297709923664123,-0.43798828125,0.022705078125,-0.277587890625,0.5185
1.4198473282442747,1.251908396946565,-1.083969465648855,-0.434326171875,0.02490234375,-0.273193359375,0.5202
1.3740458015267176,1.3282442748091603,-1.099236641221374,-0.43994140625,0.019287109375,-0.27197265625,0.5218999999999999
1.251908396946565,1.282442748091603,-0.9312977099236641,-0.436279296875,0.017333984375,-0.278564453125,0.5236
1.7099236641221374,1.4351145038167938,-1.099236641221374,-0.4375,0.02099609375,-0.270751953125,0.5253
1.5419847328244274,1.3587786259541985,-1.1603053435114503,-0.43603515625,0.017578125,-0.279541015625,0.527
1.3740458015267176,1.3587786259541985,-1.1297709923664123,-0.43408203125,0.023193359375,-0.27783203125,0.5287
1.3893129770992367,1.4351145038167938,-0.9770992366412213,-0.4345703125,0.018798828125,-0.27783203125,0.5304
1.633587786259542,1.3893129770992367,-1.1297709923664123,-0.4365234375,0.025390625,-0.279296875,0.5321
1.5419847328244274,1.5114503816793894,-1.0076335877862594,-0.432861328125,0.017578125,-0.278076171875,0.5337999999999999
1.5725190839694656,1.816793893129771,-1.083969465648855,-0.42822265625,0.018798828125,-0.2763671875,0.5355
1.6030534351145038,1.7404580152671756,-0.9465648854961832,-0.4375,0.021240234375,-0.277587890625,0.5372
1.5114503816793894,1.6030534351145038,-1.1297709923664123,-0.4365234375,0.023681640625,-0.27978515625,0.5388999999999999
1.6488549618320612,1.5114503816793894,-1.0076335877862594,-0.43212890625,0.018310546875,-0.283447265625,0.5406
1.9236641221374047,1.7557251908396947,-0.9312977099236641,-0.435302734375,0.022705078125,-0.276123046875,0.5423
1.6488549618320612,1.8625954198473282,-0.9923664122137404,-0.435791015625,0.0224609375,-0.277099609375,0.5439999999999999
1.5877862595419847,1.8473282442748091,-0.8702290076335878,-0.43701171875,0.02001953125,-0.2763671875,0.5457
1.633587786259542,1.786259541984733,-1.0381679389312977,-0.43212890625,0.021728515625,-0.2841796875,0.5474
1.7251908396946565,2.015267175572519,-1.0229007633587786,-0.435546875,0.023193359375,-0.278564453125,0.5490999999999999
1.7404580152671756,1.9389312977099236,-0.916030534351145,-0.433349609375,0.023681640625,-0.279541015625,0.5508
1.5572519083969465,1.8931297709923665,-1.1603053435114503,-0.435302734375,0.027587890625,-0.27783203125,0.5525
1.633587786259542,2.0610687022900764,-1.0229007633587786,-0.435791015625,0.019287109375,-0.281005859375,0.5541999999999999
1.6030534351145038,1.5725190839694656,-1.0534351145038168,-0.432373046875,0.02392578125,-0.28125,0.5559
1.8778625954198473,2.015267175572519,-1.0229007633587786,-0.43017578125,0.021484375,-0.279052734375,0.5576
1.633587786259542,1.9541984732824427,-1.0534351145038168,-0.434326171875,0.017578125,-0.27734375,0.5593
1.7557251908396947,1.7557251908396947,-1.0076335877862594,-0.431884765625,0.021484375,-0.27490234375,0.5609999999999999
1.6488549618320612,1.7709923664122138,-1.0687022900763359,-0.429443359375,0.021240234375,-0.282470703125,0.5627
1.8625954198473282,1.7709923664122138,-1.1450381679389312,-0.435546875,0.0185546875,-0.273681640625,0.5644
1.8015267175572518,1.8473282442748091,-1.2061068702290076,-0.43701171875,0.01513671875,-0.271484375,0.5660999999999999
1.6641221374045803,1.816793893129771,-1.0229007633587786,-0.432373046875,0.0205078125,-0.280517578125,0.5678
1.9236641221374047,1.7709923664122138,-1.1145038167938932,-0.43408203125,0.02294921875,-0.278076171875,0.5695
1.7709923664122138,1.8931297709923665,-1.1450381679389312,-0.431640625,0.022216796875,-0.2822265625,0.5711999999999999
1.5267175572519085,1.8778625954198473,-1.083969465648855,-0.431640625,0.0224609375,-0.2841796875,0.5729
1.6946564885496183,1.8625954198473282,-0.9618320610687023,-0.43505859375,0.018798828125,-0.2763671875,0.5746
1.5877862595419847,2.015267175572519,-1.2061068702290076,-0.432861328125,0.01953125,-0.2783203125,0.5762999999999999
1.618320610687023,2.0,-0.9618320610687023,-0.427734375,0.02392578125,-0.2763671875,0.578
1.786259541984733,2.030534351145038,-1.1755725190839694,-0.435546875,0.01611328125,-0.280517578125,0.5797
1.8015267175572518,2.0610687022900764,-0.9923664122137404,-0.4365234375,0.019775390625,-0.275390625,0.5813999999999999
1.984732824427481,2.0916030534351147,-1.2061068702290076,-0.435302734375,0.01904296875,-0.279296875,0.5831
1.8473282442748091,2.1374045801526718,-0.9770992366412213,-0.431396484375,0.0205078125,-0.276611328125,0.5848
1.618320610687023,2.1374045801526718,-1.1297709923664123,-0.43505859375,0.0166015625,-0.272216796875,0.5865
1.7251908396946565,2.122137404580153,-1.1297709923664123,-0.435302734375,0.017822265625,-0.271240234375,0.5882
1.6793893129770991,2.213740458015267,-1.2671755725190839,-0.4375,0.0205078125,-0.279052734375,0.5899
1.8778625954198473,2.16793893129771,-1.0229007633587786,-0.43505859375,0.025146484375,-0.285400390625,0.5916
1.8015267175572518,2.2900763358778624,-1.083969465648855,-0.43701171875,0.0244140625,-0.28173828125,0.5932999999999999
1.6488549618320612,2.366412213740458,-1.0229007633587786,-0.439697265625,0.023193359375,-0.2763671875,0.595
1.7709923664122138,2.4427480916030535,-0.9618320610687023,-0.430908203125,0.0244140625,-0.2919921875,0.5967
1.6793893129770991,2.4732824427480917,-1.0229007633587786,-0.436279296875,0.02392578125,-0.27685546875,0.5983999999999999
1.5877862595419847,2.7938931297709924,-0.9618320610687023,-0.43896484375,0.02294921875,-0.2841796875,0.6001
1.6030534351145038,2.8091603053435112,-1.0687022900763359,-0.445068359375,0.016845703125,-0.282470703125,0.6018
1.6030534351145038,2.8702290076335877,-1.1603053435114503,-0.436767578125,0.022216796875,-0.27685546875,0.6034999999999999
1.4809160305343512,3.312977099236641,-0.9312977099236641,-0.436767578125,0.02197265625,-0.280029296875,0.6052
1.251908396946565,3.2061068702290076,-0.8702290076335878,-0.43798828125,0.02490234375,-0.279541015625,0.6069
1.3740458015267176,3.267175572519084,-1.0076335877862594,-0.43994140625,0.022705078125,-0.28369140625,0.6085999999999999
1.450381679389313,3.1297709923664123,-1.2061068702290076,-0.432861328125,0.020751953125,-0.2802734375,0.6103
1.5572519083969465,3.5877862595419847,-1.2061068702290076,-0.434814453125,0.021484375,-0.27978515625,0.612
1.4961832061068703,3.312977099236641,-1.3282442748091603,-0.43896484375,0.02587890625,-0.2822265625,0.6136999999999999
1.3282442748091603,3.450381679389313,-1.0687022900763359,-0.433349609375,0.022216796875,-0.28466796875,0.6154
1.5725190839694656,3.3740458015267176,-1.4809160305343512,-0.431640625,0.018798828125,-0.2734375,0.6171
1.6030534351145038,3.5877862595419847,-1.1297709923664123,-0.43310546875,0.021240234375,-0.277099609375,0.6188
1.786259541984733,3.2519083969465647,-1.3282442748091603,-0.427978515625,0.017822265625,-0.283203125,0.6204999999999999
1.6793893129770991,3.4656488549618323,-1.4351145038167938,-0.435302734375,0.02197265625,-0.28125,0.6222
1.4809160305343512,3.49618320610687,-1.5267175572519085,-0.43212890625,0.022216796875,-0.2822265625,0.6239
1.7099236641221374,3.618320610687023,-1.465648854961832,-0.433349609375,0.02197265625,-0.295654296875,0.6255999999999999
1.6641221374045803,3.801526717557252,-1.465648854961832,-0.43212890625,0.025390625,-0.277587890625,0.6273
1.6030534351145038,3.5877862595419847,-1.5572519083969465,-0.427734375,0.02978515625,-0.291748046875,0.629
1.7099236641221374,3.618320610687023,-1.7099236641221374,-0.431884765625,0.02685546875,-0.28515625,0.6306999999999999
1.6946564885496183,3.450381679389313,-1.6488549618320612,-0.43115234375,0.024658203125,-0.285400390625,0.6324
1.984732824427481,3.404580152671756,-1.6793893129770991,-0.431640625,0.0234375,-0.28857421875,0.6341
1.9083969465648856,3.5114503816793894,-1.6946564885496183,-0.427978515625,0.02001953125,-0.2880859375,0.6357999999999999
1.816793893129771,3.450381679389313,-1.8015267175572518,-0.427978515625,0.025390625,-0.28759765625,0.6375
1.9083969465648856,3.4198473282442747,-1.7709923664122138,-0.431396484375,0.02685546875,-0.287353515625,0.6392
1.5114503816793894,3.3282442748091605,-1.786259541984733,-0.4248046875,0.021484375,-0.29248046875,0.6408999999999999
2.015267175572519,3.312977099236641,-1.8778625954198473,-0.432373046875,0.02001953125,-0.2890625,0.6426
1.7709923664122138,3.2061068702290076,-1.5877862595419847,-0.427001953125,0.017578125,-0.28564453125,0.6443
1.9694656488549618,3.068702290076336,-1.6641221374045803,-0.428955078125,0.01904296875,-0.279052734375,0.646
2.2442748091603053,2.854961832061069,-1.8625954198473282,-0.423583984375,0.016357421875,-0.274169921875,0.6476999999999999
1.8931297709923665,2.7938931297709924,-1.8015267175572518,-0.42724609375,0.019775390625,-0.287841796875,0.6494
2.0763358778625953,2.519083969465649,-1.7557251908396947,-0.424560546875,0.022216796875,-0.284423828125,0.6511
2.045801526717557,2.183206106870229,-1.8473282442748091,-0.427978515625,0.01904296875,-0.287353515625,0.6527999999999999
1.984732824427481,2.0916030534351147,-1.8931297709923665,-0.42822265625,0.0205078125,-0.287841796875,0.6545
1.8015267175572518,2.1374045801526718,-1.633587786259542,-0.42822265625,0.022216796875,-0.283935546875,0.6562
1.816793893129771,1.9694656488549618,-1.816793893129771,-0.42529296875,0.016845703125,-0.286865234375,0.6578999999999999
1.8931297709923665,1.8473282442748091,-1.7099236641221374,-0.423095703125,0.023193359375,-0.28369140625,0.6596
1.633587786259542,1.816793893129771,-1.6946564885496183,-0.427734375,0.02294921875,-0.282470703125,0.6613
1.7557251908396947,1.8778625954198473,-1.4809160305343512,-0.434326171875,0.021484375,-0.281494140625,0.6629999999999999
1.8625954198473282,1.9083969465648856,-1.618320610687023,-0.43310546875,0.0234375,-0.27978515625,0.6647
1.6946564885496183,2.015267175572519,-1.633587786259542,-0.43212890625,0.02197265625,-0.281005859375,0.6664
1.8778625954198473,2.1068702290076335,-1.7404580152671756,-0.4296875,0.021240234375,-0.277587890625,0.6680999999999999
1.7557251908396947,1.9236641221374047,-1.618320610687023,-0.430908203125,0.021728515625,-0.287353515625,0.6698
1.5725190839694656,1.9236641221374047,-1.5267175572519085,-0.43310546875,0.021728515625,-0.2841796875,0.6715
1.9389312977099236,2.0610687022900764,-1.6488549618320612,-0.4267578125,0.02392578125,-0.283203125,0.6731999999999999
1.8015267175572518,1.9694656488549618,-1.3893129770992367,-0.432861328125,0.02587890625,-0.2822265625,0.6748999999999999
1.5114503816793894,1.816793893129771,-1.6641221374045803,-0.429443359375,0.02490234375,-0.28662109375,0.6766
1.6641221374045803,1.9236641221374047,-1.7404580152671756,-0.425048828125,0.022705078125,-0.278564453125,0.6783
1.83206106870229,1.7709923664122138,-1.5725190839694656,-0.428955078125,0.023193359375,-0.276123046875,0.6799999999999999
1.9389312977099236,1.5725190839694656,-1.816793893129771,-0.427001953125,0.019775390625,-0.2861328125,0.6817
1.6793893129770991,1.6641221374045803,-1.618320610687023,-0.4248046875,0.02490234375,-0.280517578125,0.6834
1.9083969465648856,1.3129770992366412,-1.7709923664122138,-0.427734375,0.024169921875,-0.28076171875,0.6850999999999999
2.0763358778625953,1.2213740458015268,-1.816793893129771,-0.4248046875,0.0234375,-0.283447265625,0.6868
1.816793893129771,1.2061068702290076,-1.6641221374045803,-0.429443359375,0.018798828125,-0.28173828125,0.6885
2.015267175572519,1.099236641221374,-1.6641221374045803,-0.423828125,0.021728515625,-0.281982421875,0.6901999999999999
1.9389312977099236,0.8702290076335878,-1.6793893129770991,-0.425048828125,0.016845703125,-0.280517578125,0.6919
1.9389312977099236,0.7175572519083969,-1.8931297709923665,-0.42822265625,0.02294921875,-0.2763671875,0.6936
1.83206106870229,0.8702290076335878,-1.7251908396946565,-0.427490234375,0.025390625,-0.284423828125,0.6952999999999999
2.030534351145038,0.9312977099236641,-1.6030534351145038,-0.430908203125,0.02099609375,-0.27783203125,0.697
1.984732824427481,0.8549618320610687,-1.4809160305343512,-0.4306640625,0.0166015625,-0.287841796875,0.6987
1.9694656488549618,0.8549618320610687,-1.618320610687023,-0.4287109375,0.0205078125,-0.2783203125,0.7003999999999999
2.1068702290076335,0.9465648854961832,-1.6488549618320612,-0.43505859375,0.01953125,-0.27685546875,0.7021
2.183206106870229,0.7633587786259542,-1.816793893129771,-0.43115234375,0.02197265625,-0.287353515625,0.7038
2.2442748091603053,0.9465648854961832,-1.8015267175572518,-0.43359375,0.019287109375,-0.283447265625,0.7055
2.2290076335877864,0.9618320610687023,-1.7099236641221374,-0.4306640625,0.018310546875,-0.275146484375,0.7071999999999999
2.0610687022900764,0.9770992366412213,-1.83206106870229,-0.43359375,0.017333984375,-0.28369140625,0.7089
1.9694656488549618,0.9312977099236641,-1.8625954198473282,-0.426025390625,0.023193359375,-0.2744140625,0.7106
2.198473282442748,0.9618320610687023,-1.6793893129770991,-0.42724609375,0.02392578125,-0.28369140625,0.7122999999999999
2.2442748091603053,1.0076335877862594,-1.7709923664122138,-0.42529296875,0.025390625,-0.2822265625,0.714
2.427480916030534,0.7022900763358778,-1.7557251908396947,-0.431884765625,0.0263671875,-0.283447265625,0.7157
2.427480916030534,0.732824427480916,-1.9694656488549618,-0.429443359375,0.0205078125,-0.285400390625,0.7173999999999999
2.2748091603053435,0.8549618320610687,-1.9083969465648856,-0.430908203125,0.017578125,-0.283935546875,0.7191
2.381679389312977,0.7480916030534351,-1.633587786259542,-0.432373046875,0.02099609375,-0.27783203125,0.7208
2.381679389312977,0.8549618320610687,-1.6641221374045803,-0.430908203125,0.018798828125,-0.283203125,0.7224999999999999
2.5343511450381677,0.8091603053435115,-1.633587786259542,-0.43212890625,0.017333984375,-0.276611328125,0.7242
2.3206106870229006,0.7175572519083969,-1.7404580152671756,-0.4287109375,0.01904296875,-0.28515625,0.7259
2.4732824427480917,1.0534351145038168,-1.816793893129771,-0.4287109375,0.02001953125,-0.28515625,0.7275999999999999
2.5343511450381677,0.8091603053435115,-1.8015267175572518,-0.433349609375,0.017578125,-0.277099609375,0.7293
2.595419847328244,0.6412213740458015,-1.6641221374045803,-0.430908203125,0.0146484375,-0.278564453125,0.731
2.564885496183206,0.8396946564885496,-1.633587786259542,-0.433349609375,0.0205078125,-0.285400390625,0.7326999999999999
2.763358778625954,0.732824427480916,-1.7099236641221374,-0.431640625,0.021240234375,-0.27783203125,0.7343999999999999
2.3053435114503817,0.8396946564885496,-1.7099236641221374,-0.43359375,0.015869140625,-0.280517578125,0.7361
2.3969465648854964,0.9312977099236641,-1.6488549618320612,-0.4326171875,0.01708984375,-0.27978515625,0.7378
2.564885496183206,0.8091603053435115,-1.618320610687023,-0.431884765625,0.019287109375,-0.281005859375,0.7394999999999999
2.3969465648854964,0.7480916030534351,-1.7557251908396947,-0.42919921875,0.01708984375,-0.278564453125,0.7412
2.381679389312977,0.8396946564885496,-1.5572519083969465,-0.43359375,0.01806640625,-0.27783203125,0.7429
2.549618320610687,0.6564885496183206,-1.465648854961832,-0.4306640625,0.014892578125,-0.2783203125,0.7445999999999999
2.33587786259542,0.6564885496183206,-1.282442748091603,-0.433349609375,0.018798828125,-0.2734375,0.7463
2.366412213740458,0.9312977099236641,-1.3587786259541985,-0.43505859375,0.02099609375,-0.287109375,0.748
2.50381679389313,0.7938931297709924,-1.4045801526717556,-0.4267578125,0.022705078125,-0.284912109375,0.7496999999999999
2.030534351145038,0.8396946564885496,-1.3129770992366412,-0.429931640625,0.019775390625,-0.2802734375,0.7514
2.198473282442748,0.6870229007633588,-1.0534351145038168,-0.431640625,0.022705078125,-0.285888671875,0.7531
2.4580152671755724,0.8091603053435115,-1.4198473282442747,-0.4306640625,0.016357421875,-0.28466796875,0.7547999999999999
2.2442748091603053,0.8396946564885496,-1.5114503816793894,-0.437255859375,0.016357421875,-0.2822265625,0.7565
2.0610687022900764,0.8549618320610687,-1.0687022900763359,-0.43115234375,0.021728515625,-0.28271484375,0.7582
2.33587786259542,1.0381679389312977,-1.1450381679389312,-0.433837890625,0.01611328125,-0.2841796875,0.7598999999999999
2.183206106870229,1.099236641221374,-1.2671755725190839,-0.433837890625,0.018798828125,-0.278564453125,0.7615999999999999
2.0763358778625953,0.7633587786259542,-1.3282442748091603,-0.4326171875,0.015869140625,-0.271728515625,0.7633
2.1374045801526718,0.7633587786259542,-1.083969465648855,-0.43359375,0.016845703125,-0.278076171875,0.7649999999999999
2.2442748091603053,1.1297709923664123,-1.0381679389312977,-0.4326171875,0.01904296875,-0.279541015625,0.7666999999999999
2.16793893129771,1.0076335877862594,-1.0076335877862594,-0.433349609375,0.021728515625,-0.284912109375,0.7684
1.9541984732824427,1.0076335877862594,-1.0229007633587786,-0.4306640625,0.017822265625,-0.282958984375,0.7701
2.2290076335877864,0.8091603053435115,-1.1450381679389312,-0.43603515625,0.021484375,-0.282470703125,0.7717999999999999
2.16793893129771,1.2213740458015268,-0.9618320610687023,-0.43701171875,0.01953125,-0.283447265625,0.7735
2.366412213740458,1.251908396946565,-1.0076335877862594,-0.4345703125,0.017333984375,-0.28662109375,0.7752
2.0763358778625953,1.1145038167938932,-1.1297709923664123,-0.435546875,0.02001953125,-0.27294921875,0.7768999999999999
2.045801526717557,1.083969465648855,-0.9770992366412213,-0.434326171875,0.022705078125,-0.278564453125,0.7786
2.0763358778625953,1.465648854961832,-1.0687022900763359,-0.435546875,0.018310546875,-0.277099609375,0.7803
2.198473282442748,1.3893129770992367,-1.1297709923664123,-0.436767578125,0.0205078125,-0.28076171875,0.7819999999999999
2.198473282442748,1.2213740458015268,-0.9465648854961832,-0.43603515625,0.01611328125,-0.28759765625,0.7837
2.030534351145038,1.4809160305343512,-1.2213740458015268,-0.4296875,0.01708984375,-0.277099609375,0.7854
2.0916030534351147,1.4961832061068703,-1.1145038167938932,-0.43505859375,0.0185546875,-0.279052734375,0.7870999999999999
2.0,1.3893129770992367,-1.2366412213740459,-0.431884765625,0.020263671875,-0.287841796875,0.7888
2.015267175572519,1.465648854961832,-1.0381679389312977,-0.430908203125,0.02685546875,-0.283203125,0.7905
1.8778625954198473,1.6030534351145038,-0.9923664122137404,-0.428955078125,0.024658203125,-0.281005859375,0.7921999999999999
2.045801526717557,1.3740458015267176,-1.083969465648855,-0.42822265625,0.019775390625,-0.280517578125,0.7938999999999999
1.9694656488549618,1.5267175572519085,-1.3282442748091603,-0.433837890625,0.02001953125,-0.280517578125,0.7956
1.9389312977099236,1.6946564885496183,-1.2366412213740459,-0.43603515625,0.023681640625,-0.284912109375,0.7973
2.2442748091603053,1.7709923664122138,-1.1755725190839694,-0.433349609375,0.017822265625,-0.284423828125,0.7989999999999999
2.2900763358778624,1.5877862595419847,-1.4809160305343512,-0.43701171875,0.01806640625,-0.2841796875,0.8007
2.0,1.8931297709923665,-1.2366412213740459,-0.43115234375,0.018310546875,-0.276611328125,0.8024
2.1374045801526718,1.8015267175572518,-1.282442748091603,-0.43701171875,0.014404296875,-0.277587890625,0.8040999999999999
2.122137404580153,1.9083969465648856,-1.465648854961832,-0.431884765625,0.022216796875,-0.28173828125,0.8058
1.83206106870229,1.786259541984733,-1.3435114503816794,-0.431640625,0.0166015625,-0.295654296875,0.8075
2.045801526717557,1.9083969465648856,-1.5419847328244274,-0.4326171875,0.021728515625,-0.2841796875,0.8091999999999999
2.0763358778625953,2.030534351145038,-1.465648854961832,-0.4404296875,0.018310546875,-0.28564453125,0.8109
2.0916030534351147,2.1526717557251906,-1.618320610687023,-0.43798828125,0.018310546875,-0.28466796875,0.8126
1.9694656488549618,1.9541984732824427,-1.4198473282442747,-0.4326171875,0.019775390625,-0.280517578125,0.8142999999999999
2.16793893129771,1.9236641221374047,-1.6641221374045803,-0.432861328125,0.0166015625,-0.28271484375,0.816
2.3206106870229006,2.198473282442748,-1.618320610687023,-0.43017578125,0.02587890625,-0.28662109375,0.8177
2.045801526717557,2.122137404580153,-1.7099236641221374,-0.42578125,0.023193359375,-0.285888671875,0.8193999999999999
1.984732824427481,2.16793893129771,-1.6793893129770991,-0.42919921875,0.0185546875,-0.288818359375,0.8210999999999999
1.9541984732824427,2.1068702290076335,-1.7099236641221374,-0.422119140625,0.020751953125,-0.282470703125,0.8228
1.984732824427481,1.9694656488549618,-1.618320610687023,-0.43359375,0.018310546875,-0.28125,0.8244999999999999
1.984732824427481,1.9083969465648856,-1.6641221374045803,-0.433837890625,0.019287109375,-0.280029296875,0.8261999999999999
1.8015267175572518,1.8778625954198473,-1.5572519083969465,-0.4306640625,0.019775390625,-0.284423828125,0.8279
1.9541984732824427,1.9694656488549618,-1.8778625954198473,-0.428955078125,0.0185546875,-0.27685546875,0.8296
2.1526717557251906,1.8625954198473282,-1.618320610687023,-0.4267578125,0.015625,-0.279052734375,0.8312999999999999
2.1374045801526718,1.7557251908396947,-1.633587786259542,-0.430419921875,0.017578125,-0.28857421875,0.833
1.6793893129770991,1.6488549618320612,-1.5877862595419847,-0.433349609375,0.018798828125,-0.27734375,0.8347
1.633587786259542,1.5877862595419847,-1.5725190839694656,-0.428955078125,0.01611328125,-0.285888671875,0.8363999999999999
1.786259541984733,1.984732824427481,-1.4961832061068703,-0.43212890625,0.019775390625,-0.281494140625,0.8381
1.8015267175572518,1.9389312977099236,-1.7251908396946565,-0.43798828125,0.017822265625,-0.28466796875,0.8398
1.6793893129770991,1.8473282442748091,-1.6488549618320612,-0.42919921875,0.014404296875,-0.2890625,0.8414999999999999
1.5572519083969465,2.2290076335877864,-1.6488549618320612,-0.43212890625,0.016357421875,-0.28564453125,0.8432
1.6641221374045803,2.1526717557251906,-1.6030534351145038,-0.4345703125,0.014892578125,-0.288818359375,0.8449
1.7099236641221374,2.0610687022900764,-1.786259541984733,-0.431640625,0.019775390625,-0.28369140625,0.8465999999999999
1.4351145038167938,1.9694656488549618,-1.7557251908396947,-0.43017578125,0.01611328125,-0.282470703125,0.8482999999999999
1.4045801526717556,2.198473282442748,-1.618320610687023,-0.432373046875,0.014892578125,-0.287109375,0.85
1.5267175572519085,2.1068702290076335,-1.7557251908396947,-0.435302734375,0.02294921875,-0.28466796875,0.8516999999999999
1.7404580152671756,2.198473282442748,-1.6030534351145038,-0.434814453125,0.023681640625,-0.281982421875,0.8533999999999999
1.5572519083969465,2.3053435114503817,-1.4351145038167938,-0.430908203125,0.0166015625,-0.284912109375,0.8551
1.5572519083969465,2.183206106870229,-1.7709923664122138,-0.4326171875,0.017333984375,-0.283935546875,0.8568
1.4809160305343512,2.0763358778625953,-1.4351145038167938,-0.4345703125,0.024169921875,-0.27880859375,0.8584999999999999
1.5419847328244274,2.2442748091603053,-1.5877862595419847,-0.433349609375,0.02001953125,-0.285400390625,0.8602
1.4809160305343512,2.0763358778625953,-1.6641221374045803,-0.427490234375,0.022216796875,-0.2900390625,0.8619
1.251908396946565,2.1068702290076335,-1.5419847328244274,-0.426513671875,0.02001953125,-0.2939453125,0.8635999999999999
1.3893129770992367,2.183206106870229,-1.3587786259541985,-0.4267578125,0.018798828125,-0.289306640625,0.8653
1.4045801526717556,2.122137404580153,-1.5877862595419847,-0.431396484375,0.01318359375,-0.291259765625,0.867
1.3740458015267176,2.16793893129771,-1.5725190839694656,-0.4248046875,0.021728515625,-0.29150390625,0.8686999999999999
1.5725190839694656,2.16793893129771,-1.5725190839694656,-0.429443359375,0.016845703125,-0.2900390625,0.8704
1.4961832061068703,2.1374045801526718,-1.5114503816793894,-0.428955078125,0.024169921875,-0.292236328125,0.8721
1.4198473282442747,2.16793893129771,-1.7557251908396947,-0.42529296875,0.020751953125,-0.283935546875,0.8737999999999999
1.5419847328244274,2.0763358778625953,-1.633587786259542,-0.429443359375,0.02099609375,-0.29345703125,0.8755
1.618320610687023,2.0,-1.5419847328244274,-0.42236328125,0.022216796875,-0.28271484375,0.8772
1.618320610687023,2.0610687022900764,-1.633587786259542,-0.428955078125,0.02294921875,-0.29052734375,0.8788999999999999
1.4809160305343512,1.9236641221374047,-1.6946564885496183,-0.434814453125,0.023681640625,-0.2900390625,0.8805999999999999
1.4198473282442747,2.0,-1.6488549618320612,-0.4345703125,0.0224609375,-0.28857421875,0.8823
1.6793893129770991,1.9694656488549618,-1.4809160305343512,-0.42724609375,0.021240234375,-0.292236328125,0.8839999999999999
1.8778625954198473,2.045801526717557,-1.5419847328244274,-0.43212890625,0.020263671875,-0.287841796875,0.8856999999999999
1.7557251908396947,1.984732824427481,-1.6946564885496183,-0.4287109375,0.0185546875,-0.281982421875,0.8874
1.8015267175572518,2.2442748091603053,-1.633587786259542,-0.432373046875,0.021240234375,-0.28271484375,0.8891
1.786259541984733,2.122137404580153,-1.5419847328244274,-0.431396484375,0.022705078125,-0.284912109375,0.8907999999999999
1.6793893129770991,2.1374045801526718,-1.1603053435114503,-0.42919921875,0.013671875,-0.28759765625,0.8925
1.786259541984733,2.015267175572519,-1.5267175572519085,-0.427978515625,0.0166015625,-0.28564453125,0.8942
1.7099236641221374,1.8931297709923665,-1.297709923664122,-0.43310546875,0.024169921875,-0.28076171875,0.8958999999999999
1.5114503816793894,2.1526717557251906,-1.4351145038167938,-0.429931640625,0.019775390625,-0.28955078125,0.8976
1.7709923664122138,2.183206106870229,-1.5114503816793894,-0.427734375,0.020751953125,-0.29150390625,0.8993
2.0763358778625953,2.030534351145038,-1.282442748091603,-0.431396484375,0.02392578125,-0.281982421875,0.9009999999999999
1.8931297709923665,1.9236641221374047,-1.3129770992366412,-0.4326171875,0.01904296875,-0.2880859375,0.9027
1.9236641221374047,2.045801526717557,-1.3893129770992367,-0.431396484375,0.017333984375,-0.287109375,0.9044
2.16793893129771,2.0916030534351147,-1.2671755725190839,-0.426513671875,0.017578125,-0.283447265625,0.9060999999999999
1.83206106870229,1.984732824427481,-1.450381679389313,-0.423583984375,0.0224609375,-0.283447265625,0.9077999999999999
1.8473282442748091,1.7709923664122138,-1.2671755725190839,-0.4248046875,0.0205078125,-0.28466796875,0.9095
2.2290076335877864,1.5267175572519085,-1.4198473282442747,-0.427001953125,0.0185546875,-0.2783203125,0.9111999999999999
2.2595419847328246,1.3435114503816794,-1.3740458015267176,-0.431884765625,0.0205078125,-0.292236328125,0.9128999999999999
2.015267175572519,1.3282442748091603,-1.4351145038167938,-0.42724609375,0.02294921875,-0.287841796875,0.9146
1.9083969465648856,1.3435114503816794,-1.1145038167938932,-0.427734375,0.019775390625,-0.29052734375,0.9163
2.045801526717557,1.1603053435114503,-1.2213740458015268,-0.4296875,0.01904296875,-0.27978515625,0.9179999999999999
2.015267175572519,1.0076335877862594,-0.9770992366412213,-0.426513671875,0.0224609375,-0.281005859375,0.9197
2.015267175572519,1.1297709923664123,-1.0687022900763359,-0.427001953125,0.021484375,-0.29150390625,0.9214
2.0610687022900764,1.1603053435114503,-1.282442748091603,-0.430908203125,0.0244140625,-0.286376953125,0.9230999999999999
1.7251908396946565,1.3282442748091603,-1.2213740458015268,-0.4306640625,0.015625,-0.28955078125,0.9248
1.8625954198473282,1.3129770992366412,-0.8854961832061069,-0.4287109375,0.01611328125,-0.2900390625,0.9265
2.015267175572519,1.6030534351145038,-1.0687022900763359,-0.4267578125,0.017822265625,-0.291015625,0.9281999999999999
2.1526717557251906,1.3129770992366412,-1.1297709923664123,-0.429931640625,0.022705078125,-0.283935546875,0.9299
1.9083969465648856,1.450381679389313,-0.9618320610687023,-0.427001953125,0.023681640625,-0.28369140625,0.9316
1.9541984732824427,1.2671755725190839,-0.9923664122137404,-0.427001953125,0.018798828125,-0.290771484375,0.9332999999999999
2.015267175572519,1.3282442748091603,-0.916030534351145,-0.4287109375,0.019775390625,-0.286376953125,0.9349999999999999
2.030534351145038,1.3587786259541985,-0.8854961832061069,-0.43115234375,0.019775390625,-0.281005859375,0.9367
2.0763358778625953,1.2671755725190839,-1.0687022900763359,-0.4296875,0.019775390625,-0.278076171875,0.9383999999999999
2.045801526717557,1.1450381679389312,-0.7480916030534351,-0.428955078125,0.021484375,-0.280517578125,0.9400999999999999
2.015267175572519,1.1145038167938932,-0.916030534351145,-0.426025390625,0.015625,-0.280029296875,0.9418
2.1374045801526718,1.099236641221374,-0.9923664122137404,-0.42529296875,0.016357421875,-0.290283203125,0.9434999999999999
2.0,0.8091603053435115,-0.7938931297709924,-0.427001953125,0.0185546875,-0.292724609375,0.9451999999999999
1.9236641221374047,1.0229007633587786,-0.9312977099236641,-0.427001953125,0.019775390625,-0.2880859375,0.9469
1.9694656488549618,0.7938931297709924,-0.9312977099236641,-0.42724609375,0.019775390625,-0.283447265625,0.9486
2.122137404580153,0.9312977099236641,-0.9923664122137404,-0.428466796875,0.024169921875,-0.28564453125,0.9502999999999999
2.015267175572519,1.0229007633587786,-1.0076335877862594,-0.431884765625,0.0205078125,-0.287353515625,0.952
1.8473282442748091,0.9007633587786259,-0.8549618320610687,-0.42578125,0.01953125,-0.290283203125,0.9537
2.122137404580153,0.8396946564885496,-0.8549618320610687,-0.43408203125,0.01611328125,-0.295654296875,0.9553999999999999
2.0610687022900764,0.9618320610687023,-0.7633587786259542,-0.42578125,0.021240234375,-0.292236328125,0.9571
1.8625954198473282,0.9465648854961832,-1.1908396946564885,-0.4365234375,0.021240234375,-0.28271484375,0.9588
1.83206106870229,0.9770992366412213,-1.0687022900763359,-0.432373046875,0.019775390625,-0.283203125,0.9604999999999999
1.9694656488549618,0.9770992366412213,-0.732824427480916,-0.43115234375,0.0244140625,-0.2734375,0.9621999999999999
2.015267175572519,0.8549618320610687,-1.0381679389312977,-0.42822265625,0.017578125,-0.28759765625,0.9639
2.0916030534351147,0.8091603053435115,-1.1145038167938932,-0.425048828125,0.020751953125,-0.28857421875,0.9655999999999999
1.83206106870229,0.7480916030534351,-0.916030534351145,-0.4248046875,0.0244140625,-0.276611328125,0.9672999999999999
1.8473282442748091,0.8549618320610687,-0.9312977099236641,-0.429931640625,0.022216796875,-0.288818359375,0.969
2.2595419847328246,0.916030534351145,-0.9618320610687023,-0.437255859375,0.020751953125,-0.281494140625,0.9706999999999999
2.198473282442748,0.9312977099236641,-1.0076335877862594,-0.432861328125,0.018798828125,-0.29150390625,0.9723999999999999
2.1374045801526718,0.8091603053435115,-1.0687022900763359,-0.42822265625,0.016357421875,-0.2890625,0.9741
2.0,0.8549618320610687,-1.1450381679389312,-0.43212890625,0.015625,-0.280029296875,0.9758
2.0916030534351147,0.7633587786259542,-1.099236641221374,-0.427001953125,0.017333984375,-0.288330078125,0.9774999999999999
2.198473282442748,0.6870229007633588,-1.0534351145038168,-0.424072265625,0.01611328125,-0.289794921875,0.9792
1.8931297709923665,0.8091603053435115,-1.2366412213740459,-0.430419921875,0.021484375,-0.28515625,0.9809
1.9694656488549618,0.7786259541984732,-0.9770992366412213,-0.429931640625,0.020263671875,-0.2861328125,0.9825999999999999
1.816793893129771,0.7480916030534351,-1.297709923664122,-0.42822265625,0.01953125,-0.282958984375,0.9843
1.8778625954198473,0.7633587786259542,-1.297709923664122,-0.42822265625,0.02099609375,-0.2841796875,0.986
2.030534351145038,0.6106870229007634,-1.2366412213740459,-0.426513671875,0.015869140625,-0.28125,0.9876999999999999
1.9083969465648856,0.8854961832061069,-1.099236641221374,-0.435546875,0.021240234375,-0.2841796875,0.9894
1.9694656488549618,0.732824427480916,-1.282442748091603,-0.433349609375,0.019287109375,-0.282470703125,0.9911
2.0,0.6106870229007634,-1.0534351145038168,-0.429443359375,0.02001953125,-0.27392578125,0.9927999999999999
1.8778625954198473,0.7786259541984732,-1.1908396946564885,-0.427734375,0.017822265625,-0.2939453125,0.9944999999999999
1.7099236641221374,0.7938931297709924,-1.4198473282442747,-0.42822265625,0.021484375,-0.2861328125,0.9962
1.83206106870229,0.5648854961832062,-1.2061068702290076,-0.42724609375,0.02392578125,-0.283447265625,0.9978999999999999
1.83206106870229,0.6106870229007634,-1.2213740458015268,-0.429931640625,0.02197265625,-0.290771484375,0.9995999999999999
1.9694656488549618,0.7175572519083969,-1.1755725190839694,-0.430419921875,0.0126953125,-0.284423828125,1.0012999999999999
2.045801526717557,0.6259541984732825,-1.2213740458015268,-0.432373046875,0.021484375,-0.283447265625,1.003
1.8473282442748091,0.6564885496183206,-1.3893129770992367,-0.433837890625,0.01611328125,-0.287353515625,1.0047
1.9694656488549618,0.7175572519083969,-1.282442748091603,-0.43359375,0.02490234375,-0.28564453125,1.0064
1.6488549618320612,0.6564885496183206,-1.4198473282442747,-0.429931640625,0.02685546875,-0.29345703125,1.0081
1.8015267175572518,0.7633587786259542,-1.2671755725190839,-0.43212890625,0.018310546875,-0.291259765625,1.0098
1.9694656488549618,0.6564885496183206,-1.297709923664122,-0.428955078125,0.021484375,-0.279541015625,1.0114999999999998
1.7404580152671756,0.5038167938931297,-1.1450381679389312,-0.427001953125,0.02001953125,-0.271240234375,1.0131999999999999
1.6793893129770991,0.6106870229007634,-1.5877862595419847,-0.4296875,0.02001953125,-0.289306640625,1.0149
1.5725190839694656,0.5190839694656488,-1.2671755725190839,-0.433349609375,0.021484375,-0.28466796875,1.0166
1.6488549618320612,0.6106870229007634,-1.4198473282442747,-0.42919921875,0.017333984375,-0.283203125,1.0183
1.6946564885496183,0.6717557251908397,-1.450381679389313,-0.427490234375,0.019287109375,-0.290771484375,1.02
1.5114503816793894,0.42748091603053434,-1.4198473282442747,-0.430908203125,0.02294921875,-0.286376953125,1.0217
1.450381679389313,0.6412213740458015,-1.2671755725190839,-0.432373046875,0.018310546875,-0.285400390625,1.0233999999999999
1.8015267175572518,0.5648854961832062,-1.4045801526717556,-0.42529296875,0.01416015625,-0.282958984375,1.0251
1.8473282442748091,0.5648854961832062,-1.3435114503816794,-0.42626953125,0.02001953125,-0.2880859375,1.0268
1.7404580152671756,0.33587786259541985,-1.4045801526717556,-0.426513671875,0.019775390625,-0.2822265625,1.0285
1.6946564885496183,0.24427480916030533,-1.2671755725190839,-0.43115234375,0.022705078125,-0.287353515625,1.0302
1.4961832061068703,0.4122137404580153,-1.5877862595419847,-0.428955078125,0.021484375,-0.28125,1.0319
1.5572519083969465,0.5038167938931297,-1.0534351145038168,-0.427978515625,0.02197265625,-0.2822265625,1.0335999999999999
1.7251908396946565,0.4580152671755725,-1.3129770992366412,-0.42822265625,0.015625,-0.295166015625,1.0352999999999999
1.4809160305343512,0.5038167938931297,-1.450381679389313,-0.431396484375,0.015869140625,-0.2900390625,1.037
1.5725190839694656,0.48854961832061067,-1.3587786259541985,-0.424560546875,0.020263671875,-0.291748046875,1.0387
1.6488549618320612,0.44274809160305345,-1.3129770992366412,-0.4296875,0.018798828125,-0.28125,1.0404
1.618320610687023,0.42748091603053434,-1.3282442748091603,-0.426513671875,0.023681640625,-0.28271484375,1.0421
1.7557251908396947,0.48854961832061067,-1.2061068702290076,-0.43359375,0.021484375,-0.283203125,1.0437999999999998
1.5419847328244274,0.5343511450381679,-1.6488549618320612,-0.432861328125,0.01806640625,-0.285888671875,1.0454999999999999
1.5877862595419847,0.3053435114503817,-1.297709923664122,-0.432861328125,0.025146484375,-0.287109375,1.0472
1.3587786259541985,0.4580152671755725,-1.4809160305343512,-0.43115234375,0.02392578125,-0.28759765625,1.0489
1.3740458015267176,0.44274809160305345,-1.465648854961832,-0.429931640625,0.02001953125,-0.286376953125,1.0506
1.465648854961832,0.5038167938931297,-1.5114503816793894,-0.427490234375,0.017578125,-0.283935546875,1.0523
1.5572519083969465,0.5343511450381679,-1.297709923664122,-0.42724609375,0.01708984375,-0.278564453125,1.054
1.5267175572519085,0.24427480916030533,-1.5267175572519085,-0.42919921875,0.019287109375,-0.28466796875,1.0556999999999999
1.5267175572519085,0.22900763358778625,-1.3587786259541985,-0.43310546875,0.013671875,-0.28076171875,1.0574
1.6641221374045803,0.42748091603053434,-1.3740458015267176,-0.43310546875,0.02099609375,-0.281494140625,1.0591
1.465648854961832,0.4580152671755725,-1.2671755725190839,-0.430908203125,0.016845703125,-0.284423828125,1.0608
1.5725190839694656,0.3969465648854962,-1.3740458015267176,-0.42724609375,0.019775390625,-0.28369140625,1.0625
1.6488549618320612,0.22900763358778625,-1.297709923664122,-0.43505859375,0.021728515625,-0.284912109375,1.0642
1.6793893129770991,0.44274809160305345,-1.465648854961832,-0.429443359375,0.02001953125,-0.2724609375,1.0658999999999998
1.5114503816793894,0.549618320610687,-1.4351145038167938,-0.431396484375,0.01904296875,-0.283203125,1.0675999999999999
1.5419847328244274,0.2748091603053435,-1.3893129770992367,-0.429443359375,0.01953125,-0.288330078125,1.0693
1.5267175572519085,0.4122137404580153,-1.3893129770992367,-0.427490234375,0.01806640625,-0.2802734375,1.071
1.618320610687023,0.4732824427480916,-1.2213740458015268,-0.4326171875,0.022705078125,-0.27978515625,1.0727
1.5419847328244274,0.5038167938931297,-1.1450381679389312,-0.425537109375,0.017822265625,-0.28759765625,1.0744
1.5725190839694656,0.48854961832061067,-1.4045801526717556,-0.426025390625,0.021240234375,-0.283935546875,1.0760999999999998
1.297709923664122,0.44274809160305345,-1.4045801526717556,-0.430419921875,0.01806640625,-0.279541015625,1.0777999999999999
1.5877862595419847,0.366412213740458,-1.4198473282442747,-0.43212890625,0.02294921875,-0.287109375,1.0795
1.5725190839694656,0.32061068702290074,-1.3435114503816794,-0.434326171875,0.021728515625,-0.2802734375,1.0812
1.5267175572519085,0.3969465648854962,-1.4351145038167938,-0.433349609375,0.014892578125,-0.282958984375,1.0829
1.3282442748091603,0.2900763358778626,-1.3740458015267176,-0.43505859375,0.02099609375,-0.283935546875,1.0846
1.3740458015267176,0.3816793893129771,-1.5877862595419847,-0.434814453125,0.01611328125,-0.2880859375,1.0863
1.465648854961832,0.2595419847328244,-1.3282442748091603,-0.434814453125,0.01708984375,-0.279296875,1.0879999999999999
1.5267175572519085,0.42748091603053434,-1.4809160305343512,-0.431884765625,0.018798828125,-0.28173828125,1.0897
1.5114503816793894,0.5801526717557252,-1.3893129770992367,-0.4326171875,0.01806640625,-0.281494140625,1.0914
1.6488549618320612,0.4122137404580153,-1.465648854961832,-0.427978515625,0.014892578125,-0.281494140625,1.0931
1.4809160305343512,0.2595419847328244,-1.3587786259541985,-0.430908203125,0.01708984375,-0.28271484375,1.0948
1.3740458015267176,0.2748091603053435,-1.297709923664122,-0.4306640625,0.019287109375,-0.280029296875,1.0965
1.3893129770992367,0.33587786259541985,-1.450381679389313,-0.43115234375,0.024169921875,-0.281005859375,1.0981999999999998
1.5877862595419847,0.2900763358778626,-1.4198473282442747,-0.432861328125,0.023681640625,-0.2890625,1.0998999999999999
1.5419847328244274,0.2900763358778626,-1.4809160305343512,-0.427490234375,0.01904296875,-0.280517578125,1.1016
1.5572519083969465,0.3816793893129771,-1.2671755725190839,-0.4248046875,0.017578125,-0.2822265625,1.1033
1.633587786259542,0.44274809160305345,-1.2671755725190839,-0.432373046875,0.016357421875,-0.28173828125,1.105
1.633587786259542,0.366412213740458,-1.450381679389313,-0.435791015625,0.021484375,-0.29150390625,1.1067
1.465648854961832,0.24427480916030533,-1.3282442748091603,-0.431884765625,0.018798828125,-0.2841796875,1.1083999999999998
1.4809160305343512,0.183206106870229,-1.3740458015267176,-0.4306640625,0.01708984375,-0.28564453125,1.1100999999999999
1.6488549618320612,0.2595419847328244,-1.2213740458015268,-0.427978515625,0.024169921875,-0.2763671875,1.1118
1.5114503816793894,0.32061068702290074,-1.3435114503816794,-0.43212890625,0.020751953125,-0.2744140625,1.1135
1.7099236641221374,0.183206106870229,-1.4351145038167938,-0.432861328125,0.024169921875,-0.2802734375,1.1152
1.7251908396946565,0.42748091603053434,-1.4045801526717556,-0.430419921875,0.0234375,-0.284912109375,1.1169
1.5114503816793894,0.4580152671755725,-1.2671755725190839,-0.431884765625,0.022216796875,-0.294189453125,1.1186
1.633587786259542,0.24427480916030533,-1.5114503816793894,-0.431640625,0.021728515625,-0.2763671875,1.1202999999999999
1.7251908396946565,0.3053435114503817,-1.282442748091603,-0.4296875,0.02392578125,-0.281494140625,1.1219999999999999
1.6946564885496183,0.3969465648854962,-1.3435114503816794,-0.43310546875,0.018798828125,-0.285400390625,1.1237
1.465648854961832,0.3816793893129771,-1.2213740458015268,-0.433349609375,0.0185546875,-0.283935546875,1.1254
1.5419847328244274,0.10687022900763359,-1.450381679389313,-0.43017578125,0.018310546875,-0.283935546875,1.1271
1.5114503816793894,0.366412213740458,-1.3435114503816794,-0.4345703125,0.019287109375,-0.284423828125,1.1288
1.7404580152671756,0.44274809160305345,-1.5877862595419847,-0.43408203125,0.01708984375,-0.28857421875,1.1304999999999998
1.6946564885496183,0.22900763358778625,-1.3282442748091603,-0.429443359375,0.0205078125,-0.277587890625,1.1321999999999999
1.5419847328244274,0.3969465648854962,-1.3740458015267176,-0.43115234375,0.016357421875,-0.279296875,1.1339
1.5267175572519085,0.4580152671755725,-1.297709923664122,-0.434814453125,0.02099609375,-0.285888671875,1.1356
1.8625954198473282,0.3511450381679389,-1.4809160305343512,-0.4287109375,0.019287109375,-0.290771484375,1.1373
1.816793893129771,0.3969465648854962,-1.4198473282442747,-0.42919921875,0.022216796875,-0.279052734375,1.139
1.5572519083969465,0.24427480916030533,-1.3587786259541985,-0.43359375,0.017578125,-0.2822265625,1.1407
1.7709923664122138,0.4580152671755725,-1.2061068702290076,-0.4345703125,0.021240234375,-0.279541015625,1.1423999999999999
1.9541984732824427,0.16793893129770993,-1.3893129770992367,-0.4375,0.026123046875,-0.287109375,1.1441
1.633587786259542,0.33587786259541985,-1.2671755725190839,-0.434326171875,0.023681640625,-0.284912109375,1.1458
1.8473282442748091,0.549618320610687,-1.4961832061068703,-0.434326171875,0.020263671875,-0.27685546875,1.1475
1.786259541984733,0.4122137404580153,-1.4961832061068703,-0.431640625,0.022705078125,-0.27880859375,1.1492
1.9236641221374047,0.32061068702290074,-1.4045801526717556,-0.43017578125,0.022705078125,-0.274658203125,1.1509
1.6793893129770991,0.1984732824427481,-1.450381679389313,-0.4375,0.023681640625,-0.2822265625,1.1525999999999998
1.786259541984733,0.3053435114503817,-1.6030534351145038,-0.43359375,0.021728515625,-0.276611328125,1.1542999999999999
1.816793893129771,0.22900763358778625,-1.3129770992366412,-0.431640625,0.017578125,-0.275390625,1.156
2.015267175572519,0.549618320610687,-1.3587786259541985,-0.4326171875,0.024658203125,-0.282470703125,1.1577
1.6946564885496183,0.5801526717557252,-1.4809160305343512,-0.430419921875,0.0185546875,-0.2861328125,1.1594
1.8473282442748091,0.33587786259541985,-1.4809160305343512,-0.429931640625,0.017578125,-0.284912109375,1.1611
1.8931297709923665,0.5038167938931297,-1.450381679389313,-0.433837890625,0.0185546875,-0.277099609375,1.1627999999999998
1.8778625954198473,0.3053435114503817,-1.465648854961832,-0.434326171875,0.02197265625,-0.274169921875,1.1644999999999999
1.9694656488549618,0.5038167938931297,-1.282442748091603,-0.43408203125,0.020751953125,-0.276123046875,1.1662
1.7099236641221374,0.5038167938931297,-1.4045801526717556,-0.4326171875,0.02392578125,-0.282470703125,1.1679
1.816793893129771,0.3511450381679389,-1.2671755725190839,-0.428955078125,0.023681640625,-0.276123046875,1.1696
1.9389312977099236,0.2748091603053435,-1.251908396946565,-0.431884765625,0.019287109375,-0.282470703125,1.1713
2.0916030534351147,0.2748091603053435,-1.3282442748091603,-0.4384765625,0.01806640625,-0.28515625,1.173
1.83206106870229,0.3816793893129771,-1.4045801526717556,-0.434814453125,0.0224609375,-0.28857421875,1.1746999999999999
1.984732824427481,0.5190839694656488,-1.4045801526717556,-0.4345703125,0.019775390625,-0.287841796875,1.1764
2.183206106870229,0.3511450381679389,-1.3587786259541985,-0.433349609375,0.01904296875,-0.288818359375,1.1781
2.183206106870229,0.3053435114503817,-1.4809160305343512,-0.43408203125,0.01708984375,-0.28271484375,1.1798
2.030534351145038,0.33587786259541985,-1.1145038167938932,-0.43212890625,0.021484375,-0.28515625,1.1815
2.1068702290076335,0.3511450381679389,-1.3129770992366412,-0.431884765625,0.022705078125,-0.286865234375,1.1832
2.030534351145038,0.366412213740458,-1.450381679389313,-0.439697265625,0.022705078125,-0.281005859375,1.1848999999999998
1.9236641221374047,0.22900763358778625,-1.4198473282442747,-0.430419921875,0.02197265625,-0.280517578125,1.1865999999999999
1.9694656488549618,0.22900763358778625,-1.282442748091603,-0.434814453125,0.0185546875,-0.281494140625,1.1883
1.83206106870229,0.2900763358778626,-1.2061068702290076,-0.43408203125,0.0166015625,-0.281005859375,1.19
1.8473282442748091,0.4732824427480916,-1.2671755725190839,-0.432373046875,0.021240234375,-0.283447265625,1.1917
2.213740458015267,0.32061068702290074,-1.5419847328244274,-0.43310546875,0.02197265625,-0.285400390625,1.1934
1.9694656488549618,0.4122137404580153,-1.297709923664122,-0.43310546875,0.019775390625,-0.282470703125,1.1950999999999998
1.6946564885496183,0.3511450381679389,-1.4045801526717556,-0.434326171875,0.017822265625,-0.273193359375,1.1967999999999999
1.9694656488549618,0.33587786259541985,-1.4809160305343512,-0.43359375,0.016357421875,-0.280517578125,1.1985
2.122137404580153,0.44274809160305345,-1.450381679389313,-0.434326171875,0.0224609375,-0.28271484375,1.2002
1.9236641221374047,0.48854961832061067,-1.2061068702290076,-0.431396484375,0.025146484375,-0.279296875,1.2019
2.015267175572519,0.33587786259541985,-1.3129770992366412,-0.436767578125,0.01806640625,-0.28466796875,1.2036
2.183206106870229,0.5343511450381679,-1.2366412213740459,-0.4345703125,0.018798828125,-0.279541015625,1.2053
2.0610687022900764,0.5954198473282443,-1.4198473282442747,-0.433837890625,0.0166015625,-0.277099609375,1.2069999999999999
1.9389312977099236,0.3511450381679389,-1.4045801526717556,-0.435791015625,0.0205078125,-0.277587890625,1.2086999999999999
2.1374045801526718,0.7022900763358778,-1.2213740458015268,-0.436279296875,0.014404296875,-0.27587890625,1.2104
1.9389312977099236,0.6106870229007634,-1.4045801526717556,-0.43408203125,0.018310546875,-0.275390625,1.2121
1.9083969465648856,0.6259541984732825,-1.4961832061068703,-0.4306640625,0.02197265625,-0.277587890625,1.2138
2.0763358778625953,0.7633587786259542,-1.2671755725190839,-0.43212890625,0.01806640625,-0.279541015625,1.2155
1.9389312977099236,0.6259541984732825,-1.4045801526717556,-0.435791015625,0.019287109375,-0.28955078125,1.2171999999999998
1.9236641221374047,0.7175572519083969,-1.4045801526717556,-0.430908203125,0.017822265625,-0.277099609375,1.2188999999999999
1.9694656488549618,0.8396946564885496,-1.4198473282442747,-0.433349609375,0.018798828125,-0.275390625,1.2206
2.1526717557251906,0.7633587786259542,-1.1297709923664123,-0.43359375,0.02099609375,-0.290283203125,1.2223
2.045801526717557,0.8244274809160306,-1.1603053435114503,-0.4365234375,0.019775390625,-0.2763671875,1.224
2.045801526717557,0.8396946564885496,-1.4351145038167938,-0.434326171875,0.023193359375,-0.283935546875,1.2257
1.9389312977099236,0.9923664122137404,-1.3893129770992367,-0.43505859375,0.021484375,-0.278076171875,1.2273999999999998
1.9236641221374047,1.1297709923664123,-1.282442748091603,-0.43115234375,0.020263671875,-0.27880859375,1.2290999999999999
2.2442748091603053,1.083969465648855,-1.3740458015267176,-0.431396484375,0.021240234375,-0.278076171875,1.2308
2.1526717557251906,0.916030534351145,-1.2671755725190839,-0.436279296875,0.02490234375,-0.277587890625,1.2325
2.16793893129771,0.9770992366412213,-1.1145038167938932,-0.4306640625,0.02587890625,-0.2724609375,1.2342
1.984732824427481,0.9770992366412213,-1.251908396946565,-0.4384765625,0.017578125,-0.276611328125,1.2359
2.0,1.0687022900763359,-1.1908396946564885,-0.431640625,0.0205078125,-0.28076171875,1.2376
2.0610687022900764,1.1450381679389312,-1.297709923664122,-0.43505859375,0.02392578125,-0.28076171875,1.2392999999999998
2.16793893129771,1.0076335877862594,-1.251908396946565,-0.432373046875,0.0185546875,-0.28369140625,1.2409999999999999
1.9541984732824427,1.251908396946565,-1.2061068702290076,-0.43359375,0.015625,-0.281494140625,1.2427
1.8015267175572518,1.0687022900763359,-1.251908396946565,-0.434326171875,0.013427734375,-0.28076171875,1.2444
2.0,1.251908396946565,-1.2671755725190839,-0.434814453125,0.015625,-0.284423828125,1.2461
2.045801526717557,1.4351145038167938,-1.3129770992366412,-0.4345703125,0.01611328125,-0.2734375,1.2478
2.2290076335877864,1.3893129770992367,-0.7786259541984732,-0.43505859375,0.022216796875,-0.283447265625,1.2494999999999998
2.198473282442748,1.3740458015267176,-1.099236641221374,-0.435791015625,0.021484375,-0.283203125,1.2511999999999999
2.1068702290076335,1.3893129770992367,-1.1145038167938932,-0.4306640625,0.015625,-0.27099609375,1.2529
2.198473282442748,1.3129770992366412,-1.1603053435114503,-0.434814453125,0.01806640625,-0.280517578125,1.2546
2.213740458015267,1.450381679389313,-1.1755725190839694,-0.43701171875,0.01953125,-0.271728515625,1.2563
2.213740458015267,1.618320610687023,-1.2671755725190839,-0.43701171875,0.02001953125,-0.28076171875,1.258
2.030534351145038,1.5877862595419847,-1.099236641221374,-0.43359375,0.022705078125,-0.27685546875,1.2596999999999998
2.2595419847328246,1.5725190839694656,-1.1755725190839694,-0.430419921875,0.020751953125,-0.281005859375,1.2613999999999999
2.1374045801526718,1.4198473282442747,-1.2366412213740459,-0.4267578125,0.019775390625,-0.28564453125,1.2631
2.1526717557251906,1.5114503816793894,-1.297709923664122,-0.435302734375,0.017822265625,-0.275146484375,1.2648
1.9541984732824427,1.5267175572519085,-1.083969465648855,-0.431884765625,0.02099609375,-0.276123046875,1.2665
1.9389312977099236,1.450381679389313,-1.0381679389312977,-0.429443359375,0.018310546875,-0.27880859375,1.2682
2.3206106870229006,1.5419847328244274,-0.9770992366412213,-0.43212890625,0.01513671875,-0.27880859375,1.2699
2.2900763358778624,1.4351145038167938,-1.1297709923664123,-0.4287109375,0.017333984375,-0.2744140625,1.2715999999999998
2.2595419847328246,1.4351145038167938,-1.1145038167938932,-0.434326171875,0.01953125,-0.285400390625,1.2732999999999999
2.2748091603053435,1.4809160305343512,-1.251908396946565,-0.428466796875,0.0166015625,-0.275146484375,1.275
2.0610687022900764,1.5419847328244274,-1.0534351145038168,-0.4326171875,0.020751953125,-0.282958984375,1.2767
2.198473282442748,1.450381679389313,-1.083969465648855,-0.432861328125,0.01953125,-0.2861328125,1.2784
2.0610687022900764,1.5114503816793894,-0.7633587786259542,-0.432373046875,0.019775390625,-0.27734375,1.2801
1.9541984732824427,1.7709923664122138,-0.8854961832061069,-0.436279296875,0.017333984375,-0.275390625,1.2817999999999998
1.9236641221374047,1.786259541984733,-0.8702290076335878,-0.43359375,0.017578125,-0.275634765625,1.2834999999999999
2.0610687022900764,1.5725190839694656,-0.9618320610687023,-0.433349609375,0.01611328125,-0.27587890625,1.2852
1.984732824427481,1.7404580152671756,-1.0534351145038168,-0.4287109375,0.0205078125,-0.276611328125,1.2869
1.9236641221374047,1.8931297709923665,-1.0076335877862594,-0.428955078125,0.015380859375,-0.28857421875,1.2886
1.9389312977099236,1.7404580152671756,-1.0534351145038168,-0.429931640625,0.017578125,-0.28125,1.2903
1.9236641221374047,1.6488549618320612,-0.9312977099236641,-0.432861328125,0.01904296875,-0.276611328125,1.292
1.9694656488549618,1.786259541984733,-1.083969465648855,-0.43310546875,0.02197265625,-0.27587890625,1.2936999999999999
2.0916030534351147,1.7557251908396947,-1.1755725190839694,-0.427978515625,0.022216796875,-0.277587890625,1.2953999999999999
2.015267175572519,1.7251908396946565,-0.7022900763358778,-0.434814453125,0.0185546875,-0.283447265625,1.2971
1.984732824427481,1.984732824427481,-0.9770992366412213,-0.42919921875,0.01806640625,-0.28271484375,1.2988
1.9541984732824427,2.015267175572519,-1.0381679389312977,-0.43115234375,0.02490234375,-0.283203125,1.3005
1.7099236641221374,1.984732824427481,-0.9770992366412213,-0.435546875,0.014404296875,-0.273681640625,1.3022
1.4045801526717556,1.9694656488549618,-0.6412213740458015,-0.4384765625,0.0234375,-0.282470703125,1.3038999999999998
1.7404580152671756,2.1068702290076335,-0.9312977099236641,-0.436767578125,0.023681640625,-0.284423828125,1.3055999999999999
1.8015267175572518,2.2900763358778624,-0.9312977099236641,-0.432861328125,0.02001953125,-0.284912109375,1.3073
1.786259541984733,2.381679389312977,-1.0687022900763359,-0.436279296875,0.021484375,-0.288818359375,1.309
1.6946564885496183,2.4427480916030535,-0.9465648854961832,-0.4365234375,0.021484375,-0.284423828125,1.3107
1.7099236641221374,2.549618320610687,-1.0687022900763359,-0.433837890625,0.016845703125,-0.286865234375,1.3124
1.7557251908396947,2.595419847328244,-1.083969465648855,-0.437255859375,0.0244140625,-0.280517578125,1.3140999999999998
1.6946564885496183,2.687022900763359,-1.297709923664122,-0.430419921875,0.021240234375,-0.282958984375,1.3157999999999999
1.4961832061068703,2.854961832061069,-1.2213740458015268,-0.434326171875,0.01953125,-0.283935546875,1.3175
1.8931297709923665,2.7938931297709924,-1.450381679389313,-0.43310546875,0.021728515625,-0.28662109375,1.3192
1.786259541984733,2.6259541984732824,-1.4045801526717556,-0.433349609375,0.016357421875,-0.296630859375,1.3209
1.6946564885496183,2.8091603053435112,-1.4045801526717556,-0.4345703125,0.022216796875,-0.29248046875,1.3226
1.8473282442748091,2.8091603053435112,-1.5114503816793894,-0.432373046875,0.021484375,-0.28369140625,1.3243
1.8931297709923665,2.7938931297709924,-1.5572519083969465,-0.43212890625,0.02490234375,-0.288818359375,1.3259999999999998
1.9083969465648856,2.687022900763359,-1.5725190839694656,-0.432373046875,0.018310546875,-0.28564453125,1.3276999999999999
1.816793893129771,2.9618320610687023,-1.7404580152671756,-0.428466796875,0.023193359375,-0.285400390625,1.3294
1.8473282442748091,2.717557251908397,-1.5267175572519085,-0.433837890625,0.027587890625,-0.287109375,1.3311
1.9694656488549618,2.564885496183206,-1.9083969465648856,-0.43310546875,0.026123046875,-0.285400390625,1.3328
2.427480916030534,2.687022900763359,-1.618320610687023,-0.4306640625,0.026123046875,-0.288818359375,1.3345
2.2900763358778624,2.8091603053435112,-2.015267175572519,-0.426025390625,0.028076171875,-0.28759765625,1.3361999999999998
1.8931297709923665,2.4427480916030535,-1.8931297709923665,-0.423828125,0.02490234375,-0.28857421875,1.3378999999999999
2.351145038167939,2.3053435114503817,-2.1068702290076335,-0.424560546875,0.020263671875,-0.284912109375,1.3396
2.1526717557251906,2.3053435114503817,-2.16793893129771,-0.428466796875,0.020263671875,-0.284912109375,1.3413
2.366412213740458,2.183206106870229,-2.045801526717557,-0.426513671875,0.02490234375,-0.28759765625,1.343
2.381679389312977,2.198473282442748,-2.0610687022900764,-0.425537109375,0.02197265625,-0.28955078125,1.3447
2.351145038167939,2.030534351145038,-2.2595419847328246,-0.42626953125,0.021240234375,-0.287109375,1.3463999999999998
2.5801526717557253,1.9389312977099236,-2.1374045801526718,-0.427490234375,0.02197265625,-0.29052734375,1.3480999999999999
2.381679389312977,1.7099236641221374,-2.351145038167939,-0.4228515625,0.02099609375,-0.287109375,1.3497999999999999
2.549618320610687,1.5419847328244274,-2.213740458015267,-0.427001953125,0.021484375,-0.291748046875,1.3515
2.6259541984732824,1.465648854961832,-2.198473282442748,-0.423095703125,0.0185546875,-0.2841796875,1.3532
2.4580152671755724,1.465648854961832,-1.9083969465648856,-0.42333984375,0.018798828125,-0.283447265625,1.3549
2.5343511450381677,1.099236641221374,-2.16793893129771,-0.431396484375,0.020751953125,-0.280517578125,1.3566
2.2595419847328246,0.9770992366412213,-2.015267175572519,-0.426025390625,0.016845703125,-0.28173828125,1.3582999999999998
2.50381679389313,1.1297709923664123,-2.030534351145038,-0.42529296875,0.020751953125,-0.288818359375,1.3599999999999999
2.6564885496183206,1.1908396946564885,-1.9083969465648856,-0.425048828125,0.020263671875,-0.291015625,1.3617
2.427480916030534,1.0076335877862594,-2.0,-0.428955078125,0.021240234375,-0.280517578125,1.3634
2.4732824427480917,1.0687022900763359,-1.9389312977099236,-0.431396484375,0.01708984375,-0.283447265625,1.3651
2.3969465648854964,0.8702290076335878,-2.030534351145038,-0.427001953125,0.01318359375,-0.28125,1.3668
2.564885496183206,0.7633587786259542,-2.0916030534351147,-0.42333984375,0.017333984375,-0.2861328125,1.3684999999999998
2.351145038167939,0.6412213740458015,-1.8931297709923665,-0.426513671875,0.017822265625,-0.283203125,1.3701999999999999
2.2748091603053435,0.732824427480916,-1.8931297709923665,-0.429443359375,0.0205078125,-0.28564453125,1.3719
2.366412213740458,0.6259541984732825,-1.9083969465648856,-0.4228515625,0.022216796875,-0.289306640625,1.3736
2.3969465648854964,0.4732824427480916,-1.7709923664122138,-0.4296875,0.019287109375,-0.28759765625,1.3753
2.4885496183206106,0.549618320610687,-1.8931297709923665,-0.43212890625,0.0185546875,-0.295654296875,1.377
2.2290076335877864,0.2748091603053435,-1.8778625954198473,-0.42333984375,0.02001953125,-0.287841796875,1.3786999999999998
2.33587786259542,0.3053435114503817,-2.122137404580153,-0.423583984375,0.025390625,-0.28271484375,1.3803999999999998
2.3053435114503817,0.0916030534351145,-1.7709923664122138,-0.424072265625,0.015869140625,-0.290283203125,1.3820999999999999
2.3206106870229006,-0.04580152671755725,-1.786259541984733,-0.430908203125,0.022705078125,-0.287109375,1.3838
2.3969465648854964,-0.061068702290076333,-1.9694656488549618,-0.4296875,0.0126953125,-0.283447265625,1.3855
2.2900763358778624,-0.04580152671755725,-1.7557251908396947,-0.426025390625,0.022705078125,-0.278564453125,1.3872
2.2442748091603053,-0.12213740458015267,-1.5419847328244274,-0.4306640625,0.021484375,-0.283447265625,1.3889
2.6259541984732824,-0.3969465648854962,-1.6488549618320612,-0.430419921875,0.019775390625,-0.29052734375,1.3905999999999998
2.519083969465649,-0.5648854961832062,-1.9389312977099236,-0.42578125,0.0263671875,-0.285888671875,1.3922999999999999
2.2595419847328246,-0.5954198473282443,-1.633587786259542,-0.42724609375,0.02490234375,-0.287353515625,1.394
2.4122137404580153,-0.6564885496183206,-1.7099236641221374,-0.428955078125,0.023681640625,-0.28564453125,1.3957
2.4580152671755724,-0.8091603053435115,-1.8778625954198473,-0.42822265625,0.016845703125,-0.286865234375,1.3974
2.351145038167939,-0.8702290076335878,-1.7099236641221374,-0.425048828125,0.0224609375,-0.27490234375,1.3991
2.351145038167939,-0.8854961832061069,-1.6641221374045803,-0.4326171875,0.020751953125,-0.285400390625,1.4007999999999998
2.6106870229007635,-0.9770992366412213,-1.7099236641221374,-0.43017578125,0.02001953125,-0.28173828125,1.4024999999999999
2.8244274809160306,-1.0687022900763359,-1.83206106870229,-0.425048828125,0.01611328125,-0.281982421875,1.4042
2.519083969465649,-0.916030534351145,-1.7099236641221374,-0.42919921875,0.013916015625,-0.283935546875,1.4059
2.50381679389313,-1.0534351145038168,-1.6641221374045803,-0.4306640625,0.01611328125,-0.283447265625,1.4076
2.7786259541984735,-1.2366412213740459,-1.618320610687023,-0.4267578125,0.023681640625,-0.283203125,1.4093
2.7022900763358777,-1.1755725190839694,-1.6641221374045803,-0.43212890625,0.0205078125,-0.28173828125,1.411
2.854961832061069,-1.1145038167938932,-1.5572519083969465,-0.430419921875,0.024169921875,-0.2841796875,1.4126999999999998
2.6412213740458017,-1.3587786259541985,-1.5725190839694656,-0.4306640625,0.02001953125,-0.28125,1.4143999999999999
2.717557251908397,-1.4961832061068703,-1.633587786259542,-0.433837890625,0.02197265625,-0.2763671875,1.4161
2.885496183206107,-1.2061068702290076,-1.83206106870229,-0.431396484375,0.01904296875,-0.287841796875,1.4178
3.053435114503817,-1.3129770992366412,-1.5114503816793894,-0.426513671875,0.022216796875,-0.281005859375,1.4195
3.145038167938931,-1.2671755725190839,-1.6793893129770991,-0.434814453125,0.022216796875,-0.283203125,1.4212
3.0076335877862594,-1.2366412213740459,-1.7709923664122138,-0.430908203125,0.021484375,-0.277587890625,1.4228999999999998
2.946564885496183,-1.2671755725190839,-1.7709923664122138,-0.4326171875,0.020751953125,-0.282958984375,1.4245999999999999
2.931297709923664,-1.2366412213740459,-1.6793893129770991,-0.43115234375,0.01806640625,-0.28369140625,1.4263
3.068702290076336,-1.2213740458015268,-1.6641221374045803,-0.431640625,0.01806640625,-0.27783203125,1.428
3.267175572519084,-1.2213740458015268,-1.83206106870229,-0.435546875,0.016845703125,-0.2802734375,1.4297
3.068702290076336,-1.099236641221374,-1.7404580152671756,-0.4287109375,0.02099609375,-0.277099609375,1.4314
3.1297709923664123,-1.1297709923664123,-1.6946564885496183,-0.434814453125,0.01611328125,-0.27783203125,1.4330999999999998
3.145038167938931,-1.0687022900763359,-1.8625954198473282,-0.433349609375,0.015625,-0.283447265625,1.4347999999999999
3.0381679389312977,-1.2671755725190839,-1.6793893129770991,-0.427734375,0.0205078125,-0.281982421875,1.4364999999999999
2.9618320610687023,-1.1603053435114503,-1.6488549618320612,-0.43310546875,0.02001953125,-0.2783203125,1.4382
3.0839694656488548,-0.9465648854961832,-1.7709923664122138,-0.43310546875,0.01904296875,-0.282470703125,1.4399
3.099236641221374,-1.0381679389312977,-1.6488549618320612,-0.43310546875,0.017333984375,-0.2802734375,1.4416
3.1908396946564888,-0.8549618320610687,-1.786259541984733,-0.429443359375,0.018310546875,-0.273681640625,1.4433
2.9770992366412212,-1.0687022900763359,-1.6030534351145038,-0.43115234375,0.017822265625,-0.279541015625,1.4449999999999998
2.9160305343511452,-0.9312977099236641,-1.618320610687023,-0.4296875,0.021484375,-0.285400390625,1.4466999999999999
2.9923664122137406,-1.0076335877862594,-1.5877862595419847,-0.430419921875,0.017578125,-0.273681640625,1.4484
2.9618320610687023,-1.2061068702290076,-1.7557251908396947,-0.432373046875,0.019775390625,-0.2783203125,1.4501
2.931297709923664,-1.0534351145038168,-1.6488549618320612,-0.435546875,0.017578125,-0.283447265625,1.4518
3.0229007633587788,-1.1450381679389312,-1.6946564885496183,-0.435302734375,0.01318359375,-0.278564453125,1.4535
2.9770992366412212,-1.099236641221374,-1.5267175572519085,-0.434326171875,0.014404296875,-0.28271484375,1.4551999999999998
2.763358778625954,-1.1145038167938932,-1.4961832061068703,-0.427734375,0.014404296875,-0.27490234375,1.4568999999999999
2.7022900763358777,-1.099236641221374,-1.6488549618320612,-0.43505859375,0.021240234375,-0.28271484375,1.4586
2.9618320610687023,-1.083969465648855,-1.5877862595419847,-0.43017578125,0.019287109375,-0.27587890625,1.4603
2.9160305343511452,-0.9923664122137404,-1.5725190839694656,-0.432373046875,0.02099609375,-0.275634765625,1.462
2.8396946564885495,-1.1755725190839694,-1.5877862595419847,-0.433349609375,0.017333984375,-0.268798828125,1.4637
2.717557251908397,-1.1908396946564885,-1.3740458015267176,-0.43994140625,0.017578125,-0.27734375,1.4653999999999998
2.7938931297709924,-1.3435114503816794,-1.5572519083969465,-0.43359375,0.01611328125,-0.271484375,1.4670999999999998
2.5343511450381677,-1.4045801526717556,-1.2213740458015268,-0.4384765625,0.018310546875,-0.27734375,1.4687999999999999
2.687022900763359,-1.1603053435114503,-1.297709923664122,-0.437744140625,0.0146484375,-0.284912109375,1.4705
2.885496183206107,-1.465648854961832,-1.3129770992366412,-0.434326171875,0.019775390625,-0.275146484375,1.4722
2.6259541984732824,-1.3282442748091603,-1.3587786259541985,-0.43798828125,0.01806640625,-0.275390625,1.4739
2.5343511450381677,-1.1297709923664123,-1.3129770992366412,-0.443115234375,0.01318359375,-0.271484375,1.4756
2.6106870229007635,-0.9618320610687023,-1.1908396946564885,-0.443359375,0.01416015625,-0.27490234375,1.4772999999999998
2.3206106870229006,-0.5801526717557252,-1.1908396946564885,-0.442138671875,0.01806640625,-0.27978515625,1.4789999999999999
2.2900763358778624,-0.3511450381679389,-1.1450381679389312,-0.439697265625,0.017822265625,-0.2763671875,1.4807
2.366412213740458,0.030534351145038167,-0.9007633587786259,-0.443115234375,0.020751953125,-0.277099609375,1.4824
2.0916030534351147,0.183206106870229,-0.9465648854961832,-0.44189453125,0.022705078125,-0.27685546875,1.4841
1.9541984732824427,0.32061068702290074,-1.0687022900763359,-0.43505859375,0.020751953125,-0.280029296875,1.4858
2.0,0.48854961832061067,-1.1603053435114503,-0.434814453125,0.014404296875,-0.275634765625,1.4874999999999998
2.1374045801526718,0.549618320610687,-0.8854961832061069,-0.435791015625,0.015380859375,-0.27685546875,1.4891999999999999
1.984732824427481,0.4732824427480916,-0.9923664122137404,-0.43115234375,0.01416015625,-0.268310546875,1.4909
1.9083969465648856,0.366412213740458,-1.2671755725190839,-0.435546875,0.017578125,-0.279052734375,1.4926
1.8778625954198473,0.0916030534351145,-1.1908396946564885,-0.429443359375,0.02001953125,-0.282958984375,1.4943
1.984732824427481,0.13740458015267176,-1.1908396946564885,-0.428955078125,0.019775390625,-0.27197265625,1.496
2.045801526717557,-0.1984732824427481,-1.4351145038167938,-0.43017578125,0.0185546875,-0.275390625,1.4976999999999998
1.7251908396946565,-0.15267175572519084,-1.282442748091603,-0.43798828125,0.01806640625,-0.2822265625,1.4993999999999998
1.8625954198473282,-0.12213740458015267,-1.1145038167938932,-0.435302734375,0.016845703125,-0.2734375,1.5010999999999999
1.9694656488549618,0.10687022900763359,-1.297709923664122,-0.44140625,0.021240234375,-0.281494140625,1.5028
1.7251908396946565,0.4122137404580153,-1.2671755725190839,-0.4404296875,0.01171875,-0.283447265625,1.5045
1.83206106870229,0.3969465648854962,-1.083969465648855,-0.439208984375,0.01611328125,-0.282470703125,1.5062
1.7251908396946565,0.4122137404580153,-1.1755725190839694,-0.436767578125,0.02197265625,-0.281982421875,1.5079
1.5419847328244274,0.6412213740458015,-1.0687022900763359,-0.43701171875,0.0146484375,-0.2763671875,1.5095999999999998
1.4961832061068703,1.083969465648855,-1.0687022900763359,-0.43798828125,0.017333984375,-0.28271484375,1.5112999999999999
1.6488549618320612,1.0076335877862594,-1.2671755725190839,-0.4365234375,0.014892578125,-0.28662109375,1.513
1.816793893129771,1.083969465648855,-1.3587786259541985,-0.443359375,0.01611328125,-0.278076171875,1.5147
1.4045801526717556,1.1908396946564885,-1.3740458015267176,-0.437744140625,0.013916015625,-0.28271484375,1.5164
1.6488549618320612,1.251908396946565,-1.4351145038167938,-0.439453125,0.01708984375,-0.285400390625,1.5181
1.7099236641221374,1.0076335877862594,-1.1908396946564885,-0.433349609375,0.020263671875,-0.276611328125,1.5197999999999998
1.5572519083969465,1.1297709923664123,-1.6641221374045803,-0.431640625,0.01806640625,-0.276123046875,1.5214999999999999
1.5419847328244274,1.1603053435114503,-1.6030534351145038,-0.435302734375,0.019775390625,-0.284423828125,1.5231999999999999
1.3587786259541985,1.0687022900763359,-1.465648854961832,-0.435302734375,0.02001953125,-0.2763671875,1.5249
1.618320610687023,0.9007633587786259,-1.5267175572519085,-0.43994140625,0.01708984375,-0.281005859375,1.5266
1.4198473282442747,0.9465648854961832,-1.633587786259542,-0.4345703125,0.018798828125,-0.279296875,1.5283
1.4809160305343512,1.0687022900763359,-1.3893129770992367,-0.436767578125,0.015380859375,-0.282958984375,1.5299999999999998
1.465648854961832,1.2061068702290076,-1.3129770992366412,-0.431640625,0.016845703125,-0.284912109375,1.5316999999999998
1.3129770992366412,0.9770992366412213,-1.3893129770992367,-0.43310546875,0.019287109375,-0.2841796875,1.5333999999999999
1.2061068702290076,1.1450381679389312,-1.4198473282442747,-0.4345703125,0.01904296875,-0.2744140625,1.5351
1.3435114503816794,1.3893129770992367,-1.3740458015267176,-0.4306640625,0.016357421875,-0.272216796875,1.5368
1.3435114503816794,1.251908396946565,-1.5267175572519085,-0.435546875,0.0205078125,-0.2744140625,1.5385
1.465648854961832,1.251908396946565,-1.1603053435114503,-0.435302734375,0.02001953125,-0.27587890625,1.5402
0.916030534351145,1.3740458015267176,-1.297709923664122,-0.432861328125,0.02001953125,-0.27099609375,1.5418999999999998
1.282442748091603,1.4045801526717556,-1.3435114503816794,-0.43359375,0.021728515625,-0.283935546875,1.5435999999999999
1.0687022900763359,1.450381679389313,-1.4809160305343512,-0.436279296875,0.01708984375,-0.28466796875,1.5453
1.1603053435114503,1.465648854961832,-1.1908396946564885,-0.436279296875,0.02099609375,-0.2763671875,1.547
1.083969465648855,1.5114503816793894,-1.4809160305343512,-0.430419921875,0.016357421875,-0.275390625,1.5487
0.9618320610687023,1.6946564885496183,-1.0687022900763359,-0.4306640625,0.017822265625,-0.287353515625,1.5504
0.7175572519083969,1.5725190839694656,-1.1603053435114503,-0.433837890625,0.016357421875,-0.282470703125,1.5520999999999998
1.0534351145038168,1.4809160305343512,-0.9923664122137404,-0.43798828125,0.017822265625,-0.27734375,1.5537999999999998
0.7175572519083969,1.5725190839694656,-1.2366412213740459,-0.436767578125,0.020751953125,-0.2841796875,1.5554999999999999
0.7480916030534351,1.7709923664122138,-1.2213740458015268,-0.4365234375,0.019775390625,-0.28564453125,1.5572
0.8702290076335878,1.83206106870229,-1.3893129770992367,-0.43310546875,0.020751953125,-0.28173828125,1.5589
0.8396946564885496,1.8778625954198473,-1.1145038167938932,-0.434814453125,0.02001953125,-0.27685546875,1.5606
0.8396946564885496,1.8778625954198473,-1.0229007633587786,-0.434326171875,0.0234375,-0.278564453125,1.5623
0.5038167938931297,1.9694656488549618,-1.099236641221374,-0.4345703125,0.01513671875,-0.28515625,1.5639999999999998
0.6870229007633588,1.8931297709923665,-1.1450381679389312,-0.432861328125,0.015625,-0.284912109375,1.5656999999999999
0.6870229007633588,1.8473282442748091,-0.9312977099236641,-0.433837890625,0.01806640625,-0.279541015625,1.5674
0.6870229007633588,1.9694656488549618,-1.1145038167938932,-0.430419921875,0.021484375,-0.280517578125,1.5691
0.5954198473282443,2.1068702290076335,-1.251908396946565,-0.431396484375,0.014892578125,-0.285888671875,1.5708
0.7175572519083969,1.8931297709923665,-1.083969465648855,-0.43359375,0.01708984375,-0.28662109375,1.5725
0.8854961832061069,2.122137404580153,-0.9465648854961832,-0.4326171875,0.018310546875,-0.283447265625,1.5741999999999998
0.5190839694656488,2.0763358778625953,-1.1603053435114503,-0.429931640625,0.01708984375,-0.280029296875,1.5758999999999999
0.5038167938931297,1.9694656488549618,-0.9923664122137404,-0.4326171875,0.021240234375,-0.274169921875,1.5776
0.7480916030534351,1.8778625954198473,-1.1755725190839694,-0.430908203125,0.017822265625,-0.277099609375,1.5793
0.6564885496183206,2.030534351145038,-1.1297709923664123,-0.433349609375,0.01904296875,-0.290283203125,1.581
0.4732824427480916,2.015267175572519,-1.282442748091603,-0.430908203125,0.021484375,-0.285888671875,1.5827
0.8549618320610687,1.9083969465648856,-1.1450381679389312,-0.434326171875,0.022216796875,-0.2841796875,1.5843999999999998
0.7480916030534351,1.8473282442748091,-1.2366412213740459,-0.4345703125,0.022216796875,-0.28955078125,1.5860999999999998
0.8396946564885496,1.8473282442748091,-1.0687022900763359,-0.435791015625,0.0185546875,-0.27587890625,1.5877999999999999
0.6870229007633588,1.984732824427481,-1.2061068702290076,-0.437744140625,0.019775390625,-0.287109375,1.5895
0.8702290076335878,2.015267175572519,-1.0381679389312977,-0.4384765625,0.01708984375,-0.290771484375,1.5912
0.8091603053435115,1.984732824427481,-1.2671755725190839,-0.4326171875,0.02099609375,-0.282958984375,1.5929
1.0229007633587786,1.8625954198473282,-1.282442748091603,-0.4287109375,0.02001953125,-0.276611328125,1.5946
0.9770992366412213,1.8015267175572518,-1.3282442748091603,-0.431396484375,0.015869140625,-0.28125,1.5962999999999998
1.0381679389312977,1.786259541984733,-1.3893129770992367,-0.432861328125,0.020751953125,-0.281982421875,1.5979999999999999
0.9007633587786259,1.8473282442748091,-1.282442748091603,-0.430419921875,0.023193359375,-0.279052734375,1.5997
0.8549618320610687,1.83206106870229,-1.1755725190839694,-0.433349609375,0.02294921875,-0.279296875,1.6014
0.7633587786259542,1.8473282442748091,-1.3587786259541985,-0.429931640625,0.01953125,-0.27783203125,1.6031
1.0534351145038168,1.8931297709923665,-1.297709923664122,-0.432373046875,0.0185546875,-0.278076171875,1.6048
1.1145038167938932,1.9236641221374047,-1.3587786259541985,-0.432373046875,0.019775390625,-0.278076171875,1.6064999999999998
1.1450381679389312,1.8015267175572518,-1.3129770992366412,-0.432861328125,0.02001953125,-0.27783203125,1.6081999999999999
1.3282442748091603,2.015267175572519,-1.3129770992366412,-0.4326171875,0.01416015625,-0.284423828125,1.6098999999999999
1.1450381679389312,1.816793893129771,-1.2061068702290076,-0.433349609375,0.015869140625,-0.268310546875,1.6116
1.297709923664122,1.7099236641221374,-1.2061068702290076,-0.435546875,0.015625,-0.282958984375,1.6133
1.2061068702290076,1.7404580152671756,-1.1450381679389312,-0.43603515625,0.02001953125,-0.283447265625,1.615
1.3740458015267176,1.8778625954198473,-1.3129770992366412,-0.433349609375,0.0146484375,-0.2841796875,1.6166999999999998
1.1755725190839694,2.045801526717557,-1.2366412213740459,-0.432861328125,0.018310546875,-0.285400390625,1.6183999999999998
1.2671755725190839,1.9389312977099236,-1.450381679389313,-0.431884765625,0.021484375,-0.284423828125,1.6200999999999999
1.2366412213740459,1.816793893129771,-1.3129770992366412,-0.428955078125,0.02099609375,-0.276123046875,1.6218
1.0687022900763359,1.7404580152671756,-1.2366412213740459,-0.43359375,0.021484375,-0.272705078125,1.6235
1.465648854961832,1.9694656488549618,-1.251908396946565,-0.436279296875,0.02001953125,-0.280029296875,1.6252
1.2213740458015268,1.9541984732824427,-1.251908396946565,-0.43359375,0.020263671875,-0.277099609375,1.6269
1.2061068702290076,1.7404580152671756,-1.2213740458015268,-0.437255859375,0.02001953125,-0.27490234375,1.6285999999999998
1.3282442748091603,1.7404580152671756,-1.2671755725190839,-0.43408203125,0.022705078125,-0.281494140625,1.6302999999999999
1.4809160305343512,1.8625954198473282,-1.1603053435114503,-0.430908203125,0.0166015625,-0.27734375,1.632
1.3435114503816794,1.9083969465648856,-0.9770992366412213,-0.437255859375,0.023193359375,-0.2822265625,1.6337
1.2366412213740459,2.2442748091603053,-1.1755725190839694,-0.43701171875,0.018310546875,-0.289794921875,1.6354
1.2213740458015268,2.0916030534351147,-1.1603053435114503,-0.434326171875,0.0234375,-0.279052734375,1.6371
1.282442748091603,2.015267175572519,-1.0076335877862594,-0.439453125,0.01806640625,-0.279541015625,1.6387999999999998
1.1450381679389312,2.33587786259542,-1.1603053435114503,-0.435791015625,0.018798828125,-0.274169921875,1.6404999999999998
1.3129770992366412,2.595419847328244,-0.9770992366412213,-0.441650390625,0.026611328125,-0.2783203125,1.6421999999999999
1.3282442748091603,2.366412213740458,-1.0076335877862594,-0.43017578125,0.015625,-0.2724609375,1.6439
1.0687022900763359,2.595419847328244,-1.083969465648855,-0.42919921875,0.015625,-0.281005859375,1.6456
1.3129770992366412,2.7480916030534353,-0.916030534351145,-0.431640625,0.019287109375,-0.275390625,1.6473
1.2366412213740459,2.7480916030534353,-0.9618320610687023,-0.437744140625,0.020751953125,-0.277587890625,1.6489999999999998
1.2061068702290076,2.854961832061069,-0.8854961832061069,-0.435791015625,0.01904296875,-0.2880859375,1.6506999999999998
1.1145038167938932,2.7938931297709924,-1.0076335877862594,-0.436279296875,0.019775390625,-0.2802734375,1.6523999999999999
1.1755725190839694,2.8702290076335877,-0.9007633587786259,-0.436767578125,0.01708984375,-0.280029296875,1.6541
1.5725190839694656,3.053435114503817,-0.9923664122137404,-0.434814453125,0.019775390625,-0.2861328125,1.6558
1.1145038167938932,2.9923664122137406,-0.9007633587786259,-0.432861328125,0.023681640625,-0.284423828125,1.6575
1.1755725190839694,2.8396946564885495,-0.6717557251908397,-0.4326171875,0.021240234375,-0.283935546875,1.6592
1.1755725190839694,2.564885496183206,-1.1450381679389312,-0.43359375,0.019287109375,-0.28369140625,1.6608999999999998
1.3129770992366412,2.732824427480916,-0.8702290076335878,-0.4326171875,0.0224609375,-0.2783203125,1.6625999999999999
1.3282442748091603,2.763358778625954,-0.8702290076335878,-0.42626953125,0.022216796875,-0.28125,1.6643
1.2671755725190839,2.8091603053435112,-0.7633587786259542,-0.431640625,0.017822265625,-0.279296875,1.666
1.0687022900763359,2.8396946564885495,-0.9770992366412213,-0.431884765625,0.02197265625,-0.273681640625,1.6677
1.3740458015267176,2.854961832061069,-0.9923664122137404,-0.429931640625,0.02294921875,-0.276123046875,1.6694
1.5877862595419847,2.931297709923664,-0.7786259541984732,-0.433837890625,0.01904296875,-0.279541015625,1.6710999999999998
1.0687022900763359,3.0076335877862594,-0.732824427480916,-0.43603515625,0.019287109375,-0.283447265625,1.6727999999999998
1.1450381679389312,3.236641221374046,-0.732824427480916,-0.4345703125,0.0185546875,-0.2783203125,1.6744999999999999
1.3587786259541985,3.282442748091603,-0.7480916030534351,-0.43603515625,0.026123046875,-0.280029296875,1.6762
1.3740458015267176,3.480916030534351,-0.916030534351145,-0.438720703125,0.021728515625,-0.280517578125,1.6779
1.5114503816793894,3.480916030534351,-0.8396946564885496,-0.437255859375,0.02099609375,-0.287841796875,1.6796
1.3282442748091603,3.3282442748091605,-1.0381679389312977,-0.43310546875,0.014892578125,-0.284423828125,1.6813
1.3740458015267176,3.5572519083969465,-1.0687022900763359,-0.433837890625,0.017333984375,-0.274658203125,1.6829999999999998
1.3740458015267176,3.5267175572519083,-1.0381679389312977,-0.434326171875,0.021728515625,-0.276123046875,1.6846999999999999
1.3282442748091603,3.6030534351145036,-0.9312977099236641,-0.43505859375,0.020751953125,-0.284423828125,1.6864
1.2671755725190839,3.572519083969466,-1.0229007633587786,-0.432861328125,0.02099609375,-0.28271484375,1.6881
1.4351145038167938,3.6793893129770994,-1.099236641221374,-0.43017578125,0.01806640625,-0.283203125,1.6898
1.5725190839694656,3.312977099236641,-1.1297709923664123,-0.435302734375,0.01904296875,-0.277587890625,1.6915
1.6488549618320612,3.3282442748091605,-1.0229007633587786,-0.4306640625,0.018798828125,-0.2744140625,1.6931999999999998
1.3129770992366412,3.49618320610687,-1.083969465648855,-0.43359375,0.017578125,-0.277587890625,1.6948999999999999
1.3740458015267176,3.3893129770992365,-0.9312977099236641,-0.430419921875,0.015869140625,-0.28125,1.6965999999999999
1.282442748091603,3.49618320610687,-0.9007633587786259,-0.434814453125,0.020263671875,-0.283203125,1.6983
1.4351145038167938,3.66412213740458,-1.1908396946564885,-0.43701171875,0.0205078125,-0.281494140625,1.7
1.5267175572519085,3.633587786259542,-0.9312977099236641,-0.434814453125,0.015625,-0.282958984375,1.7017
1.3740458015267176,3.7557251908396947,-1.0229007633587786,-0.434814453125,0.0166015625,-0.287841796875,1.7033999999999998
1.3282442748091603,3.648854961832061,-1.1603053435114503,-0.434326171875,0.02197265625,-0.278564453125,1.7050999999999998
1.5419847328244274,3.7251908396946565,-1.0534351145038168,-0.430908203125,0.0205078125,-0.28466796875,1.7067999999999999
1.450381679389313,3.801526717557252,-1.2213740458015268,-0.43798828125,0.022216796875,-0.2763671875,1.7085
1.282442748091603,3.9083969465648853,-1.1603053435114503,-0.438720703125,0.0205078125,-0.273193359375,1.7102
1.5572519083969465,4.015267175572519,-1.083969465648855,-0.433349609375,0.015869140625,-0.279296875,1.7119
1.5419847328244274,3.816793893129771,-1.251908396946565,-0.434326171875,0.017822265625,-0.275634765625,1.7136
1.3435114503816794,3.5877862595419847,-1.1755725190839694,-0.431640625,0.01806640625,-0.287353515625,1.7152999999999998
1.633587786259542,3.5877862595419847,-1.2061068702290076,-0.4296875,0.01953125,-0.284423828125,1.7169999999999999
1.4351145038167938,3.5114503816793894,-1.2366412213740459,-0.427978515625,0.01904296875,-0.2822265625,1.7187
1.450381679389313,3.7099236641221376,-1.3435114503816794,-0.431640625,0.01708984375,-0.28173828125,1.7204
1.5419847328244274,3.4656488549618323,-1.0229007633587786,-0.429443359375,0.0205078125,-0.28076171875,1.7221
1.4351145038167938,3.3740458015267176,-1.1908396946564885,-0.43115234375,0.018310546875,-0.28076171875,1.7238
1.5419847328244274,3.267175572519084,-1.2061068702290076,-0.433349609375,0.01953125,-0.28759765625,1.7254999999999998
1.297709923664122,3.3740458015267176,-1.3435114503816794,-0.43017578125,0.0166015625,-0.283203125,1.7271999999999998
1.4198473282442747,3.435114503816794,-1.2366412213740459,-0.42919921875,0.01708984375,-0.278076171875,1.7288999999999999
1.5267175572519085,3.404580152671756,-1.3129770992366412,-0.427978515625,0.0205078125,-0.28125,1.7306
1.5114503816793894,3.5572519083969465,-1.3282442748091603,-0.4306640625,0.022216796875,-0.282470703125,1.7323
1.2061068702290076,3.5572519083969465,-1.2213740458015268,-0.43212890625,0.02099609375,-0.281494140625,1.734
1.2366412213740459,3.404580152671756,-1.2671755725190839,-0.4287109375,0.0224609375,-0.2724609375,1.7356999999999998
1.4351145038167938,3.6030534351145036,-1.5419847328244274,-0.42919921875,0.01806640625,-0.2841796875,1.7373999999999998
1.4198473282442747,3.404580152671756,-1.2366412213740459,-0.427734375,0.020751953125,-0.283203125,1.7390999999999999
1.3587786259541985,3.3435114503816794,-1.2366412213740459,-0.429931640625,0.020263671875,-0.27880859375,1.7408
1.2061068702290076,3.068702290076336,-1.2671755725190839,-0.432373046875,0.016357421875,-0.28173828125,1.7425
1.3587786259541985,3.1755725190839694,-1.4351145038167938,-0.4306640625,0.02001953125,-0.290283203125,1.7442
1.6488549618320612,2.8702290076335877,-1.297709923664122,-0.429443359375,0.017822265625,-0.287841796875,1.7459
1.297709923664122,2.854961832061069,-1.4198473282442747,-0.4267578125,0.014892578125,-0.288818359375,1.7475999999999998
1.3282442748091603,2.8091603053435112,-1.4045801526717556,-0.432373046875,0.020263671875,-0.2822265625,1.7492999999999999
1.2213740458015268,2.7786259541984735,-1.450381679389313,-0.433349609375,0.018310546875,-0.27734375,1.751
1.251908396946565,2.885496183206107,-1.3435114503816794,-0.43115234375,0.019287109375,-0.276123046875,1.7527
1.3435114503816794,2.7022900763358777,-1.3587786259541985,-0.433349609375,0.021484375,-0.284912109375,1.7544
1.2213740458015268,2.931297709923664,-1.3129770992366412,-0.4287109375,0.017578125,-0.28076171875,1.7561
1.2213740458015268,2.7938931297709924,-1.4198473282442747,-0.431396484375,0.016845703125,-0.28857421875,1.7577999999999998
1.465648854961832,2.717557251908397,-1.4351145038167938,-0.426025390625,0.0205078125,-0.286865234375,1.7594999999999998
1.4351145038167938,2.381679389312977,-1.633587786259542,-0.433837890625,0.021484375,-0.2861328125,1.7611999999999999
1.3435114503816794,2.4580152671755724,-1.633587786259542,-0.433349609375,0.01953125,-0.286865234375,1.7629
1.2671755725190839,2.4885496183206106,-1.5572519083969465,-0.43017578125,0.021240234375,-0.282958984375,1.7646
1.282442748091603,2.3053435114503817,-1.4198473282442747,-0.432861328125,0.019775390625,-0.280029296875,1.7663
1.465648854961832,2.427480916030534,-1.6488549618320612,-0.4306640625,0.018798828125,-0.277587890625,1.7679999999999998
1.3282442748091603,2.381679389312977,-1.5877862595419847,-0.428955078125,0.021484375,-0.28173828125,1.7696999999999998
1.3587786259541985,2.2290076335877864,-1.5725190839694656,-0.431884765625,0.024169921875,-0.28271484375,1.7713999999999999
1.5419847328244274,2.3969465648854964,-1.3587786259541985,-0.429443359375,0.021240234375,-0.28955078125,1.7731
1.5267175572519085,2.4122137404580153,-1.5725190839694656,-0.429931640625,0.023681640625,-0.287109375,1.7748
1.3740458015267176,2.2595419847328246,-1.5725190839694656,-0.427490234375,0.0224609375,-0.284423828125,1.7765
1.2366412213740459,2.183206106870229,-1.5877862595419847,-0.426025390625,0.02490234375,-0.27685546875,1.7782
1.450381679389313,2.0916030534351147,-1.633587786259542,-0.430419921875,0.021484375,-0.29052734375,1.7798999999999998
1.6793893129770991,1.9083969465648856,-1.7557251908396947,-0.4306640625,0.0234375,-0.282958984375,1.7815999999999999
1.6030534351145038,1.9236641221374047,-1.450381679389313,-0.43017578125,0.018798828125,-0.279541015625,1.7832999999999999
1.4198473282442747,2.015267175572519,-1.816793893129771,-0.43212890625,0.020751953125,-0.284423828125,1.785
1.4198473282442747,1.7404580152671756,-1.7404580152671756,-0.43115234375,0.016845703125,-0.285888671875,1.7867
1.4045801526717556,1.7709923664122138,-1.6488549618320612,-0.427734375,0.024658203125,-0.284423828125,1.7884
1.465648854961832,1.5877862595419847,-1.633587786259542,-0.433837890625,0.019775390625,-0.28955078125,1.7900999999999998
1.4045801526717556,2.015267175572519,-1.7099236641221374,-0.432861328125,0.02001953125,-0.283935546875,1.7917999999999998
1.6641221374045803,1.8015267175572518,-1.6793893129770991,-0.429931640625,0.02197265625,-0.280517578125,1.7934999999999999
1.4961832061068703,1.9694656488549618,-1.6641221374045803,-0.43359375,0.018798828125,-0.27783203125,1.7952
1.5725190839694656,2.045801526717557,-1.5725190839694656,-0.4326171875,0.01953125,-0.289794921875,1.7969
1.450381679389313,2.198473282442748,-1.6488549618320612,-0.43505859375,0.02294921875,-0.28369140625,1.7986
1.251908396946565,2.3053435114503817,-1.4961832061068703,-0.434326171875,0.021484375,-0.291748046875,1.8002999999999998
1.633587786259542,2.1068702290076335,-1.633587786259542,-0.430908203125,0.018310546875,-0.288818359375,1.8019999999999998
1.5114503816793894,2.1526717557251906,-1.4961832061068703,-0.43115234375,0.018798828125,-0.284423828125,1.8036999999999999
