gyrox1,gyroy1,gyroz1,accelx1,accely1,accelz1,Time
2.1526717557251906,1.7709923664122138,-1.8625954198473282,-0.4013671875,-0.25048828125,-0.17431640625,0.0
2.2595419847328246,1.8015267175572518,-1.7251908396946565,-0.40087890625,-0.248779296875,-0.17138671875,0.0017
2.2595419847328246,1.7251908396946565,-1.786259541984733,-0.402587890625,-0.248046875,-0.177734375,0.0034
2.3053435114503817,1.7709923664122138,-1.6030534351145038,-0.398681640625,-0.244384765625,-0.18359375,0.0050999999999999995
2.381679389312977,1.8778625954198473,-1.8931297709923665,-0.39501953125,-0.245849609375,-0.186279296875,0.0068
2.4580152671755724,1.7557251908396947,-1.6030534351145038,-0.4033203125,-0.244384765625,-0.18359375,0.008499999999999999
2.564885496183206,1.6793893129770991,-1.6488549618320612,-0.3994140625,-0.248291015625,-0.18408203125,0.010199999999999999
2.564885496183206,1.618320610687023,-1.5572519083969465,-0.404296875,-0.242919921875,-0.186279296875,0.011899999999999999
2.595419847328244,1.6641221374045803,-1.816793893129771,-0.394775390625,-0.247802734375,-0.179443359375,0.0136
2.931297709923664,1.6641221374045803,-1.633587786259542,-0.39794921875,-0.242919921875,-0.17626953125,0.0153
2.854961832061069,1.6641221374045803,-1.6030534351145038,-0.402587890625,-0.243896484375,-0.18212890625,0.016999999999999998
2.732824427480916,1.4351145038167938,-1.5114503816793894,-0.400146484375,-0.245849609375,-0.1787109375,0.018699999999999998
2.7786259541984735,1.5267175572519085,-1.7099236641221374,-0.3994140625,-0.245849609375,-0.1748046875,0.020399999999999998
2.6412213740458017,1.3740458015267176,-1.7709923664122138,-0.39892578125,-0.245361328125,-0.1767578125,0.022099999999999998
2.6564885496183206,1.3893129770992367,-1.5114503816793894,-0.40380859375,-0.2412109375,-0.17822265625,0.023799999999999998
2.519083969465649,1.5725190839694656,-1.618320610687023,-0.398681640625,-0.244384765625,-0.185302734375,0.0255
2.6412213740458017,1.4961832061068703,-1.6488549618320612,-0.40625,-0.2470703125,-0.180908203125,0.0272
2.519083969465649,1.5419847328244274,-1.4961832061068703,-0.399169921875,-0.248046875,-0.183349609375,0.0289
2.4122137404580153,1.6488549618320612,-1.4809160305343512,-0.402099609375,-0.24609375,-0.181396484375,0.0306
2.564885496183206,1.6641221374045803,-1.6946564885496183,-0.4013671875,-0.246337890625,-0.1787109375,0.032299999999999995
2.3206106870229006,1.4961832061068703,-1.6030534351145038,-0.40380859375,-0.2470703125,-0.176513671875,0.033999999999999996
2.4732824427480917,1.5267175572519085,-1.3129770992366412,-0.401611328125,-0.24755859375,-0.1806640625,0.035699999999999996
2.7022900763358777,1.6488549618320612,-1.5114503816793894,-0.401611328125,-0.249755859375,-0.183349609375,0.037399999999999996
2.33587786259542,1.465648854961832,-1.3740458015267176,-0.397705078125,-0.249267578125,-0.17578125,0.039099999999999996
2.595419847328244,1.633587786259542,-1.7099236641221374,-0.392822265625,-0.251220703125,-0.1767578125,0.040799999999999996
2.946564885496183,1.618320610687023,-1.5877862595419847,-0.396484375,-0.247802734375,-0.17822265625,0.042499999999999996
2.946564885496183,1.5419847328244274,-1.6946564885496183,-0.398193359375,-0.247314453125,-0.184326171875,0.044199999999999996
2.931297709923664,1.7709923664122138,-1.5419847328244274,-0.396240234375,-0.245849609375,-0.175537109375,0.045899999999999996
2.6564885496183206,1.9541984732824427,-1.6030534351145038,-0.393798828125,-0.243896484375,-0.180908203125,0.047599999999999996
3.053435114503817,1.9083969465648856,-1.6793893129770991,-0.405517578125,-0.251220703125,-0.183349609375,0.0493
3.053435114503817,1.6641221374045803,-1.83206106870229,-0.401123046875,-0.2470703125,-0.185302734375,0.051
3.0381679389312977,1.5572519083969465,-1.6488549618320612,-0.39501953125,-0.2470703125,-0.183837890625,0.0527
3.1603053435114505,1.7709923664122138,-1.7709923664122138,-0.399169921875,-0.251220703125,-0.18359375,0.0544
3.145038167938931,1.7709923664122138,-1.618320610687023,-0.3994140625,-0.250732421875,-0.18603515625,0.0561
3.2213740458015265,1.5419847328244274,-1.4809160305343512,-0.396240234375,-0.246337890625,-0.185791015625,0.0578
2.931297709923664,1.83206106870229,-1.618320610687023,-0.39599609375,-0.252685546875,-0.185302734375,0.0595
2.9923664122137406,1.5572519083969465,-1.5725190839694656,-0.400146484375,-0.25146484375,-0.177978515625,0.0612
2.8702290076335877,1.5267175572519085,-1.3435114503816794,-0.399169921875,-0.251220703125,-0.17724609375,0.0629
2.8702290076335877,1.5419847328244274,-1.5267175572519085,-0.40234375,-0.25,-0.173095703125,0.06459999999999999
2.6106870229007635,1.633587786259542,-1.4351145038167938,-0.398681640625,-0.249267578125,-0.180908203125,0.0663
2.6412213740458017,1.6030534351145038,-1.5114503816793894,-0.399169921875,-0.257568359375,-0.177490234375,0.06799999999999999
2.4885496183206106,1.3282442748091603,-1.3435114503816794,-0.400390625,-0.250244140625,-0.18115234375,0.0697
2.4580152671755724,1.4351145038167938,-1.5114503816793894,-0.3994140625,-0.252685546875,-0.18212890625,0.07139999999999999
2.3053435114503817,1.6488549618320612,-1.3435114503816794,-0.3984375,-0.248046875,-0.185546875,0.0731
2.50381679389313,1.5114503816793894,-1.3893129770992367,-0.40283203125,-0.253173828125,-0.175048828125,0.07479999999999999
2.2748091603053435,1.4809160305343512,-1.3282442748091603,-0.39892578125,-0.257568359375,-0.184814453125,0.0765
2.0610687022900764,1.3435114503816794,-1.465648854961832,-0.398681640625,-0.253662109375,-0.1845703125,0.07819999999999999
1.786259541984733,1.2671755725190839,-1.251908396946565,-0.400146484375,-0.24658203125,-0.18505859375,0.0799
1.633587786259542,1.2366412213740459,-1.3282442748091603,-0.397216796875,-0.2509765625,-0.18408203125,0.08159999999999999
1.5877862595419847,1.1908396946564885,-1.251908396946565,-0.3955078125,-0.250732421875,-0.17578125,0.0833
1.5419847328244274,1.0229007633587786,-1.5114503816793894,-0.39892578125,-0.25048828125,-0.185546875,0.08499999999999999
1.4809160305343512,0.9312977099236641,-1.3587786259541985,-0.400390625,-0.254638671875,-0.183837890625,0.0867
1.2366412213740459,0.8091603053435115,-1.5725190839694656,-0.400390625,-0.25244140625,-0.171630859375,0.08839999999999999
1.297709923664122,0.5343511450381679,-1.282442748091603,-0.4033203125,-0.25,-0.17822265625,0.0901
0.916030534351145,0.4580152671755725,-1.4961832061068703,-0.404296875,-0.24560546875,-0.18505859375,0.09179999999999999
0.7175572519083969,0.3816793893129771,-1.4351145038167938,-0.4013671875,-0.25146484375,-0.184326171875,0.0935
0.916030534351145,0.5038167938931297,-1.6946564885496183,-0.399169921875,-0.247802734375,-0.187255859375,0.09519999999999999
0.6564885496183206,0.1984732824427481,-1.6946564885496183,-0.400390625,-0.247802734375,-0.1796875,0.0969
0.5190839694656488,0.3053435114503817,-1.816793893129771,-0.395751953125,-0.248779296875,-0.175048828125,0.0986
0.5954198473282443,0.3969465648854962,-1.8473282442748091,-0.3994140625,-0.254638671875,-0.18408203125,0.1003
0.3969465648854962,0.3816793893129771,-1.9694656488549618,-0.396728515625,-0.24853515625,-0.18896484375,0.102
0.33587786259541985,0.42748091603053434,-1.7099236641221374,-0.4013671875,-0.246337890625,-0.1728515625,0.1037
0.3969465648854962,0.5648854961832062,-1.8473282442748091,-0.398681640625,-0.24267578125,-0.174560546875,0.1054
0.2595419847328244,0.6106870229007634,-1.8473282442748091,-0.39599609375,-0.24267578125,-0.180908203125,0.1071
0.0916030534351145,0.7633587786259542,-1.8931297709923665,-0.402587890625,-0.24658203125,-0.183349609375,0.1088
0.030534351145038167,0.9618320610687023,-1.8778625954198473,-0.40087890625,-0.239501953125,-0.172119140625,0.11049999999999999
-0.07633587786259542,0.9007633587786259,-1.8778625954198473,-0.39697265625,-0.245849609375,-0.181396484375,0.1122
0.3511450381679389,0.9770992366412213,-1.9236641221374047,-0.403076171875,-0.243408203125,-0.1728515625,0.11389999999999999
0.2900763358778626,0.9618320610687023,-1.8473282442748091,-0.398193359375,-0.25,-0.18017578125,0.1156
0.24427480916030533,0.9770992366412213,-1.8625954198473282,-0.396484375,-0.24365234375,-0.17333984375,0.11729999999999999
0.3053435114503817,1.099236641221374,-1.984732824427481,-0.394287109375,-0.24365234375,-0.1767578125,0.119
0.6259541984732825,0.9923664122137404,-1.7709923664122138,-0.400390625,-0.24169921875,-0.179931640625,0.12069999999999999
0.9312977099236641,1.3129770992366412,-1.8931297709923665,-0.400634765625,-0.240478515625,-0.1728515625,0.1224
1.0534351145038168,1.5114503816793894,-1.6641221374045803,-0.3974609375,-0.245849609375,-0.171142578125,0.12409999999999999
1.2213740458015268,1.6793893129770991,-1.6030534351145038,-0.40234375,-0.244384765625,-0.176513671875,0.1258
1.3435114503816794,1.5114503816793894,-1.7251908396946565,-0.40087890625,-0.244384765625,-0.17822265625,0.1275
1.6641221374045803,1.6488549618320612,-1.7099236641221374,-0.401611328125,-0.24267578125,-0.173828125,0.12919999999999998
1.633587786259542,1.5877862595419847,-1.4961832061068703,-0.40380859375,-0.24267578125,-0.1748046875,0.1309
2.015267175572519,1.6946564885496183,-1.5267175572519085,-0.399169921875,-0.241943359375,-0.181396484375,0.1326
2.2290076335877864,1.5267175572519085,-1.297709923664122,-0.398193359375,-0.246337890625,-0.1806640625,0.1343
2.183206106870229,1.4961832061068703,-1.2366412213740459,-0.399169921875,-0.2451171875,-0.17919921875,0.13599999999999998
2.366412213740458,1.5419847328244274,-1.4045801526717556,-0.402099609375,-0.244384765625,-0.17919921875,0.1377
2.5801526717557253,1.5267175572519085,-1.3740458015267176,-0.404296875,-0.24267578125,-0.178955078125,0.1394
2.4732824427480917,1.4351145038167938,-1.1908396946564885,-0.403564453125,-0.24609375,-0.1767578125,0.1411
2.6717557251908395,1.3740458015267176,-1.297709923664122,-0.402099609375,-0.25390625,-0.1796875,0.14279999999999998
2.7938931297709924,1.3893129770992367,-1.1603053435114503,-0.407958984375,-0.248046875,-0.178955078125,0.1445
2.717557251908397,1.3893129770992367,-1.3435114503816794,-0.40478515625,-0.248291015625,-0.186767578125,0.1462
2.8244274809160306,1.4198473282442747,-1.4045801526717556,-0.3994140625,-0.248046875,-0.1845703125,0.1479
2.732824427480916,1.1908396946564885,-1.2366412213740459,-0.40185546875,-0.248291015625,-0.181640625,0.14959999999999998
2.6412213740458017,1.2061068702290076,-1.3893129770992367,-0.400146484375,-0.2548828125,-0.18115234375,0.1513
2.8702290076335877,1.1450381679389312,-1.5572519083969465,-0.40673828125,-0.24755859375,-0.187255859375,0.153
2.717557251908397,1.3435114503816794,-1.4351145038167938,-0.403076171875,-0.252685546875,-0.18310546875,0.1547
2.3053435114503817,1.3893129770992367,-1.5419847328244274,-0.396240234375,-0.25,-0.177001953125,0.15639999999999998
2.5801526717557253,1.0534351145038168,-1.5267175572519085,-0.406005859375,-0.248779296875,-0.18603515625,0.1581
2.4580152671755724,1.282442748091603,-1.5419847328244274,-0.404296875,-0.245361328125,-0.17822265625,0.1598
2.2748091603053435,1.3282442748091603,-1.5267175572519085,-0.4033203125,-0.25341796875,-0.1845703125,0.1615
2.183206106870229,1.2671755725190839,-1.5877862595419847,-0.4013671875,-0.25048828125,-0.184326171875,0.16319999999999998
2.2748091603053435,1.2671755725190839,-1.5114503816793894,-0.40185546875,-0.25537109375,-0.18310546875,0.1649
2.0,1.3435114503816794,-1.618320610687023,-0.39990234375,-0.254150390625,-0.177490234375,0.1666
2.045801526717557,1.3587786259541985,-1.4961832061068703,-0.403076171875,-0.253173828125,-0.18017578125,0.16829999999999998
2.1068702290076335,1.4045801526717556,-1.8015267175572518,-0.3994140625,-0.253662109375,-0.18359375,0.16999999999999998
1.7709923664122138,1.3282442748091603,-1.618320610687023,-0.3984375,-0.248779296875,-0.181640625,0.1717
1.7099236641221374,1.251908396946565,-1.6641221374045803,-0.393798828125,-0.256591796875,-0.181396484375,0.1734
1.7251908396946565,1.6030534351145038,-1.6946564885496183,-0.396484375,-0.248291015625,-0.187255859375,0.17509999999999998
1.7251908396946565,1.4198473282442747,-1.7251908396946565,-0.395751953125,-0.248291015625,-0.182373046875,0.17679999999999998
1.5572519083969465,1.4351145038167938,-1.83206106870229,-0.39697265625,-0.249755859375,-0.177978515625,0.1785
1.4198473282442747,1.282442748091603,-1.83206106870229,-0.395751953125,-0.252685546875,-0.177734375,0.1802
1.3129770992366412,1.3893129770992367,-1.4809160305343512,-0.395263671875,-0.253173828125,-0.177734375,0.18189999999999998
1.1908396946564885,1.4198473282442747,-1.8625954198473282,-0.390380859375,-0.25439453125,-0.18017578125,0.18359999999999999
1.450381679389313,1.1450381679389312,-1.8778625954198473,-0.390625,-0.2509765625,-0.181396484375,0.1853
1.4351145038167938,1.1145038167938932,-1.8625954198473282,-0.398193359375,-0.249755859375,-0.173828125,0.187
1.450381679389313,0.9007633587786259,-1.7557251908396947,-0.399169921875,-0.24365234375,-0.180419921875,0.18869999999999998
1.465648854961832,0.732824427480916,-1.83206106870229,-0.400146484375,-0.2470703125,-0.18408203125,0.19039999999999999
1.5419847328244274,0.916030534351145,-1.7709923664122138,-0.39208984375,-0.246337890625,-0.185791015625,0.1921
1.3740458015267176,0.9770992366412213,-1.984732824427481,-0.39453125,-0.251708984375,-0.16748046875,0.1938
1.3740458015267176,1.099236641221374,-1.7557251908396947,-0.392822265625,-0.2470703125,-0.181884765625,0.19549999999999998
1.3435114503816794,0.8091603053435115,-1.7557251908396947,-0.395751953125,-0.245361328125,-0.18212890625,0.1972
1.3893129770992367,0.9007633587786259,-1.9541984732824427,-0.40283203125,-0.249267578125,-0.18310546875,0.1989
1.3740458015267176,0.7175572519083969,-1.8015267175572518,-0.396240234375,-0.246826171875,-0.173583984375,0.2006
1.3435114503816794,0.8549618320610687,-1.8015267175572518,-0.393310546875,-0.240478515625,-0.175537109375,0.20229999999999998
1.251908396946565,0.8396946564885496,-1.786259541984733,-0.39404296875,-0.24462890625,-0.183837890625,0.204
1.1450381679389312,0.8091603053435115,-1.9083969465648856,-0.3935546875,-0.247314453125,-0.177001953125,0.2057
1.0534351145038168,0.732824427480916,-1.786259541984733,-0.396484375,-0.24853515625,-0.17333984375,0.2074
1.1755725190839694,0.9465648854961832,-1.9236641221374047,-0.397705078125,-0.243408203125,-0.177001953125,0.20909999999999998
1.2366412213740459,0.8091603053435115,-1.9389312977099236,-0.400390625,-0.2451171875,-0.18310546875,0.2108
1.0381679389312977,0.7938931297709924,-1.8625954198473282,-0.3994140625,-0.245361328125,-0.18505859375,0.2125
0.9618320610687023,0.7786259541984732,-1.8625954198473282,-0.39306640625,-0.2451171875,-0.181884765625,0.2142
0.9465648854961832,0.7938931297709924,-1.8625954198473282,-0.404052734375,-0.248291015625,-0.177001953125,0.21589999999999998
1.2213740458015268,0.9007633587786259,-1.7709923664122138,-0.40283203125,-0.25,-0.176513671875,0.2176
1.1450381679389312,0.9618320610687023,-1.8778625954198473,-0.40087890625,-0.248046875,-0.176025390625,0.2193
1.1450381679389312,0.9618320610687023,-1.8015267175572518,-0.39892578125,-0.246826171875,-0.173828125,0.22099999999999997
1.0381679389312977,0.8091603053435115,-1.6946564885496183,-0.39697265625,-0.245361328125,-0.1875,0.22269999999999998
1.1755725190839694,0.9770992366412213,-1.83206106870229,-0.396240234375,-0.243408203125,-0.18115234375,0.2244
1.1908396946564885,0.9770992366412213,-1.6030534351145038,-0.39990234375,-0.2490234375,-0.183349609375,0.2261
1.2213740458015268,0.9770992366412213,-1.6946564885496183,-0.400390625,-0.246337890625,-0.181396484375,0.22779999999999997
1.251908396946565,0.9312977099236641,-1.7709923664122138,-0.400146484375,-0.248779296875,-0.18017578125,0.22949999999999998
1.3893129770992367,1.0076335877862594,-1.618320610687023,-0.404052734375,-0.24560546875,-0.18359375,0.2312
1.450381679389313,0.9770992366412213,-1.7709923664122138,-0.405517578125,-0.25,-0.183349609375,0.2329
1.297709923664122,1.083969465648855,-1.7557251908396947,-0.398193359375,-0.24853515625,-0.177978515625,0.23459999999999998
1.2061068702290076,1.0687022900763359,-1.6488549618320612,-0.400634765625,-0.248291015625,-0.17919921875,0.23629999999999998
1.3587786259541985,1.0534351145038168,-1.8625954198473282,-0.405517578125,-0.247314453125,-0.181884765625,0.238
1.3893129770992367,1.2213740458015268,-1.8778625954198473,-0.396240234375,-0.247314453125,-0.1845703125,0.2397
1.297709923664122,1.3129770992366412,-1.5419847328244274,-0.404052734375,-0.248779296875,-0.190673828125,0.24139999999999998
1.251908396946565,1.2671755725190839,-1.6641221374045803,-0.396728515625,-0.249267578125,-0.181640625,0.24309999999999998
1.2061068702290076,1.0534351145038168,-1.7251908396946565,-0.39697265625,-0.24462890625,-0.179931640625,0.2448
1.297709923664122,1.099236641221374,-1.7709923664122138,-0.396484375,-0.25146484375,-0.177001953125,0.2465
1.2671755725190839,1.5114503816793894,-1.5419847328244274,-0.402587890625,-0.24072265625,-0.18798828125,0.24819999999999998
1.0076335877862594,1.282442748091603,-1.4961832061068703,-0.404052734375,-0.240478515625,-0.178466796875,0.24989999999999998
1.083969465648855,1.0687022900763359,-1.6030534351145038,-0.40478515625,-0.25048828125,-0.1748046875,0.2516
1.083969465648855,1.3435114503816794,-1.633587786259542,-0.404296875,-0.2431640625,-0.17626953125,0.25329999999999997
1.1603053435114503,1.251908396946565,-1.5419847328244274,-0.4033203125,-0.2490234375,-0.1748046875,0.255
1.0381679389312977,0.9618320610687023,-1.633587786259542,-0.403564453125,-0.248046875,-0.175048828125,0.2567
0.9465648854961832,0.8854961832061069,-1.6641221374045803,-0.401123046875,-0.248291015625,-0.176025390625,0.25839999999999996
0.9312977099236641,0.8854961832061069,-1.9083969465648856,-0.395751953125,-0.249267578125,-0.181396484375,0.2601
0.9007633587786259,0.6870229007633588,-1.7404580152671756,-0.395263671875,-0.247802734375,-0.179931640625,0.2618
0.916030534351145,0.732824427480916,-1.6946564885496183,-0.4013671875,-0.248291015625,-0.173583984375,0.2635
1.0076335877862594,0.6412213740458015,-1.8473282442748091,-0.39697265625,-0.24755859375,-0.185791015625,0.2652
1.1755725190839694,0.5648854961832062,-1.7251908396946565,-0.39990234375,-0.2490234375,-0.18798828125,0.26689999999999997
1.2061068702290076,0.6870229007633588,-1.6641221374045803,-0.398681640625,-0.254150390625,-0.1826171875,0.2686
1.2213740458015268,0.5648854961832062,-1.83206106870229,-0.404052734375,-0.246826171875,-0.17822265625,0.2703
1.3435114503816794,0.44274809160305345,-1.7709923664122138,-0.4033203125,-0.2509765625,-0.174560546875,0.27199999999999996
1.1603053435114503,0.22900763358778625,-1.8015267175572518,-0.404541015625,-0.251953125,-0.17919921875,0.2737
1.282442748091603,0.3511450381679389,-1.786259541984733,-0.404052734375,-0.248291015625,-0.17431640625,0.2754
1.3587786259541985,0.5038167938931297,-1.786259541984733,-0.4013671875,-0.250244140625,-0.18212890625,0.27709999999999996
1.450381679389313,0.6564885496183206,-1.9389312977099236,-0.401611328125,-0.246337890625,-0.17919921875,0.2788
1.7404580152671756,0.5801526717557252,-1.8625954198473282,-0.39990234375,-0.24853515625,-0.17919921875,0.28049999999999997
1.816793893129771,0.42748091603053434,-1.7557251908396947,-0.401123046875,-0.24951171875,-0.18212890625,0.2822
1.83206106870229,0.7480916030534351,-1.6946564885496183,-0.400146484375,-0.249755859375,-0.18115234375,0.2839
1.9389312977099236,0.732824427480916,-1.9083969465648856,-0.40234375,-0.24462890625,-0.175048828125,0.28559999999999997
1.8778625954198473,0.7480916030534351,-1.8473282442748091,-0.39990234375,-0.247802734375,-0.17529296875,0.2873
2.0610687022900764,0.732824427480916,-1.6793893129770991,-0.4013671875,-0.24658203125,-0.17724609375,0.289
2.045801526717557,0.7938931297709924,-1.8625954198473282,-0.400634765625,-0.242919921875,-0.171875,0.29069999999999996
2.2748091603053435,0.7938931297709924,-1.7404580152671756,-0.400634765625,-0.247802734375,-0.175537109375,0.2924
2.5343511450381677,0.6870229007633588,-1.8473282442748091,-0.40234375,-0.24365234375,-0.177001953125,0.2941
2.351145038167939,0.8396946564885496,-1.6793893129770991,-0.401123046875,-0.246826171875,-0.179443359375,0.2958
2.3969465648854964,0.8244274809160306,-1.9083969465648856,-0.40576171875,-0.24365234375,-0.180908203125,0.2975
2.854961832061069,0.6717557251908397,-1.6793893129770991,-0.400390625,-0.2431640625,-0.182373046875,0.29919999999999997
2.763358778625954,0.7175572519083969,-1.7099236641221374,-0.398193359375,-0.24609375,-0.180419921875,0.3009
2.7786259541984735,0.8702290076335878,-1.5877862595419847,-0.404296875,-0.24560546875,-0.186279296875,0.3026
2.885496183206107,0.8244274809160306,-1.6793893129770991,-0.405517578125,-0.24267578125,-0.17431640625,0.30429999999999996
3.068702290076336,0.8702290076335878,-1.6488549618320612,-0.4033203125,-0.25341796875,-0.17578125,0.306
2.946564885496183,0.8854961832061069,-1.6488549618320612,-0.4072265625,-0.250244140625,-0.174072265625,0.3077
3.053435114503817,0.7938931297709924,-1.7557251908396947,-0.41015625,-0.24560546875,-0.187744140625,0.3094
3.053435114503817,0.8244274809160306,-1.8473282442748091,-0.40185546875,-0.24560546875,-0.183349609375,0.3111
3.2977099236641223,0.9007633587786259,-1.6641221374045803,-0.403076171875,-0.245361328125,-0.1806640625,0.31279999999999997
3.3435114503816794,0.9465648854961832,-1.7251908396946565,-0.40234375,-0.249267578125,-0.18310546875,0.3145
3.312977099236641,1.1145038167938932,-1.5114503816793894,-0.409423828125,-0.25,-0.184814453125,0.3162
3.5419847328244276,1.2671755725190839,-1.7251908396946565,-0.402099609375,-0.251708984375,-0.189453125,0.31789999999999996
3.4198473282442747,1.1450381679389312,-1.6641221374045803,-0.405029296875,-0.24658203125,-0.18798828125,0.3196
3.404580152671756,1.3587786259541985,-1.5419847328244274,-0.40283203125,-0.251220703125,-0.184814453125,0.3213
3.3893129770992365,1.3740458015267176,-1.5267175572519085,-0.400146484375,-0.248046875,-0.1767578125,0.323
3.236641221374046,1.6030534351145038,-1.7557251908396947,-0.402099609375,-0.248291015625,-0.182861328125,0.3247
3.1908396946564888,1.633587786259542,-1.6946564885496183,-0.401123046875,-0.248779296875,-0.185791015625,0.32639999999999997
3.3740458015267176,1.6488549618320612,-1.7404580152671756,-0.3994140625,-0.249755859375,-0.177490234375,0.3281
3.2061068702290076,1.7251908396946565,-1.8473282442748091,-0.396728515625,-0.24658203125,-0.1845703125,0.3298
3.2977099236641223,1.786259541984733,-1.8473282442748091,-0.397216796875,-0.248291015625,-0.182373046875,0.33149999999999996
3.2977099236641223,1.6641221374045803,-1.7404580152671756,-0.39892578125,-0.253173828125,-0.18115234375,0.3332
3.099236641221374,1.618320610687023,-1.786259541984733,-0.39599609375,-0.24658203125,-0.18505859375,0.3349
3.3740458015267176,1.786259541984733,-1.6488549618320612,-0.393798828125,-0.2490234375,-0.188720703125,0.33659999999999995
2.9923664122137406,1.618320610687023,-1.8015267175572518,-0.395263671875,-0.246826171875,-0.18017578125,0.3383
2.946564885496183,1.6946564885496183,-1.5725190839694656,-0.397216796875,-0.24853515625,-0.18994140625,0.33999999999999997
2.9618320610687023,1.633587786259542,-1.816793893129771,-0.3974609375,-0.2509765625,-0.188232421875,0.3417
2.7938931297709924,1.465648854961832,-1.5725190839694656,-0.39892578125,-0.248291015625,-0.18994140625,0.3434
2.6412213740458017,1.3282442748091603,-1.7251908396946565,-0.399169921875,-0.243408203125,-0.181640625,0.34509999999999996
2.8244274809160306,1.1755725190839694,-1.5725190839694656,-0.39208984375,-0.25,-0.177490234375,0.3468
2.8244274809160306,1.2366412213740459,-1.7099236641221374,-0.391357421875,-0.25,-0.17724609375,0.3485
2.931297709923664,1.2061068702290076,-1.6488549618320612,-0.397216796875,-0.25048828125,-0.179931640625,0.35019999999999996
2.6106870229007635,1.2061068702290076,-1.6641221374045803,-0.395263671875,-0.25634765625,-0.171142578125,0.3519
2.519083969465649,1.251908396946565,-1.5419847328244274,-0.390869140625,-0.250732421875,-0.181640625,0.35359999999999997
2.6717557251908395,1.2061068702290076,-1.6641221374045803,-0.392333984375,-0.249267578125,-0.1748046875,0.3553
2.549618320610687,1.297709923664122,-1.4351145038167938,-0.39501953125,-0.248046875,-0.177734375,0.357
2.50381679389313,1.2671755725190839,-1.618320610687023,-0.396484375,-0.251953125,-0.1796875,0.35869999999999996
2.183206106870229,1.3893129770992367,-1.4351145038167938,-0.394287109375,-0.25341796875,-0.180419921875,0.3604
2.213740458015267,1.3587786259541985,-1.5114503816793894,-0.400390625,-0.25,-0.1787109375,0.3621
2.045801526717557,1.3129770992366412,-1.3587786259541985,-0.394775390625,-0.2509765625,-0.1787109375,0.36379999999999996
2.198473282442748,1.4961832061068703,-1.5114503816793894,-0.39892578125,-0.248046875,-0.187255859375,0.3655
1.9083969465648856,1.1603053435114503,-1.5267175572519085,-0.402587890625,-0.251708984375,-0.170166015625,0.36719999999999997
1.816793893129771,1.2671755725190839,-1.5725190839694656,-0.39697265625,-0.250244140625,-0.18017578125,0.3689
2.1068702290076335,1.2061068702290076,-1.5725190839694656,-0.399169921875,-0.24609375,-0.181396484375,0.3706
2.045801526717557,1.1908396946564885,-1.5114503816793894,-0.3984375,-0.247802734375,-0.177978515625,0.37229999999999996
2.015267175572519,1.0534351145038168,-1.618320610687023,-0.402587890625,-0.25244140625,-0.18212890625,0.374
1.8778625954198473,1.2671755725190839,-1.8015267175572518,-0.39794921875,-0.25341796875,-0.169189453125,0.3757
1.8625954198473282,1.0687022900763359,-1.7557251908396947,-0.397705078125,-0.25244140625,-0.1865234375,0.37739999999999996
2.0916030534351147,1.0381679389312977,-1.9389312977099236,-0.3994140625,-0.25048828125,-0.18408203125,0.3791
1.984732824427481,1.1145038167938932,-1.7099236641221374,-0.402099609375,-0.250244140625,-0.186767578125,0.38079999999999997
2.198473282442748,1.1145038167938932,-1.786259541984733,-0.39794921875,-0.2490234375,-0.17529296875,0.38249999999999995
2.0763358778625953,1.1145038167938932,-1.8473282442748091,-0.400634765625,-0.24560546875,-0.182861328125,0.3842
2.183206106870229,1.083969465648855,-1.816793893129771,-0.40283203125,-0.251220703125,-0.180908203125,0.38589999999999997
2.3206106870229006,1.2213740458015268,-1.8015267175572518,-0.39892578125,-0.249755859375,-0.18505859375,0.3876
2.3206106870229006,1.1908396946564885,-1.8778625954198473,-0.400634765625,-0.24560546875,-0.181884765625,0.3893
2.2900763358778624,1.1908396946564885,-1.83206106870229,-0.403076171875,-0.24658203125,-0.184814453125,0.39099999999999996
2.2595419847328246,1.2366412213740459,-1.7099236641221374,-0.40283203125,-0.248046875,-0.189697265625,0.3927
2.2595419847328246,0.9923664122137404,-1.6641221374045803,-0.397216796875,-0.248291015625,-0.17724609375,0.3944
2.2442748091603053,1.251908396946565,-1.8625954198473282,-0.400390625,-0.24462890625,-0.1767578125,0.39609999999999995
2.4732824427480917,1.2061068702290076,-1.6030534351145038,-0.402587890625,-0.244384765625,-0.1796875,0.3978
2.2290076335877864,1.2671755725190839,-1.618320610687023,-0.403076171875,-0.24609375,-0.18798828125,0.39949999999999997
2.2290076335877864,1.2213740458015268,-1.450381679389313,-0.399658203125,-0.2548828125,-0.181640625,0.4012
2.16793893129771,1.1908396946564885,-1.5267175572519085,-0.399658203125,-0.251708984375,-0.173095703125,0.4029
2.045801526717557,1.2671755725190839,-1.465648854961832,-0.403564453125,-0.24365234375,-0.17724609375,0.40459999999999996
1.9083969465648856,1.1145038167938932,-1.4961832061068703,-0.400146484375,-0.2431640625,-0.175048828125,0.4063
1.8931297709923665,1.2366412213740459,-1.3435114503816794,-0.396484375,-0.2470703125,-0.171630859375,0.408
1.816793893129771,1.4045801526717556,-1.3740458015267176,-0.40234375,-0.246337890625,-0.177001953125,0.40969999999999995
1.83206106870229,1.282442748091603,-1.3740458015267176,-0.402587890625,-0.25048828125,-0.17919921875,0.4114
1.9389312977099236,1.465648854961832,-1.3435114503816794,-0.39990234375,-0.248046875,-0.175048828125,0.41309999999999997
1.7709923664122138,1.2671755725190839,-1.2366412213740459,-0.396728515625,-0.2509765625,-0.17822265625,0.4148
1.6488549618320612,1.3587786259541985,-1.3587786259541985,-0.399169921875,-0.253662109375,-0.176513671875,0.4165
1.7404580152671756,1.4809160305343512,-1.3282442748091603,-0.3974609375,-0.243896484375,-0.171630859375,0.41819999999999996
2.045801526717557,1.2366412213740459,-1.465648854961832,-0.394775390625,-0.24755859375,-0.18505859375,0.4199
1.8473282442748091,1.3740458015267176,-1.4809160305343512,-0.402099609375,-0.24658203125,-0.17724609375,0.4216
1.8931297709923665,1.4351145038167938,-1.3587786259541985,-0.395751953125,-0.249267578125,-0.181640625,0.42329999999999995
2.0763358778625953,1.251908396946565,-1.4198473282442747,-0.396484375,-0.24755859375,-0.183349609375,0.425
2.015267175572519,1.4198473282442747,-1.7557251908396947,-0.39990234375,-0.2529296875,-0.1796875,0.42669999999999997
2.2442748091603053,1.450381679389313,-1.5267175572519085,-0.39697265625,-0.25048828125,-0.178955078125,0.4284
2.0763358778625953,1.5725190839694656,-1.6946564885496183,-0.39599609375,-0.250244140625,-0.1806640625,0.4301
2.564885496183206,1.465648854961832,-1.6488549618320612,-0.39892578125,-0.252197265625,-0.181640625,0.43179999999999996
2.50381679389313,1.7251908396946565,-1.8625954198473282,-0.406494140625,-0.249755859375,-0.177978515625,0.4335
2.366412213740458,1.8015267175572518,-1.83206106870229,-0.402099609375,-0.245361328125,-0.192626953125,0.4352
2.3053435114503817,1.7251908396946565,-1.7099236641221374,-0.39990234375,-0.249267578125,-0.186767578125,0.43689999999999996
2.33587786259542,1.9236641221374047,-1.7709923664122138,-0.40087890625,-0.24951171875,-0.177978515625,0.4386
2.3969465648854964,1.8015267175572518,-1.816793893129771,-0.39892578125,-0.248291015625,-0.17529296875,0.44029999999999997
2.5343511450381677,1.8473282442748091,-1.786259541984733,-0.399658203125,-0.244140625,-0.18701171875,0.44199999999999995
2.2595419847328246,1.9541984732824427,-1.7557251908396947,-0.399169921875,-0.250732421875,-0.1826171875,0.4437
2.2290076335877864,1.8625954198473282,-1.816793893129771,-0.396484375,-0.2509765625,-0.1796875,0.44539999999999996
2.0916030534351147,2.0763358778625953,-1.7557251908396947,-0.40087890625,-0.24658203125,-0.18115234375,0.4471
2.030534351145038,1.9236641221374047,-1.984732824427481,-0.39794921875,-0.24609375,-0.188720703125,0.4488
2.030534351145038,2.0610687022900764,-1.7404580152671756,-0.394775390625,-0.244140625,-0.185302734375,0.45049999999999996
1.8015267175572518,1.9541984732824427,-1.7404580152671756,-0.3994140625,-0.2529296875,-0.18017578125,0.4522
1.83206106870229,1.8015267175572518,-1.7251908396946565,-0.4013671875,-0.244384765625,-0.187744140625,0.45389999999999997
1.816793893129771,1.8015267175572518,-1.6793893129770991,-0.39306640625,-0.2392578125,-0.177001953125,0.45559999999999995
1.4351145038167938,1.816793893129771,-1.6946564885496183,-0.3974609375,-0.2470703125,-0.1689453125,0.4573
1.2671755725190839,1.8015267175572518,-1.7099236641221374,-0.397216796875,-0.243408203125,-0.169677734375,0.45899999999999996
1.3893129770992367,1.8473282442748091,-1.6488549618320612,-0.399658203125,-0.251953125,-0.17724609375,0.4607
1.2213740458015268,1.8625954198473282,-1.4961832061068703,-0.396728515625,-0.249755859375,-0.177978515625,0.4624
1.1450381679389312,1.9389312977099236,-1.4961832061068703,-0.39892578125,-0.24609375,-0.177978515625,0.46409999999999996
1.3129770992366412,1.816793893129771,-1.5267175572519085,-0.40380859375,-0.252197265625,-0.176513671875,0.4658
1.1755725190839694,1.633587786259542,-1.4351145038167938,-0.398193359375,-0.249755859375,-0.185546875,0.46749999999999997
1.1603053435114503,1.7099236641221374,-1.618320610687023,-0.3974609375,-0.2529296875,-0.1826171875,0.46919999999999995
1.297709923664122,1.7709923664122138,-1.465648854961832,-0.3955078125,-0.248046875,-0.172607421875,0.4709
1.297709923664122,1.7709923664122138,-1.450381679389313,-0.40234375,-0.2470703125,-0.174560546875,0.47259999999999996
1.4351145038167938,1.7251908396946565,-1.6488549618320612,-0.396484375,-0.25146484375,-0.171142578125,0.4743
1.297709923664122,1.633587786259542,-1.6946564885496183,-0.3994140625,-0.252685546875,-0.177978515625,0.476
1.4351145038167938,1.4198473282442747,-1.5419847328244274,-0.396240234375,-0.25634765625,-0.177734375,0.47769999999999996
1.5267175572519085,1.7404580152671756,-1.618320610687023,-0.3984375,-0.2490234375,-0.185791015625,0.4794
1.5725190839694656,1.7404580152671756,-1.6030534351145038,-0.40087890625,-0.246337890625,-0.181640625,0.48109999999999997
1.4961832061068703,1.4045801526717556,-1.6793893129770991,-0.400390625,-0.253173828125,-0.186279296875,0.48279999999999995
1.7557251908396947,1.3893129770992367,-1.6641221374045803,-0.403076171875,-0.251220703125,-0.18408203125,0.4845
1.816793893129771,1.5419847328244274,-1.618320610687023,-0.398681640625,-0.25146484375,-0.1826171875,0.48619999999999997
1.7251908396946565,1.5114503816793894,-1.618320610687023,-0.401611328125,-0.256591796875,-0.181396484375,0.4879
1.8625954198473282,1.2671755725190839,-1.5419847328244274,-0.40234375,-0.25,-0.1845703125,0.4896
2.030534351145038,1.4961832061068703,-1.618320610687023,-0.399658203125,-0.25146484375,-0.17236328125,0.49129999999999996
1.8931297709923665,1.450381679389313,-1.7709923664122138,-0.40087890625,-0.252685546875,-0.17041015625,0.493
1.83206106870229,1.4045801526717556,-1.7099236641221374,-0.40380859375,-0.24462890625,-0.183837890625,0.4947
1.8778625954198473,1.465648854961832,-1.618320610687023,-0.39990234375,-0.248046875,-0.175537109375,0.49639999999999995
1.7557251908396947,1.5419847328244274,-1.6488549618320612,-0.398193359375,-0.25,-0.178466796875,0.4981
1.816793893129771,1.4351145038167938,-1.6030534351145038,-0.405029296875,-0.250244140625,-0.180908203125,0.49979999999999997
1.8015267175572518,1.5114503816793894,-1.6793893129770991,-0.400146484375,-0.245849609375,-0.18115234375,0.5015
1.786259541984733,1.5725190839694656,-1.6641221374045803,-0.399169921875,-0.246337890625,-0.183837890625,0.5032
1.8625954198473282,1.5572519083969465,-1.5419847328244274,-0.401611328125,-0.245849609375,-0.175048828125,0.5049
1.7404580152671756,1.3129770992366412,-1.7404580152671756,-0.400634765625,-0.247314453125,-0.17822265625,0.5065999999999999
1.9694656488549618,1.5267175572519085,-1.7404580152671756,-0.398681640625,-0.247802734375,-0.174560546875,0.5083
1.8015267175572518,1.5725190839694656,-1.6793893129770991,-0.395751953125,-0.24951171875,-0.177490234375,0.51
1.6641221374045803,1.633587786259542,-1.6946564885496183,-0.39892578125,-0.2490234375,-0.17919921875,0.5116999999999999
1.816793893129771,1.618320610687023,-1.6641221374045803,-0.401123046875,-0.24462890625,-0.181640625,0.5134
1.8625954198473282,1.5419847328244274,-1.465648854961832,-0.40234375,-0.24853515625,-0.1865234375,0.5151
1.83206106870229,1.7251908396946565,-1.6641221374045803,-0.403564453125,-0.24365234375,-0.184326171875,0.5167999999999999
1.7557251908396947,1.7404580152671756,-1.633587786259542,-0.402587890625,-0.24755859375,-0.190673828125,0.5185
2.0,1.5725190839694656,-1.6946564885496183,-0.405029296875,-0.245849609375,-0.183837890625,0.5202
1.984732824427481,1.4809160305343512,-1.5877862595419847,-0.39453125,-0.24755859375,-0.174560546875,0.5218999999999999
1.816793893129771,1.6488549618320612,-1.4961832061068703,-0.404541015625,-0.248779296875,-0.177978515625,0.5236
2.0763358778625953,1.4961832061068703,-1.618320610687023,-0.39599609375,-0.248291015625,-0.17822265625,0.5253
2.0610687022900764,1.3587786259541985,-1.5877862595419847,-0.4013671875,-0.245849609375,-0.17333984375,0.527
2.198473282442748,1.4045801526717556,-1.3435114503816794,-0.401611328125,-0.24609375,-0.178466796875,0.5287
2.2595419847328246,1.4809160305343512,-1.3740458015267176,-0.4052734375,-0.24658203125,-0.172119140625,0.5304
2.2290076335877864,1.6793893129770991,-1.3740458015267176,-0.40185546875,-0.243896484375,-0.17431640625,0.5321
2.519083969465649,1.6793893129770991,-1.3893129770992367,-0.400634765625,-0.248779296875,-0.176513671875,0.5337999999999999
2.549618320610687,1.3282442748091603,-1.3893129770992367,-0.3974609375,-0.244873046875,-0.173095703125,0.5355
2.732824427480916,1.4961832061068703,-1.4809160305343512,-0.402099609375,-0.24609375,-0.1806640625,0.5372
2.6717557251908395,1.5572519083969465,-1.465648854961832,-0.39990234375,-0.251220703125,-0.177490234375,0.5388999999999999
2.4427480916030535,1.5114503816793894,-1.4045801526717556,-0.39892578125,-0.24365234375,-0.1845703125,0.5406
2.7480916030534353,1.4809160305343512,-1.4351145038167938,-0.403076171875,-0.248291015625,-0.18115234375,0.5423
2.931297709923664,1.6488549618320612,-1.618320610687023,-0.3984375,-0.2470703125,-0.184814453125,0.5439999999999999
2.7786259541984735,1.618320610687023,-1.3282442748091603,-0.39794921875,-0.24755859375,-0.18359375,0.5457
2.900763358778626,1.3587786259541985,-1.3587786259541985,-0.397216796875,-0.24853515625,-0.176025390625,0.5474
2.732824427480916,1.5572519083969465,-1.251908396946565,-0.3994140625,-0.246826171875,-0.17724609375,0.5490999999999999
2.7938931297709924,1.465648854961832,-1.2061068702290076,-0.39697265625,-0.248779296875,-0.16748046875,0.5508
2.8702290076335877,1.3282442748091603,-1.282442748091603,-0.395751953125,-0.246826171875,-0.185302734375,0.5525
2.763358778625954,1.1908396946564885,-1.4198473282442747,-0.398193359375,-0.249267578125,-0.18017578125,0.5541999999999999
2.5343511450381677,1.450381679389313,-1.3893129770992367,-0.40185546875,-0.251953125,-0.18017578125,0.5559
2.564885496183206,1.2366412213740459,-1.3587786259541985,-0.401123046875,-0.252197265625,-0.1806640625,0.5576
2.33587786259542,1.4198473282442747,-1.3740458015267176,-0.3994140625,-0.25048828125,-0.1767578125,0.5593
2.4122137404580153,1.4351145038167938,-1.5877862595419847,-0.4013671875,-0.252685546875,-0.182373046875,0.5609999999999999
2.1068702290076335,1.3129770992366412,-1.4351145038167938,-0.40087890625,-0.251953125,-0.181884765625,0.5627
1.984732824427481,1.3129770992366412,-1.4809160305343512,-0.396240234375,-0.246826171875,-0.176025390625,0.5644
1.6793893129770991,1.3740458015267176,-1.4198473282442747,-0.404296875,-0.24365234375,-0.181640625,0.5660999999999999
1.3587786259541985,1.4351145038167938,-1.5725190839694656,-0.39990234375,-0.2548828125,-0.1796875,0.5678
1.4961832061068703,1.3282442748091603,-1.4045801526717556,-0.399658203125,-0.251220703125,-0.185302734375,0.5695
1.4045801526717556,1.465648854961832,-1.6030534351145038,-0.399658203125,-0.247314453125,-0.1865234375,0.5711999999999999
1.1450381679389312,1.4198473282442747,-1.5877862595419847,-0.402099609375,-0.248779296875,-0.188232421875,0.5729
1.083969465648855,1.297709923664122,-1.7099236641221374,-0.396484375,-0.252197265625,-0.1845703125,0.5746
1.2366412213740459,1.4351145038167938,-1.6946564885496183,-0.395751953125,-0.255859375,-0.18212890625,0.5762999999999999
1.1755725190839694,1.4045801526717556,-1.816793893129771,-0.400146484375,-0.25,-0.183349609375,0.578
1.1145038167938932,1.3435114503816794,-1.8473282442748091,-0.401611328125,-0.2529296875,-0.188720703125,0.5797
1.1603053435114503,1.465648854961832,-1.8473282442748091,-0.3994140625,-0.25390625,-0.1865234375,0.5813999999999999
1.2671755725190839,1.5725190839694656,-1.7557251908396947,-0.39990234375,-0.248779296875,-0.180908203125,0.5831
1.3893129770992367,1.633587786259542,-1.8931297709923665,-0.39697265625,-0.25244140625,-0.187744140625,0.5848
1.4045801526717556,1.5419847328244274,-1.984732824427481,-0.3984375,-0.249755859375,-0.173095703125,0.5865
1.4198473282442747,1.6641221374045803,-1.8473282442748091,-0.401123046875,-0.246826171875,-0.185546875,0.5882
1.618320610687023,1.618320610687023,-1.9083969465648856,-0.39794921875,-0.250732421875,-0.1796875,0.5899
1.5114503816793894,1.4961832061068703,-2.1068702290076335,-0.394775390625,-0.253662109375,-0.187744140625,0.5916
1.6030534351145038,1.465648854961832,-2.0,-0.3974609375,-0.245361328125,-0.19091796875,0.5932999999999999
1.618320610687023,1.5267175572519085,-1.8931297709923665,-0.405029296875,-0.25146484375,-0.18505859375,0.595
1.6030534351145038,1.5725190839694656,-2.0,-0.393310546875,-0.24658203125,-0.177978515625,0.5967
1.4198473282442747,1.4809160305343512,-2.0763358778625953,-0.39794921875,-0.250244140625,-0.1787109375,0.5983999999999999
1.3282442748091603,1.7404580152671756,-1.9389312977099236,-0.40576171875,-0.24853515625,-0.176513671875,0.6001
1.4351145038167938,1.6793893129770991,-1.9541984732824427,-0.4033203125,-0.248779296875,-0.18017578125,0.6018
1.3435114503816794,1.6488549618320612,-1.8778625954198473,-0.400146484375,-0.245849609375,-0.17431640625,0.6034999999999999
1.282442748091603,1.5419847328244274,-2.0,-0.39794921875,-0.248291015625,-0.173583984375,0.6052
1.0687022900763359,1.5572519083969465,-1.786259541984733,-0.40283203125,-0.24755859375,-0.173095703125,0.6069
1.251908396946565,1.5114503816793894,-1.9541984732824427,-0.39892578125,-0.25146484375,-0.17822265625,0.6085999999999999
1.251908396946565,1.4198473282442747,-1.6946564885496183,-0.399169921875,-0.247314453125,-0.181884765625,0.6103
0.916030534351145,1.6030534351145038,-1.6641221374045803,-0.39794921875,-0.247314453125,-0.1669921875,0.612
1.0381679389312977,1.3893129770992367,-1.6030534351145038,-0.397705078125,-0.246826171875,-0.18115234375,0.6136999999999999
1.0534351145038168,1.3282442748091603,-1.816793893129771,-0.401611328125,-0.249755859375,-0.176025390625,0.6154
1.083969465648855,1.2213740458015268,-1.5267175572519085,-0.4013671875,-0.250244140625,-0.1728515625,0.6171
1.251908396946565,1.3129770992366412,-1.6946564885496183,-0.398193359375,-0.2431640625,-0.172119140625,0.6188
1.3587786259541985,1.1145038167938932,-1.5267175572519085,-0.3974609375,-0.24365234375,-0.176513671875,0.6204999999999999
1.3893129770992367,1.1603053435114503,-1.465648854961832,-0.393798828125,-0.24755859375,-0.184814453125,0.6222
1.3587786259541985,1.0381679389312977,-1.465648854961832,-0.40234375,-0.245849609375,-0.1767578125,0.6239
1.6488549618320612,1.099236641221374,-1.5725190839694656,-0.39697265625,-0.24560546875,-0.177001953125,0.6255999999999999
1.7557251908396947,0.9465648854961832,-1.282442748091603,-0.396484375,-0.245849609375,-0.173828125,0.6273
1.633587786259542,0.9923664122137404,-1.4045801526717556,-0.4013671875,-0.243408203125,-0.178466796875,0.629
1.816793893129771,0.9770992366412213,-1.3282442748091603,-0.396240234375,-0.249755859375,-0.17822265625,0.6306999999999999
2.1374045801526718,0.8702290076335878,-1.3282442748091603,-0.396240234375,-0.2431640625,-0.179443359375,0.6324
2.2290076335877864,0.9312977099236641,-1.1603053435114503,-0.40087890625,-0.2431640625,-0.175048828125,0.6341
2.2595419847328246,0.9618320610687023,-1.282442748091603,-0.398681640625,-0.243896484375,-0.181396484375,0.6357999999999999
2.4122137404580153,0.9465648854961832,-1.1450381679389312,-0.400634765625,-0.24755859375,-0.17724609375,0.6375
2.427480916030534,0.9312977099236641,-1.3129770992366412,-0.397705078125,-0.246826171875,-0.1767578125,0.6392
2.564885496183206,0.9312977099236641,-1.1297709923664123,-0.400146484375,-0.24560546875,-0.173828125,0.6408999999999999
2.7480916030534353,0.8702290076335878,-1.1145038167938932,-0.3984375,-0.245849609375,-0.177978515625,0.6426
2.732824427480916,0.9465648854961832,-1.2213740458015268,-0.392333984375,-0.24755859375,-0.1767578125,0.6443
2.900763358778626,0.9312977099236641,-1.282442748091603,-0.4013671875,-0.24365234375,-0.181396484375,0.646
3.0381679389312977,0.8549618320610687,-0.9465648854961832,-0.401611328125,-0.24560546875,-0.176025390625,0.6476999999999999
2.8702290076335877,1.0534351145038168,-1.0381679389312977,-0.398193359375,-0.247802734375,-0.172607421875,0.6494
3.053435114503817,1.0534351145038168,-0.9465648854961832,-0.399658203125,-0.25,-0.17431640625,0.6511
2.9770992366412212,1.099236641221374,-1.0076335877862594,-0.3974609375,-0.242919921875,-0.171630859375,0.6527999999999999
3.1755725190839694,1.2366412213740459,-1.0534351145038168,-0.39990234375,-0.243408203125,-0.17138671875,0.6545
3.435114503816794,1.297709923664122,-1.1450381679389312,-0.40087890625,-0.24560546875,-0.1689453125,0.6562
3.312977099236641,1.4198473282442747,-0.8244274809160306,-0.38916015625,-0.248779296875,-0.181396484375,0.6578999999999999
3.1297709923664123,1.3435114503816794,-1.1145038167938932,-0.396240234375,-0.24853515625,-0.180419921875,0.6596
3.068702290076336,1.3740458015267176,-0.9618320610687023,-0.4013671875,-0.2529296875,-0.177978515625,0.6613
3.282442748091603,1.5572519083969465,-0.732824427480916,-0.404052734375,-0.251220703125,-0.179443359375,0.6629999999999999
3.2977099236641223,1.3740458015267176,-0.732824427480916,-0.392822265625,-0.2509765625,-0.181396484375,0.6647
3.2977099236641223,1.3740458015267176,-0.6106870229007634,-0.394775390625,-0.247802734375,-0.175537109375,0.6664
3.282442748091603,1.3435114503816794,-0.5954198473282443,-0.396484375,-0.256591796875,-0.179931640625,0.6680999999999999
3.2977099236641223,1.465648854961832,-0.7480916030534351,-0.3984375,-0.247802734375,-0.174560546875,0.6698
3.1297709923664123,1.3587786259541985,-0.3816793893129771,-0.396240234375,-0.247802734375,-0.17138671875,0.6715
3.3282442748091605,1.3129770992366412,-0.5648854961832062,-0.39892578125,-0.2470703125,-0.181396484375,0.6731999999999999
3.3893129770992365,1.2671755725190839,-0.2595419847328244,-0.400146484375,-0.254150390625,-0.187744140625,0.6748999999999999
3.3435114503816794,1.282442748091603,-0.549618320610687,-0.39892578125,-0.2548828125,-0.183349609375,0.6766
3.053435114503817,1.282442748091603,-0.549618320610687,-0.4013671875,-0.258056640625,-0.176513671875,0.6783
3.2061068702290076,1.1297709923664123,-0.6106870229007634,-0.398681640625,-0.254150390625,-0.1796875,0.6799999999999999
3.0229007633587788,1.2061068702290076,-0.44274809160305345,-0.402587890625,-0.254150390625,-0.182861328125,0.6817
2.854961832061069,1.3435114503816794,-0.732824427480916,-0.393798828125,-0.25634765625,-0.179443359375,0.6834
2.763358778625954,1.1297709923664123,-0.6412213740458015,-0.398193359375,-0.2626953125,-0.1865234375,0.6850999999999999
2.3969465648854964,1.0381679389312977,-0.4122137404580153,-0.40234375,-0.25146484375,-0.185546875,0.6868
2.16793893129771,0.9312977099236641,-0.7633587786259542,-0.39697265625,-0.257080078125,-0.185791015625,0.6885
2.0763358778625953,0.9312977099236641,-0.916030534351145,-0.397216796875,-0.260498046875,-0.187255859375,0.6901999999999999
1.7404580152671756,0.9312977099236641,-0.7022900763358778,-0.398193359375,-0.26220703125,-0.19677734375,0.6919
1.465648854961832,0.7175572519083969,-0.9923664122137404,-0.399658203125,-0.264404296875,-0.1904296875,0.6936
1.251908396946565,0.7786259541984732,-1.0229007633587786,-0.401611328125,-0.25732421875,-0.18701171875,0.6952999999999999
0.732824427480916,0.8396946564885496,-1.2671755725190839,-0.397705078125,-0.2578125,-0.183837890625,0.697
0.42748091603053434,0.732824427480916,-1.2671755725190839,-0.399658203125,-0.252685546875,-0.18408203125,0.6987
0.33587786259541985,0.7786259541984732,-1.618320610687023,-0.395263671875,-0.26025390625,-0.18603515625,0.7003999999999999
0.04580152671755725,0.7480916030534351,-1.7251908396946565,-0.3994140625,-0.258056640625,-0.1826171875,0.7021
-0.24427480916030533,0.7175572519083969,-1.8778625954198473,-0.403076171875,-0.25634765625,-0.184326171875,0.7038
-0.4580152671755725,0.9465648854961832,-1.6793893129770991,-0.398193359375,-0.254638671875,-0.182861328125,0.7055
-0.6259541984732825,1.0229007633587786,-2.0,-0.394775390625,-0.253662109375,-0.183349609375,0.7071999999999999
-0.9312977099236641,1.1145038167938932,-2.0,-0.39404296875,-0.251708984375,-0.185302734375,0.7089
-1.2061068702290076,1.0381679389312977,-1.9541984732824427,-0.399169921875,-0.251220703125,-0.1826171875,0.7106
-1.2213740458015268,1.099236641221374,-1.7557251908396947,-0.39794921875,-0.25,-0.1875,0.7122999999999999
-1.282442748091603,1.0534351145038168,-1.7404580152671756,-0.39794921875,-0.248779296875,-0.181884765625,0.714
-1.3282442748091603,1.0687022900763359,-1.8473282442748091,-0.3974609375,-0.251708984375,-0.1826171875,0.7157
-1.1603053435114503,1.2366412213740459,-1.786259541984733,-0.39453125,-0.249267578125,-0.17431640625,0.7173999999999999
-1.297709923664122,1.297709923664122,-1.7251908396946565,-0.403076171875,-0.246826171875,-0.182861328125,0.7191
-1.2366412213740459,1.1908396946564885,-1.7099236641221374,-0.4013671875,-0.2470703125,-0.180419921875,0.7208
-1.083969465648855,1.1755725190839694,-1.6641221374045803,-0.394775390625,-0.244384765625,-0.183349609375,0.7224999999999999
-0.6870229007633588,1.1755725190839694,-1.6946564885496183,-0.398193359375,-0.248046875,-0.176513671875,0.7242
-0.7633587786259542,1.2366412213740459,-1.3587786259541985,-0.402099609375,-0.24267578125,-0.175048828125,0.7259
-0.5190839694656488,1.0381679389312977,-1.3435114503816794,-0.403076171875,-0.237060546875,-0.18408203125,0.7275999999999999
-0.24427480916030533,1.0076335877862594,-1.4198473282442747,-0.40283203125,-0.242919921875,-0.17626953125,0.7293
0.24427480916030533,1.0381679389312977,-1.2671755725190839,-0.395263671875,-0.2412109375,-0.17333984375,0.731
0.3511450381679389,1.0229007633587786,-1.1145038167938932,-0.400634765625,-0.243408203125,-0.169677734375,0.7326999999999999
0.6106870229007634,0.9312977099236641,-1.0381679389312977,-0.402587890625,-0.24267578125,-0.1640625,0.7343999999999999
0.8854961832061069,1.0076335877862594,-0.8702290076335878,-0.402587890625,-0.23876953125,-0.1767578125,0.7361
0.9923664122137404,1.099236641221374,-0.9770992366412213,-0.403564453125,-0.240478515625,-0.174072265625,0.7378
1.5877862595419847,0.916030534351145,-0.7480916030534351,-0.408935546875,-0.243408203125,-0.177001953125,0.7394999999999999
1.5114503816793894,0.8244274809160306,-0.7480916030534351,-0.398681640625,-0.241455078125,-0.1708984375,0.7412
1.9083969465648856,0.8549618320610687,-0.549618320610687,-0.398193359375,-0.24560546875,-0.168701171875,0.7429
2.030534351145038,0.9465648854961832,-0.4580152671755725,-0.397216796875,-0.24755859375,-0.169921875,0.7445999999999999
2.2290076335877864,0.7175572519083969,-0.44274809160305345,-0.406005859375,-0.245849609375,-0.182373046875,0.7463
2.50381679389313,0.6259541984732825,-0.5038167938931297,-0.404296875,-0.24365234375,-0.178955078125,0.748
2.595419847328244,0.7022900763358778,-0.5954198473282443,-0.404296875,-0.242431640625,-0.1826171875,0.7496999999999999
2.6106870229007635,0.6717557251908397,-0.6564885496183206,-0.406005859375,-0.248291015625,-0.177490234375,0.7514
2.519083969465649,0.5343511450381679,-0.5801526717557252,-0.40283203125,-0.24658203125,-0.189453125,0.7531
2.687022900763359,0.5190839694656488,-0.5343511450381679,-0.405029296875,-0.24609375,-0.1865234375,0.7547999999999999
2.519083969465649,0.5648854961832062,-0.5801526717557252,-0.404052734375,-0.241455078125,-0.182861328125,0.7565
2.6106870229007635,0.6259541984732825,-0.6564885496183206,-0.401611328125,-0.2470703125,-0.1806640625,0.7582
2.4580152671755724,0.5801526717557252,-0.5648854961832062,-0.40380859375,-0.248291015625,-0.1826171875,0.7598999999999999
2.717557251908397,0.6870229007633588,-0.6717557251908397,-0.40185546875,-0.245849609375,-0.18310546875,0.7615999999999999
2.4732824427480917,0.6412213740458015,-0.7022900763358778,-0.40234375,-0.24658203125,-0.171142578125,0.7633
2.2290076335877864,0.7938931297709924,-0.6106870229007634,-0.40380859375,-0.2490234375,-0.171630859375,0.7649999999999999
2.2290076335877864,0.732824427480916,-0.6717557251908397,-0.403076171875,-0.2490234375,-0.177490234375,0.7666999999999999
2.33587786259542,0.9618320610687023,-0.6870229007633588,-0.40185546875,-0.250732421875,-0.17724609375,0.7684
2.1068702290076335,0.916030534351145,-0.7480916030534351,-0.39990234375,-0.247314453125,-0.180419921875,0.7701
2.030534351145038,0.9007633587786259,-0.6259541984732825,-0.400634765625,-0.249267578125,-0.185546875,0.7717999999999999
2.0,0.8091603053435115,-0.7480916030534351,-0.399658203125,-0.249267578125,-0.18359375,0.7735
1.9083969465648856,0.9923664122137404,-0.7786259541984732,-0.399658203125,-0.24951171875,-0.1865234375,0.7752
2.1068702290076335,0.9770992366412213,-0.8854961832061069,-0.406005859375,-0.251220703125,-0.184814453125,0.7768999999999999
2.045801526717557,1.0229007633587786,-0.9465648854961832,-0.39794921875,-0.255126953125,-0.178955078125,0.7786
1.7557251908396947,1.083969465648855,-0.9923664122137404,-0.40185546875,-0.250732421875,-0.1845703125,0.7803
1.633587786259542,1.0229007633587786,-1.0534351145038168,-0.3955078125,-0.251708984375,-0.181884765625,0.7819999999999999
1.297709923664122,1.1450381679389312,-1.0534351145038168,-0.3974609375,-0.252197265625,-0.18017578125,0.7837
1.099236641221374,0.916030534351145,-1.282442748091603,-0.3974609375,-0.25146484375,-0.185791015625,0.7854
0.8244274809160306,1.0229007633587786,-1.251908396946565,-0.402587890625,-0.250244140625,-0.181884765625,0.7870999999999999
0.8854961832061069,1.0687022900763359,-1.3587786259541985,-0.395751953125,-0.25830078125,-0.181884765625,0.7888
0.732824427480916,0.7633587786259542,-1.5114503816793894,-0.3935546875,-0.2509765625,-0.18212890625,0.7905
0.15267175572519084,0.8091603053435115,-1.4961832061068703,-0.39990234375,-0.250244140625,-0.171142578125,0.7921999999999999
0.32061068702290074,0.9312977099236641,-1.5267175572519085,-0.395263671875,-0.249755859375,-0.167236328125,0.7938999999999999
0.44274809160305345,0.8091603053435115,-1.4045801526717556,-0.39697265625,-0.251708984375,-0.182861328125,0.7956
0.0916030534351145,0.7938931297709924,-1.6946564885496183,-0.39892578125,-0.248291015625,-0.183349609375,0.7973
0.12213740458015267,0.7633587786259542,-1.816793893129771,-0.39599609375,-0.2490234375,-0.1845703125,0.7989999999999999
0.12213740458015267,0.8091603053435115,-1.786259541984733,-0.3984375,-0.253662109375,-0.18310546875,0.8007
-0.13740458015267176,0.7938931297709924,-1.9236641221374047,-0.401611328125,-0.255615234375,-0.184814453125,0.8024
-0.0916030534351145,0.916030534351145,-2.030534351145038,-0.40234375,-0.249755859375,-0.187255859375,0.8040999999999999
-0.12213740458015267,0.7938931297709924,-1.9389312977099236,-0.404052734375,-0.251220703125,-0.18408203125,0.8058
-0.07633587786259542,0.8549618320610687,-2.0610687022900764,-0.399658203125,-0.25390625,-0.185546875,0.8075
-0.3511450381679389,1.099236641221374,-1.9541984732824427,-0.400146484375,-0.24560546875,-0.18310546875,0.8091999999999999
0.030534351145038167,0.8702290076335878,-2.0763358778625953,-0.400634765625,-0.248779296875,-0.189697265625,0.8109
0.030534351145038167,0.7786259541984732,-2.183206106870229,-0.400390625,-0.246826171875,-0.182373046875,0.8126
0.1984732824427481,1.0229007633587786,-2.045801526717557,-0.401123046875,-0.245361328125,-0.176513671875,0.8142999999999999
0.061068702290076333,1.0687022900763359,-2.1068702290076335,-0.403076171875,-0.24609375,-0.1826171875,0.816
0.24427480916030533,1.3435114503816794,-2.213740458015267,-0.400634765625,-0.24560546875,-0.186767578125,0.8177
0.07633587786259542,1.3740458015267176,-2.183206106870229,-0.403564453125,-0.24560546875,-0.176513671875,0.8193999999999999
-0.0916030534351145,1.1908396946564885,-2.1068702290076335,-0.402587890625,-0.24853515625,-0.18603515625,0.8210999999999999
0.10687022900763359,1.1450381679389312,-1.9236641221374047,-0.398681640625,-0.249267578125,-0.1845703125,0.8228
0.16793893129770993,1.3740458015267176,-1.7251908396946565,-0.39990234375,-0.24853515625,-0.186767578125,0.8244999999999999
-0.07633587786259542,1.3740458015267176,-2.015267175572519,-0.40234375,-0.2451171875,-0.1845703125,0.8261999999999999
-0.07633587786259542,1.1755725190839694,-2.0763358778625953,-0.40625,-0.24609375,-0.17822265625,0.8279
0.0,1.251908396946565,-1.8931297709923665,-0.39892578125,-0.24365234375,-0.185302734375,0.8296
0.061068702290076333,1.3587786259541985,-1.7557251908396947,-0.40625,-0.24267578125,-0.17822265625,0.8312999999999999
-0.13740458015267176,1.4961832061068703,-1.7557251908396947,-0.406005859375,-0.24609375,-0.17919921875,0.833
-0.15267175572519084,1.2366412213740459,-1.7251908396946565,-0.405029296875,-0.2470703125,-0.1796875,0.8347
0.07633587786259542,1.1145038167938932,-1.6946564885496183,-0.40625,-0.23974609375,-0.170166015625,0.8363999999999999
0.21374045801526717,1.2366412213740459,-1.6030534351145038,-0.402587890625,-0.2431640625,-0.170654296875,0.8381
0.2900763358778626,0.9770992366412213,-1.4198473282442747,-0.4033203125,-0.239013671875,-0.1806640625,0.8398
0.2595419847328244,0.9923664122137404,-1.4961832061068703,-0.40869140625,-0.242919921875,-0.1708984375,0.8414999999999999
0.3816793893129771,1.0076335877862594,-1.450381679389313,-0.397216796875,-0.2421875,-0.177490234375,0.8432
0.5954198473282443,0.8549618320610687,-1.4351145038167938,-0.405517578125,-0.239990234375,-0.173828125,0.8449
0.9007633587786259,0.7633587786259542,-1.297709923664122,-0.40234375,-0.245849609375,-0.17041015625,0.8465999999999999
0.9770992366412213,0.8091603053435115,-1.3435114503816794,-0.403076171875,-0.24365234375,-0.18603515625,0.8482999999999999
1.0687022900763359,0.8244274809160306,-1.0687022900763359,-0.40283203125,-0.2431640625,-0.180908203125,0.85
1.099236641221374,0.8244274809160306,-1.2366412213740459,-0.397216796875,-0.243408203125,-0.176025390625,0.8516999999999999
1.618320610687023,0.7480916030534351,-1.282442748091603,-0.3974609375,-0.24267578125,-0.17138671875,0.8533999999999999
1.7099236641221374,0.732824427480916,-1.1755725190839694,-0.397705078125,-0.24609375,-0.176025390625,0.8551
2.0916030534351147,0.6106870229007634,-1.4198473282442747,-0.400634765625,-0.240478515625,-0.185546875,0.8568
2.015267175572519,0.6106870229007634,-1.3282442748091603,-0.40283203125,-0.245849609375,-0.174072265625,0.8584999999999999
2.030534351145038,0.48854961832061067,-1.1450381679389312,-0.3974609375,-0.2421875,-0.17626953125,0.8602
2.366412213740458,0.6564885496183206,-1.3435114503816794,-0.39990234375,-0.2392578125,-0.176025390625,0.8619
2.4122137404580153,0.8091603053435115,-1.2671755725190839,-0.397705078125,-0.2470703125,-0.185302734375,0.8635999999999999
2.4122137404580153,0.7480916030534351,-1.1755725190839694,-0.400146484375,-0.244384765625,-0.177001953125,0.8653
2.717557251908397,0.8549618320610687,-1.2366412213740459,-0.397705078125,-0.24658203125,-0.177734375,0.867
2.595419847328244,0.7022900763358778,-1.2061068702290076,-0.4033203125,-0.247314453125,-0.178955078125,0.8686999999999999
2.366412213740458,0.916030534351145,-1.2213740458015268,-0.39794921875,-0.244384765625,-0.17919921875,0.8704
2.4885496183206106,0.8549618320610687,-1.1603053435114503,-0.39892578125,-0.247802734375,-0.18115234375,0.8721
2.4427480916030535,0.8549618320610687,-1.2061068702290076,-0.4052734375,-0.2509765625,-0.181396484375,0.8737999999999999
2.5343511450381677,0.8549618320610687,-1.3587786259541985,-0.400390625,-0.2431640625,-0.187744140625,0.8755
2.33587786259542,1.0229007633587786,-1.2366412213740459,-0.400146484375,-0.246337890625,-0.18212890625,0.8772
2.3206106870229006,1.0381679389312977,-1.1145038167938932,-0.400390625,-0.24951171875,-0.1787109375,0.8788999999999999
2.0916030534351147,0.9923664122137404,-1.099236641221374,-0.395751953125,-0.24072265625,-0.185302734375,0.8805999999999999
2.2748091603053435,1.1755725190839694,-1.2213740458015268,-0.40185546875,-0.24755859375,-0.18701171875,0.8823
2.4580152671755724,1.083969465648855,-1.099236641221374,-0.40625,-0.249755859375,-0.185791015625,0.8839999999999999
2.4427480916030535,1.0687022900763359,-1.2366412213740459,-0.4033203125,-0.249755859375,-0.179931640625,0.8856999999999999
2.213740458015267,1.1755725190839694,-1.0076335877862594,-0.40380859375,-0.25244140625,-0.17822265625,0.8874
2.3969465648854964,1.251908396946565,-1.3893129770992367,-0.405029296875,-0.25146484375,-0.1865234375,0.8891
2.427480916030534,1.2366412213740459,-1.450381679389313,-0.39990234375,-0.2470703125,-0.17822265625,0.8907999999999999
2.6106870229007635,1.3282442748091603,-1.5267175572519085,-0.39990234375,-0.252197265625,-0.18310546875,0.8925
2.6717557251908395,1.3129770992366412,-1.4351145038167938,-0.404541015625,-0.248291015625,-0.181396484375,0.8942
2.427480916030534,1.3740458015267176,-1.5267175572519085,-0.4013671875,-0.25537109375,-0.186767578125,0.8958999999999999
2.4885496183206106,1.3435114503816794,-1.5419847328244274,-0.4072265625,-0.256591796875,-0.182373046875,0.8976
2.2595419847328246,1.5267175572519085,-1.5572519083969465,-0.400390625,-0.25146484375,-0.18212890625,0.8993
2.3053435114503817,1.450381679389313,-1.5877862595419847,-0.4033203125,-0.24951171875,-0.181884765625,0.9009999999999999
2.2748091603053435,1.5267175572519085,-1.6488549618320612,-0.396240234375,-0.257568359375,-0.18701171875,0.9027
2.33587786259542,1.618320610687023,-1.450381679389313,-0.404052734375,-0.25732421875,-0.19189453125,0.9044
2.1526717557251906,1.4961832061068703,-1.8625954198473282,-0.399658203125,-0.25634765625,-0.1904296875,0.9060999999999999
1.9389312977099236,1.6641221374045803,-1.6641221374045803,-0.40283203125,-0.2548828125,-0.18994140625,0.9077999999999999
1.984732824427481,1.7404580152671756,-1.6641221374045803,-0.398681640625,-0.249267578125,-0.182373046875,0.9095
1.4961832061068703,1.5114503816793894,-1.7557251908396947,-0.400390625,-0.253173828125,-0.187255859375,0.9111999999999999
1.4045801526717556,1.633587786259542,-1.9389312977099236,-0.39404296875,-0.2548828125,-0.18798828125,0.9128999999999999
1.5725190839694656,1.8778625954198473,-1.6488549618320612,-0.405517578125,-0.255859375,-0.181884765625,0.9146
1.297709923664122,1.618320610687023,-1.6793893129770991,-0.4013671875,-0.253662109375,-0.193115234375,0.9163
1.0687022900763359,1.450381679389313,-1.7404580152671756,-0.399169921875,-0.253662109375,-0.1845703125,0.9179999999999999
0.8702290076335878,1.3893129770992367,-1.786259541984733,-0.400634765625,-0.2548828125,-0.18017578125,0.9197
0.6412213740458015,1.450381679389313,-1.7557251908396947,-0.399169921875,-0.2548828125,-0.191650390625,0.9214
0.7175572519083969,1.450381679389313,-1.9389312977099236,-0.398681640625,-0.255859375,-0.18310546875,0.9230999999999999
0.6259541984732825,1.2671755725190839,-1.7251908396946565,-0.396484375,-0.255126953125,-0.184326171875,0.9248
0.42748091603053434,1.099236641221374,-2.015267175572519,-0.403076171875,-0.252685546875,-0.188232421875,0.9265
0.5038167938931297,1.2061068702290076,-1.7557251908396947,-0.40673828125,-0.25537109375,-0.19140625,0.9281999999999999
0.4732824427480916,1.1908396946564885,-1.8473282442748091,-0.399658203125,-0.250732421875,-0.17919921875,0.9299
0.3053435114503817,1.099236641221374,-1.83206106870229,-0.401611328125,-0.251708984375,-0.188232421875,0.9316
0.2900763358778626,1.1450381679389312,-2.0,-0.3994140625,-0.247802734375,-0.19091796875,0.9332999999999999
0.3816793893129771,1.0229007633587786,-1.8473282442748091,-0.400634765625,-0.254638671875,-0.180419921875,0.9349999999999999
0.366412213740458,1.1603053435114503,-2.0916030534351147,-0.395751953125,-0.25048828125,-0.18017578125,0.9367
0.2595419847328244,1.2061068702290076,-1.8931297709923665,-0.3974609375,-0.250244140625,-0.177001953125,0.9383999999999999
0.42748091603053434,1.3129770992366412,-1.8931297709923665,-0.398681640625,-0.249755859375,-0.184326171875,0.9400999999999999
0.6106870229007634,1.0687022900763359,-1.8625954198473282,-0.395263671875,-0.249755859375,-0.172607421875,0.9418
0.6717557251908397,1.0687022900763359,-1.9541984732824427,-0.390869140625,-0.2470703125,-0.177734375,0.9434999999999999
0.916030534351145,1.1450381679389312,-1.8015267175572518,-0.3935546875,-0.249755859375,-0.18212890625,0.9451999999999999
1.083969465648855,0.9618320610687023,-2.045801526717557,-0.397216796875,-0.245361328125,-0.176025390625,0.9469
1.1450381679389312,0.9312977099236641,-1.816793893129771,-0.395751953125,-0.24365234375,-0.179931640625,0.9486
1.2061068702290076,0.9618320610687023,-1.8931297709923665,-0.395263671875,-0.248046875,-0.18408203125,0.9502999999999999
1.4961832061068703,0.8702290076335878,-1.9236641221374047,-0.400390625,-0.25048828125,-0.185791015625,0.952
1.5114503816793894,0.9007633587786259,-1.9541984732824427,-0.405517578125,-0.246337890625,-0.17431640625,0.9537
1.5725190839694656,0.916030534351145,-1.8931297709923665,-0.40234375,-0.247802734375,-0.1767578125,0.9553999999999999
1.450381679389313,0.7938931297709924,-1.8473282442748091,-0.404541015625,-0.24365234375,-0.18359375,0.9571
1.633587786259542,0.8549618320610687,-1.465648854961832,-0.395263671875,-0.241943359375,-0.186767578125,0.9588
1.6793893129770991,0.916030534351145,-1.3435114503816794,-0.40087890625,-0.2392578125,-0.174560546875,0.9604999999999999
1.7099236641221374,0.916030534351145,-1.282442748091603,-0.39892578125,-0.2421875,-0.177978515625,0.9621999999999999
1.6488549618320612,0.9465648854961832,-1.3893129770992367,-0.402587890625,-0.242919921875,-0.170654296875,0.9639
1.6488549618320612,0.9618320610687023,-0.9770992366412213,-0.399658203125,-0.24169921875,-0.18603515625,0.9655999999999999
1.633587786259542,1.2213740458015268,-0.9312977099236641,-0.39892578125,-0.245361328125,-0.177490234375,0.9672999999999999
1.5114503816793894,0.916030534351145,-0.916030534351145,-0.400146484375,-0.239990234375,-0.180419921875,0.969
1.8473282442748091,1.1908396946564885,-0.8854961832061069,-0.400634765625,-0.23828125,-0.174560546875,0.9706999999999999
1.8931297709923665,0.9923664122137404,-0.9923664122137404,-0.401611328125,-0.24755859375,-0.174560546875,0.9723999999999999
2.122137404580153,1.0687022900763359,-0.9312977099236641,-0.40380859375,-0.24609375,-0.179443359375,0.9741
2.1068702290076335,0.9770992366412213,-0.7633587786259542,-0.39697265625,-0.248046875,-0.17529296875,0.9758
2.2595419847328246,1.1908396946564885,-0.8702290076335878,-0.404296875,-0.243408203125,-0.178466796875,0.9774999999999999
2.198473282442748,1.2213740458015268,-0.8549618320610687,-0.394775390625,-0.244384765625,-0.177978515625,0.9792
2.5343511450381677,0.8702290076335878,-0.8396946564885496,-0.401123046875,-0.247314453125,-0.177978515625,0.9809
2.7480916030534353,0.9465648854961832,-0.6870229007633588,-0.399169921875,-0.2470703125,-0.178955078125,0.9825999999999999
2.931297709923664,0.9923664122137404,-0.7633587786259542,-0.396728515625,-0.250732421875,-0.1796875,0.9843
2.854961832061069,0.8091603053435115,-0.8244274809160306,-0.401123046875,-0.24560546875,-0.177001953125,0.986
3.099236641221374,0.6412213740458015,-0.732824427480916,-0.397216796875,-0.24658203125,-0.18505859375,0.9876999999999999
3.1908396946564888,0.6870229007633588,-0.732824427480916,-0.3984375,-0.248046875,-0.1796875,0.9894
3.1297709923664123,0.7480916030534351,-0.8549618320610687,-0.39990234375,-0.244140625,-0.1806640625,0.9911
2.9770992366412212,0.7633587786259542,-0.732824427480916,-0.40625,-0.244873046875,-0.17919921875,0.9927999999999999
3.114503816793893,0.6564885496183206,-0.8702290076335878,-0.402099609375,-0.250244140625,-0.185302734375,0.9944999999999999
3.1755725190839694,0.6259541984732825,-0.8091603053435115,-0.40478515625,-0.247802734375,-0.1806640625,0.9962
2.7786259541984735,0.8396946564885496,-0.7480916030534351,-0.40087890625,-0.251220703125,-0.185791015625,0.9978999999999999
2.7786259541984735,0.8549618320610687,-0.9007633587786259,-0.40234375,-0.246337890625,-0.178955078125,0.9995999999999999
2.763358778625954,0.9770992366412213,-1.083969465648855,-0.397705078125,-0.245361328125,-0.181884765625,1.0012999999999999
2.351145038167939,1.0687022900763359,-1.0687022900763359,-0.40185546875,-0.252197265625,-0.185302734375,1.003
2.381679389312977,1.2061068702290076,-1.1450381679389312,-0.398681640625,-0.248291015625,-0.185791015625,1.0047
2.198473282442748,1.1908396946564885,-1.083969465648855,-0.404541015625,-0.250732421875,-0.190673828125,1.0064
2.030534351145038,1.4351145038167938,-1.282442748091603,-0.399169921875,-0.252685546875,-0.185546875,1.0081
2.1526717557251906,1.465648854961832,-1.099236641221374,-0.399169921875,-0.249755859375,-0.1826171875,1.0098
2.1068702290076335,1.4961832061068703,-1.251908396946565,-0.3984375,-0.25732421875,-0.182373046875,1.0114999999999998
1.8778625954198473,1.4198473282442747,-1.2061068702290076,-0.403564453125,-0.248291015625,-0.187255859375,1.0131999999999999
1.984732824427481,1.6488549618320612,-1.282442748091603,-0.400634765625,-0.25390625,-0.17822265625,1.0149
2.0610687022900764,1.5114503816793894,-1.297709923664122,-0.400634765625,-0.257568359375,-0.17724609375,1.0166
1.8625954198473282,1.4961832061068703,-1.2213740458015268,-0.401611328125,-0.25439453125,-0.18310546875,1.0183
1.8473282442748091,1.3740458015267176,-1.3740458015267176,-0.401123046875,-0.254638671875,-0.1826171875,1.02
1.8931297709923665,1.465648854961832,-1.4809160305343512,-0.39892578125,-0.25537109375,-0.179443359375,1.0217
2.0,1.4961832061068703,-1.4198473282442747,-0.398681640625,-0.254150390625,-0.17626953125,1.0233999999999999
1.9083969465648856,1.7557251908396947,-1.5725190839694656,-0.399658203125,-0.25048828125,-0.181396484375,1.0251
2.0,1.6641221374045803,-1.6641221374045803,-0.39599609375,-0.25244140625,-0.181884765625,1.0268
1.8778625954198473,1.7099236641221374,-1.5419847328244274,-0.399169921875,-0.2548828125,-0.183349609375,1.0285
1.816793893129771,1.6488549618320612,-1.7099236641221374,-0.40380859375,-0.245361328125,-0.189208984375,1.0302
1.6946564885496183,1.5419847328244274,-1.8625954198473282,-0.400390625,-0.248291015625,-0.178466796875,1.0319
1.7557251908396947,1.7404580152671756,-1.7099236641221374,-0.39990234375,-0.2470703125,-0.186279296875,1.0335999999999999
1.6793893129770991,1.8931297709923665,-1.7557251908396947,-0.40185546875,-0.247802734375,-0.182861328125,1.0352999999999999
1.3740458015267176,1.83206106870229,-1.8931297709923665,-0.40087890625,-0.249267578125,-0.186279296875,1.037
1.6641221374045803,1.5877862595419847,-1.9389312977099236,-0.396484375,-0.24560546875,-0.18310546875,1.0387
1.7404580152671756,1.7251908396946565,-1.9694656488549618,-0.399658203125,-0.24658203125,-0.1845703125,1.0404
1.3282442748091603,1.4045801526717556,-1.7557251908396947,-0.40478515625,-0.247802734375,-0.176025390625,1.0421
1.3587786259541985,1.6030534351145038,-1.9236641221374047,-0.396240234375,-0.252197265625,-0.181640625,1.0437999999999998
1.3740458015267176,1.6793893129770991,-2.0,-0.396240234375,-0.248779296875,-0.17578125,1.0454999999999999
1.3129770992366412,1.5419847328244274,-1.7404580152671756,-0.39697265625,-0.248046875,-0.188720703125,1.0472
1.3435114503816794,1.6946564885496183,-1.9236641221374047,-0.397216796875,-0.24658203125,-0.1865234375,1.0489
1.6030534351145038,1.7557251908396947,-1.9541984732824427,-0.401611328125,-0.244873046875,-0.18603515625,1.0506
1.5419847328244274,1.4809160305343512,-1.786259541984733,-0.4013671875,-0.245361328125,-0.181884765625,1.0523
1.3893129770992367,1.4351145038167938,-1.9541984732824427,-0.402587890625,-0.25146484375,-0.171142578125,1.054
1.4961832061068703,1.5114503816793894,-1.8931297709923665,-0.40234375,-0.244873046875,-0.17333984375,1.0556999999999999
1.5725190839694656,1.3282442748091603,-1.618320610687023,-0.396484375,-0.244873046875,-0.17236328125,1.0574
1.5114503816793894,1.4351145038167938,-1.7404580152671756,-0.394287109375,-0.2431640625,-0.181640625,1.0591
1.7251908396946565,1.3282442748091603,-1.7709923664122138,-0.3955078125,-0.245361328125,-0.171630859375,1.0608
1.6641221374045803,1.3282442748091603,-1.5572519083969465,-0.3955078125,-0.24658203125,-0.17529296875,1.0625
1.5877862595419847,1.3435114503816794,-1.450381679389313,-0.39990234375,-0.246826171875,-0.1767578125,1.0642
1.9694656488549618,1.3740458015267176,-1.5419847328244274,-0.399658203125,-0.24609375,-0.175048828125,1.0658999999999998
2.0,1.4198473282442747,-1.450381679389313,-0.399658203125,-0.243408203125,-0.175048828125,1.0675999999999999
1.8778625954198473,1.0229007633587786,-1.5114503816793894,-0.396240234375,-0.247802734375,-0.1669921875,1.0693
1.7709923664122138,1.1603053435114503,-1.465648854961832,-0.39501953125,-0.246337890625,-0.18359375,1.071
1.8015267175572518,0.9618320610687023,-1.4045801526717556,-0.3974609375,-0.248779296875,-0.1806640625,1.0727
2.030534351145038,1.0229007633587786,-1.3129770992366412,-0.400634765625,-0.248291015625,-0.173583984375,1.0744
2.0610687022900764,0.9465648854961832,-1.3282442748091603,-0.39892578125,-0.245361328125,-0.175048828125,1.0760999999999998
1.984732824427481,1.1297709923664123,-1.450381679389313,-0.399169921875,-0.2490234375,-0.1787109375,1.0777999999999999
2.2290076335877864,1.0076335877862594,-1.3435114503816794,-0.401123046875,-0.24755859375,-0.181884765625,1.0795
1.9541984732824427,0.9007633587786259,-1.297709923664122,-0.3974609375,-0.246337890625,-0.1748046875,1.0812
1.9389312977099236,0.8549618320610687,-1.2671755725190839,-0.39990234375,-0.24560546875,-0.18017578125,1.0829
2.030534351145038,0.732824427480916,-1.1908396946564885,-0.395263671875,-0.24755859375,-0.1787109375,1.0846
2.122137404580153,0.7633587786259542,-1.1908396946564885,-0.396240234375,-0.24853515625,-0.179931640625,1.0863
2.122137404580153,0.7022900763358778,-1.1755725190839694,-0.402099609375,-0.246826171875,-0.17138671875,1.0879999999999999
2.351145038167939,0.5954198473282443,-1.251908396946565,-0.40185546875,-0.255615234375,-0.177490234375,1.0897
2.4122137404580153,0.5954198473282443,-1.2061068702290076,-0.397705078125,-0.247314453125,-0.179443359375,1.0914
2.2748091603053435,0.5343511450381679,-1.3893129770992367,-0.398681640625,-0.25146484375,-0.175048828125,1.0931
2.4885496183206106,0.4732824427480916,-1.3435114503816794,-0.39501953125,-0.24365234375,-0.192138671875,1.0948
2.122137404580153,0.6106870229007634,-1.297709923664122,-0.396240234375,-0.24365234375,-0.184326171875,1.0965
2.015267175572519,0.6717557251908397,-1.3893129770992367,-0.400146484375,-0.249267578125,-0.182861328125,1.0981999999999998
2.015267175572519,0.48854961832061067,-1.2366412213740459,-0.397216796875,-0.248046875,-0.176513671875,1.0998999999999999
1.8931297709923665,0.6564885496183206,-1.3435114503816794,-0.399169921875,-0.250732421875,-0.185302734375,1.1016
1.83206106870229,0.5190839694656488,-1.4351145038167938,-0.397705078125,-0.25244140625,-0.18603515625,1.1033
1.9236641221374047,0.5038167938931297,-1.450381679389313,-0.402099609375,-0.25244140625,-0.18017578125,1.105
1.618320610687023,0.7480916030534351,-1.4351145038167938,-0.4013671875,-0.247314453125,-0.180908203125,1.1067
1.6488549618320612,0.6717557251908397,-1.4961832061068703,-0.393798828125,-0.252685546875,-0.186279296875,1.1083999999999998
1.6030534351145038,0.8396946564885496,-1.2213740458015268,-0.393310546875,-0.2509765625,-0.182861328125,1.1100999999999999
1.5114503816793894,1.0229007633587786,-1.5877862595419847,-0.395751953125,-0.24755859375,-0.18310546875,1.1118
1.7709923664122138,0.9465648854961832,-1.5572519083969465,-0.400390625,-0.255126953125,-0.18017578125,1.1135
1.5877862595419847,0.8702290076335878,-1.5114503816793894,-0.39990234375,-0.251953125,-0.182861328125,1.1152
1.4809160305343512,0.8244274809160306,-1.4809160305343512,-0.3984375,-0.251953125,-0.1826171875,1.1169
1.4198473282442747,0.8854961832061069,-1.6793893129770991,-0.39599609375,-0.25048828125,-0.182861328125,1.1186
1.6030534351145038,1.0076335877862594,-1.4961832061068703,-0.397216796875,-0.2548828125,-0.18359375,1.1202999999999999
1.7404580152671756,0.9770992366412213,-1.465648854961832,-0.4013671875,-0.250244140625,-0.190185546875,1.1219999999999999
1.6946564885496183,0.8549618320610687,-1.618320610687023,-0.40087890625,-0.254638671875,-0.185302734375,1.1237
1.8931297709923665,0.7480916030534351,-1.5572519083969465,-0.401611328125,-0.251953125,-0.185302734375,1.1254
1.7099236641221374,0.8854961832061069,-1.4351145038167938,-0.399169921875,-0.250244140625,-0.1806640625,1.1271
1.4961832061068703,0.7633587786259542,-1.6030534351145038,-0.404296875,-0.255126953125,-0.185546875,1.1288
1.3740458015267176,0.6870229007633588,-1.6641221374045803,-0.393310546875,-0.2548828125,-0.178955078125,1.1304999999999998
1.3893129770992367,0.7022900763358778,-1.786259541984733,-0.400634765625,-0.252685546875,-0.177734375,1.1321999999999999
1.4045801526717556,0.6717557251908397,-1.5114503816793894,-0.40625,-0.25244140625,-0.17431640625,1.1339
1.2671755725190839,0.6717557251908397,-1.7099236641221374,-0.39990234375,-0.248046875,-0.1796875,1.1356
1.099236641221374,0.7786259541984732,-1.5572519083969465,-0.404541015625,-0.250244140625,-0.180908203125,1.1373
0.9770992366412213,0.7022900763358778,-1.6946564885496183,-0.3955078125,-0.253173828125,-0.17919921875,1.139
0.7938931297709924,0.8396946564885496,-1.7099236641221374,-0.4013671875,-0.2548828125,-0.185546875,1.1407
0.6717557251908397,0.7480916030534351,-1.786259541984733,-0.409912109375,-0.25146484375,-0.18310546875,1.1423999999999999
0.8396946564885496,0.7175572519083969,-1.786259541984733,-0.402099609375,-0.25146484375,-0.179443359375,1.1441
0.8091603053435115,0.8549618320610687,-1.7709923664122138,-0.39599609375,-0.25146484375,-0.17626953125,1.1458
0.6106870229007634,0.9770992366412213,-1.8778625954198473,-0.39990234375,-0.2529296875,-0.181396484375,1.1475
0.5190839694656488,0.7938931297709924,-1.9083969465648856,-0.401611328125,-0.251953125,-0.185546875,1.1492
0.6564885496183206,0.8396946564885496,-1.816793893129771,-0.403564453125,-0.251953125,-0.188232421875,1.1509
0.6412213740458015,0.6717557251908397,-1.8625954198473282,-0.40185546875,-0.2529296875,-0.182861328125,1.1525999999999998
0.4580152671755725,0.8244274809160306,-1.8625954198473282,-0.3955078125,-0.2548828125,-0.17578125,1.1542999999999999
0.6259541984732825,0.8091603053435115,-1.7709923664122138,-0.396484375,-0.2509765625,-0.181884765625,1.156
0.8702290076335878,0.6564885496183206,-1.83206106870229,-0.39697265625,-0.248779296875,-0.176513671875,1.1577
0.6717557251908397,0.4732824427480916,-2.030534351145038,-0.391845703125,-0.249755859375,-0.185302734375,1.1594
0.8549618320610687,0.5190839694656488,-1.6793893129770991,-0.397216796875,-0.24951171875,-0.17626953125,1.1611
0.6717557251908397,0.6412213740458015,-1.8015267175572518,-0.398193359375,-0.247802734375,-0.183837890625,1.1627999999999998
1.099236641221374,0.3816793893129771,-1.7099236641221374,-0.396484375,-0.2451171875,-0.180908203125,1.1644999999999999
1.099236641221374,0.5954198473282443,-1.6793893129770991,-0.397216796875,-0.246337890625,-0.177001953125,1.1662
0.916030534351145,0.5954198473282443,-1.6030534351145038,-0.401123046875,-0.248046875,-0.178955078125,1.1679
1.251908396946565,0.5648854961832062,-1.9236641221374047,-0.40380859375,-0.25048828125,-0.181396484375,1.1696
1.099236641221374,0.42748091603053434,-1.7099236641221374,-0.3984375,-0.251953125,-0.178466796875,1.1713
1.3129770992366412,0.32061068702290074,-1.786259541984733,-0.397216796875,-0.249755859375,-0.181396484375,1.173
1.2366412213740459,0.32061068702290074,-1.618320610687023,-0.399658203125,-0.2470703125,-0.177001953125,1.1746999999999999
1.3435114503816794,0.42748091603053434,-1.6946564885496183,-0.403076171875,-0.242431640625,-0.17578125,1.1764
1.5114503816793894,0.4580152671755725,-1.5877862595419847,-0.40234375,-0.2431640625,-0.1796875,1.1781
1.4961832061068703,0.3816793893129771,-1.5725190839694656,-0.398681640625,-0.2412109375,-0.178955078125,1.1798
1.282442748091603,0.5038167938931297,-1.450381679389313,-0.4013671875,-0.24267578125,-0.1806640625,1.1815
1.618320610687023,0.732824427480916,-1.5267175572519085,-0.40234375,-0.2431640625,-0.181396484375,1.1832
1.83206106870229,0.5648854961832062,-1.3587786259541985,-0.401123046875,-0.24560546875,-0.1806640625,1.1848999999999998
1.9236641221374047,0.5954198473282443,-1.4045801526717556,-0.40185546875,-0.2451171875,-0.17822265625,1.1865999999999999
1.6793893129770991,0.5038167938931297,-1.2366412213740459,-0.400146484375,-0.24658203125,-0.17724609375,1.1883
2.015267175572519,0.6717557251908397,-1.3740458015267176,-0.39501953125,-0.249755859375,-0.18115234375,1.19
2.0610687022900764,0.6412213740458015,-1.099236641221374,-0.39208984375,-0.246337890625,-0.173583984375,1.1917
2.045801526717557,0.5648854961832062,-1.2671755725190839,-0.3994140625,-0.248779296875,-0.174560546875,1.1934
2.2290076335877864,0.549618320610687,-1.1603053435114503,-0.396240234375,-0.239013671875,-0.176513671875,1.1950999999999998
2.2900763358778624,0.5801526717557252,-1.2366412213740459,-0.398193359375,-0.244873046875,-0.171142578125,1.1967999999999999
2.3053435114503817,0.6870229007633588,-1.0687022900763359,-0.39892578125,-0.24560546875,-0.177490234375,1.1985
2.4122137404580153,0.732824427480916,-1.1755725190839694,-0.401611328125,-0.244384765625,-0.177490234375,1.2002
2.732824427480916,0.7480916030534351,-1.0381679389312977,-0.40185546875,-0.244873046875,-0.1767578125,1.2019
2.6259541984732824,0.6106870229007634,-1.1603053435114503,-0.390380859375,-0.241455078125,-0.177978515625,1.2036
2.4427480916030535,0.6412213740458015,-1.0076335877862594,-0.397705078125,-0.2470703125,-0.1767578125,1.2053
2.595419847328244,0.732824427480916,-1.1450381679389312,-0.40283203125,-0.24560546875,-0.179931640625,1.2069999999999999
2.687022900763359,0.5190839694656488,-0.9770992366412213,-0.3984375,-0.2509765625,-0.177490234375,1.2086999999999999
2.6259541984732824,0.7938931297709924,-0.9923664122137404,-0.39697265625,-0.249267578125,-0.16748046875,1.2104
2.366412213740458,0.5954198473282443,-0.7175572519083969,-0.3974609375,-0.2529296875,-0.185302734375,1.2121
2.2290076335877864,0.6564885496183206,-1.1145038167938932,-0.39794921875,-0.249267578125,-0.179931640625,1.2138
2.1068702290076335,0.5648854961832062,-1.0076335877862594,-0.398681640625,-0.24853515625,-0.18115234375,1.2155
2.0,0.6412213740458015,-1.083969465648855,-0.403564453125,-0.24951171875,-0.182861328125,1.2171999999999998
2.0916030534351147,0.6564885496183206,-0.9312977099236641,-0.4013671875,-0.2548828125,-0.18212890625,1.2188999999999999
2.0916030534351147,0.6412213740458015,-0.9618320610687023,-0.404296875,-0.2490234375,-0.17822265625,1.2206
2.0610687022900764,0.5190839694656488,-1.0687022900763359,-0.403564453125,-0.2490234375,-0.18212890625,1.2223
2.0,0.732824427480916,-1.2671755725190839,-0.402587890625,-0.2509765625,-0.181884765625,1.224
2.122137404580153,0.7633587786259542,-1.1603053435114503,-0.40478515625,-0.254150390625,-0.175048828125,1.2257
1.9694656488549618,0.7480916030534351,-1.282442748091603,-0.402099609375,-0.253662109375,-0.181396484375,1.2273999999999998
1.9541984732824427,0.8549618320610687,-1.4045801526717556,-0.400390625,-0.252685546875,-0.181396484375,1.2290999999999999
2.213740458015267,0.7938931297709924,-1.618320610687023,-0.3974609375,-0.252197265625,-0.1884765625,1.2308
2.381679389312977,0.9312977099236641,-1.618320610687023,-0.401123046875,-0.252685546875,-0.185791015625,1.2325
2.366412213740458,0.9618320610687023,-1.633587786259542,-0.398681640625,-0.250244140625,-0.185546875,1.2342
2.183206106870229,1.0229007633587786,-1.7251908396946565,-0.39892578125,-0.25439453125,-0.185302734375,1.2359
2.351145038167939,1.0076335877862594,-1.7099236641221374,-0.394775390625,-0.2548828125,-0.1845703125,1.2376
2.381679389312977,1.0381679389312977,-1.6946564885496183,-0.399658203125,-0.24951171875,-0.177490234375,1.2392999999999998
2.0763358778625953,1.083969465648855,-1.8473282442748091,-0.3974609375,-0.249755859375,-0.189697265625,1.2409999999999999
2.2900763358778624,1.2061068702290076,-1.984732824427481,-0.396484375,-0.253662109375,-0.18310546875,1.2427
2.2290076335877864,1.1908396946564885,-2.0916030534351147,-0.392822265625,-0.253662109375,-0.1787109375,1.2444
1.9389312977099236,1.099236641221374,-1.9083969465648856,-0.398193359375,-0.253173828125,-0.176513671875,1.2461
2.045801526717557,0.9312977099236641,-2.030534351145038,-0.4013671875,-0.24853515625,-0.180419921875,1.2478
1.9389312977099236,1.1603053435114503,-1.9236641221374047,-0.400634765625,-0.2490234375,-0.1796875,1.2494999999999998
1.8473282442748091,1.2061068702290076,-1.7404580152671756,-0.40087890625,-0.25244140625,-0.181884765625,1.2511999999999999
1.816793893129771,1.1603053435114503,-1.786259541984733,-0.399658203125,-0.248046875,-0.17919921875,1.2529
1.6030534351145038,0.8549618320610687,-2.0916030534351147,-0.398681640625,-0.2490234375,-0.18408203125,1.2546
1.6641221374045803,0.7480916030534351,-1.7404580152671756,-0.403076171875,-0.248291015625,-0.181640625,1.2563
1.7099236641221374,0.7633587786259542,-1.816793893129771,-0.3984375,-0.2490234375,-0.181884765625,1.258
1.4809160305343512,0.8244274809160306,-1.786259541984733,-0.39892578125,-0.25048828125,-0.176513671875,1.2596999999999998
1.5725190839694656,0.7175572519083969,-1.7709923664122138,-0.402587890625,-0.248779296875,-0.182373046875,1.2613999999999999
1.4809160305343512,0.6259541984732825,-1.618320610687023,-0.3984375,-0.250244140625,-0.18408203125,1.2631
1.5572519083969465,0.6259541984732825,-1.633587786259542,-0.402099609375,-0.247802734375,-0.176513671875,1.2648
1.6488549618320612,0.5648854961832062,-1.465648854961832,-0.401123046875,-0.250244140625,-0.1796875,1.2665
1.5267175572519085,0.5648854961832062,-1.7709923664122138,-0.4013671875,-0.251708984375,-0.180908203125,1.2682
1.618320610687023,0.7633587786259542,-1.5572519083969465,-0.39794921875,-0.251953125,-0.177734375,1.2699
1.4809160305343512,0.7175572519083969,-1.5114503816793894,-0.402587890625,-0.2470703125,-0.177490234375,1.2715999999999998
1.5267175572519085,0.6717557251908397,-1.4351145038167938,-0.403076171875,-0.2451171875,-0.182373046875,1.2732999999999999
1.4809160305343512,0.7480916030534351,-1.4198473282442747,-0.400634765625,-0.246826171875,-0.180908203125,1.275
1.5114503816793894,0.6564885496183206,-1.4961832061068703,-0.4033203125,-0.249755859375,-0.178955078125,1.2767
1.5572519083969465,0.6259541984732825,-1.3129770992366412,-0.403076171875,-0.245849609375,-0.185546875,1.2784
1.3893129770992367,0.8244274809160306,-1.282442748091603,-0.40380859375,-0.2451171875,-0.18310546875,1.2801
1.4809160305343512,0.8702290076335878,-1.282442748091603,-0.40087890625,-0.24951171875,-0.176025390625,1.2817999999999998
1.5572519083969465,0.7022900763358778,-1.1755725190839694,-0.40234375,-0.247314453125,-0.181884765625,1.2834999999999999
1.5877862595419847,0.6412213740458015,-1.1145038167938932,-0.399169921875,-0.246826171875,-0.17578125,1.2852
1.786259541984733,0.9923664122137404,-1.1755725190839694,-0.396240234375,-0.250244140625,-0.18408203125,1.2869
1.8015267175572518,0.9618320610687023,-1.1908396946564885,-0.399169921875,-0.248779296875,-0.17333984375,1.2886
1.786259541984733,0.9312977099236641,-0.916030534351145,-0.400146484375,-0.244873046875,-0.1748046875,1.2903
1.9236641221374047,0.9312977099236641,-0.9465648854961832,-0.400146484375,-0.242919921875,-0.17431640625,1.292
1.9236641221374047,1.1145038167938932,-1.083969465648855,-0.40185546875,-0.24853515625,-0.173095703125,1.2936999999999999
2.1374045801526718,1.1450381679389312,-1.099236641221374,-0.399169921875,-0.24462890625,-0.177490234375,1.2953999999999999
2.1068702290076335,1.251908396946565,-0.9312977099236641,-0.396240234375,-0.243408203125,-0.176025390625,1.2971
2.015267175572519,1.2366412213740459,-0.8244274809160306,-0.40234375,-0.24169921875,-0.178955078125,1.2988
2.0763358778625953,0.9312977099236641,-0.8244274809160306,-0.3974609375,-0.244873046875,-0.17724609375,1.3005
2.015267175572519,1.1297709923664123,-0.8854961832061069,-0.400634765625,-0.246337890625,-0.18115234375,1.3022
1.984732824427481,0.8396946564885496,-0.6564885496183206,-0.404296875,-0.249267578125,-0.17724609375,1.3038999999999998
1.816793893129771,0.9312977099236641,-0.5648854961832062,-0.396240234375,-0.24267578125,-0.18505859375,1.3055999999999999
1.7709923664122138,0.9770992366412213,-0.6564885496183206,-0.398193359375,-0.248046875,-0.18701171875,1.3073
2.0763358778625953,0.7480916030534351,-0.8549618320610687,-0.397705078125,-0.251220703125,-0.1767578125,1.309
1.9236641221374047,0.5954198473282443,-0.6717557251908397,-0.397705078125,-0.252197265625,-0.173095703125,1.3107
1.633587786259542,0.7480916030534351,-1.0229007633587786,-0.399169921875,-0.2470703125,-0.185546875,1.3124
1.8625954198473282,0.549618320610687,-1.0381679389312977,-0.40087890625,-0.247802734375,-0.18310546875,1.3140999999999998
1.7404580152671756,0.6870229007633588,-1.0076335877862594,-0.403564453125,-0.25048828125,-0.18115234375,1.3157999999999999
1.7709923664122138,0.7633587786259542,-0.9770992366412213,-0.399658203125,-0.249267578125,-0.184814453125,1.3175
1.618320610687023,0.9312977099236641,-1.099236641221374,-0.39697265625,-0.24462890625,-0.17529296875,1.3192
1.4351145038167938,1.1297709923664123,-1.1908396946564885,-0.39404296875,-0.246826171875,-0.17919921875,1.3209
1.4961832061068703,0.9007633587786259,-1.2061068702290076,-0.40234375,-0.248779296875,-0.18505859375,1.3226
1.4198473282442747,1.083969465648855,-1.297709923664122,-0.403076171875,-0.24853515625,-0.17822265625,1.3243
1.618320610687023,1.1145038167938932,-1.1297709923664123,-0.40283203125,-0.2509765625,-0.1875,1.3259999999999998
1.3587786259541985,1.2366412213740459,-1.2671755725190839,-0.400146484375,-0.2451171875,-0.17431640625,1.3276999999999999
1.282442748091603,1.3740458015267176,-1.0381679389312977,-0.3974609375,-0.2509765625,-0.18359375,1.3294
1.3282442748091603,1.297709923664122,-1.2061068702290076,-0.3974609375,-0.249267578125,-0.188720703125,1.3311
1.3740458015267176,1.251908396946565,-1.1297709923664123,-0.402099609375,-0.250244140625,-0.177734375,1.3328
1.4961832061068703,1.3282442748091603,-1.1145038167938932,-0.39990234375,-0.24560546875,-0.18798828125,1.3345
1.3587786259541985,1.2366412213740459,-1.282442748091603,-0.397705078125,-0.24853515625,-0.177490234375,1.3361999999999998
1.3282442748091603,1.2213740458015268,-1.3587786259541985,-0.39404296875,-0.251220703125,-0.177001953125,1.3378999999999999
1.465648854961832,1.0534351145038168,-1.251908396946565,-0.400390625,-0.246826171875,-0.181884765625,1.3396
1.618320610687023,1.1603053435114503,-1.251908396946565,-0.400390625,-0.2412109375,-0.1796875,1.3413
1.6946564885496183,1.2671755725190839,-1.083969465648855,-0.400634765625,-0.247802734375,-0.180908203125,1.343
1.6641221374045803,1.2061068702290076,-1.2213740458015268,-0.399658203125,-0.248291015625,-0.176025390625,1.3447
1.7251908396946565,1.251908396946565,-0.8854961832061069,-0.398681640625,-0.249267578125,-0.181640625,1.3463999999999998
2.015267175572519,1.297709923664122,-0.9618320610687023,-0.400390625,-0.246826171875,-0.1748046875,1.3480999999999999
1.8931297709923665,1.282442748091603,-0.8244274809160306,-0.402587890625,-0.248779296875,-0.17333984375,1.3497999999999999
2.0763358778625953,1.2671755725190839,-0.6564885496183206,-0.402587890625,-0.24560546875,-0.17236328125,1.3515
2.198473282442748,1.2671755725190839,-0.8091603053435115,-0.3994140625,-0.249267578125,-0.17724609375,1.3532
1.9541984732824427,1.297709923664122,-0.8396946564885496,-0.3994140625,-0.248291015625,-0.173095703125,1.3549
2.122137404580153,1.2671755725190839,-0.8854961832061069,-0.399169921875,-0.24755859375,-0.18212890625,1.3566
2.2290076335877864,1.297709923664122,-0.6564885496183206,-0.395751953125,-0.242919921875,-0.178466796875,1.3582999999999998
2.3053435114503817,1.1755725190839694,-0.6564885496183206,-0.40380859375,-0.247802734375,-0.18212890625,1.3599999999999999
2.213740458015267,1.1145038167938932,-0.7938931297709924,-0.403076171875,-0.25439453125,-0.18310546875,1.3617
2.0610687022900764,1.2671755725190839,-0.8091603053435115,-0.39990234375,-0.248046875,-0.1708984375,1.3634
2.213740458015267,1.1603053435114503,-0.8244274809160306,-0.392333984375,-0.245361328125,-0.18603515625,1.3651
2.183206106870229,1.1450381679389312,-0.7938931297709924,-0.399658203125,-0.251953125,-0.183349609375,1.3668
2.045801526717557,0.9770992366412213,-0.8396946564885496,-0.402099609375,-0.248779296875,-0.179443359375,1.3684999999999998
1.8778625954198473,0.8549618320610687,-0.9618320610687023,-0.402099609375,-0.24951171875,-0.185546875,1.3701999999999999
1.5267175572519085,0.9465648854961832,-0.9007633587786259,-0.402587890625,-0.248291015625,-0.18017578125,1.3719
1.633587786259542,0.8549618320610687,-0.9770992366412213,-0.399169921875,-0.248046875,-0.182373046875,1.3736
1.5572519083969465,0.9312977099236641,-1.0076335877862594,-0.397216796875,-0.2490234375,-0.1884765625,1.3753
1.4351145038167938,0.9770992366412213,-0.8396946564885496,-0.402587890625,-0.2490234375,-0.17626953125,1.377
1.450381679389313,0.916030534351145,-0.9618320610687023,-0.392333984375,-0.248779296875,-0.18505859375,1.3786999999999998
1.5114503816793894,0.9465648854961832,-0.9923664122137404,-0.39599609375,-0.250244140625,-0.182373046875,1.3803999999999998
1.3282442748091603,0.9465648854961832,-1.0229007633587786,-0.4013671875,-0.244873046875,-0.1806640625,1.3820999999999999
1.4045801526717556,1.1145038167938932,-1.0534351145038168,-0.3994140625,-0.253662109375,-0.1845703125,1.3838
1.3129770992366412,0.8244274809160306,-1.099236641221374,-0.3955078125,-0.2490234375,-0.183349609375,1.3855
1.3893129770992367,0.8396946564885496,-0.8702290076335878,-0.3984375,-0.251220703125,-0.1787109375,1.3872
1.6030534351145038,1.0229007633587786,-0.9465648854961832,-0.401611328125,-0.247314453125,-0.18017578125,1.3889
1.7404580152671756,0.8854961832061069,-0.8702290076335878,-0.396240234375,-0.249755859375,-0.1728515625,1.3905999999999998
1.8015267175572518,0.9312977099236641,-0.8396946564885496,-0.39892578125,-0.249267578125,-0.183349609375,1.3922999999999999
2.015267175572519,0.8549618320610687,-1.099236641221374,-0.39794921875,-0.24853515625,-0.174560546875,1.394
1.9083969465648856,0.8854961832061069,-1.0229007633587786,-0.3984375,-0.2548828125,-0.175048828125,1.3957
2.0,0.916030534351145,-0.7786259541984732,-0.3955078125,-0.253662109375,-0.177734375,1.3974
2.122137404580153,0.732824427480916,-0.8244274809160306,-0.3974609375,-0.2509765625,-0.171875,1.3991
1.9083969465648856,0.8854961832061069,-0.7938931297709924,-0.39794921875,-0.24609375,-0.1796875,1.4007999999999998
2.0610687022900764,0.9465648854961832,-0.9465648854961832,-0.397216796875,-0.24658203125,-0.177001953125,1.4024999999999999
2.213740458015267,0.916030534351145,-0.8396946564885496,-0.3984375,-0.2490234375,-0.1826171875,1.4042
1.9694656488549618,0.8854961832061069,-1.0229007633587786,-0.39794921875,-0.248291015625,-0.17822265625,1.4059
1.984732824427481,0.916030534351145,-0.9312977099236641,-0.402099609375,-0.25048828125,-0.18017578125,1.4076
1.9694656488549618,1.1603053435114503,-1.2366412213740459,-0.39892578125,-0.250244140625,-0.175048828125,1.4093
1.9083969465648856,1.1755725190839694,-1.1145038167938932,-0.400634765625,-0.2490234375,-0.18017578125,1.411
1.9694656488549618,1.0687022900763359,-0.9923664122137404,-0.40087890625,-0.244384765625,-0.1796875,1.4126999999999998
2.0763358778625953,1.1603053435114503,-1.083969465648855,-0.40234375,-0.24658203125,-0.179931640625,1.4143999999999999
1.984732824427481,1.3282442748091603,-1.1145038167938932,-0.404296875,-0.249267578125,-0.175048828125,1.4161
1.7099236641221374,1.450381679389313,-1.1908396946564885,-0.400390625,-0.2509765625,-0.184326171875,1.4178
1.8625954198473282,1.5267175572519085,-1.3587786259541985,-0.401611328125,-0.248291015625,-0.18798828125,1.4195
1.8778625954198473,1.5267175572519085,-1.1908396946564885,-0.3994140625,-0.251220703125,-0.185546875,1.4212
1.7404580152671756,1.3129770992366412,-1.2671755725190839,-0.40380859375,-0.2490234375,-0.181396484375,1.4228999999999998
1.786259541984733,1.3435114503816794,-1.3282442748091603,-0.396728515625,-0.24365234375,-0.179443359375,1.4245999999999999
1.9389312977099236,1.4351145038167938,-1.282442748091603,-0.396484375,-0.24365234375,-0.166259765625,1.4263
1.9389312977099236,1.4809160305343512,-1.2671755725190839,-0.400390625,-0.244384765625,-0.1806640625,1.428
1.8931297709923665,1.4351145038167938,-1.3435114503816794,-0.3984375,-0.249267578125,-0.17333984375,1.4297
2.045801526717557,1.3129770992366412,-1.3129770992366412,-0.39453125,-0.2470703125,-0.173828125,1.4314
2.1374045801526718,1.3282442748091603,-1.3435114503816794,-0.399658203125,-0.24560546875,-0.1875,1.4330999999999998
1.9694656488549618,1.282442748091603,-1.1755725190839694,-0.401123046875,-0.24609375,-0.1806640625,1.4347999999999999
1.9694656488549618,1.4961832061068703,-1.3282442748091603,-0.397216796875,-0.24658203125,-0.17626953125,1.4364999999999999
2.351145038167939,1.4351145038167938,-1.1603053435114503,-0.401123046875,-0.248291015625,-0.17431640625,1.4382
2.183206106870229,1.4198473282442747,-1.0687022900763359,-0.3994140625,-0.25048828125,-0.1728515625,1.4399
1.8473282442748091,1.5267175572519085,-0.9923664122137404,-0.4052734375,-0.2509765625,-0.18115234375,1.4416
1.984732824427481,1.5877862595419847,-0.8396946564885496,-0.3984375,-0.241943359375,-0.177734375,1.4433
2.015267175572519,1.816793893129771,-0.9007633587786259,-0.400634765625,-0.251953125,-0.178955078125,1.4449999999999998
1.9694656488549618,1.618320610687023,-0.9312977099236641,-0.403564453125,-0.248046875,-0.17431640625,1.4466999999999999
1.7099236641221374,1.6641221374045803,-1.0534351145038168,-0.404052734375,-0.2451171875,-0.170654296875,1.4484
1.7557251908396947,1.6946564885496183,-1.0076335877862594,-0.39892578125,-0.246826171875,-0.17724609375,1.4501
1.8473282442748091,1.9236641221374047,-0.8854961832061069,-0.397216796875,-0.250244140625,-0.17724609375,1.4518
1.9083969465648856,2.0,-1.0687022900763359,-0.399658203125,-0.254150390625,-0.178466796875,1.4535
1.6793893129770991,1.786259541984733,-0.9770992366412213,-0.3974609375,-0.25146484375,-0.176025390625,1.4551999999999998
1.6488549618320612,1.6641221374045803,-1.083969465648855,-0.398193359375,-0.251953125,-0.18505859375,1.4568999999999999
1.9083969465648856,1.6946564885496183,-1.099236641221374,-0.397705078125,-0.2529296875,-0.188232421875,1.4586
1.786259541984733,1.6488549618320612,-1.2366412213740459,-0.39306640625,-0.254150390625,-0.17919921875,1.4603
1.83206106870229,1.3740458015267176,-1.0381679389312977,-0.4033203125,-0.251708984375,-0.185302734375,1.462
1.9389312977099236,1.3282442748091603,-1.3129770992366412,-0.398193359375,-0.2509765625,-0.177001953125,1.4637
2.015267175572519,1.3893129770992367,-1.0381679389312977,-0.397705078125,-0.251953125,-0.179443359375,1.4653999999999998
2.030534351145038,1.2671755725190839,-1.2671755725190839,-0.398193359375,-0.248046875,-0.16455078125,1.4670999999999998
1.8473282442748091,1.1755725190839694,-1.0534351145038168,-0.39892578125,-0.246337890625,-0.183349609375,1.4687999999999999
2.0610687022900764,1.1908396946564885,-1.1755725190839694,-0.401123046875,-0.25146484375,-0.184326171875,1.4705
2.0610687022900764,1.1603053435114503,-1.0687022900763359,-0.39794921875,-0.24658203125,-0.182861328125,1.4722
2.16793893129771,1.0076335877862594,-1.0687022900763359,-0.396240234375,-0.24755859375,-0.183349609375,1.4739
2.0763358778625953,1.099236641221374,-0.9618320610687023,-0.400634765625,-0.244140625,-0.178955078125,1.4756
1.9236641221374047,1.1145038167938932,-1.3129770992366412,-0.3994140625,-0.248046875,-0.175048828125,1.4772999999999998
2.015267175572519,1.1755725190839694,-1.0534351145038168,-0.398193359375,-0.24658203125,-0.1865234375,1.4789999999999999
2.1068702290076335,1.1908396946564885,-1.3587786259541985,-0.400390625,-0.251220703125,-0.181396484375,1.4807
2.122137404580153,1.0534351145038168,-1.1450381679389312,-0.402587890625,-0.24609375,-0.173583984375,1.4824
1.816793893129771,1.0534351145038168,-1.083969465648855,-0.40087890625,-0.24560546875,-0.174560546875,1.4841
1.8778625954198473,1.2061068702290076,-1.083969465648855,-0.399169921875,-0.250244140625,-0.172607421875,1.4858
2.0,1.1297709923664123,-1.1755725190839694,-0.400390625,-0.244873046875,-0.171142578125,1.4874999999999998
1.9083969465648856,1.1145038167938932,-1.0076335877862594,-0.40234375,-0.247802734375,-0.182373046875,1.4891999999999999
1.9236641221374047,1.1450381679389312,-1.0534351145038168,-0.401123046875,-0.246826171875,-0.181640625,1.4909
1.9694656488549618,1.2213740458015268,-1.0687022900763359,-0.403076171875,-0.2451171875,-0.183349609375,1.4926
2.0610687022900764,1.3129770992366412,-1.099236641221374,-0.400634765625,-0.24755859375,-0.17919921875,1.4943
2.1526717557251906,1.4351145038167938,-0.9618320610687023,-0.400390625,-0.248046875,-0.17919921875,1.496
2.1374045801526718,1.3282442748091603,-1.083969465648855,-0.401123046875,-0.244873046875,-0.171630859375,1.4976999999999998
2.213740458015267,1.4809160305343512,-1.0687022900763359,-0.3974609375,-0.244140625,-0.185791015625,1.4993999999999998
2.1374045801526718,1.450381679389313,-0.9618320610687023,-0.39697265625,-0.251708984375,-0.1689453125,1.5010999999999999
2.2595419847328246,1.3893129770992367,-0.8549618320610687,-0.39697265625,-0.249267578125,-0.1767578125,1.5028
2.0916030534351147,1.297709923664122,-0.9770992366412213,-0.401611328125,-0.24755859375,-0.183349609375,1.5045
2.16793893129771,1.5267175572519085,-1.1603053435114503,-0.3994140625,-0.246337890625,-0.1796875,1.5062
2.519083969465649,1.465648854961832,-1.099236641221374,-0.405029296875,-0.24169921875,-0.175537109375,1.5079
2.519083969465649,1.3893129770992367,-1.0229007633587786,-0.40185546875,-0.24609375,-0.17724609375,1.5095999999999998
2.564885496183206,1.4809160305343512,-0.9465648854961832,-0.399658203125,-0.24853515625,-0.174560546875,1.5112999999999999
2.4885496183206106,1.297709923664122,-0.9923664122137404,-0.403076171875,-0.250244140625,-0.18310546875,1.513
2.4580152671755724,1.3129770992366412,-1.0229007633587786,-0.401611328125,-0.245361328125,-0.17236328125,1.5147
2.549618320610687,1.450381679389313,-1.0229007633587786,-0.40087890625,-0.24755859375,-0.17724609375,1.5164
2.564885496183206,1.3435114503816794,-1.0534351145038168,-0.404296875,-0.24658203125,-0.17333984375,1.5181
2.5343511450381677,1.465648854961832,-0.9312977099236641,-0.404296875,-0.24755859375,-0.176513671875,1.5197999999999998
2.687022900763359,1.465648854961832,-1.0381679389312977,-0.39453125,-0.244384765625,-0.178466796875,1.5214999999999999
2.6564885496183206,1.3129770992366412,-0.9312977099236641,-0.39794921875,-0.252685546875,-0.173828125,1.5231999999999999
2.6412213740458017,1.4351145038167938,-0.9312977099236641,-0.403076171875,-0.25341796875,-0.170166015625,1.5249
2.6717557251908395,1.465648854961832,-1.0534351145038168,-0.404052734375,-0.251953125,-0.17236328125,1.5266
2.7480916030534353,1.5419847328244274,-1.0687022900763359,-0.400634765625,-0.253662109375,-0.184326171875,1.5283
2.6106870229007635,1.4809160305343512,-1.0381679389312977,-0.400146484375,-0.2509765625,-0.18310546875,1.5299999999999998
2.33587786259542,1.4198473282442747,-1.2366412213740459,-0.4013671875,-0.25244140625,-0.183349609375,1.5316999999999998
2.5343511450381677,1.465648854961832,-1.1145038167938932,-0.40087890625,-0.25390625,-0.1845703125,1.5333999999999999
2.4580152671755724,1.5572519083969465,-1.2213740458015268,-0.401611328125,-0.249267578125,-0.173828125,1.5351
2.381679389312977,1.3893129770992367,-1.251908396946565,-0.396240234375,-0.250244140625,-0.175537109375,1.5368
2.4122137404580153,1.4045801526717556,-1.2671755725190839,-0.400634765625,-0.255859375,-0.185302734375,1.5385
2.213740458015267,1.3587786259541985,-1.0381679389312977,-0.403564453125,-0.247802734375,-0.18603515625,1.5402
2.1374045801526718,1.2671755725190839,-1.083969465648855,-0.39892578125,-0.244873046875,-0.185791015625,1.5418999999999998
2.2748091603053435,1.2671755725190839,-1.251908396946565,-0.39794921875,-0.252685546875,-0.18310546875,1.5435999999999999
2.2748091603053435,1.3435114503816794,-1.4198473282442747,-0.400390625,-0.25341796875,-0.17919921875,1.5453
2.0610687022900764,1.1297709923664123,-1.0381679389312977,-0.39501953125,-0.25048828125,-0.172119140625,1.547
2.1374045801526718,1.251908396946565,-1.3587786259541985,-0.397216796875,-0.25390625,-0.1865234375,1.5487
2.122137404580153,1.4809160305343512,-1.4351145038167938,-0.4013671875,-0.25048828125,-0.18115234375,1.5504
2.045801526717557,1.251908396946565,-1.4961832061068703,-0.403076171875,-0.247802734375,-0.181396484375,1.5520999999999998
2.045801526717557,1.1755725190839694,-1.297709923664122,-0.405029296875,-0.2509765625,-0.182373046875,1.5537999999999998
1.9694656488549618,1.2671755725190839,-1.5725190839694656,-0.39697265625,-0.24951171875,-0.177490234375,1.5554999999999999
1.816793893129771,1.4198473282442747,-1.4961832061068703,-0.393798828125,-0.251708984375,-0.17724609375,1.5572
2.0,1.4809160305343512,-1.5114503816793894,-0.39794921875,-0.252197265625,-0.1796875,1.5589
1.7709923664122138,1.4198473282442747,-1.5114503816793894,-0.395751953125,-0.25244140625,-0.177734375,1.5606
1.7099236641221374,1.3740458015267176,-1.7557251908396947,-0.402587890625,-0.251220703125,-0.17431640625,1.5623
1.83206106870229,1.4809160305343512,-1.5114503816793894,-0.394287109375,-0.249267578125,-0.185546875,1.5639999999999998
1.5725190839694656,1.4351145038167938,-1.4961832061068703,-0.397216796875,-0.248291015625,-0.188720703125,1.5656999999999999
1.7251908396946565,1.465648854961832,-1.6946564885496183,-0.393798828125,-0.248291015625,-0.17138671875,1.5674
1.9541984732824427,1.251908396946565,-1.8473282442748091,-0.39404296875,-0.2578125,-0.175048828125,1.5691
1.5725190839694656,1.251908396946565,-1.8015267175572518,-0.394775390625,-0.259033203125,-0.183837890625,1.5708
1.4809160305343512,1.4961832061068703,-1.8473282442748091,-0.395751953125,-0.25634765625,-0.185791015625,1.5725
1.618320610687023,1.5419847328244274,-1.6488549618320612,-0.39697265625,-0.25048828125,-0.177490234375,1.5741999999999998
1.6030534351145038,1.3282442748091603,-1.7099236641221374,-0.400146484375,-0.246826171875,-0.177490234375,1.5758999999999999
1.3893129770992367,1.4809160305343512,-1.786259541984733,-0.397705078125,-0.244384765625,-0.17724609375,1.5776
1.5572519083969465,1.618320610687023,-1.7251908396946565,-0.400390625,-0.253173828125,-0.181396484375,1.5793
1.1450381679389312,1.5572519083969465,-1.5877862595419847,-0.396484375,-0.25244140625,-0.18115234375,1.581
1.4961832061068703,1.3893129770992367,-1.786259541984733,-0.396240234375,-0.251708984375,-0.183837890625,1.5827
1.5267175572519085,1.5877862595419847,-1.5877862595419847,-0.397705078125,-0.2509765625,-0.171142578125,1.5843999999999998
1.297709923664122,1.8473282442748091,-1.6030534351145038,-0.398193359375,-0.2509765625,-0.181640625,1.5860999999999998
1.2671755725190839,1.5114503816793894,-1.5267175572519085,-0.39794921875,-0.2470703125,-0.180419921875,1.5877999999999999
1.099236641221374,1.4198473282442747,-1.633587786259542,-0.396484375,-0.2509765625,-0.17578125,1.5895
1.3893129770992367,1.3129770992366412,-1.5114503816793894,-0.39453125,-0.24755859375,-0.178955078125,1.5912
1.1755725190839694,1.4045801526717556,-1.5114503816793894,-0.39306640625,-0.249267578125,-0.1787109375,1.5929
1.1603053435114503,1.4961832061068703,-1.4045801526717556,-0.394287109375,-0.252197265625,-0.1806640625,1.5946
1.4961832061068703,1.3282442748091603,-1.3740458015267176,-0.402587890625,-0.25048828125,-0.172119140625,1.5962999999999998
1.4351145038167938,1.282442748091603,-1.5877862595419847,-0.397216796875,-0.251953125,-0.181884765625,1.5979999999999999
1.297709923664122,1.083969465648855,-1.5267175572519085,-0.400146484375,-0.252685546875,-0.1787109375,1.5997
1.2671755725190839,1.1603053435114503,-1.4198473282442747,-0.40283203125,-0.24755859375,-0.177734375,1.6014
1.3282442748091603,1.0381679389312977,-1.4961832061068703,-0.403076171875,-0.2509765625,-0.1806640625,1.6031
1.282442748091603,1.2061068702290076,-1.4809160305343512,-0.39892578125,-0.255126953125,-0.177978515625,1.6048
1.3282442748091603,1.099236641221374,-1.6030534351145038,-0.40087890625,-0.25341796875,-0.1787109375,1.6064999999999998
1.4809160305343512,1.0381679389312977,-1.6793893129770991,-0.401611328125,-0.250244140625,-0.1826171875,1.6081999999999999
1.5114503816793894,1.0229007633587786,-1.6641221374045803,-0.399169921875,-0.248779296875,-0.18212890625,1.6098999999999999
1.5419847328244274,1.2213740458015268,-1.5114503816793894,-0.397216796875,-0.250732421875,-0.177001953125,1.6116
1.297709923664122,1.0687022900763359,-1.5419847328244274,-0.39892578125,-0.250244140625,-0.1826171875,1.6133
1.4351145038167938,1.2061068702290076,-1.5877862595419847,-0.4072265625,-0.24951171875,-0.181396484375,1.615
1.4045801526717556,1.2213740458015268,-1.6641221374045803,-0.403564453125,-0.25244140625,-0.169677734375,1.6166999999999998
0.9770992366412213,1.1297709923664123,-1.4961832061068703,-0.401611328125,-0.24951171875,-0.18408203125,1.6183999999999998
1.1450381679389312,1.282442748091603,-1.6488549618320612,-0.398681640625,-0.24853515625,-0.1787109375,1.6200999999999999
1.251908396946565,0.9618320610687023,-1.5877862595419847,-0.40234375,-0.25048828125,-0.17724609375,1.6218
1.282442748091603,1.1450381679389312,-1.4351145038167938,-0.398681640625,-0.249267578125,-0.181640625,1.6235
1.083969465648855,1.2061068702290076,-1.5572519083969465,-0.402587890625,-0.247802734375,-0.17724609375,1.6252
1.282442748091603,1.1603053435114503,-1.3740458015267176,-0.40234375,-0.251953125,-0.17919921875,1.6269
1.0076335877862594,1.1908396946564885,-1.5267175572519085,-0.399658203125,-0.246337890625,-0.182373046875,1.6285999999999998
0.8091603053435115,1.297709923664122,-1.3435114503816794,-0.3955078125,-0.246337890625,-0.178466796875,1.6302999999999999
0.9465648854961832,0.9770992366412213,-1.4351145038167938,-0.396728515625,-0.251220703125,-0.17822265625,1.632
0.732824427480916,0.9312977099236641,-1.3893129770992367,-0.40234375,-0.255859375,-0.18212890625,1.6337
1.0076335877862594,0.9618320610687023,-1.4045801526717556,-0.398193359375,-0.252685546875,-0.171630859375,1.6354
0.916030534351145,0.7175572519083969,-1.5419847328244274,-0.395263671875,-0.251708984375,-0.175048828125,1.6371
0.7633587786259542,1.0229007633587786,-1.4809160305343512,-0.39453125,-0.255126953125,-0.17724609375,1.6387999999999998
0.8244274809160306,0.9618320610687023,-1.2671755725190839,-0.393798828125,-0.2509765625,-0.181396484375,1.6404999999999998
0.8549618320610687,0.7480916030534351,-1.4045801526717556,-0.395263671875,-0.25,-0.174560546875,1.6421999999999999
0.8854961832061069,0.7480916030534351,-1.450381679389313,-0.395751953125,-0.252197265625,-0.182373046875,1.6439
1.0229007633587786,0.7175572519083969,-1.5725190839694656,-0.404052734375,-0.246337890625,-0.179443359375,1.6456
1.1145038167938932,0.4580152671755725,-1.450381679389313,-0.397216796875,-0.24609375,-0.17919921875,1.6473
1.251908396946565,0.48854961832061067,-1.4961832061068703,-0.3955078125,-0.249755859375,-0.1796875,1.6489999999999998
1.251908396946565,0.549618320610687,-1.5419847328244274,-0.402099609375,-0.25146484375,-0.180908203125,1.6506999999999998
1.2213740458015268,0.4580152671755725,-1.5419847328244274,-0.407470703125,-0.24853515625,-0.177734375,1.6523999999999999
1.4045801526717556,0.4580152671755725,-1.450381679389313,-0.404052734375,-0.249755859375,-0.17626953125,1.6541
1.4961832061068703,0.549618320610687,-1.7709923664122138,-0.399169921875,-0.251953125,-0.185546875,1.6558
1.7557251908396947,0.5190839694656488,-1.618320610687023,-0.39794921875,-0.24658203125,-0.171630859375,1.6575
1.7099236641221374,0.5343511450381679,-1.6488549618320612,-0.3974609375,-0.25,-0.18212890625,1.6592
1.6488549618320612,0.732824427480916,-1.6488549618320612,-0.400146484375,-0.248291015625,-0.183349609375,1.6608999999999998
1.4809160305343512,0.7938931297709924,-1.83206106870229,-0.404296875,-0.248046875,-0.1875,1.6625999999999999
1.633587786259542,0.8549618320610687,-2.030534351145038,-0.400634765625,-0.250732421875,-0.178955078125,1.6643
1.6641221374045803,0.9312977099236641,-1.9694656488549618,-0.402099609375,-0.252685546875,-0.185791015625,1.666
1.618320610687023,1.083969465648855,-1.9389312977099236,-0.40185546875,-0.2548828125,-0.1748046875,1.6677
1.465648854961832,1.1755725190839694,-1.9389312977099236,-0.39453125,-0.244140625,-0.185791015625,1.6694
1.3893129770992367,1.083969465648855,-2.0763358778625953,-0.3974609375,-0.246826171875,-0.18603515625,1.6710999999999998
1.4198473282442747,1.5725190839694656,-1.9541984732824427,-0.400390625,-0.247314453125,-0.177734375,1.6727999999999998
1.297709923664122,1.282442748091603,-1.8931297709923665,-0.3984375,-0.24658203125,-0.1806640625,1.6744999999999999
0.9770992366412213,1.282442748091603,-2.0763358778625953,-0.398193359375,-0.251220703125,-0.177001953125,1.6762
1.0076335877862594,1.4809160305343512,-1.9236641221374047,-0.399169921875,-0.24658203125,-0.178466796875,1.6779
0.8854961832061069,1.450381679389313,-1.9694656488549618,-0.394775390625,-0.246826171875,-0.1796875,1.6796
1.0229007633587786,1.3129770992366412,-1.984732824427481,-0.3994140625,-0.249267578125,-0.18017578125,1.6813
1.2671755725190839,1.3435114503816794,-1.8931297709923665,-0.39794921875,-0.245849609375,-0.18310546875,1.6829999999999998
0.916030534351145,1.4351145038167938,-1.8931297709923665,-0.394287109375,-0.2509765625,-0.180908203125,1.6846999999999999
0.916030534351145,1.4198473282442747,-2.0763358778625953,-0.398681640625,-0.246337890625,-0.173095703125,1.6864
1.1297709923664123,1.3129770992366412,-1.8015267175572518,-0.399658203125,-0.24755859375,-0.177734375,1.6881
1.083969465648855,1.3435114503816794,-1.786259541984733,-0.39794921875,-0.248779296875,-0.185791015625,1.6898
0.916030534351145,1.3435114503816794,-1.8473282442748091,-0.402587890625,-0.249267578125,-0.180908203125,1.6915
1.1145038167938932,1.282442748091603,-1.9236641221374047,-0.40185546875,-0.250244140625,-0.18359375,1.6931999999999998
1.083969465648855,1.1450381679389312,-1.816793893129771,-0.39306640625,-0.2490234375,-0.182373046875,1.6948999999999999
1.1145038167938932,1.1755725190839694,-1.8015267175572518,-0.39697265625,-0.251220703125,-0.17578125,1.6965999999999999
1.1908396946564885,1.0076335877862594,-1.450381679389313,-0.3935546875,-0.24658203125,-0.166259765625,1.6983
1.282442748091603,0.7175572519083969,-1.618320610687023,-0.41064453125,-0.2529296875,-0.180419921875,1.7
1.297709923664122,0.7938931297709924,-1.5877862595419847,-0.398193359375,-0.25048828125,-0.175048828125,1.7017
1.282442748091603,0.9465648854961832,-1.6641221374045803,-0.400390625,-0.251220703125,-0.18505859375,1.7033999999999998
1.450381679389313,0.9618320610687023,-1.8015267175572518,-0.39892578125,-0.251220703125,-0.181396484375,1.7050999999999998
1.3587786259541985,0.9618320610687023,-1.5877862595419847,-0.401611328125,-0.249755859375,-0.186767578125,1.7067999999999999
1.4351145038167938,0.8549618320610687,-1.5725190839694656,-0.39794921875,-0.252197265625,-0.185546875,1.7085
1.5114503816793894,0.7175572519083969,-1.7709923664122138,-0.396484375,-0.24951171875,-0.177978515625,1.7102
1.3740458015267176,0.9007633587786259,-1.786259541984733,-0.400146484375,-0.250244140625,-0.1806640625,1.7119
1.251908396946565,0.6717557251908397,-1.7404580152671756,-0.397705078125,-0.247802734375,-0.175048828125,1.7136
1.282442748091603,0.8854961832061069,-1.4809160305343512,-0.398193359375,-0.248779296875,-0.177490234375,1.7152999999999998
1.3587786259541985,0.9312977099236641,-1.7404580152671756,-0.4013671875,-0.2451171875,-0.1767578125,1.7169999999999999
1.2671755725190839,0.732824427480916,-1.5572519083969465,-0.400146484375,-0.249267578125,-0.1787109375,1.7187
1.1603053435114503,0.7022900763358778,-1.6030534351145038,-0.39453125,-0.2470703125,-0.1728515625,1.7204
1.0534351145038168,0.8244274809160306,-1.4198473282442747,-0.39501953125,-0.247802734375,-0.181640625,1.7221
1.099236641221374,0.7022900763358778,-1.5114503816793894,-0.39892578125,-0.24609375,-0.1806640625,1.7238
1.0229007633587786,0.549618320610687,-1.5114503816793894,-0.39599609375,-0.251953125,-0.18017578125,1.7254999999999998
0.9312977099236641,0.5343511450381679,-1.5572519083969465,-0.396728515625,-0.249267578125,-0.182861328125,1.7271999999999998
1.0381679389312977,0.48854961832061067,-1.450381679389313,-0.3974609375,-0.247314453125,-0.17578125,1.7288999999999999
0.7938931297709924,0.366412213740458,-1.450381679389313,-0.39794921875,-0.247314453125,-0.181640625,1.7306
1.099236641221374,0.44274809160305345,-1.450381679389313,-0.39697265625,-0.256103515625,-0.1796875,1.7323
1.0229007633587786,0.4580152671755725,-1.4961832061068703,-0.397216796875,-0.2568359375,-0.173828125,1.734
0.9770992366412213,0.5038167938931297,-1.3587786259541985,-0.401611328125,-0.249267578125,-0.17822265625,1.7356999999999998
1.0381679389312977,0.6106870229007634,-1.5725190839694656,-0.3955078125,-0.246337890625,-0.179931640625,1.7373999999999998
1.1450381679389312,0.42748091603053434,-1.5725190839694656,-0.396484375,-0.254150390625,-0.185302734375,1.7390999999999999
1.1755725190839694,0.3053435114503817,-1.4961832061068703,-0.4013671875,-0.248291015625,-0.176025390625,1.7408
1.1450381679389312,0.3053435114503817,-1.6946564885496183,-0.402099609375,-0.252685546875,-0.1865234375,1.7425
1.297709923664122,0.3969465648854962,-1.5572519083969465,-0.403564453125,-0.24609375,-0.18017578125,1.7442
1.1450381679389312,0.21374045801526717,-1.5877862595419847,-0.400634765625,-0.249267578125,-0.177490234375,1.7459
1.1297709923664123,0.366412213740458,-1.7251908396946565,-0.400390625,-0.25146484375,-0.17724609375,1.7475999999999998
1.282442748091603,0.2748091603053435,-1.618320610687023,-0.399169921875,-0.256103515625,-0.18017578125,1.7492999999999999
1.282442748091603,0.366412213740458,-1.6488549618320612,-0.402099609375,-0.2548828125,-0.18505859375,1.751
1.1908396946564885,0.4122137404580153,-1.450381679389313,-0.402587890625,-0.246826171875,-0.1806640625,1.7527
1.2671755725190839,0.32061068702290074,-1.4351145038167938,-0.400146484375,-0.244384765625,-0.17822265625,1.7544
1.1603053435114503,0.366412213740458,-1.5114503816793894,-0.40087890625,-0.248291015625,-0.176025390625,1.7561
1.0381679389312977,0.33587786259541985,-1.5572519083969465,-0.4013671875,-0.24658203125,-0.182861328125,1.7577999999999998
0.9923664122137404,0.2748091603053435,-1.297709923664122,-0.401611328125,-0.25244140625,-0.18408203125,1.7594999999999998
0.9312977099236641,0.33587786259541985,-1.5725190839694656,-0.399169921875,-0.25146484375,-0.180419921875,1.7611999999999999
0.732824427480916,0.48854961832061067,-1.3740458015267176,-0.399658203125,-0.255615234375,-0.17578125,1.7629
0.7633587786259542,0.48854961832061067,-1.3587786259541985,-0.397216796875,-0.256103515625,-0.173828125,1.7646
0.7633587786259542,0.5648854961832062,-1.4809160305343512,-0.401611328125,-0.252685546875,-0.17529296875,1.7663
0.5648854961832062,0.48854961832061067,-1.6793893129770991,-0.3974609375,-0.248046875,-0.174560546875,1.7679999999999998
0.5343511450381679,0.4580152671755725,-1.5725190839694656,-0.3974609375,-0.251953125,-0.180419921875,1.7696999999999998
0.6870229007633588,0.5648854961832062,-1.5877862595419847,-0.39990234375,-0.252197265625,-0.178466796875,1.7713999999999999
0.48854961832061067,0.4732824427480916,-1.7404580152671756,-0.40283203125,-0.24658203125,-0.176025390625,1.7731
0.13740458015267176,0.8244274809160306,-1.6946564885496183,-0.405517578125,-0.2490234375,-0.1826171875,1.7748
0.33587786259541985,0.7175572519083969,-1.7099236641221374,-0.40234375,-0.250732421875,-0.18798828125,1.7765
0.2748091603053435,0.5801526717557252,-1.9083969465648856,-0.40283203125,-0.255859375,-0.180419921875,1.7782
0.21374045801526717,0.7175572519083969,-1.8625954198473282,-0.404541015625,-0.2509765625,-0.1796875,1.7798999999999998
0.22900763358778625,0.732824427480916,-2.0,-0.40185546875,-0.253173828125,-0.176513671875,1.7815999999999999
0.183206106870229,0.7480916030534351,-1.8778625954198473,-0.4013671875,-0.25146484375,-0.171142578125,1.7832999999999999
0.0,0.8396946564885496,-2.0610687022900764,-0.39599609375,-0.249267578125,-0.1787109375,1.785
0.16793893129770993,0.7022900763358778,-2.1526717557251906,-0.401611328125,-0.25048828125,-0.18408203125,1.7867
0.015267175572519083,0.5801526717557252,-2.213740458015267,-0.40185546875,-0.253662109375,-0.179443359375,1.7884
-0.13740458015267176,0.6106870229007634,-2.015267175572519,-0.398193359375,-0.25,-0.1767578125,1.7900999999999998
-0.16793893129770993,0.7022900763358778,-2.33587786259542,-0.39990234375,-0.248046875,-0.177001953125,1.7917999999999998
