gyrox1,gyroy1,gyroz1,accelx1,accely1,accelz1,Time
-2.1374045801526718,7.038167938931298,0.1984732824427481,-0.42529296875,0.00634765625,-0.30517578125,0.0
-2.0916030534351147,6.870229007633588,-0.030534351145038167,-0.421630859375,-0.000244140625,-0.301025390625,0.0017
-2.183206106870229,7.022900763358779,0.3511450381679389,-0.421875,0.003173828125,-0.303466796875,0.0034
-1.984732824427481,7.1603053435114505,0.030534351145038167,-0.4228515625,-0.00146484375,-0.305419921875,0.0050999999999999995
-2.2290076335877864,7.221374045801527,0.2595419847328244,-0.427001953125,-0.002197265625,-0.309326171875,0.0068
-2.0763358778625953,7.022900763358779,0.22900763358778625,-0.424560546875,0.00439453125,-0.30517578125,0.008499999999999999
-2.16793893129771,7.145038167938932,0.32061068702290074,-0.423583984375,0.00537109375,-0.306640625,0.010199999999999999
-2.3969465648854964,7.206106870229007,0.12213740458015267,-0.4208984375,0.005615234375,-0.309814453125,0.011899999999999999
-2.3053435114503817,7.068702290076335,0.33587786259541985,-0.4296875,0.009521484375,-0.298828125,0.0136
-2.3053435114503817,7.297709923664122,0.1984732824427481,-0.422607421875,0.0087890625,-0.305908203125,0.0153
-2.2442748091603053,7.282442748091603,0.549618320610687,-0.424072265625,0.001708984375,-0.305419921875,0.016999999999999998
-2.351145038167939,6.977099236641221,0.549618320610687,-0.426513671875,0.0087890625,-0.304443359375,0.018699999999999998
-2.1526717557251906,7.083969465648855,0.32061068702290074,-0.42529296875,0.0048828125,-0.298583984375,0.020399999999999998
-2.213740458015267,7.1603053435114505,0.44274809160305345,-0.423828125,0.002685546875,-0.304931640625,0.022099999999999998
-2.33587786259542,7.190839694656488,0.8702290076335878,-0.4248046875,0.00244140625,-0.3115234375,0.023799999999999998
-2.595419847328244,7.236641221374046,0.5648854961832062,-0.425537109375,-0.000244140625,-0.3056640625,0.0255
-2.6259541984732824,7.236641221374046,0.8091603053435115,-0.427734375,0.000732421875,-0.302490234375,0.0272
-2.6717557251908395,7.1603053435114505,0.7633587786259542,-0.423095703125,-0.00146484375,-0.311767578125,0.0289
-2.9160305343511452,7.267175572519084,0.7786259541984732,-0.4208984375,0.00341796875,-0.305908203125,0.0306
-2.7480916030534353,7.00763358778626,0.7633587786259542,-0.42578125,0.006103515625,-0.314208984375,0.032299999999999995
-3.0229007633587788,7.099236641221374,0.7175572519083969,-0.421630859375,0.006591796875,-0.302001953125,0.033999999999999996
-2.9770992366412212,7.175572519083969,0.8702290076335878,-0.42626953125,-0.001953125,-0.307861328125,0.035699999999999996
-2.885496183206107,7.312977099236641,0.8702290076335878,-0.42236328125,0.00390625,-0.310302734375,0.037399999999999996
-2.900763358778626,7.419847328244275,0.7938931297709924,-0.42919921875,-0.001953125,-0.3046875,0.039099999999999996
-2.931297709923664,7.267175572519084,0.8854961832061069,-0.42431640625,0.005859375,-0.30029296875,0.040799999999999996
-2.8244274809160306,7.312977099236641,0.7175572519083969,-0.4208984375,0.00341796875,-0.311767578125,0.042499999999999996
-2.8091603053435112,7.465648854961832,0.9312977099236641,-0.4208984375,0.003662109375,-0.309814453125,0.044199999999999996
-3.068702290076336,7.679389312977099,1.0076335877862594,-0.423828125,0.005126953125,-0.31494140625,0.045899999999999996
-3.053435114503817,7.938931297709924,1.0534351145038168,-0.427490234375,0.001220703125,-0.310546875,0.047599999999999996
-2.931297709923664,8.0,0.9618320610687023,-0.428466796875,0.00048828125,-0.311279296875,0.0493
-3.114503816793893,7.847328244274809,0.9007633587786259,-0.421875,0.003173828125,-0.31689453125,0.051
-3.236641221374046,8.01526717557252,0.9923664122137404,-0.42138671875,0.006103515625,-0.308349609375,0.0527
-3.1755725190839694,8.198473282442748,1.2061068702290076,-0.421630859375,0.0009765625,-0.310302734375,0.0544
-3.2213740458015265,7.9541984732824424,0.8702290076335878,-0.4208984375,0.002685546875,-0.306640625,0.0561
-3.3435114503816794,7.923664122137405,0.9770992366412213,-0.422607421875,0.007080078125,-0.307861328125,0.0578
-3.312977099236641,8.15267175572519,0.8244274809160306,-0.420166015625,0.002197265625,-0.30615234375,0.0595
-3.282442748091603,8.229007633587786,0.9923664122137404,-0.425537109375,0.00439453125,-0.307861328125,0.0612
-3.435114503816794,8.381679389312977,0.8549618320610687,-0.4189453125,0.003173828125,-0.3076171875,0.0629
-3.3282442748091605,8.183206106870228,0.8549618320610687,-0.422119140625,-0.000732421875,-0.31640625,0.06459999999999999
-3.5877862595419847,8.305343511450381,0.9007633587786259,-0.418701171875,0.00146484375,-0.315185546875,0.0663
-3.7404580152671754,8.259541984732824,0.916030534351145,-0.4169921875,-0.002685546875,-0.31103515625,0.06799999999999999
-3.618320610687023,8.473282442748092,0.9618320610687023,-0.4208984375,0.000244140625,-0.31494140625,0.0697
-3.5419847328244276,8.442748091603054,0.8396946564885496,-0.418701171875,0.00341796875,-0.310546875,0.07139999999999999
-3.7709923664122136,8.442748091603054,0.7175572519083969,-0.41845703125,0.004638671875,-0.310546875,0.0731
-3.7557251908396947,8.488549618320612,0.7633587786259542,-0.419677734375,0.004150390625,-0.312744140625,0.07479999999999999
-4.0,8.442748091603054,0.7786259541984732,-0.417724609375,0.004638671875,-0.317138671875,0.0765
-4.0458015267175576,8.610687022900763,0.8244274809160306,-0.419677734375,0.00146484375,-0.311279296875,0.07819999999999999
-4.061068702290076,8.763358778625955,0.5801526717557252,-0.424560546875,-0.000244140625,-0.315673828125,0.0799
-4.015267175572519,8.854961832061068,0.7633587786259542,-0.4189453125,0.001708984375,-0.314697265625,0.08159999999999999
-4.106870229007634,8.778625954198473,0.3816793893129771,-0.41845703125,0.002197265625,-0.31201171875,0.0833
-4.076335877862595,8.80916030534351,0.366412213740458,-0.418212890625,0.00537109375,-0.30810546875,0.08499999999999999
-4.183206106870229,8.778625954198473,0.4580152671755725,-0.417724609375,0.00146484375,-0.315185546875,0.0867
-4.320610687022901,8.67175572519084,0.32061068702290074,-0.42138671875,0.003662109375,-0.31298828125,0.08839999999999999
-4.106870229007634,8.641221374045802,0.3053435114503817,-0.417724609375,0.00390625,-0.307373046875,0.0901
-4.396946564885496,8.83969465648855,0.32061068702290074,-0.42041015625,0.001708984375,-0.3154296875,0.09179999999999999
-4.2748091603053435,8.83969465648855,0.183206106870229,-0.419921875,0.0048828125,-0.320556640625,0.0935
-4.290076335877862,8.870229007633588,0.24427480916030533,-0.4189453125,0.0,-0.316162109375,0.09519999999999999
-4.427480916030534,8.82442748091603,0.1984732824427481,-0.421630859375,0.006591796875,-0.31689453125,0.0969
-4.427480916030534,8.83969465648855,0.33587786259541985,-0.421875,0.00439453125,-0.314208984375,0.0986
-4.6106870229007635,8.778625954198473,0.015267175572519083,-0.4150390625,0.00830078125,-0.3134765625,0.1003
-4.67175572519084,8.870229007633588,0.04580152671755725,-0.418701171875,0.00341796875,-0.30908203125,0.102
-4.67175572519084,9.022900763358779,0.04580152671755725,-0.421142578125,0.002685546875,-0.31787109375,0.1037
-4.763358778625954,9.083969465648854,-0.030534351145038167,-0.419921875,0.00244140625,-0.321533203125,0.1054
-4.67175572519084,8.961832061068701,-0.16793893129770993,-0.42041015625,0.001708984375,-0.314208984375,0.1071
-4.641221374045801,9.022900763358779,-0.24427480916030533,-0.416015625,0.000244140625,-0.31201171875,0.1088
-4.854961832061068,9.114503816793894,-0.24427480916030533,-0.41552734375,0.0029296875,-0.314697265625,0.11049999999999999
-4.763358778625954,9.19083969465649,-0.3511450381679389,-0.413818359375,0.00048828125,-0.31005859375,0.1122
-4.870229007633588,8.992366412213741,-0.32061068702290074,-0.415771484375,0.00732421875,-0.317138671875,0.11389999999999999
-5.068702290076335,9.083969465648854,-0.1984732824427481,-0.412109375,0.0087890625,-0.320068359375,0.1156
-5.068702290076335,9.297709923664122,-0.4732824427480916,-0.4150390625,0.004638671875,-0.318603515625,0.11729999999999999
-4.977099236641221,9.251908396946565,-0.3969465648854962,-0.414794921875,-0.002197265625,-0.321533203125,0.119
-5.00763358778626,9.038167938931299,-0.8244274809160306,-0.415283203125,0.005615234375,-0.315185546875,0.12069999999999999
-5.145038167938932,9.32824427480916,-0.732824427480916,-0.414794921875,0.0,-0.318359375,0.1224
-5.282442748091603,9.297709923664122,-0.6717557251908397,-0.4130859375,0.005615234375,-0.31787109375,0.12409999999999999
-5.190839694656488,9.312977099236642,-0.7022900763358778,-0.41455078125,-0.001220703125,-0.314697265625,0.1258
-5.267175572519084,9.099236641221374,-0.7633587786259542,-0.409912109375,0.00244140625,-0.318603515625,0.1275
-5.282442748091603,9.251908396946565,-0.8244274809160306,-0.414306640625,0.002197265625,-0.322998046875,0.12919999999999998
-5.404580152671755,9.282442748091603,-0.6564885496183206,-0.414794921875,0.006103515625,-0.31298828125,0.1309
-5.465648854961832,9.251908396946565,-0.9618320610687023,-0.40966796875,0.00244140625,-0.312744140625,0.1326
-5.450381679389313,9.236641221374045,-1.0076335877862594,-0.41748046875,-0.0009765625,-0.315185546875,0.1343
-5.66412213740458,9.206106870229007,-0.7938931297709924,-0.418212890625,0.00537109375,-0.32763671875,0.13599999999999998
-5.694656488549619,9.374045801526718,-0.8091603053435115,-0.415771484375,-0.001708984375,-0.320068359375,0.1377
-5.7251908396946565,9.129770992366412,-0.9007633587786259,-0.414794921875,0.004638671875,-0.312255859375,0.1394
-5.679389312977099,9.145038167938932,-0.8854961832061069,-0.4111328125,0.000732421875,-0.31298828125,0.1411
-5.801526717557252,9.17557251908397,-0.9312977099236641,-0.41455078125,0.005126953125,-0.318359375,0.14279999999999998
-6.0458015267175576,8.977099236641221,-0.916030534351145,-0.410400390625,0.00244140625,-0.312255859375,0.1445
-6.030534351145038,8.977099236641221,-0.8244274809160306,-0.41357421875,0.005126953125,-0.31884765625,0.1462
-6.137404580152672,9.007633587786259,-1.0687022900763359,-0.408447265625,0.00244140625,-0.316650390625,0.1479
-6.076335877862595,9.145038167938932,-0.9465648854961832,-0.410400390625,0.00390625,-0.31494140625,0.14959999999999998
-6.015267175572519,9.053435114503817,-1.0687022900763359,-0.4091796875,0.0078125,-0.326416015625,0.1513
-6.351145038167939,8.931297709923664,-1.0687022900763359,-0.4111328125,0.005615234375,-0.319091796875,0.153
-6.473282442748092,8.65648854961832,-1.0076335877862594,-0.409423828125,0.003173828125,-0.318115234375,0.1547
-6.519083969465649,8.595419847328245,-1.0534351145038168,-0.417724609375,0.00244140625,-0.3154296875,0.15639999999999998
-6.259541984732825,8.473282442748092,-1.251908396946565,-0.418701171875,0.005126953125,-0.318115234375,0.1581
-6.305343511450381,8.259541984732824,-1.083969465648855,-0.418701171875,0.003173828125,-0.3125,0.1598
-6.595419847328245,8.351145038167939,-0.916030534351145,-0.413330078125,0.006103515625,-0.312744140625,0.1615
-6.656488549618321,8.274809160305344,-0.9618320610687023,-0.414794921875,0.006103515625,-0.3310546875,0.16319999999999998
-6.6106870229007635,8.091603053435115,-0.8854961832061069,-0.412841796875,-0.001708984375,-0.315185546875,0.1649
-6.473282442748092,7.923664122137405,-0.8091603053435115,-0.412353515625,0.005126953125,-0.310791015625,0.1666
-6.9465648854961835,7.877862595419847,-0.7022900763358778,-0.4140625,0.00439453125,-0.321533203125,0.16829999999999998
-6.961832061068702,7.786259541984733,-0.732824427480916,-0.412353515625,0.00390625,-0.321533203125,0.16999999999999998
-6.778625954198473,7.786259541984733,-0.6564885496183206,-0.413818359375,0.000732421875,-0.3203125,0.1717
-7.190839694656488,7.709923664122138,-0.6259541984732825,-0.40966796875,0.00244140625,-0.32421875,0.1734
-6.885496183206107,7.511450381679389,-0.44274809160305345,-0.41259765625,0.00341796875,-0.3154296875,0.17509999999999998
-6.9465648854961835,7.435114503816794,-0.5343511450381679,-0.411865234375,0.00537109375,-0.3203125,0.17679999999999998
-6.99236641221374,7.190839694656488,-0.42748091603053434,-0.4150390625,0.005615234375,-0.31396484375,0.1785
-7.068702290076335,6.9465648854961835,-0.4122137404580153,-0.41162109375,0.004638671875,-0.31494140625,0.1802
-7.282442748091603,6.961832061068702,-0.4122137404580153,-0.41162109375,0.001708984375,-0.320556640625,0.18189999999999998
-7.099236641221374,6.809160305343512,-0.21374045801526717,-0.413330078125,0.005126953125,-0.31298828125,0.18359999999999999
-7.358778625954199,6.6106870229007635,0.030534351145038167,-0.413330078125,0.00390625,-0.326904296875,0.1853
-7.404580152671755,6.5038167938931295,0.0,-0.413330078125,0.005859375,-0.320556640625,0.187
-7.206106870229007,6.580152671755725,-0.13740458015267176,-0.4140625,0.0068359375,-0.314208984375,0.18869999999999998
-7.3893129770992365,6.534351145038168,-0.1984732824427481,-0.416015625,0.010986328125,-0.316162109375,0.19039999999999999
-7.557251908396947,6.641221374045801,0.07633587786259542,-0.414306640625,0.0048828125,-0.322021484375,0.1921
-7.435114503816794,6.564885496183206,-0.07633587786259542,-0.4130859375,0.0068359375,-0.31640625,0.1938
-7.465648854961832,6.687022900763359,0.10687022900763359,-0.419921875,0.0068359375,-0.3232421875,0.19549999999999998
-7.450381679389313,6.900763358778626,-0.015267175572519083,-0.425048828125,0.009033203125,-0.311279296875,0.1972
-7.480916030534351,7.083969465648855,0.15267175572519084,-0.41796875,0.009033203125,-0.317138671875,0.1989
-7.404580152671755,6.931297709923665,0.061068702290076333,-0.41455078125,0.0126953125,-0.317626953125,0.2006
-7.587786259541985,6.67175572519084,0.030534351145038167,-0.417724609375,0.005859375,-0.31640625,0.20229999999999998
-7.374045801526718,6.870229007633588,0.12213740458015267,-0.41650390625,0.01220703125,-0.31884765625,0.204
-7.419847328244275,6.916030534351145,0.2595419847328244,-0.413818359375,0.01171875,-0.32275390625,0.2057
-7.419847328244275,6.778625954198473,0.2595419847328244,-0.41162109375,0.009033203125,-0.317626953125,0.2074
-7.465648854961832,6.67175572519084,0.4580152671755725,-0.4169921875,0.01171875,-0.31494140625,0.20909999999999998
-7.801526717557252,6.793893129770993,0.16793893129770993,-0.415283203125,0.012451171875,-0.319091796875,0.2108
-7.297709923664122,6.549618320610687,0.2595419847328244,-0.413330078125,0.006103515625,-0.319091796875,0.2125
-7.236641221374046,6.458015267175573,0.2900763358778626,-0.415771484375,0.00927734375,-0.32177734375,0.2142
-7.541984732824427,6.305343511450381,0.2595419847328244,-0.411865234375,0.01025390625,-0.314453125,0.21589999999999998
-7.312977099236641,6.427480916030534,0.4122137404580153,-0.415771484375,0.0146484375,-0.31298828125,0.2176
-7.206106870229007,6.366412213740458,0.2748091603053435,-0.4140625,0.0166015625,-0.3154296875,0.2193
-7.221374045801527,6.3816793893129775,0.12213740458015267,-0.413330078125,0.015625,-0.31982421875,0.22099999999999997
-7.099236641221374,6.366412213740458,0.4580152671755725,-0.41650390625,0.01416015625,-0.31494140625,0.22269999999999998
-7.068702290076335,6.015267175572519,0.22900763358778625,-0.415771484375,0.011474609375,-0.3193359375,0.2244
-7.312977099236641,6.213740458015267,0.5038167938931297,-0.41162109375,0.01123046875,-0.317138671875,0.2261
-7.267175572519084,6.427480916030534,0.3969465648854962,-0.41064453125,0.011474609375,-0.319091796875,0.22779999999999997
-7.0534351145038165,6.305343511450381,0.5190839694656488,-0.4150390625,0.019775390625,-0.315673828125,0.22949999999999998
-6.8396946564885495,6.0,0.5190839694656488,-0.417236328125,0.012939453125,-0.3125,0.2312
-6.99236641221374,6.305343511450381,0.5190839694656488,-0.4140625,0.014892578125,-0.318603515625,0.2329
-6.961832061068702,6.0,0.44274809160305345,-0.41552734375,0.01220703125,-0.316162109375,0.23459999999999998
-6.99236641221374,6.106870229007634,0.6717557251908397,-0.41748046875,0.018310546875,-0.3251953125,0.23629999999999998
-6.8396946564885495,6.0458015267175576,0.6412213740458015,-0.413818359375,0.016357421875,-0.318115234375,0.238
-6.748091603053435,5.877862595419847,0.5648854961832062,-0.411376953125,0.01904296875,-0.323974609375,0.2397
-6.824427480916031,6.0458015267175576,0.3969465648854962,-0.419921875,0.0126953125,-0.325927734375,0.24139999999999998
-6.977099236641221,6.106870229007634,0.5038167938931297,-0.41845703125,0.017333984375,-0.320068359375,0.24309999999999998
-6.748091603053435,5.786259541984733,0.48854961832061067,-0.413330078125,0.01611328125,-0.327392578125,0.2448
-6.473282442748092,5.679389312977099,0.5343511450381679,-0.414306640625,0.014892578125,-0.32080078125,0.2465
-6.412213740458015,5.847328244274809,0.4732824427480916,-0.412841796875,0.010986328125,-0.314453125,0.24819999999999998
-6.442748091603053,5.541984732824427,0.7480916030534351,-0.4140625,0.01611328125,-0.317626953125,0.24989999999999998
-6.641221374045801,5.297709923664122,0.7175572519083969,-0.4130859375,0.015625,-0.319091796875,0.2516
-6.33587786259542,5.4961832061068705,0.7022900763358778,-0.414306640625,0.0185546875,-0.32080078125,0.25329999999999997
-6.244274809160306,5.419847328244275,0.6259541984732825,-0.413330078125,0.01611328125,-0.32275390625,0.255
-6.305343511450381,5.267175572519084,0.7633587786259542,-0.409912109375,0.01513671875,-0.322265625,0.2567
-6.320610687022901,5.145038167938932,0.6106870229007634,-0.410888671875,0.0166015625,-0.31591796875,0.25839999999999996
-6.091603053435114,5.083969465648855,0.8244274809160306,-0.414306640625,0.021240234375,-0.31103515625,0.2601
-6.1679389312977095,4.870229007633588,0.8244274809160306,-0.414794921875,0.0185546875,-0.319091796875,0.2618
-5.938931297709924,4.824427480916031,0.8854961832061069,-0.416748046875,0.02001953125,-0.320068359375,0.2635
-6.213740458015267,4.931297709923665,0.8549618320610687,-0.41064453125,0.01904296875,-0.31884765625,0.2652
-5.9541984732824424,4.534351145038168,0.9923664122137404,-0.415283203125,0.017578125,-0.326904296875,0.26689999999999997
-5.847328244274809,4.473282442748092,0.8702290076335878,-0.41162109375,0.02197265625,-0.323974609375,0.2686
-5.770992366412214,4.687022900763359,1.083969465648855,-0.416748046875,0.016845703125,-0.315673828125,0.2703
-5.755725190839694,4.595419847328245,0.9618320610687023,-0.416748046875,0.015869140625,-0.3203125,0.27199999999999996
-5.786259541984733,4.076335877862595,1.0076335877862594,-0.406494140625,0.01611328125,-0.31201171875,0.2737
-5.679389312977099,4.320610687022901,0.8244274809160306,-0.409912109375,0.017333984375,-0.310546875,0.2754
-5.6183206106870225,4.305343511450381,0.8702290076335878,-0.41064453125,0.017333984375,-0.32080078125,0.27709999999999996
-5.603053435114504,4.0,0.8244274809160306,-0.40625,0.018798828125,-0.31298828125,0.2788
-5.3893129770992365,3.9083969465648853,0.9465648854961832,-0.41064453125,0.018798828125,-0.322021484375,0.28049999999999997
-5.450381679389313,3.7404580152671754,1.0229007633587786,-0.41259765625,0.018798828125,-0.31591796875,0.2822
-5.00763358778626,3.5877862595419847,1.1755725190839694,-0.412353515625,0.019775390625,-0.316650390625,0.2839
-5.343511450381679,3.877862595419847,0.7938931297709924,-0.412841796875,0.021728515625,-0.31494140625,0.28559999999999997
-5.251908396946565,3.4198473282442747,1.2213740458015268,-0.41455078125,0.016357421875,-0.321533203125,0.2873
-5.022900763358779,3.2519083969465647,0.9770992366412213,-0.41162109375,0.02001953125,-0.3154296875,0.289
-4.931297709923665,3.1755725190839694,1.1908396946564885,-0.409912109375,0.021484375,-0.3173828125,0.29069999999999996
-5.114503816793893,3.2213740458015265,1.1297709923664123,-0.4130859375,0.018310546875,-0.321533203125,0.2924
-4.717557251908397,3.145038167938931,1.0534351145038168,-0.41357421875,0.018310546875,-0.322509765625,0.2941
-4.748091603053435,3.0839694656488548,0.8702290076335878,-0.41845703125,0.019775390625,-0.316162109375,0.2958
-4.595419847328245,3.0076335877862594,0.9618320610687023,-0.4140625,0.020751953125,-0.321044921875,0.2975
-4.519083969465649,2.885496183206107,0.8854961832061069,-0.414306640625,0.01953125,-0.314453125,0.29919999999999997
-4.473282442748092,2.8091603053435112,0.732824427480916,-0.41064453125,0.02001953125,-0.31103515625,0.3009
-4.33587786259542,2.931297709923664,0.9007633587786259,-0.415771484375,0.024658203125,-0.3193359375,0.3026
-4.458015267175573,2.7938931297709924,0.9465648854961832,-0.416259765625,0.025634765625,-0.317138671875,0.30429999999999996
-4.061068702290076,2.9618320610687023,0.8549618320610687,-0.4150390625,0.020263671875,-0.319091796875,0.306
-4.061068702290076,2.7480916030534353,0.8702290076335878,-0.419677734375,0.018798828125,-0.312744140625,0.3077
-4.015267175572519,2.687022900763359,1.2671755725190839,-0.41162109375,0.02392578125,-0.322265625,0.3094
-3.8473282442748094,2.763358778625954,1.1450381679389312,-0.4169921875,0.021484375,-0.320556640625,0.3111
-3.7404580152671754,2.7786259541984735,0.8702290076335878,-0.421142578125,0.023193359375,-0.316162109375,0.31279999999999997
-4.0,2.8396946564885495,0.8549618320610687,-0.41015625,0.025634765625,-0.31787109375,0.3145
-3.618320610687023,2.7938931297709924,1.1145038167938932,-0.415771484375,0.0224609375,-0.314453125,0.3162
-3.5114503816793894,2.564885496183206,0.7633587786259542,-0.41259765625,0.02392578125,-0.318359375,0.31789999999999996
-3.5877862595419847,2.717557251908397,0.7938931297709924,-0.414794921875,0.016357421875,-0.325439453125,0.3196
-3.3435114503816794,2.7786259541984735,0.8396946564885496,-0.41845703125,0.0244140625,-0.319091796875,0.3213
-2.9923664122137406,2.7022900763358777,0.8396946564885496,-0.41650390625,0.024169921875,-0.315185546875,0.323
-3.0381679389312977,2.564885496183206,0.8396946564885496,-0.41357421875,0.019287109375,-0.322265625,0.3247
-2.931297709923664,2.5801526717557253,0.8091603053435115,-0.41748046875,0.026123046875,-0.315185546875,0.32639999999999997
-2.900763358778626,2.5801526717557253,0.7786259541984732,-0.41357421875,0.02685546875,-0.31494140625,0.3281
-2.763358778625954,2.4885496183206106,0.5648854961832062,-0.41552734375,0.028076171875,-0.31640625,0.3298
-2.427480916030534,2.50381679389313,0.6717557251908397,-0.4130859375,0.022216796875,-0.31591796875,0.33149999999999996
-2.4885496183206106,2.5343511450381677,0.5648854961832062,-0.415771484375,0.022216796875,-0.3193359375,0.3332
-2.3053435114503817,2.549618320610687,0.5801526717557252,-0.4169921875,0.0244140625,-0.318115234375,0.3349
-2.0916030534351147,2.732824427480916,0.42748091603053434,-0.41162109375,0.02392578125,-0.316162109375,0.33659999999999995
-2.0610687022900764,2.6259541984732824,0.549618320610687,-0.417236328125,0.0263671875,-0.32177734375,0.3383
-1.7709923664122138,2.5801526717557253,0.5954198473282443,-0.41455078125,0.028564453125,-0.3173828125,0.33999999999999997
-1.8473282442748091,2.4885496183206106,0.3511450381679389,-0.415771484375,0.0244140625,-0.327880859375,0.3417
-1.8473282442748091,2.7480916030534353,0.183206106870229,-0.41748046875,0.0263671875,-0.325439453125,0.3434
-1.6488549618320612,2.6717557251908395,0.6106870229007634,-0.417236328125,0.024169921875,-0.32177734375,0.34509999999999996
-1.3893129770992367,2.6259541984732824,0.5190839694656488,-0.415771484375,0.025146484375,-0.3134765625,0.3468
-1.4809160305343512,2.564885496183206,0.24427480916030533,-0.412841796875,0.0263671875,-0.322021484375,0.3485
-1.282442748091603,2.564885496183206,0.2900763358778626,-0.409912109375,0.019287109375,-0.31884765625,0.35019999999999996
-0.916030534351145,2.687022900763359,0.24427480916030533,-0.41552734375,0.0224609375,-0.316650390625,0.3519
-1.0687022900763359,2.4885496183206106,0.183206106870229,-0.4140625,0.02294921875,-0.317138671875,0.35359999999999997
-0.7633587786259542,2.519083969465649,0.16793893129770993,-0.4150390625,0.025634765625,-0.31884765625,0.3553
-0.5648854961832062,2.4427480916030535,0.2900763358778626,-0.413330078125,0.02392578125,-0.31591796875,0.357
-0.7022900763358778,2.519083969465649,0.2900763358778626,-0.412841796875,0.0263671875,-0.31787109375,0.35869999999999996
-0.5954198473282443,2.595419847328244,0.0916030534351145,-0.412841796875,0.0205078125,-0.319580078125,0.3604
-0.22900763358778625,2.427480916030534,0.13740458015267176,-0.41552734375,0.023193359375,-0.318359375,0.3621
-0.33587786259541985,2.366412213740458,0.10687022900763359,-0.414306640625,0.02734375,-0.32666015625,0.36379999999999996
-0.10687022900763359,2.6106870229007635,0.015267175572519083,-0.412841796875,0.024169921875,-0.315185546875,0.3655
-0.15267175572519084,2.6259541984732824,0.015267175572519083,-0.411865234375,0.023193359375,-0.3310546875,0.36719999999999997
0.04580152671755725,2.3053435114503817,-0.061068702290076333,-0.415283203125,0.021240234375,-0.318359375,0.3689
-0.10687022900763359,2.351145038167939,0.061068702290076333,-0.416748046875,0.026611328125,-0.316650390625,0.3706
0.04580152671755725,2.4580152671755724,0.0916030534351145,-0.41455078125,0.02392578125,-0.322509765625,0.37229999999999996
0.3053435114503817,2.3969465648854964,0.061068702290076333,-0.415771484375,0.021484375,-0.3173828125,0.374
0.04580152671755725,2.366412213740458,0.015267175572519083,-0.415771484375,0.020751953125,-0.31591796875,0.3757
0.2595419847328244,2.4732824427480917,0.13740458015267176,-0.416015625,0.01953125,-0.314453125,0.37739999999999996
0.48854961832061067,2.2748091603053435,0.07633587786259542,-0.42138671875,0.017822265625,-0.316162109375,0.3791
0.5801526717557252,2.3206106870229006,-0.07633587786259542,-0.419677734375,0.0263671875,-0.3251953125,0.38079999999999997
0.44274809160305345,2.213740458015267,0.22900763358778625,-0.413818359375,0.025390625,-0.317138671875,0.38249999999999995
0.5190839694656488,2.3053435114503817,0.16793893129770993,-0.4169921875,0.027099609375,-0.31884765625,0.3842
0.44274809160305345,2.33587786259542,0.061068702290076333,-0.41748046875,0.02197265625,-0.315185546875,0.38589999999999997
0.5190839694656488,2.2442748091603053,0.1984732824427481,-0.417724609375,0.02001953125,-0.318115234375,0.3876
0.5801526717557252,2.427480916030534,0.21374045801526717,-0.415283203125,0.01904296875,-0.312744140625,0.3893
0.32061068702290074,2.213740458015267,0.1984732824427481,-0.413330078125,0.0185546875,-0.317626953125,0.39099999999999996
0.732824427480916,2.2748091603053435,0.15267175572519084,-0.41357421875,0.015869140625,-0.31201171875,0.3927
0.7786259541984732,2.4122137404580153,0.32061068702290074,-0.41796875,0.021484375,-0.32275390625,0.3944
0.8244274809160306,2.351145038167939,0.32061068702290074,-0.416748046875,0.0244140625,-0.328857421875,0.39609999999999995
0.732824427480916,2.2748091603053435,0.3053435114503817,-0.418212890625,0.02294921875,-0.3203125,0.3978
0.6717557251908397,2.549618320610687,0.2595419847328244,-0.41455078125,0.020263671875,-0.318603515625,0.39949999999999997
0.8854961832061069,2.4427480916030535,0.5038167938931297,-0.412109375,0.019775390625,-0.32763671875,0.4012
0.9007633587786259,2.366412213740458,0.2595419847328244,-0.415771484375,0.020263671875,-0.31689453125,0.4029
0.7938931297709924,2.4427480916030535,0.42748091603053434,-0.416259765625,0.016357421875,-0.31494140625,0.40459999999999996
0.7175572519083969,2.6106870229007635,0.2595419847328244,-0.413818359375,0.019287109375,-0.319091796875,0.4063
0.7938931297709924,2.3206106870229006,0.3511450381679389,-0.41552734375,0.021240234375,-0.31396484375,0.408
0.7633587786259542,2.3969465648854964,0.5038167938931297,-0.413330078125,0.015625,-0.31640625,0.40969999999999995
0.9618320610687023,2.381679389312977,0.5038167938931297,-0.41357421875,0.017578125,-0.324951171875,0.4114
0.9007633587786259,2.3969465648854964,0.3969465648854962,-0.417236328125,0.01806640625,-0.3134765625,0.41309999999999997
0.916030534351145,2.366412213740458,0.5648854961832062,-0.4169921875,0.021240234375,-0.31640625,0.4148
0.8549618320610687,2.427480916030534,0.6106870229007634,-0.41796875,0.015869140625,-0.325439453125,0.4165
0.8396946564885496,2.4580152671755724,0.6106870229007634,-0.421142578125,0.01953125,-0.32470703125,0.41819999999999996
1.0687022900763359,2.5343511450381677,0.32061068702290074,-0.421142578125,0.01904296875,-0.32861328125,0.4199
0.732824427480916,2.427480916030534,0.5801526717557252,-0.422607421875,0.01806640625,-0.31884765625,0.4216
0.9923664122137404,2.6412213740458017,0.6564885496183206,-0.421875,0.015380859375,-0.322998046875,0.42329999999999995
1.282442748091603,2.6106870229007635,0.7480916030534351,-0.42333984375,0.0205078125,-0.314208984375,0.425
1.1755725190839694,2.7022900763358777,0.33587786259541985,-0.4208984375,0.02099609375,-0.320556640625,0.42669999999999997
0.9770992366412213,2.8091603053435112,0.4732824427480916,-0.417724609375,0.021728515625,-0.32177734375,0.4284
0.8244274809160306,2.9770992366412212,0.48854961832061067,-0.411865234375,0.01611328125,-0.31982421875,0.4301
1.0687022900763359,2.7938931297709924,0.5648854961832062,-0.4169921875,0.02294921875,-0.324462890625,0.43179999999999996
1.2366412213740459,2.885496183206107,0.3511450381679389,-0.419921875,0.021240234375,-0.3154296875,0.4335
0.9770992366412213,3.053435114503817,0.3511450381679389,-0.41650390625,0.0185546875,-0.31787109375,0.4352
0.9770992366412213,3.145038167938931,0.5648854961832062,-0.4228515625,0.018798828125,-0.3232421875,0.43689999999999996
1.2061068702290076,3.0381679389312977,0.5343511450381679,-0.419921875,0.020263671875,-0.326171875,0.4386
0.9923664122137404,3.2213740458015265,0.3511450381679389,-0.417724609375,0.0146484375,-0.328125,0.44029999999999997
1.1297709923664123,3.145038167938931,0.4122137404580153,-0.4208984375,0.018310546875,-0.32275390625,0.44199999999999995
1.282442748091603,3.3435114503816794,0.4580152671755725,-0.416259765625,0.01318359375,-0.32470703125,0.4437
1.083969465648855,3.5114503816793894,0.5954198473282443,-0.41455078125,0.010986328125,-0.3251953125,0.44539999999999996
1.1603053435114503,3.2519083969465647,0.5190839694656488,-0.421142578125,0.017822265625,-0.328369140625,0.4471
1.083969465648855,3.5877862595419847,0.5648854961832062,-0.41748046875,0.014404296875,-0.321533203125,0.4488
1.297709923664122,3.450381679389313,0.4122137404580153,-0.413330078125,0.018798828125,-0.31201171875,0.45049999999999996
1.0687022900763359,3.404580152671756,0.549618320610687,-0.413330078125,0.017822265625,-0.323974609375,0.4522
1.1145038167938932,3.633587786259542,0.32061068702290074,-0.416748046875,0.02001953125,-0.327880859375,0.45389999999999997
1.1297709923664123,3.6946564885496183,0.5343511450381679,-0.419921875,0.019287109375,-0.319580078125,0.45559999999999995
1.099236641221374,3.7404580152671754,0.2595419847328244,-0.416748046875,0.01708984375,-0.319091796875,0.4573
1.1450381679389312,3.633587786259542,0.3969465648854962,-0.415771484375,0.01708984375,-0.328369140625,0.45899999999999996
1.1297709923664123,3.7404580152671754,0.4122137404580153,-0.416015625,0.021728515625,-0.3271484375,0.4607
1.1603053435114503,3.8931297709923665,0.4580152671755725,-0.417724609375,0.013916015625,-0.330078125,0.4624
1.0229007633587786,3.9389312977099236,0.2595419847328244,-0.421630859375,0.022216796875,-0.320068359375,0.46409999999999996
0.8396946564885496,3.954198473282443,0.5648854961832062,-0.41845703125,0.01611328125,-0.3330078125,0.4658
0.6564885496183206,3.786259541984733,0.32061068702290074,-0.418212890625,0.01416015625,-0.322509765625,0.46749999999999997
0.8549618320610687,4.076335877862595,0.5801526717557252,-0.41796875,0.013671875,-0.32373046875,0.46919999999999995
0.8396946564885496,4.061068702290076,0.4732824427480916,-0.413330078125,0.015625,-0.321044921875,0.4709
0.7786259541984732,4.076335877862595,0.44274809160305345,-0.41162109375,0.014404296875,-0.32177734375,0.47259999999999996
0.8702290076335878,4.1679389312977095,0.15267175572519084,-0.414794921875,0.01318359375,-0.331298828125,0.4743
0.9770992366412213,4.33587786259542,0.4732824427480916,-0.41650390625,0.014892578125,-0.328857421875,0.476
0.5343511450381679,4.091603053435114,0.3969465648854962,-0.417236328125,0.017822265625,-0.327392578125,0.47769999999999996
0.5954198473282443,4.183206106870229,0.3053435114503817,-0.4189453125,0.016357421875,-0.32763671875,0.4794
0.8091603053435115,4.137404580152672,0.44274809160305345,-0.413330078125,0.015625,-0.32275390625,0.48109999999999997
0.5954198473282443,4.076335877862595,0.48854961832061067,-0.413330078125,0.013916015625,-0.324951171875,0.48279999999999995
0.9923664122137404,4.2748091603053435,0.21374045801526717,-0.416748046875,0.01123046875,-0.324951171875,0.4845
0.6717557251908397,4.183206106870229,0.366412213740458,-0.415283203125,0.017578125,-0.317138671875,0.48619999999999997
0.7175572519083969,4.229007633587786,0.16793893129770993,-0.4150390625,0.01708984375,-0.32763671875,0.4879
0.5801526717557252,4.2748091603053435,0.4122137404580153,-0.41015625,0.015625,-0.32421875,0.4896
0.3816793893129771,4.1679389312977095,0.33587786259541985,-0.413330078125,0.01318359375,-0.3193359375,0.49129999999999996
0.48854961832061067,4.0,0.3969465648854962,-0.412353515625,0.013427734375,-0.329345703125,0.493
0.48854961832061067,4.030534351145038,0.32061068702290074,-0.413330078125,0.01904296875,-0.326904296875,0.4947
0.32061068702290074,4.106870229007634,0.366412213740458,-0.410888671875,0.016357421875,-0.3203125,0.49639999999999995
0.32061068702290074,3.954198473282443,0.07633587786259542,-0.42041015625,0.01513671875,-0.3271484375,0.4981
0.15267175572519084,3.954198473282443,0.3969465648854962,-0.41552734375,0.017822265625,-0.32470703125,0.49979999999999997
0.061068702290076333,4.030534351145038,0.3053435114503817,-0.412109375,0.017333984375,-0.32861328125,0.5015
0.24427480916030533,3.954198473282443,0.4122137404580153,-0.412109375,0.01611328125,-0.330810546875,0.5032
0.3511450381679389,3.954198473282443,0.21374045801526717,-0.41162109375,0.01220703125,-0.320068359375,0.5049
0.32061068702290074,4.076335877862595,0.366412213740458,-0.41064453125,0.0146484375,-0.322265625,0.5065999999999999
0.13740458015267176,4.030534351145038,0.183206106870229,-0.415771484375,0.013916015625,-0.32666015625,0.5083
0.15267175572519084,3.984732824427481,0.183206106870229,-0.4150390625,0.0107421875,-0.3232421875,0.51
-0.0916030534351145,3.984732824427481,0.2900763358778626,-0.415771484375,0.014404296875,-0.3232421875,0.5116999999999999
-0.21374045801526717,3.9236641221374047,0.3969465648854962,-0.414794921875,0.010009765625,-0.323486328125,0.5134
-0.2748091603053435,3.7251908396946565,0.24427480916030533,-0.4052734375,0.017578125,-0.3251953125,0.5151
-0.21374045801526717,3.7099236641221376,0.3053435114503817,-0.413330078125,0.011962890625,-0.327392578125,0.5167999999999999
-0.15267175572519084,3.969465648854962,0.10687022900763359,-0.41064453125,0.013427734375,-0.331787109375,0.5185
-0.21374045801526717,3.816793893129771,0.2748091603053435,-0.414306640625,0.015869140625,-0.326416015625,0.5202
-0.5190839694656488,3.5267175572519083,0.3816793893129771,-0.409912109375,0.01171875,-0.3251953125,0.5218999999999999
-0.5801526717557252,3.480916030534351,0.366412213740458,-0.414794921875,0.011962890625,-0.334228515625,0.5236
-0.42748091603053434,3.3893129770992365,0.33587786259541985,-0.413330078125,0.011474609375,-0.3330078125,0.5253
-0.5801526717557252,3.3740458015267176,0.48854961832061067,-0.407958984375,0.01806640625,-0.326904296875,0.527
-0.7175572519083969,3.3587786259541983,0.24427480916030533,-0.41015625,0.019775390625,-0.32861328125,0.5287
-0.732824427480916,3.267175572519084,0.2900763358778626,-0.413330078125,0.017578125,-0.32568359375,0.5304
-0.7786259541984732,2.931297709923664,0.3969465648854962,-0.41552734375,0.016845703125,-0.314453125,0.5321
-0.6870229007633588,3.2519083969465647,0.3816793893129771,-0.41162109375,0.008544921875,-0.312255859375,0.5337999999999999
-0.5801526717557252,3.267175572519084,0.21374045801526717,-0.40869140625,0.016357421875,-0.318603515625,0.5355
-0.8702290076335878,3.068702290076336,0.5648854961832062,-0.414794921875,0.021484375,-0.319580078125,0.5372
-0.9923664122137404,2.8702290076335877,0.32061068702290074,-0.41064453125,0.01708984375,-0.328125,0.5388999999999999
-1.1297709923664123,2.885496183206107,0.5038167938931297,-0.41015625,0.02001953125,-0.328369140625,0.5406
-0.9770992366412213,2.717557251908397,0.5343511450381679,-0.40576171875,0.01513671875,-0.33056640625,0.5423
-1.1145038167938932,2.595419847328244,0.3969465648854962,-0.4091796875,0.01123046875,-0.325927734375,0.5439999999999999
-1.251908396946565,2.427480916030534,0.5038167938931297,-0.406494140625,0.0146484375,-0.325927734375,0.5457
-1.099236641221374,2.4122137404580153,0.6412213740458015,-0.41455078125,0.013671875,-0.324951171875,0.5474
-1.0381679389312977,2.4427480916030535,0.6259541984732825,-0.409423828125,0.01611328125,-0.319580078125,0.5490999999999999
-1.099236641221374,2.2900763358778624,0.6259541984732825,-0.406494140625,0.01318359375,-0.318359375,0.5508
-1.297709923664122,2.2748091603053435,0.7938931297709924,-0.41162109375,0.015625,-0.318603515625,0.5525
-1.618320610687023,1.984732824427481,0.6870229007633588,-0.417236328125,0.017333984375,-0.31689453125,0.5541999999999999
-1.4961832061068703,2.2900763358778624,0.7480916030534351,-0.409423828125,0.021240234375,-0.327880859375,0.5559
-1.5114503816793894,1.8473282442748091,0.9007633587786259,-0.4140625,0.01416015625,-0.323974609375,0.5576
-1.618320610687023,2.0,0.8854961832061069,-0.412841796875,0.015380859375,-0.326416015625,0.5593
-1.4961832061068703,2.0763358778625953,0.9007633587786259,-0.406494140625,0.011474609375,-0.325927734375,0.5609999999999999
-1.465648854961832,1.9389312977099236,0.8091603053435115,-0.407470703125,0.0166015625,-0.32861328125,0.5627
-1.618320610687023,2.0610687022900764,0.9618320610687023,-0.41259765625,0.014892578125,-0.326904296875,0.5644
-1.6946564885496183,1.9389312977099236,1.0534351145038168,-0.412109375,0.010986328125,-0.32275390625,0.5660999999999999
-1.7557251908396947,1.7557251908396947,1.2671755725190839,-0.41162109375,0.014404296875,-0.316162109375,0.5678
-1.83206106870229,1.83206106870229,1.0687022900763359,-0.416015625,0.01611328125,-0.3212890625,0.5695
-1.8473282442748091,1.8778625954198473,1.0687022900763359,-0.4130859375,0.0185546875,-0.32275390625,0.5711999999999999
-1.8931297709923665,1.7404580152671756,1.083969465648855,-0.412353515625,0.012451171875,-0.32666015625,0.5729
-1.9694656488549618,1.4198473282442747,1.3282442748091603,-0.41162109375,0.01318359375,-0.328369140625,0.5746
-2.030534351145038,1.5725190839694656,1.1297709923664123,-0.412841796875,0.01904296875,-0.32080078125,0.5762999999999999
-1.8015267175572518,1.633587786259542,1.1755725190839694,-0.414306640625,0.017822265625,-0.324951171875,0.578
-2.122137404580153,1.3435114503816794,1.1297709923664123,-0.41259765625,0.0185546875,-0.324951171875,0.5797
-1.8778625954198473,1.5114503816793894,1.4961832061068703,-0.41650390625,0.01513671875,-0.325439453125,0.5813999999999999
-2.030534351145038,1.4045801526717556,1.3740458015267176,-0.41162109375,0.013427734375,-0.321044921875,0.5831
-2.1068702290076335,1.5114503816793894,1.3129770992366412,-0.413818359375,0.0126953125,-0.320556640625,0.5848
-1.9236641221374047,1.282442748091603,1.4351145038167938,-0.417236328125,0.017333984375,-0.322265625,0.5865
-2.0763358778625953,1.450381679389313,1.5267175572519085,-0.41015625,0.01953125,-0.326904296875,0.5882
-2.351145038167939,1.3282442748091603,1.6030534351145038,-0.4111328125,0.01806640625,-0.325439453125,0.5899
-2.0916030534351147,1.4809160305343512,1.7557251908396947,-0.411865234375,0.017578125,-0.326171875,0.5916
-2.015267175572519,1.5419847328244274,1.6641221374045803,-0.416015625,0.01904296875,-0.329833984375,0.5932999999999999
-2.1526717557251906,1.5572519083969465,1.6030534351145038,-0.41015625,0.019775390625,-0.32470703125,0.595
-2.045801526717557,1.7404580152671756,1.7709923664122138,-0.4091796875,0.0244140625,-0.320556640625,0.5967
-2.2442748091603053,1.786259541984733,1.8015267175572518,-0.414794921875,0.017822265625,-0.326171875,0.5983999999999999
-2.2442748091603053,1.7709923664122138,1.7709923664122138,-0.409912109375,0.02099609375,-0.315185546875,0.6001
-2.0,1.6488549618320612,1.8015267175572518,-0.41259765625,0.01904296875,-0.317138671875,0.6018
-2.1526717557251906,1.5419847328244274,1.7251908396946565,-0.411376953125,0.018310546875,-0.32177734375,0.6034999999999999
-2.16793893129771,1.786259541984733,1.7557251908396947,-0.4140625,0.023193359375,-0.32470703125,0.6052
-2.366412213740458,2.015267175572519,1.83206106870229,-0.412841796875,0.027099609375,-0.323974609375,0.6069
-2.366412213740458,1.816793893129771,1.9236641221374047,-0.4130859375,0.015380859375,-0.323486328125,0.6085999999999999
-2.351145038167939,1.786259541984733,2.0,-0.413330078125,0.021728515625,-0.3271484375,0.6103
-2.381679389312977,1.8931297709923665,1.9389312977099236,-0.404541015625,0.02197265625,-0.328857421875,0.612
-2.1374045801526718,1.9694656488549618,2.16793893129771,-0.412109375,0.01708984375,-0.32177734375,0.6136999999999999
-2.3206106870229006,1.9541984732824427,2.015267175572519,-0.410400390625,0.01953125,-0.318115234375,0.6154
-2.198473282442748,1.9541984732824427,2.381679389312977,-0.411865234375,0.0166015625,-0.316650390625,0.6171
-2.33587786259542,1.9541984732824427,2.33587786259542,-0.412841796875,0.02001953125,-0.31787109375,0.6188
-2.2442748091603053,1.9541984732824427,2.2595419847328246,-0.414794921875,0.02001953125,-0.31640625,0.6204999999999999
-2.2595419847328246,2.564885496183206,2.3053435114503817,-0.413330078125,0.0283203125,-0.32421875,0.6222
-2.183206106870229,2.2900763358778624,2.4885496183206106,-0.41064453125,0.021484375,-0.326416015625,0.6239
-2.2595419847328246,2.2748091603053435,2.198473282442748,-0.41650390625,0.02490234375,-0.322021484375,0.6255999999999999
-2.2442748091603053,2.3206106870229006,2.351145038167939,-0.412841796875,0.02392578125,-0.3173828125,0.6273
-2.2900763358778624,2.3969465648854964,2.4427480916030535,-0.420654296875,0.019775390625,-0.319580078125,0.629
-2.213740458015267,2.519083969465649,2.4732824427480917,-0.4140625,0.0244140625,-0.321044921875,0.6306999999999999
-2.16793893129771,2.687022900763359,2.213740458015267,-0.412353515625,0.018310546875,-0.32568359375,0.6324
-2.2748091603053435,2.7480916030534353,2.519083969465649,-0.408447265625,0.02294921875,-0.321533203125,0.6341
-2.1374045801526718,2.6564885496183206,2.564885496183206,-0.407958984375,0.027099609375,-0.32421875,0.6357999999999999
-2.381679389312977,2.732824427480916,2.5343511450381677,-0.409912109375,0.021484375,-0.327392578125,0.6375
-2.015267175572519,2.8702290076335877,2.4732824427480917,-0.41552734375,0.021484375,-0.322021484375,0.6392
-2.030534351145038,2.7480916030534353,2.9160305343511452,-0.416259765625,0.02490234375,-0.3251953125,0.6408999999999999
-1.8625954198473282,2.8702290076335877,2.763358778625954,-0.411376953125,0.01904296875,-0.321533203125,0.6426
-2.1374045801526718,2.7480916030534353,2.6106870229007635,-0.41259765625,0.02685546875,-0.331787109375,0.6443
-2.16793893129771,2.8091603053435112,2.6259541984732824,-0.412109375,0.024169921875,-0.325927734375,0.646
-2.015267175572519,2.8244274809160306,2.8702290076335877,-0.411865234375,0.0205078125,-0.32958984375,0.6476999999999999
-2.015267175572519,2.732824427480916,2.7480916030534353,-0.41015625,0.0244140625,-0.32763671875,0.6494
-1.984732824427481,2.7938931297709924,2.7786259541984735,-0.411376953125,0.024169921875,-0.31494140625,0.6511
-1.9694656488549618,2.687022900763359,2.946564885496183,-0.41064453125,0.024658203125,-0.321044921875,0.6527999999999999
-2.0763358778625953,2.5801526717557253,3.1755725190839694,-0.4130859375,0.02392578125,-0.326171875,0.6545
-2.183206106870229,2.8244274809160306,3.099236641221374,-0.413818359375,0.02685546875,-0.314208984375,0.6562
-2.1374045801526718,2.763358778625954,3.1603053435114505,-0.41552734375,0.02880859375,-0.3251953125,0.6578999999999999
-2.183206106870229,2.7938931297709924,3.0229007633587788,-0.41845703125,0.028564453125,-0.319091796875,0.6596
-2.2290076335877864,2.8244274809160306,3.404580152671756,-0.414794921875,0.025390625,-0.32666015625,0.6613
-2.198473282442748,2.885496183206107,3.2061068702290076,-0.414306640625,0.026123046875,-0.325927734375,0.6629999999999999
-1.9083969465648856,3.0076335877862594,3.480916030534351,-0.4140625,0.025390625,-0.326171875,0.6647
-2.0763358778625953,2.9618320610687023,3.5114503816793894,-0.413330078125,0.02099609375,-0.319580078125,0.6664
-2.1526717557251906,3.0076335877862594,3.435114503816794,-0.413818359375,0.02978515625,-0.327392578125,0.6680999999999999
-2.0610687022900764,2.854961832061069,3.5419847328244276,-0.41259765625,0.02734375,-0.3251953125,0.6698
-1.984732824427481,2.9770992366412212,3.83206106870229,-0.416015625,0.022216796875,-0.319580078125,0.6715
-1.83206106870229,2.900763358778626,3.633587786259542,-0.412109375,0.02783203125,-0.32763671875,0.6731999999999999
-1.8931297709923665,3.0076335877862594,3.633587786259542,-0.41455078125,0.033203125,-0.33056640625,0.6748999999999999
-1.984732824427481,2.9923664122137406,3.6030534351145036,-0.41357421875,0.0283203125,-0.324462890625,0.6766
-1.9694656488549618,3.053435114503817,3.7557251908396947,-0.41357421875,0.02490234375,-0.324951171875,0.6783
-1.9694656488549618,3.0381679389312977,3.8473282442748094,-0.4140625,0.033203125,-0.330810546875,0.6799999999999999
-1.8778625954198473,3.0076335877862594,3.816793893129771,-0.41455078125,0.029541015625,-0.3251953125,0.6817
-1.786259541984733,2.9618320610687023,4.030534351145038,-0.41650390625,0.022216796875,-0.332275390625,0.6834
-1.7099236641221374,2.9923664122137406,4.33587786259542,-0.4130859375,0.029541015625,-0.323486328125,0.6850999999999999
-1.9236641221374047,2.931297709923664,4.091603053435114,-0.416015625,0.02734375,-0.328125,0.6868
-1.7404580152671756,2.854961832061069,4.091603053435114,-0.4140625,0.0380859375,-0.33056640625,0.6885
-1.7099236641221374,2.8396946564885495,3.9083969465648853,-0.414306640625,0.030517578125,-0.326171875,0.6901999999999999
-1.786259541984733,2.6564885496183206,4.061068702290076,-0.418701171875,0.03271484375,-0.321044921875,0.6919
-1.4961832061068703,2.564885496183206,4.015267175572519,-0.411865234375,0.036376953125,-0.326171875,0.6936
-1.465648854961832,2.6412213740458017,4.1679389312977095,-0.4111328125,0.03369140625,-0.318603515625,0.6952999999999999
-1.465648854961832,2.564885496183206,4.213740458015267,-0.408447265625,0.03515625,-0.331787109375,0.697
-1.4045801526717556,2.4732824427480917,4.473282442748092,-0.406494140625,0.03759765625,-0.322265625,0.6987
-1.2061068702290076,2.2595419847328246,4.290076335877862,-0.4072265625,0.03466796875,-0.321044921875,0.7003999999999999
-1.1145038167938932,2.183206106870229,4.305343511450381,-0.408935546875,0.036376953125,-0.322265625,0.7021
-1.1908396946564885,1.9694656488549618,4.091603053435114,-0.411865234375,0.034423828125,-0.3251953125,0.7038
-1.1297709923664123,1.83206106870229,4.412213740458015,-0.41259765625,0.034423828125,-0.327392578125,0.7055
-1.1908396946564885,1.6793893129770991,4.366412213740458,-0.40673828125,0.034423828125,-0.3212890625,0.7071999999999999
-1.2671755725190839,1.5572519083969465,4.488549618320611,-0.40625,0.033203125,-0.31982421875,0.7089
-0.7786259541984732,1.4045801526717556,4.351145038167939,-0.408447265625,0.033447265625,-0.314697265625,0.7106
-0.9618320610687023,1.2061068702290076,4.564885496183206,-0.405517578125,0.032958984375,-0.318359375,0.7122999999999999
-0.7633587786259542,1.1297709923664123,4.488549618320611,-0.40771484375,0.0390625,-0.3232421875,0.714
-0.48854961832061067,0.7633587786259542,4.396946564885496,-0.404052734375,0.03515625,-0.319580078125,0.7157
-0.44274809160305345,0.7175572519083969,4.412213740458015,-0.408203125,0.037109375,-0.326904296875,0.7173999999999999
-0.32061068702290074,0.5190839694656488,4.412213740458015,-0.40771484375,0.035888671875,-0.318359375,0.7191
-0.3053435114503817,0.42748091603053434,4.351145038167939,-0.40673828125,0.035400390625,-0.31884765625,0.7208
-0.22900763358778625,0.16793893129770993,4.702290076335878,-0.408935546875,0.035888671875,-0.318603515625,0.7224999999999999
-0.12213740458015267,-0.07633587786259542,4.458015267175573,-0.40576171875,0.041015625,-0.319580078125,0.7242
0.0916030534351145,-0.04580152671755725,4.595419847328245,-0.405517578125,0.03759765625,-0.318603515625,0.7259
0.21374045801526717,-0.2900763358778626,4.229007633587786,-0.404296875,0.036865234375,-0.315673828125,0.7275999999999999
0.0916030534351145,-0.4580152671755725,4.396946564885496,-0.41064453125,0.040771484375,-0.3125,0.7293
0.5801526717557252,-0.732824427480916,4.244274809160306,-0.407958984375,0.040283203125,-0.3173828125,0.731
0.6106870229007634,-0.7786259541984732,4.3816793893129775,-0.407958984375,0.038330078125,-0.3154296875,0.7326999999999999
0.5343511450381679,-0.9465648854961832,4.320610687022901,-0.41455078125,0.03662109375,-0.318603515625,0.7343999999999999
0.7786259541984732,-1.0534351145038168,4.427480916030534,-0.40869140625,0.0390625,-0.322021484375,0.7361
0.8702290076335878,-1.099236641221374,4.137404580152672,-0.40283203125,0.036376953125,-0.3125,0.7378
1.297709923664122,-1.4045801526717556,4.213740458015267,-0.4091796875,0.03564453125,-0.32470703125,0.7394999999999999
1.297709923664122,-1.1297709923664123,4.351145038167939,-0.406494140625,0.040771484375,-0.32568359375,0.7412
1.4198473282442747,-1.4351145038167938,4.320610687022901,-0.413818359375,0.03955078125,-0.317626953125,0.7429
1.3587786259541985,-1.5419847328244274,4.244274809160306,-0.4091796875,0.0380859375,-0.31298828125,0.7445999999999999
1.7404580152671756,-1.7557251908396947,4.244274809160306,-0.409423828125,0.0419921875,-0.320556640625,0.7463
1.7709923664122138,-1.6641221374045803,4.183206106870229,-0.41064453125,0.038818359375,-0.3193359375,0.748
1.83206106870229,-1.7709923664122138,4.076335877862595,-0.40771484375,0.0390625,-0.322021484375,0.7496999999999999
2.0763358778625953,-1.7099236641221374,4.061068702290076,-0.41064453125,0.036376953125,-0.320556640625,0.7514
2.2748091603053435,-1.7709923664122138,4.1679389312977095,-0.413330078125,0.0361328125,-0.321044921875,0.7531
2.1068702290076335,-1.9389312977099236,4.015267175572519,-0.41552734375,0.033203125,-0.312744140625,0.7547999999999999
2.427480916030534,-2.0916030534351147,4.106870229007634,-0.40869140625,0.03466796875,-0.31982421875,0.7565
2.6259541984732824,-2.0763358778625953,3.954198473282443,-0.41064453125,0.035888671875,-0.316650390625,0.7582
2.6259541984732824,-2.198473282442748,3.9083969465648853,-0.406982421875,0.036865234375,-0.324462890625,0.7598999999999999
2.687022900763359,-2.3206106870229006,3.954198473282443,-0.407470703125,0.03759765625,-0.312255859375,0.7615999999999999
2.8091603053435112,-2.4885496183206106,4.106870229007634,-0.411376953125,0.0439453125,-0.313720703125,0.7633
2.854961832061069,-2.519083969465649,3.786259541984733,-0.41064453125,0.041748046875,-0.3212890625,0.7649999999999999
3.0839694656488548,-2.6412213740458017,3.618320610687023,-0.413330078125,0.039794921875,-0.322021484375,0.7666999999999999
3.236641221374046,-2.366412213740458,3.5572519083969465,-0.41259765625,0.03466796875,-0.318603515625,0.7684
3.282442748091603,-2.4885496183206106,3.66412213740458,-0.41748046875,0.031005859375,-0.3212890625,0.7701
3.3435114503816794,-2.4885496183206106,3.801526717557252,-0.41650390625,0.0380859375,-0.320556640625,0.7717999999999999
3.5267175572519083,-2.5801526717557253,3.7099236641221376,-0.42041015625,0.039794921875,-0.3232421875,0.7735
3.5419847328244276,-2.7938931297709924,3.6793893129770994,-0.418212890625,0.03271484375,-0.322998046875,0.7752
3.6946564885496183,-2.5801526717557253,3.6946564885496183,-0.413818359375,0.037109375,-0.318359375,0.7768999999999999
3.5877862595419847,-2.595419847328244,3.3740458015267176,-0.417724609375,0.041259765625,-0.318603515625,0.7786
4.0,-2.366412213740458,3.404580152671756,-0.413330078125,0.0361328125,-0.31689453125,0.7803
3.9236641221374047,-2.351145038167939,3.404580152671756,-0.41552734375,0.037109375,-0.32958984375,0.7819999999999999
4.061068702290076,-2.519083969465649,3.618320610687023,-0.415771484375,0.03515625,-0.315185546875,0.7837
4.3816793893129775,-2.381679389312977,3.49618320610687,-0.42138671875,0.033203125,-0.31884765625,0.7854
4.183206106870229,-2.3969465648854964,3.633587786259542,-0.416015625,0.03271484375,-0.318603515625,0.7870999999999999
4.076335877862595,-2.4122137404580153,3.7099236641221376,-0.419921875,0.036865234375,-0.318359375,0.7888
4.259541984732825,-2.16793893129771,3.49618320610687,-0.41650390625,0.040283203125,-0.317626953125,0.7905
4.427480916030534,-2.2442748091603053,3.4656488549618323,-0.41796875,0.0439453125,-0.322998046875,0.7921999999999999
4.259541984732825,-2.1526717557251906,3.236641221374046,-0.41796875,0.040771484375,-0.32861328125,0.7938999999999999
4.427480916030534,-2.015267175572519,3.2213740458015265,-0.414794921875,0.031005859375,-0.318603515625,0.7956
4.458015267175573,-1.9694656488549618,3.4198473282442747,-0.416015625,0.030517578125,-0.31591796875,0.7973
4.320610687022901,-2.213740458015267,3.3587786259541983,-0.414794921875,0.036376953125,-0.31103515625,0.7989999999999999
4.473282442748092,-2.015267175572519,3.4656488549618323,-0.414306640625,0.031982421875,-0.32421875,0.8007
4.305343511450381,-1.7709923664122138,3.3587786259541983,-0.411865234375,0.037841796875,-0.328125,0.8024
4.320610687022901,-1.8473282442748091,3.618320610687023,-0.41552734375,0.0283203125,-0.31689453125,0.8040999999999999
4.5038167938931295,-1.9694656488549618,3.6030534351145036,-0.417724609375,0.03564453125,-0.3232421875,0.8058
4.061068702290076,-1.9236641221374047,3.49618320610687,-0.42138671875,0.03173828125,-0.324462890625,0.8075
4.290076335877862,-2.0610687022900764,3.5419847328244276,-0.42431640625,0.030517578125,-0.324951171875,0.8091999999999999
4.534351145038168,-1.9541984732824427,3.4656488549618323,-0.417236328125,0.03369140625,-0.319580078125,0.8109
4.244274809160306,-1.8625954198473282,3.572519083969466,-0.41650390625,0.034912109375,-0.320068359375,0.8126
4.1679389312977095,-1.9083969465648856,3.7251908396946565,-0.41796875,0.03125,-0.317138671875,0.8142999999999999
4.122137404580153,-1.83206106870229,3.618320610687023,-0.418212890625,0.02978515625,-0.320068359375,0.816
4.2748091603053435,-1.8015267175572518,3.816793893129771,-0.414794921875,0.03076171875,-0.316650390625,0.8177
4.320610687022901,-1.6641221374045803,3.7251908396946565,-0.41259765625,0.03271484375,-0.32421875,0.8193999999999999
3.9389312977099236,-1.5877862595419847,3.618320610687023,-0.418212890625,0.029296875,-0.323974609375,0.8210999999999999
3.801526717557252,-1.9083969465648856,3.6946564885496183,-0.41259765625,0.033203125,-0.318359375,0.8228
3.954198473282443,-1.8931297709923665,3.7404580152671754,-0.417236328125,0.031494140625,-0.32421875,0.8244999999999999
3.9389312977099236,-1.7557251908396947,3.83206106870229,-0.415283203125,0.0322265625,-0.326904296875,0.8261999999999999
3.7709923664122136,-1.6793893129770991,3.9236641221374047,-0.41796875,0.0341796875,-0.32373046875,0.8279
3.7404580152671754,-1.618320610687023,3.954198473282443,-0.418212890625,0.02880859375,-0.326904296875,0.8296
3.6030534351145036,-1.8015267175572518,4.030534351145038,-0.41748046875,0.030517578125,-0.329345703125,0.8312999999999999
3.5419847328244276,-1.7557251908396947,3.984732824427481,-0.4189453125,0.03125,-0.330078125,0.833
3.450381679389313,-1.4961832061068703,3.8931297709923665,-0.419189453125,0.023193359375,-0.32275390625,0.8347
3.5267175572519083,-1.450381679389313,3.8473282442748094,-0.41650390625,0.03466796875,-0.315673828125,0.8363999999999999
3.5419847328244276,-1.633587786259542,3.984732824427481,-0.4208984375,0.03369140625,-0.321533203125,0.8381
3.435114503816794,-1.465648854961832,4.076335877862595,-0.416015625,0.029541015625,-0.31884765625,0.8398
3.145038167938931,-1.2366412213740459,3.984732824427481,-0.415283203125,0.0302734375,-0.3125,0.8414999999999999
3.2519083969465647,-1.282442748091603,3.984732824427481,-0.41552734375,0.031494140625,-0.32958984375,0.8432
3.1755725190839694,-1.1603053435114503,4.061068702290076,-0.420654296875,0.03125,-0.3154296875,0.8449
3.145038167938931,-0.9465648854961832,3.816793893129771,-0.421630859375,0.031494140625,-0.317626953125,0.8465999999999999
3.0229007633587788,-0.9923664122137404,4.137404580152672,-0.415771484375,0.03515625,-0.315673828125,0.8482999999999999
2.763358778625954,-0.9618320610687023,4.015267175572519,-0.418701171875,0.031494140625,-0.324462890625,0.85
2.732824427480916,-0.7938931297709924,4.152671755725191,-0.420654296875,0.029296875,-0.3251953125,0.8516999999999999
2.6106870229007635,-0.6564885496183206,4.33587786259542,-0.422607421875,0.0244140625,-0.31689453125,0.8533999999999999
2.931297709923664,-0.6259541984732825,4.137404580152672,-0.419921875,0.02783203125,-0.32470703125,0.8551
2.4427480916030535,-0.44274809160305345,4.213740458015267,-0.416748046875,0.029541015625,-0.322021484375,0.8568
2.4580152671755724,-0.33587786259541985,4.137404580152672,-0.419677734375,0.03466796875,-0.31884765625,0.8584999999999999
2.3969465648854964,-0.549618320610687,4.259541984732825,-0.41748046875,0.035888671875,-0.322021484375,0.8602
2.198473282442748,-0.13740458015267176,4.1679389312977095,-0.4189453125,0.02783203125,-0.324951171875,0.8619
2.2442748091603053,-0.13740458015267176,4.0,-0.416748046875,0.02734375,-0.316650390625,0.8635999999999999
2.381679389312977,-0.13740458015267176,3.9236641221374047,-0.418212890625,0.031982421875,-0.322998046875,0.8653
2.0610687022900764,-0.07633587786259542,4.076335877862595,-0.421630859375,0.03271484375,-0.3203125,0.867
1.8778625954198473,-0.04580152671755725,4.183206106870229,-0.415283203125,0.02880859375,-0.320556640625,0.8686999999999999
1.7099236641221374,0.04580152671755725,4.213740458015267,-0.418212890625,0.0283203125,-0.314697265625,0.8704
1.7709923664122138,0.2748091603053435,4.061068702290076,-0.417236328125,0.029296875,-0.32763671875,0.8721
1.786259541984733,0.07633587786259542,4.198473282442748,-0.416015625,0.036376953125,-0.323974609375,0.8737999999999999
1.8778625954198473,0.2900763358778626,4.1679389312977095,-0.42041015625,0.040283203125,-0.322509765625,0.8755
1.618320610687023,0.6717557251908397,4.061068702290076,-0.414794921875,0.035888671875,-0.32470703125,0.8772
1.5725190839694656,0.5190839694656488,4.015267175572519,-0.41650390625,0.035888671875,-0.324462890625,0.8788999999999999
1.4809160305343512,0.732824427480916,4.015267175572519,-0.418701171875,0.035400390625,-0.320556640625,0.8805999999999999
1.2366412213740459,0.916030534351145,3.969465648854962,-0.416015625,0.035400390625,-0.322998046875,0.8823
1.0229007633587786,0.9312977099236641,4.198473282442748,-0.419677734375,0.029296875,-0.324951171875,0.8839999999999999
1.0229007633587786,1.3435114503816794,3.969465648854962,-0.415771484375,0.036376953125,-0.320068359375,0.8856999999999999
0.8549618320610687,1.251908396946565,4.229007633587786,-0.414306640625,0.033203125,-0.327880859375,0.8874
0.7786259541984732,1.4045801526717556,4.0,-0.4189453125,0.03759765625,-0.3251953125,0.8891
0.916030534351145,1.4045801526717556,4.015267175572519,-0.41845703125,0.029541015625,-0.32080078125,0.8907999999999999
0.6717557251908397,1.450381679389313,4.030534351145038,-0.4140625,0.031494140625,-0.31689453125,0.8925
0.4580152671755725,1.633587786259542,4.152671755725191,-0.4169921875,0.03271484375,-0.31982421875,0.8942
0.48854961832061067,1.5419847328244274,4.091603053435114,-0.41455078125,0.032958984375,-0.31982421875,0.8958999999999999
0.3969465648854962,1.5725190839694656,4.137404580152672,-0.41650390625,0.0322265625,-0.314208984375,0.8976
0.2748091603053435,1.6030534351145038,4.091603053435114,-0.413330078125,0.0341796875,-0.318603515625,0.8993
0.2900763358778626,1.83206106870229,4.137404580152672,-0.4130859375,0.030517578125,-0.3212890625,0.9009999999999999
0.183206106870229,1.9083969465648856,3.816793893129771,-0.41162109375,0.036376953125,-0.3173828125,0.9027
0.10687022900763359,1.9541984732824427,3.816793893129771,-0.4140625,0.02978515625,-0.309814453125,0.9044
-0.21374045801526717,2.045801526717557,4.030534351145038,-0.413330078125,0.0302734375,-0.31982421875,0.9060999999999999
-0.1984732824427481,2.045801526717557,4.122137404580153,-0.41552734375,0.03125,-0.317138671875,0.9077999999999999
-0.1984732824427481,2.030534351145038,3.8625954198473282,-0.4150390625,0.031982421875,-0.321533203125,0.9095
-0.48854961832061067,1.9389312977099236,3.786259541984733,-0.40869140625,0.03466796875,-0.31396484375,0.9111999999999999
-0.6412213740458015,1.7251908396946565,3.8473282442748094,-0.412841796875,0.03125,-0.32421875,0.9128999999999999
-0.549618320610687,1.8778625954198473,3.66412213740458,-0.412353515625,0.035400390625,-0.328125,0.9146
-0.7175572519083969,1.618320610687023,3.648854961832061,-0.414794921875,0.031005859375,-0.327392578125,0.9163
-0.5343511450381679,1.5572519083969465,3.9236641221374047,-0.41015625,0.0400390625,-0.316162109375,0.9179999999999999
-0.6870229007633588,1.6488549618320612,3.6793893129770994,-0.413818359375,0.038330078125,-0.318603515625,0.9197
-0.9618320610687023,1.786259541984733,3.6793893129770994,-0.41455078125,0.028564453125,-0.317138671875,0.9214
-1.1145038167938932,1.7557251908396947,3.66412213740458,-0.41650390625,0.034912109375,-0.3203125,0.9230999999999999
-1.0687022900763359,1.618320610687023,3.5114503816793894,-0.4091796875,0.034912109375,-0.320068359375,0.9248
-0.7786259541984732,1.8625954198473282,3.3587786259541983,-0.41650390625,0.03759765625,-0.320068359375,0.9265
-1.297709923664122,1.8778625954198473,3.6946564885496183,-0.416259765625,0.038818359375,-0.318359375,0.9281999999999999
-1.3435114503816794,1.83206106870229,3.450381679389313,-0.4140625,0.0361328125,-0.321044921875,0.9299
-1.3129770992366412,1.9694656488549618,3.3282442748091605,-0.41748046875,0.032470703125,-0.3291015625,0.9316
-1.3282442748091603,2.0610687022900764,3.236641221374046,-0.409912109375,0.041259765625,-0.322265625,0.9332999999999999
-1.3740458015267176,1.8931297709923665,3.2977099236641223,-0.418212890625,0.0380859375,-0.31494140625,0.9349999999999999
-1.3129770992366412,1.8015267175572518,2.9770992366412212,-0.41552734375,0.034912109375,-0.31689453125,0.9367
-1.633587786259542,2.122137404580153,3.053435114503817,-0.414794921875,0.032470703125,-0.315673828125,0.9383999999999999
-1.5877862595419847,2.0610687022900764,2.854961832061069,-0.416259765625,0.036865234375,-0.3154296875,0.9400999999999999
-1.6030534351145038,1.9083969465648856,2.9618320610687023,-0.413818359375,0.037109375,-0.3212890625,0.9418
-1.7709923664122138,1.9083969465648856,2.8702290076335877,-0.4111328125,0.031494140625,-0.313720703125,0.9434999999999999
-1.4045801526717556,1.9083969465648856,2.717557251908397,-0.406494140625,0.0400390625,-0.313232421875,0.9451999999999999
-1.6793893129770991,2.122137404580153,2.3969465648854964,-0.413330078125,0.03955078125,-0.31982421875,0.9469
-1.9694656488549618,1.8625954198473282,2.595419847328244,-0.41064453125,0.036865234375,-0.31884765625,0.9486
-1.9694656488549618,1.7709923664122138,2.3969465648854964,-0.410400390625,0.03955078125,-0.323974609375,0.9502999999999999
-1.7557251908396947,2.015267175572519,2.519083969465649,-0.40869140625,0.0419921875,-0.31787109375,0.952
-1.786259541984733,1.8931297709923665,2.2748091603053435,-0.411376953125,0.03857421875,-0.3232421875,0.9537
-1.5419847328244274,1.8015267175572518,2.4732824427480917,-0.407470703125,0.041259765625,-0.317626953125,0.9553999999999999
-1.8015267175572518,1.7404580152671756,2.213740458015267,-0.41357421875,0.04296875,-0.318115234375,0.9571
-1.8473282442748091,1.6946564885496183,2.2900763358778624,-0.4140625,0.04345703125,-0.322509765625,0.9588
-2.045801526717557,1.7557251908396947,2.0916030534351147,-0.413818359375,0.045654296875,-0.314697265625,0.9604999999999999
-1.83206106870229,1.633587786259542,2.0763358778625953,-0.411865234375,0.04248046875,-0.3154296875,0.9621999999999999
-1.7709923664122138,1.4351145038167938,2.0610687022900764,-0.4140625,0.0380859375,-0.320068359375,0.9639
-1.8473282442748091,1.633587786259542,1.9541984732824427,-0.4111328125,0.041259765625,-0.321533203125,0.9655999999999999
-1.8473282442748091,1.7709923664122138,1.450381679389313,-0.40869140625,0.044921875,-0.317138671875,0.9672999999999999
-1.8015267175572518,1.7251908396946565,1.7557251908396947,-0.417724609375,0.03955078125,-0.3232421875,0.969
-1.9541984732824427,1.618320610687023,1.3587786259541985,-0.4169921875,0.045654296875,-0.32421875,0.9706999999999999
-1.8778625954198473,2.030534351145038,1.282442748091603,-0.412353515625,0.041259765625,-0.318115234375,0.9723999999999999
-1.6488549618320612,2.045801526717557,1.099236641221374,-0.418212890625,0.044921875,-0.31787109375,0.9741
-1.6030534351145038,2.0610687022900764,0.9312977099236641,-0.41943359375,0.04736328125,-0.314208984375,0.9758
-1.8778625954198473,2.33587786259542,0.732824427480916,-0.412353515625,0.04052734375,-0.312255859375,0.9774999999999999
-1.6946564885496183,2.183206106870229,0.7175572519083969,-0.417236328125,0.040283203125,-0.325927734375,0.9792
-1.5725190839694656,2.2900763358778624,0.33587786259541985,-0.417236328125,0.0419921875,-0.318359375,0.9809
-1.5267175572519085,2.2748091603053435,0.183206106870229,-0.41943359375,0.040771484375,-0.310302734375,0.9825999999999999
-1.4045801526717556,2.3969465648854964,-0.13740458015267176,-0.4140625,0.03955078125,-0.3193359375,0.9843
-1.3435114503816794,2.564885496183206,-0.3511450381679389,-0.4130859375,0.049560546875,-0.316162109375,0.986
-1.6793893129770991,2.6564885496183206,-0.7938931297709924,-0.41259765625,0.04541015625,-0.318359375,0.9876999999999999
-1.297709923664122,2.3969465648854964,-0.7480916030534351,-0.412109375,0.045654296875,-0.321044921875,0.9894
-1.1908396946564885,2.4427480916030535,-0.9618320610687023,-0.41259765625,0.045654296875,-0.32080078125,0.9911
-1.1297709923664123,2.717557251908397,-1.3282442748091603,-0.40966796875,0.050048828125,-0.317626953125,0.9927999999999999
-1.1145038167938932,2.7480916030534353,-1.3893129770992367,-0.41064453125,0.046630859375,-0.323974609375,0.9944999999999999
-1.0229007633587786,2.6564885496183206,-1.6946564885496183,-0.411376953125,0.047119140625,-0.321044921875,0.9962
-0.9618320610687023,2.595419847328244,-1.9389312977099236,-0.40966796875,0.047607421875,-0.32373046875,0.9978999999999999
-0.9618320610687023,2.8091603053435112,-1.984732824427481,-0.409423828125,0.04345703125,-0.325927734375,0.9995999999999999
-0.732824427480916,2.7480916030534353,-2.5801526717557253,-0.418212890625,0.04833984375,-0.323486328125,1.0012999999999999
-0.5648854961832062,2.6412213740458017,-2.763358778625954,-0.408935546875,0.041259765625,-0.3125,1.003
-0.549618320610687,2.763358778625954,-3.0229007633587788,-0.408935546875,0.04443359375,-0.316162109375,1.0047
-0.5648854961832062,3.0229007633587788,-3.480916030534351,-0.40966796875,0.039794921875,-0.327392578125,1.0064
-0.5038167938931297,2.900763358778626,-3.633587786259542,-0.413818359375,0.046875,-0.32958984375,1.0081
-0.4122137404580153,3.1603053435114505,-3.969465648854962,-0.412353515625,0.0439453125,-0.3212890625,1.0098
-0.32061068702290074,3.3282442748091605,-4.2748091603053435,-0.41552734375,0.0458984375,-0.32958984375,1.0114999999999998
-0.3053435114503817,3.267175572519084,-4.534351145038168,-0.413330078125,0.04638671875,-0.32275390625,1.0131999999999999
-0.16793893129770993,3.5114503816793894,-4.687022900763359,-0.415283203125,0.04541015625,-0.331787109375,1.0149
0.030534351145038167,3.5114503816793894,-4.977099236641221,-0.415771484375,0.0478515625,-0.330078125,1.0166
-0.0916030534351145,3.954198473282443,-5.068702290076335,-0.422607421875,0.041259765625,-0.322265625,1.0183
-0.21374045801526717,4.061068702290076,-5.282442748091603,-0.41796875,0.03955078125,-0.322998046875,1.02
-0.015267175572519083,4.106870229007634,-5.877862595419847,-0.419189453125,0.040283203125,-0.321533203125,1.0217
0.22900763358778625,4.3816793893129775,-6.106870229007634,-0.4130859375,0.046142578125,-0.32421875,1.0233999999999999
0.1984732824427481,4.67175572519084,-6.290076335877862,-0.41650390625,0.044189453125,-0.32958984375,1.0251
-0.04580152671755725,4.641221374045801,-6.488549618320611,-0.413818359375,0.043212890625,-0.32568359375,1.0268
-0.015267175572519083,4.656488549618321,-6.885496183206107,-0.408203125,0.041259765625,-0.331787109375,1.0285
0.22900763358778625,4.809160305343512,-7.099236641221374,-0.41455078125,0.039794921875,-0.3310546875,1.0302
0.0,4.732824427480916,-7.175572519083969,-0.418212890625,0.037841796875,-0.322509765625,1.0319
-0.0916030534351145,4.9465648854961835,-7.4961832061068705,-0.416015625,0.04296875,-0.326171875,1.0335999999999999
0.13740458015267176,5.0534351145038165,-7.740458015267175,-0.412841796875,0.04052734375,-0.330078125,1.0352999999999999
0.015267175572519083,5.038167938931298,-8.0,-0.41162109375,0.03955078125,-0.337646484375,1.037
-0.15267175572519084,5.297709923664122,-7.8320610687022905,-0.4072265625,0.04345703125,-0.321533203125,1.0387
-0.10687022900763359,5.358778625954199,-8.01526717557252,-0.413818359375,0.037841796875,-0.3291015625,1.0404
0.0,5.572519083969466,-8.366412213740459,-0.412841796875,0.0380859375,-0.325927734375,1.0421
-0.0916030534351145,5.6183206106870225,-8.763358778625955,-0.41650390625,0.038818359375,-0.330810546875,1.0437999999999998
-0.1984732824427481,5.6183206106870225,-9.083969465648854,-0.416748046875,0.03564453125,-0.319091796875,1.0454999999999999
0.0,5.8320610687022905,-9.297709923664122,-0.4140625,0.03173828125,-0.330810546875,1.0472
-0.24427480916030533,5.847328244274809,-9.557251908396946,-0.413330078125,0.033203125,-0.32275390625,1.0489
-0.32061068702290074,5.679389312977099,-9.618320610687023,-0.414794921875,0.03369140625,-0.324462890625,1.0506
-0.22900763358778625,5.801526717557252,-9.83206106870229,-0.4140625,0.032470703125,-0.332275390625,1.0523
-0.5801526717557252,5.923664122137405,-9.908396946564885,-0.413818359375,0.03564453125,-0.323486328125,1.054
-0.5954198473282443,5.938931297709924,-10.122137404580153,-0.41650390625,0.037841796875,-0.331787109375,1.0556999999999999
-0.7175572519083969,5.969465648854962,-10.106870229007633,-0.413818359375,0.03564453125,-0.3193359375,1.0574
-0.7633587786259542,5.908396946564886,-10.488549618320612,-0.41552734375,0.033447265625,-0.3212890625,1.0591
-0.7175572519083969,5.908396946564886,-10.51908396946565,-0.412841796875,0.033203125,-0.318359375,1.0608
-0.7786259541984732,6.030534351145038,-10.51908396946565,-0.41552734375,0.02783203125,-0.320556640625,1.0625
-1.0687022900763359,6.122137404580153,-10.83969465648855,-0.4130859375,0.028564453125,-0.328125,1.0642
-1.0229007633587786,6.030534351145038,-10.992366412213741,-0.417724609375,0.0380859375,-0.3232421875,1.0658999999999998
-1.3740458015267176,5.893129770992366,-11.083969465648854,-0.410400390625,0.027587890625,-0.32275390625,1.0675999999999999
-1.3129770992366412,5.984732824427481,-11.19083969465649,-0.406982421875,0.031982421875,-0.314208984375,1.0693
-1.297709923664122,5.770992366412214,-11.450381679389313,-0.418701171875,0.032470703125,-0.323486328125,1.071
-1.618320610687023,5.862595419847328,-11.435114503816793,-0.41015625,0.03271484375,-0.322265625,1.0727
-1.5877862595419847,5.877862595419847,-11.694656488549619,-0.407958984375,0.031005859375,-0.326416015625,1.0744
-1.6793893129770991,5.9541984732824424,-11.526717557251908,-0.40771484375,0.03515625,-0.327880859375,1.0760999999999998
-1.9541984732824427,5.709923664122138,-11.664122137404581,-0.409423828125,0.029296875,-0.317138671875,1.0777999999999999
-1.7709923664122138,5.862595419847328,-11.648854961832061,-0.412109375,0.033447265625,-0.320068359375,1.0795
-1.984732824427481,5.816793893129771,-11.969465648854962,-0.4111328125,0.028564453125,-0.322509765625,1.0812
-2.1374045801526718,5.862595419847328,-12.122137404580153,-0.408447265625,0.029541015625,-0.32470703125,1.0829
-2.2442748091603053,5.862595419847328,-12.244274809160306,-0.4140625,0.0263671875,-0.322021484375,1.0846
-2.122137404580153,5.770992366412214,-12.213740458015268,-0.413330078125,0.03125,-0.316162109375,1.0863
-2.16793893129771,5.923664122137405,-12.335877862595419,-0.417236328125,0.031494140625,-0.32275390625,1.0879999999999999
-2.183206106870229,5.7251908396946565,-12.442748091603054,-0.410400390625,0.028076171875,-0.326904296875,1.0897
-2.381679389312977,5.847328244274809,-12.549618320610687,-0.41064453125,0.025390625,-0.32861328125,1.0914
-2.4732824427480917,5.9541984732824424,-12.778625954198473,-0.409912109375,0.029296875,-0.3232421875,1.0931
-2.4427480916030535,6.030534351145038,-12.946564885496183,-0.411865234375,0.030029296875,-0.321044921875,1.0948
-2.549618320610687,6.091603053435114,-12.793893129770993,-0.410888671875,0.0341796875,-0.3212890625,1.0965
-2.4732824427480917,6.198473282442748,-12.80916030534351,-0.410888671875,0.026611328125,-0.328857421875,1.0981999999999998
-2.5801526717557253,6.366412213740458,-12.870229007633588,-0.4189453125,0.0244140625,-0.325927734375,1.0998999999999999
-2.7022900763358777,6.549618320610687,-13.068702290076336,-0.408447265625,0.03125,-0.328857421875,1.1016
-2.6564885496183206,6.702290076335878,-12.885496183206106,-0.41357421875,0.027587890625,-0.322021484375,1.1033
-2.5343511450381677,6.687022900763359,-13.221374045801527,-0.41796875,0.027587890625,-0.330322265625,1.105
-2.7022900763358777,6.824427480916031,-13.16030534351145,-0.410888671875,0.0302734375,-0.3310546875,1.1067
-2.564885496183206,6.824427480916031,-13.083969465648854,-0.420166015625,0.03369140625,-0.32861328125,1.1083999999999998
-2.900763358778626,7.297709923664122,-13.114503816793894,-0.41357421875,0.028076171875,-0.321533203125,1.1100999999999999
-2.7786259541984735,7.145038167938932,-13.297709923664122,-0.4130859375,0.03125,-0.333251953125,1.1118
-2.931297709923664,7.236641221374046,-13.282442748091603,-0.419677734375,0.029052734375,-0.33251953125,1.1135
-2.946564885496183,7.66412213740458,-13.435114503816793,-0.416015625,0.027587890625,-0.331298828125,1.1152
-2.854961832061069,7.694656488549619,-13.404580152671755,-0.414306640625,0.026123046875,-0.3310546875,1.1169
-3.053435114503817,7.603053435114504,-13.297709923664122,-0.4111328125,0.02685546875,-0.33154296875,1.1186
-2.9923664122137406,7.66412213740458,-13.419847328244275,-0.41943359375,0.02294921875,-0.320556640625,1.1202999999999999
-3.114503816793893,7.9541984732824424,-13.435114503816793,-0.4169921875,0.02587890625,-0.325927734375,1.1219999999999999
-3.1603053435114505,8.106870229007633,-13.206106870229007,-0.411865234375,0.02294921875,-0.32666015625,1.1237
-3.1297709923664123,8.061068702290076,-13.404580152671755,-0.418212890625,0.0234375,-0.3203125,1.1254
-3.1297709923664123,8.122137404580153,-13.572519083969466,-0.419921875,0.027099609375,-0.32421875,1.1271
-3.0381679389312977,8.458015267175572,-13.435114503816793,-0.414306640625,0.028076171875,-0.33349609375,1.1288
-3.1755725190839694,8.610687022900763,-13.34351145038168,-0.418212890625,0.024169921875,-0.32275390625,1.1304999999999998
-3.5114503816793894,8.717557251908397,-13.435114503816793,-0.421142578125,0.025146484375,-0.32958984375,1.1321999999999999
-3.236641221374046,8.65648854961832,-13.206106870229007,-0.413330078125,0.028564453125,-0.327392578125,1.1339
-3.404580152671756,8.82442748091603,-13.32824427480916,-0.41748046875,0.023193359375,-0.33544921875,1.1356
-3.3282442748091605,9.053435114503817,-13.16030534351145,-0.4208984375,0.02392578125,-0.33203125,1.1373
-3.5114503816793894,9.145038167938932,-12.885496183206106,-0.41650390625,0.02392578125,-0.320068359375,1.139
-3.5572519083969465,9.129770992366412,-13.053435114503817,-0.42041015625,0.024169921875,-0.3310546875,1.1407
-3.450381679389313,9.465648854961833,-12.931297709923664,-0.418212890625,0.02685546875,-0.333740234375,1.1423999999999999
-3.5877862595419847,9.664122137404581,-12.732824427480915,-0.41796875,0.02880859375,-0.328125,1.1441
-3.7404580152671754,9.786259541984732,-12.870229007633588,-0.421142578125,0.026123046875,-0.33447265625,1.1458
-3.5267175572519083,9.740458015267176,-12.732824427480915,-0.41796875,0.024169921875,-0.33056640625,1.1475
-3.801526717557252,10.0,-12.65648854961832,-0.41748046875,0.015625,-0.3349609375,1.1492
-3.572519083969466,10.213740458015268,-12.473282442748092,-0.41748046875,0.025146484375,-0.315673828125,1.1509
-3.66412213740458,10.15267175572519,-12.50381679389313,-0.4208984375,0.023681640625,-0.332763671875,1.1525999999999998
-3.7404580152671754,10.229007633587786,-12.259541984732824,-0.416748046875,0.02587890625,-0.332275390625,1.1542999999999999
-3.66412213740458,10.580152671755725,-12.274809160305344,-0.415771484375,0.0244140625,-0.3212890625,1.156
-3.6030534351145036,10.610687022900763,-12.0,-0.416259765625,0.0224609375,-0.330078125,1.1577
-3.7099236641221376,10.580152671755725,-11.908396946564885,-0.413330078125,0.023193359375,-0.32275390625,1.1594
-3.9083969465648853,10.534351145038167,-11.755725190839694,-0.417724609375,0.0263671875,-0.329833984375,1.1611
-4.0458015267175576,10.687022900763358,-11.664122137404581,-0.42041015625,0.027099609375,-0.3291015625,1.1627999999999998
-4.091603053435114,10.67175572519084,-11.236641221374045,-0.417236328125,0.02197265625,-0.32958984375,1.1644999999999999
-4.198473282442748,10.793893129770993,-11.404580152671755,-0.4189453125,0.0185546875,-0.326416015625,1.1662
-4.030534351145038,10.83969465648855,-11.251908396946565,-0.413818359375,0.0244140625,-0.33154296875,1.1679
-3.984732824427481,11.022900763358779,-11.068702290076336,-0.41650390625,0.027587890625,-0.3271484375,1.1696
-4.213740458015267,10.885496183206106,-10.793893129770993,-0.412109375,0.030029296875,-0.335205078125,1.1713
-4.3816793893129775,11.053435114503817,-10.931297709923664,-0.414794921875,0.017333984375,-0.33642578125,1.173
-4.366412213740458,10.778625954198473,-10.458015267175572,-0.413330078125,0.019775390625,-0.32666015625,1.1746999999999999
-4.412213740458015,10.82442748091603,-10.396946564885496,-0.415283203125,0.018798828125,-0.318603515625,1.1764
-4.442748091603053,11.007633587786259,-10.030534351145038,-0.414794921875,0.0146484375,-0.315673828125,1.1781
-4.442748091603053,10.83969465648855,-10.061068702290076,-0.4189453125,0.024658203125,-0.32421875,1.1798
-4.366412213740458,10.854961832061068,-9.801526717557252,-0.4140625,0.0283203125,-0.330810546875,1.1815
-4.748091603053435,11.068702290076336,-9.938931297709924,-0.41455078125,0.022216796875,-0.326904296875,1.1832
-4.687022900763359,10.885496183206106,-9.664122137404581,-0.415283203125,0.0205078125,-0.32421875,1.1848999999999998
-4.900763358778626,10.931297709923664,-9.34351145038168,-0.417724609375,0.021240234375,-0.329345703125,1.1865999999999999
-4.656488549618321,10.900763358778626,-9.114503816793894,-0.41162109375,0.019775390625,-0.32958984375,1.1883
-4.549618320610687,10.793893129770993,-9.083969465648854,-0.416259765625,0.022216796875,-0.326904296875,1.19
-4.717557251908397,10.854961832061068,-8.748091603053435,-0.41015625,0.021240234375,-0.3232421875,1.1917
-4.809160305343512,10.946564885496183,-8.65648854961832,-0.40869140625,0.0224609375,-0.3232421875,1.1934
-5.00763358778626,10.854961832061068,-8.351145038167939,-0.412353515625,0.0185546875,-0.323486328125,1.1950999999999998
-4.885496183206107,10.885496183206106,-8.198473282442748,-0.419189453125,0.015380859375,-0.32421875,1.1967999999999999
-5.038167938931298,10.748091603053435,-7.9541984732824424,-0.413818359375,0.020263671875,-0.324951171875,1.1985
-4.9465648854961835,10.977099236641221,-7.786259541984733,-0.412109375,0.023681640625,-0.32080078125,1.2002
-5.190839694656488,10.748091603053435,-7.679389312977099,-0.41650390625,0.022216796875,-0.323486328125,1.2019
-5.038167938931298,10.473282442748092,-7.3893129770992365,-0.41748046875,0.02099609375,-0.3251953125,1.2036
-4.99236641221374,10.702290076335878,-7.038167938931298,-0.413330078125,0.02197265625,-0.321044921875,1.2053
-5.129770992366412,10.549618320610687,-7.114503816793893,-0.41552734375,0.0234375,-0.3291015625,1.2069999999999999
-5.221374045801527,10.305343511450381,-6.8396946564885495,-0.4150390625,0.017822265625,-0.331787109375,1.2086999999999999
-5.221374045801527,10.244274809160306,-6.564885496183206,-0.410888671875,0.02001953125,-0.326416015625,1.2104
-5.343511450381679,10.274809160305344,-6.213740458015267,-0.416259765625,0.022705078125,-0.333251953125,1.2121
-5.099236641221374,10.106870229007633,-6.076335877862595,-0.416748046875,0.023193359375,-0.3330078125,1.2138
-4.977099236641221,10.076335877862595,-5.603053435114504,-0.415771484375,0.026123046875,-0.330078125,1.2155
-5.129770992366412,10.16793893129771,-5.541984732824427,-0.4111328125,0.022705078125,-0.330078125,1.2171999999999998
-5.0534351145038165,10.183206106870228,-5.358778625954199,-0.41552734375,0.021240234375,-0.33447265625,1.2188999999999999
-5.358778625954199,10.061068702290076,-5.0534351145038165,-0.415771484375,0.02294921875,-0.332763671875,1.2206
-5.114503816793893,9.908396946564885,-4.748091603053435,-0.417236328125,0.022216796875,-0.32958984375,1.2223
-4.900763358778626,9.816793893129772,-4.473282442748092,-0.411376953125,0.025634765625,-0.33056640625,1.224
-5.083969465648855,10.106870229007633,-4.3816793893129775,-0.41259765625,0.026123046875,-0.32861328125,1.2257
-5.00763358778626,10.0,-3.83206106870229,-0.414306640625,0.019775390625,-0.328369140625,1.2273999999999998
-5.022900763358779,10.01526717557252,-3.633587786259542,-0.412353515625,0.022216796875,-0.34423828125,1.2290999999999999
-5.358778625954199,9.86259541984733,-3.435114503816794,-0.412353515625,0.0244140625,-0.325927734375,1.2308
-5.267175572519084,9.923664122137405,-3.1297709923664123,-0.4091796875,0.02294921875,-0.329345703125,1.2325
-5.129770992366412,9.786259541984732,-2.687022900763359,-0.420166015625,0.0263671875,-0.324462890625,1.2342
-5.236641221374046,9.755725190839694,-2.564885496183206,-0.408447265625,0.0244140625,-0.319580078125,1.2359
-5.343511450381679,9.86259541984733,-2.2595419847328246,-0.41259765625,0.02294921875,-0.322265625,1.2376
-5.129770992366412,9.572519083969466,-2.015267175572519,-0.41015625,0.024169921875,-0.318603515625,1.2392999999999998
-5.068702290076335,9.541984732824428,-1.7557251908396947,-0.40966796875,0.02587890625,-0.328857421875,1.2409999999999999
-5.00763358778626,9.389312977099237,-1.633587786259542,-0.410400390625,0.025390625,-0.3271484375,1.2427
-4.99236641221374,9.34351145038168,-1.3282442748091603,-0.40966796875,0.026611328125,-0.32763671875,1.2444
-5.022900763358779,9.374045801526718,-1.083969465648855,-0.40673828125,0.024169921875,-0.32861328125,1.2461
-4.9465648854961835,9.16030534351145,-0.7175572519083969,-0.410400390625,0.028564453125,-0.325439453125,1.2478
-5.068702290076335,8.870229007633588,-0.3816793893129771,-0.408935546875,0.025146484375,-0.331298828125,1.2494999999999998
-4.8396946564885495,9.114503816793894,-0.030534351145038167,-0.4091796875,0.022705078125,-0.330322265625,1.2511999999999999
-4.793893129770993,9.022900763358779,0.21374045801526717,-0.4072265625,0.0234375,-0.332275390625,1.2529
-4.824427480916031,8.793893129770993,0.5801526717557252,-0.412353515625,0.024169921875,-0.328125,1.2546
-4.67175572519084,8.793893129770993,0.8854961832061069,-0.406494140625,0.02099609375,-0.3310546875,1.2563
-4.656488549618321,8.549618320610687,0.9312977099236641,-0.41748046875,0.026611328125,-0.325439453125,1.258
-4.717557251908397,8.534351145038167,1.1450381679389312,-0.40869140625,0.023193359375,-0.326171875,1.2596999999999998
-4.5038167938931295,8.610687022900763,1.3893129770992367,-0.406982421875,0.0234375,-0.337646484375,1.2613999999999999
-4.717557251908397,8.366412213740459,1.6641221374045803,-0.40771484375,0.027099609375,-0.333740234375,1.2631
-4.549618320610687,8.351145038167939,2.0610687022900764,-0.405029296875,0.02734375,-0.32421875,1.2648
-4.244274809160306,8.229007633587786,1.9694656488549618,-0.405029296875,0.028076171875,-0.32958984375,1.2665
-4.213740458015267,7.938931297709924,2.351145038167939,-0.41357421875,0.029052734375,-0.32958984375,1.2682
-4.091603053435114,7.862595419847328,2.885496183206107,-0.409423828125,0.030517578125,-0.33544921875,1.2699
-4.0458015267175576,7.694656488549619,3.053435114503817,-0.404052734375,0.030517578125,-0.33251953125,1.2715999999999998
-3.7557251908396947,7.480916030534351,3.0076335877862594,-0.407470703125,0.031494140625,-0.32470703125,1.2732999999999999
-3.984732824427481,7.465648854961832,3.3435114503816794,-0.410888671875,0.030517578125,-0.32861328125,1.275
-3.8473282442748094,7.221374045801527,3.4656488549618323,-0.40771484375,0.03173828125,-0.33251953125,1.2767
-3.7557251908396947,6.99236641221374,3.83206106870229,-0.40576171875,0.029541015625,-0.3310546875,1.2784
-3.49618320610687,6.763358778625954,4.015267175572519,-0.405029296875,0.033935546875,-0.3369140625,1.2801
-3.312977099236641,7.00763358778626,4.2748091603053435,-0.4072265625,0.0302734375,-0.325927734375,1.2817999999999998
-3.1908396946564888,6.717557251908397,4.1679389312977095,-0.409423828125,0.03173828125,-0.32421875,1.2834999999999999
-3.3893129770992365,6.763358778625954,4.473282442748092,-0.410888671875,0.031494140625,-0.337890625,1.2852
-2.931297709923664,6.534351145038168,4.702290076335878,-0.40673828125,0.030029296875,-0.328369140625,1.2869
-3.068702290076336,6.3816793893129775,5.038167938931298,-0.402099609375,0.02685546875,-0.333251953125,1.2886
-3.0381679389312977,6.137404580152672,5.00763358778626,-0.409423828125,0.033935546875,-0.325439453125,1.2903
-2.885496183206107,6.061068702290076,5.3893129770992365,-0.40771484375,0.03369140625,-0.322998046875,1.292
-2.595419847328244,6.061068702290076,5.526717557251908,-0.406982421875,0.031982421875,-0.33349609375,1.2936999999999999
-2.427480916030534,5.938931297709924,5.8320610687022905,-0.40625,0.032958984375,-0.331298828125,1.2953999999999999
-2.381679389312977,5.908396946564886,6.061068702290076,-0.40869140625,0.032470703125,-0.326416015625,1.2971
-2.2748091603053435,5.541984732824427,6.137404580152672,-0.406494140625,0.03076171875,-0.329833984375,1.2988
-2.351145038167939,5.572519083969466,6.458015267175573,-0.4072265625,0.037353515625,-0.325927734375,1.3005
-2.015267175572519,5.312977099236641,6.580152671755725,-0.40673828125,0.031494140625,-0.323974609375,1.3022
-1.984732824427481,5.145038167938932,6.595419847328245,-0.40771484375,0.032470703125,-0.334228515625,1.3038999999999998
-1.7404580152671756,5.3893129770992365,7.00763358778626,-0.40234375,0.03564453125,-0.324951171875,1.3055999999999999
-1.7709923664122138,4.961832061068702,7.129770992366412,-0.40625,0.0302734375,-0.330810546875,1.3073
-1.7251908396946565,4.748091603053435,7.358778625954199,-0.406005859375,0.035400390625,-0.324462890625,1.309
-1.5572519083969465,4.763358778625954,7.450381679389313,-0.4052734375,0.03369140625,-0.3251953125,1.3107
-1.4045801526717556,4.625954198473282,7.816793893129771,-0.406005859375,0.0302734375,-0.33447265625,1.3124
-1.3740458015267176,4.320610687022901,7.816793893129771,-0.400390625,0.02734375,-0.33349609375,1.3140999999999998
-1.4198473282442747,4.122137404580153,7.801526717557252,-0.401123046875,0.03271484375,-0.334228515625,1.3157999999999999
-1.297709923664122,4.137404580152672,8.15267175572519,-0.40380859375,0.028564453125,-0.340576171875,1.3175
-1.0687022900763359,4.0458015267175576,8.351145038167939,-0.40966796875,0.035400390625,-0.3271484375,1.3192
-0.7633587786259542,3.9236641221374047,8.381679389312977,-0.404541015625,0.03125,-0.331298828125,1.3209
-0.9465648854961832,3.816793893129771,8.641221374045802,-0.406982421875,0.031005859375,-0.3232421875,1.3226
-0.732824427480916,3.7557251908396947,8.732824427480915,-0.404541015625,0.0361328125,-0.328857421875,1.3243
-0.7022900763358778,3.786259541984733,9.114503816793894,-0.407470703125,0.03466796875,-0.330078125,1.3259999999999998
-0.5190839694656488,3.816793893129771,9.16030534351145,-0.407958984375,0.0400390625,-0.328369140625,1.3276999999999999
-0.2900763358778626,3.7557251908396947,9.419847328244275,-0.409912109375,0.035888671875,-0.3349609375,1.3294
-0.3511450381679389,3.633587786259542,9.358778625954198,-0.405029296875,0.036865234375,-0.3251953125,1.3311
-0.33587786259541985,3.786259541984733,9.435114503816793,-0.40869140625,0.034423828125,-0.330078125,1.3328
-0.183206106870229,3.9083969465648853,9.465648854961833,-0.40966796875,0.03076171875,-0.331298828125,1.3345
-0.13740458015267176,3.7557251908396947,9.877862595419847,-0.408447265625,0.037353515625,-0.33154296875,1.3361999999999998
-0.04580152671755725,3.7709923664122136,9.923664122137405,-0.4033203125,0.03564453125,-0.33154296875,1.3378999999999999
0.366412213740458,3.83206106870229,9.969465648854962,-0.405517578125,0.03369140625,-0.329345703125,1.3396
0.16793893129770993,3.7557251908396947,10.091603053435115,-0.406982421875,0.03857421875,-0.32861328125,1.3413
0.42748091603053434,3.6030534351145036,10.244274809160306,-0.40673828125,0.036376953125,-0.331298828125,1.343
0.42748091603053434,3.801526717557252,9.98473282442748,-0.4033203125,0.03271484375,-0.327392578125,1.3447
0.13740458015267176,3.7709923664122136,10.458015267175572,-0.401611328125,0.03466796875,-0.3359375,1.3463999999999998
0.366412213740458,3.633587786259542,10.335877862595419,-0.4013671875,0.035400390625,-0.33935546875,1.3480999999999999
0.5954198473282443,3.801526717557252,10.458015267175572,-0.4013671875,0.035888671875,-0.325927734375,1.3497999999999999
0.6106870229007634,3.801526717557252,10.625954198473282,-0.403564453125,0.035400390625,-0.32861328125,1.3515
0.5954198473282443,3.7709923664122136,10.748091603053435,-0.4013671875,0.0390625,-0.337158203125,1.3532
0.9923664122137404,3.618320610687023,10.641221374045802,-0.4072265625,0.038818359375,-0.33544921875,1.3549
1.1297709923664123,3.877862595419847,10.80916030534351,-0.406982421875,0.03759765625,-0.331298828125,1.3566
1.0229007633587786,3.7099236641221376,10.854961832061068,-0.40869140625,0.03955078125,-0.33056640625,1.3582999999999998
1.1450381679389312,3.6946564885496183,11.038167938931299,-0.408203125,0.036376953125,-0.335205078125,1.3599999999999999
1.1603053435114503,3.9083969465648853,10.931297709923664,-0.409423828125,0.03955078125,-0.33447265625,1.3617
1.3587786259541985,3.969465648854962,11.236641221374045,-0.4072265625,0.038818359375,-0.333740234375,1.3634
1.5114503816793894,3.969465648854962,11.17557251908397,-0.4091796875,0.040771484375,-0.33740234375,1.3651
1.5267175572519085,4.091603053435114,11.206106870229007,-0.407958984375,0.0390625,-0.335205078125,1.3668
1.3435114503816794,4.030534351145038,11.16030534351145,-0.411865234375,0.032958984375,-0.329345703125,1.3684999999999998
1.4961832061068703,4.33587786259542,11.267175572519085,-0.41259765625,0.04296875,-0.335205078125,1.3701999999999999
1.816793893129771,4.33587786259542,11.221374045801527,-0.412353515625,0.040771484375,-0.3310546875,1.3719
1.9694656488549618,4.5038167938931295,11.435114503816793,-0.410888671875,0.04248046875,-0.334228515625,1.3736
1.8931297709923665,4.412213740458015,11.374045801526718,-0.414306640625,0.04248046875,-0.339599609375,1.3753
1.984732824427481,4.67175572519084,11.419847328244275,-0.410888671875,0.04248046875,-0.338623046875,1.377
2.045801526717557,4.793893129770993,11.34351145038168,-0.410888671875,0.04150390625,-0.3359375,1.3786999999999998
2.2442748091603053,4.916030534351145,11.374045801526718,-0.41015625,0.04150390625,-0.336181640625,1.3803999999999998
2.4122137404580153,5.068702290076335,11.19083969465649,-0.408935546875,0.039306640625,-0.340576171875,1.3820999999999999
2.4427480916030535,5.236641221374046,11.404580152671755,-0.41015625,0.041748046875,-0.343994140625,1.3838
2.5801526717557253,5.236641221374046,11.038167938931299,-0.406005859375,0.03857421875,-0.345458984375,1.3855
2.6564885496183206,5.511450381679389,11.221374045801527,-0.40673828125,0.04248046875,-0.338134765625,1.3872
2.763358778625954,5.297709923664122,11.16030534351145,-0.407958984375,0.0419921875,-0.338623046875,1.3889
2.6717557251908395,5.572519083969466,11.145038167938932,-0.405517578125,0.039306640625,-0.338623046875,1.3905999999999998
2.9923664122137406,5.679389312977099,10.946564885496183,-0.410888671875,0.037841796875,-0.341552734375,1.3922999999999999
3.236641221374046,5.770992366412214,11.038167938931299,-0.4111328125,0.043212890625,-0.340087890625,1.394
3.3587786259541983,5.740458015267175,10.748091603053435,-0.411376953125,0.041748046875,-0.338134765625,1.3957
3.312977099236641,5.755725190839694,10.82442748091603,-0.40625,0.038818359375,-0.339111328125,1.3974
3.5267175572519083,5.893129770992366,10.83969465648855,-0.407958984375,0.047607421875,-0.332763671875,1.3991
3.2519083969465647,5.786259541984733,10.67175572519084,-0.406494140625,0.045654296875,-0.342041015625,1.4007999999999998
3.6946564885496183,5.7251908396946565,10.595419847328245,-0.4052734375,0.040283203125,-0.336669921875,1.4024999999999999
3.7709923664122136,5.786259541984733,10.381679389312977,-0.4072265625,0.041259765625,-0.32763671875,1.4042
3.49618320610687,5.8320610687022905,10.290076335877863,-0.40478515625,0.0419921875,-0.33251953125,1.4059
3.633587786259542,5.694656488549619,10.412213740458014,-0.4052734375,0.042236328125,-0.338623046875,1.4076
3.8625954198473282,5.786259541984733,10.351145038167939,-0.401611328125,0.038330078125,-0.329345703125,1.4093
4.0,5.7251908396946565,10.122137404580153,-0.4013671875,0.046875,-0.333984375,1.411
3.9236641221374047,5.679389312977099,10.15267175572519,-0.40185546875,0.045654296875,-0.34326171875,1.4126999999999998
4.030534351145038,5.465648854961832,9.923664122137405,-0.40283203125,0.038818359375,-0.3369140625,1.4143999999999999
3.9083969465648853,5.480916030534351,9.786259541984732,-0.40380859375,0.0458984375,-0.33935546875,1.4161
4.091603053435114,5.374045801526718,9.98473282442748,-0.403076171875,0.04638671875,-0.33544921875,1.4178
4.137404580152672,5.312977099236641,9.679389312977099,-0.399169921875,0.04296875,-0.330810546875,1.4195
4.015267175572519,5.1603053435114505,9.618320610687023,-0.39892578125,0.043701171875,-0.337158203125,1.4212
4.259541984732825,5.068702290076335,9.34351145038168,-0.3974609375,0.046142578125,-0.339599609375,1.4228999999999998
4.33587786259542,5.145038167938932,9.282442748091603,-0.396240234375,0.04541015625,-0.33544921875,1.4245999999999999
4.412213740458015,4.854961832061068,9.221374045801527,-0.395263671875,0.048095703125,-0.331298828125,1.4263
4.3816793893129775,4.717557251908397,9.19083969465649,-0.39794921875,0.04345703125,-0.33642578125,1.428
4.290076335877862,4.412213740458015,8.885496183206106,-0.390869140625,0.0439453125,-0.33935546875,1.4297
4.396946564885496,4.442748091603053,8.763358778625955,-0.39697265625,0.046142578125,-0.328857421875,1.4314
4.595419847328245,4.320610687022901,8.748091603053435,-0.394775390625,0.043701171875,-0.33349609375,1.4330999999999998
4.320610687022901,4.0458015267175576,8.687022900763358,-0.3994140625,0.040771484375,-0.333740234375,1.4347999999999999
4.473282442748092,3.969465648854962,8.564885496183207,-0.4033203125,0.038818359375,-0.335205078125,1.4364999999999999
4.595419847328245,4.152671755725191,8.427480916030534,-0.392822265625,0.03955078125,-0.339599609375,1.4382
4.564885496183206,3.969465648854962,8.16793893129771,-0.39404296875,0.04150390625,-0.33544921875,1.4399
4.641221374045801,3.83206106870229,8.381679389312977,-0.396484375,0.042724609375,-0.3349609375,1.4416
4.687022900763359,3.877862595419847,8.061068702290076,-0.3984375,0.041259765625,-0.344482421875,1.4433
4.580152671755725,3.7099236641221376,7.938931297709924,-0.398193359375,0.0458984375,-0.339599609375,1.4449999999999998
4.5038167938931295,3.480916030534351,7.938931297709924,-0.399169921875,0.041748046875,-0.345458984375,1.4466999999999999
4.625954198473282,3.480916030534351,7.847328244274809,-0.39404296875,0.046630859375,-0.341064453125,1.4484
4.458015267175573,3.4198473282442747,7.740458015267175,-0.396728515625,0.046875,-0.33837890625,1.4501
4.595419847328245,3.282442748091603,7.4961832061068705,-0.3974609375,0.04931640625,-0.32666015625,1.4518
4.641221374045801,3.114503816793893,7.511450381679389,-0.39599609375,0.04736328125,-0.3369140625,1.4535
4.702290076335878,3.1755725190839694,7.679389312977099,-0.39990234375,0.045166015625,-0.333251953125,1.4551999999999998
4.351145038167939,3.1297709923664123,7.206106870229007,-0.398193359375,0.0478515625,-0.330322265625,1.4568999999999999
4.229007633587786,2.9923664122137406,7.114503816793893,-0.39208984375,0.047607421875,-0.3359375,1.4586
4.106870229007634,2.732824427480916,6.961832061068702,-0.397216796875,0.049560546875,-0.342529296875,1.4603
4.3816793893129775,2.717557251908397,6.870229007633588,-0.39501953125,0.048583984375,-0.342041015625,1.462
4.412213740458015,2.7786259541984735,6.67175572519084,-0.397216796875,0.045654296875,-0.33544921875,1.4637
4.534351145038168,2.6717557251908395,6.580152671755725,-0.399658203125,0.041259765625,-0.3359375,1.4653999999999998
4.213740458015267,2.7022900763358777,6.5038167938931295,-0.399658203125,0.042724609375,-0.3330078125,1.4670999999999998
4.320610687022901,2.5801526717557253,6.564885496183206,-0.4033203125,0.0439453125,-0.328369140625,1.4687999999999999
4.458015267175573,2.50381679389313,6.290076335877862,-0.392333984375,0.0419921875,-0.343505859375,1.4705
4.198473282442748,2.213740458015267,6.091603053435114,-0.405029296875,0.044921875,-0.349853515625,1.4722
4.320610687022901,2.351145038167939,6.1679389312977095,-0.400146484375,0.04296875,-0.3466796875,1.4739
4.6106870229007635,2.3053435114503817,6.137404580152672,-0.39794921875,0.046875,-0.339111328125,1.4756
4.198473282442748,2.122137404580153,5.770992366412214,-0.40185546875,0.043212890625,-0.34765625,1.4772999999999998
4.030534351145038,2.1526717557251906,5.679389312977099,-0.398681640625,0.03759765625,-0.340087890625,1.4789999999999999
4.366412213740458,2.0763358778625953,5.404580152671755,-0.39990234375,0.047607421875,-0.34326171875,1.4807
4.519083969465649,2.1526717557251906,5.404580152671755,-0.400634765625,0.0478515625,-0.338623046875,1.4824
4.122137404580153,1.984732824427481,5.129770992366412,-0.3955078125,0.045654296875,-0.3408203125,1.4841
3.969465648854962,2.122137404580153,5.0534351145038165,-0.399169921875,0.043212890625,-0.34375,1.4858
4.244274809160306,1.8778625954198473,5.022900763358779,-0.404052734375,0.04541015625,-0.344482421875,1.4874999999999998
4.183206106870229,1.816793893129771,4.809160305343512,-0.402099609375,0.042236328125,-0.346435546875,1.4891999999999999
4.152671755725191,1.7099236641221374,4.67175572519084,-0.400390625,0.04541015625,-0.334716796875,1.4909
4.366412213740458,1.618320610687023,4.5038167938931295,-0.402099609375,0.046875,-0.3369140625,1.4926
4.244274809160306,1.7557251908396947,4.091603053435114,-0.396484375,0.0439453125,-0.340576171875,1.4943
4.030534351145038,1.4351145038167938,4.061068702290076,-0.395751953125,0.044677734375,-0.34130859375,1.496
3.9083969465648853,1.4045801526717556,4.137404580152672,-0.40185546875,0.04443359375,-0.337158203125,1.4976999999999998
4.0,1.297709923664122,3.9389312977099236,-0.397705078125,0.03955078125,-0.33984375,1.4993999999999998
4.122137404580153,1.1450381679389312,3.7251908396946565,-0.40185546875,0.044189453125,-0.345458984375,1.5010999999999999
3.9083969465648853,1.1297709923664123,3.5267175572519083,-0.39501953125,0.039794921875,-0.3427734375,1.5028
4.0458015267175576,0.8091603053435115,3.312977099236641,-0.399658203125,0.041259765625,-0.3466796875,1.5045
3.8625954198473282,0.7786259541984732,3.3587786259541983,-0.397705078125,0.044677734375,-0.353515625,1.5062
3.83206106870229,0.6564885496183206,3.435114503816794,-0.3984375,0.045654296875,-0.342041015625,1.5079
3.8931297709923665,0.4580152671755725,3.0381679389312977,-0.3974609375,0.041015625,-0.338623046875,1.5095999999999998
3.801526717557252,0.3816793893129771,2.854961832061069,-0.400634765625,0.04638671875,-0.33837890625,1.5112999999999999
3.66412213740458,0.3511450381679389,2.7786259541984735,-0.395263671875,0.041259765625,-0.338623046875,1.513
3.633587786259542,0.21374045801526717,2.6717557251908395,-0.402587890625,0.044189453125,-0.337646484375,1.5147
3.480916030534351,0.04580152671755725,2.5801526717557253,-0.39990234375,0.043212890625,-0.33935546875,1.5164
3.450381679389313,-0.10687022900763359,2.351145038167939,-0.39990234375,0.040771484375,-0.341796875,1.5181
3.435114503816794,-0.12213740458015267,2.366412213740458,-0.3974609375,0.037841796875,-0.341552734375,1.5197999999999998
3.480916030534351,-0.07633587786259542,2.2595419847328246,-0.39404296875,0.049560546875,-0.339111328125,1.5214999999999999
3.2977099236641223,-0.4122137404580153,2.183206106870229,-0.39404296875,0.044677734375,-0.34130859375,1.5231999999999999
3.114503816793893,-0.6412213740458015,2.045801526717557,-0.3974609375,0.040283203125,-0.344970703125,1.5249
3.053435114503817,-0.6412213740458015,1.7709923664122138,-0.400390625,0.0439453125,-0.35107421875,1.5266
3.114503816793893,-0.6412213740458015,1.9541984732824427,-0.397216796875,0.0400390625,-0.348388671875,1.5283
2.9770992366412212,-0.7175572519083969,1.7709923664122138,-0.397216796875,0.0458984375,-0.33642578125,1.5299999999999998
3.145038167938931,-1.0229007633587786,1.5877862595419847,-0.39697265625,0.0478515625,-0.331787109375,1.5316999999999998
2.8091603053435112,-0.9007633587786259,1.5419847328244274,-0.397216796875,0.040771484375,-0.341552734375,1.5333999999999999
2.900763358778626,-1.0229007633587786,1.6946564885496183,-0.40380859375,0.039794921875,-0.3505859375,1.5351
2.8244274809160306,-1.0076335877862594,1.3282442748091603,-0.39794921875,0.048828125,-0.348876953125,1.5368
2.6564885496183206,-1.251908396946565,1.450381679389313,-0.401123046875,0.042724609375,-0.334228515625,1.5385
2.732824427480916,-1.251908396946565,1.2671755725190839,-0.40283203125,0.042236328125,-0.33447265625,1.5402
2.6412213740458017,-1.465648854961832,1.1145038167938932,-0.398681640625,0.045654296875,-0.33349609375,1.5418999999999998
2.427480916030534,-1.5419847328244274,0.9007633587786259,-0.4033203125,0.043212890625,-0.336181640625,1.5435999999999999
2.3969465648854964,-1.816793893129771,1.0229007633587786,-0.398681640625,0.046875,-0.346923828125,1.5453
2.1374045801526718,-1.9389312977099236,0.8396946564885496,-0.400390625,0.050048828125,-0.336669921875,1.547
2.1374045801526718,-1.8778625954198473,0.8396946564885496,-0.4033203125,0.04541015625,-0.33935546875,1.5487
1.8778625954198473,-2.045801526717557,0.6870229007633588,-0.397705078125,0.048095703125,-0.34716796875,1.5504
1.8625954198473282,-2.122137404580153,0.8396946564885496,-0.39794921875,0.044677734375,-0.335205078125,1.5520999999999998
1.786259541984733,-2.122137404580153,0.549618320610687,-0.3994140625,0.043701171875,-0.34375,1.5537999999999998
1.7557251908396947,-2.2595419847328246,0.6259541984732825,-0.40185546875,0.040283203125,-0.338623046875,1.5554999999999999
1.816793893129771,-2.351145038167939,0.366412213740458,-0.40087890625,0.045166015625,-0.34716796875,1.5572
1.6488549618320612,-2.732824427480916,0.3969465648854962,-0.398193359375,0.046875,-0.333251953125,1.5589
1.7251908396946565,-2.595419847328244,0.2595419847328244,-0.400634765625,0.04248046875,-0.339111328125,1.5606
1.3893129770992367,-2.8091603053435112,0.3053435114503817,-0.3994140625,0.044189453125,-0.34423828125,1.5623
1.450381679389313,-2.8244274809160306,0.0,-0.40234375,0.040283203125,-0.341796875,1.5639999999999998
1.6030534351145038,-2.946564885496183,0.07633587786259542,-0.4013671875,0.046630859375,-0.332275390625,1.5656999999999999
1.4809160305343512,-2.9770992366412212,0.15267175572519084,-0.398681640625,0.046875,-0.341796875,1.5674
1.3893129770992367,-3.0381679389312977,-0.015267175572519083,-0.3974609375,0.047119140625,-0.344970703125,1.5691
1.2366412213740459,-2.9770992366412212,-0.1984732824427481,-0.40380859375,0.048583984375,-0.342041015625,1.5708
1.3129770992366412,-3.0229007633587788,0.04580152671755725,-0.407958984375,0.049072265625,-0.34033203125,1.5725
1.1145038167938932,-3.0381679389312977,-0.183206106870229,-0.407470703125,0.046630859375,-0.33544921875,1.5741999999999998
1.282442748091603,-3.068702290076336,-0.3053435114503817,-0.398193359375,0.04931640625,-0.34033203125,1.5758999999999999
1.0534351145038168,-3.0229007633587788,-0.16793893129770993,-0.403076171875,0.052001953125,-0.343994140625,1.5776
1.0229007633587786,-3.0839694656488548,-0.4580152671755725,-0.405029296875,0.046875,-0.33056640625,1.5793
1.0687022900763359,-3.2213740458015265,-0.3816793893129771,-0.40576171875,0.05078125,-0.338134765625,1.581
1.0381679389312977,-3.0229007633587788,-0.3816793893129771,-0.40185546875,0.047119140625,-0.33837890625,1.5827
1.083969465648855,-2.900763358778626,-0.5954198473282443,-0.40625,0.051025390625,-0.338134765625,1.5843999999999998
0.9618320610687023,-3.114503816793893,-0.5343511450381679,-0.402587890625,0.04638671875,-0.343505859375,1.5860999999999998
0.9923664122137404,-3.1297709923664123,-0.7022900763358778,-0.405517578125,0.04296875,-0.343505859375,1.5877999999999999
0.916030534351145,-3.0381679389312977,-0.7786259541984732,-0.408935546875,0.048583984375,-0.333984375,1.5895
0.5954198473282443,-3.1297709923664123,-0.7175572519083969,-0.40625,0.044677734375,-0.33154296875,1.5912
0.5190839694656488,-2.931297709923664,-0.7175572519083969,-0.405029296875,0.048095703125,-0.343505859375,1.5929
0.6106870229007634,-2.9618320610687023,-0.8549618320610687,-0.40771484375,0.04931640625,-0.335205078125,1.5946
0.6106870229007634,-2.9618320610687023,-0.8549618320610687,-0.405517578125,0.05322265625,-0.340576171875,1.5962999999999998
0.5190839694656488,-2.931297709923664,-1.1603053435114503,-0.40380859375,0.0517578125,-0.33642578125,1.5979999999999999
0.6717557251908397,-2.763358778625954,-0.9618320610687023,-0.40087890625,0.048583984375,-0.33642578125,1.5997
0.9618320610687023,-2.6564885496183206,-1.083969465648855,-0.40234375,0.0498046875,-0.33349609375,1.6014
0.6870229007633588,-2.7938931297709924,-1.2366412213740459,-0.405029296875,0.055419921875,-0.333740234375,1.6031
0.4122137404580153,-2.732824427480916,-1.297709923664122,-0.403076171875,0.0478515625,-0.33935546875,1.6048
0.6259541984732825,-2.687022900763359,-1.3129770992366412,-0.40673828125,0.047607421875,-0.3359375,1.6064999999999998
0.5038167938931297,-2.519083969465649,-1.3587786259541985,-0.407958984375,0.048095703125,-0.3349609375,1.6081999999999999
0.5038167938931297,-2.519083969465649,-1.4351145038167938,-0.4033203125,0.0458984375,-0.334228515625,1.6098999999999999
0.48854961832061067,-2.381679389312977,-1.6488549618320612,-0.409423828125,0.049560546875,-0.341064453125,1.6116
0.6106870229007634,-2.6259541984732824,-1.4198473282442747,-0.405029296875,0.05224609375,-0.3359375,1.6133
0.44274809160305345,-2.1526717557251906,-1.5877862595419847,-0.406494140625,0.050537109375,-0.34033203125,1.615
0.44274809160305345,-2.198473282442748,-1.5725190839694656,-0.40234375,0.0478515625,-0.335693359375,1.6166999999999998
0.5954198473282443,-2.50381679389313,-1.8015267175572518,-0.40380859375,0.04931640625,-0.336181640625,1.6183999999999998
0.5801526717557252,-2.366412213740458,-1.4809160305343512,-0.40673828125,0.051513671875,-0.34228515625,1.6200999999999999
0.4122137404580153,-2.2290076335877864,-1.618320610687023,-0.409423828125,0.052978515625,-0.338623046875,1.6218
0.5954198473282443,-2.1068702290076335,-1.5419847328244274,-0.407958984375,0.05810546875,-0.338623046875,1.6235
0.42748091603053434,-2.030534351145038,-1.8931297709923665,-0.406494140625,0.0478515625,-0.339599609375,1.6252
0.4732824427480916,-2.0,-1.7557251908396947,-0.411865234375,0.049072265625,-0.341552734375,1.6269
0.32061068702290074,-2.0,-1.7099236641221374,-0.40380859375,0.052978515625,-0.338623046875,1.6285999999999998
0.4580152671755725,-1.6946564885496183,-1.6793893129770991,-0.406494140625,0.0498046875,-0.345947265625,1.6302999999999999
0.5038167938931297,-1.5419847328244274,-2.0610687022900764,-0.405029296875,0.049560546875,-0.3408203125,1.632
0.4122137404580153,-1.6030534351145038,-2.0,-0.41259765625,0.0556640625,-0.33837890625,1.6337
0.3969465648854962,-1.2366412213740459,-2.1374045801526718,-0.408447265625,0.057373046875,-0.33935546875,1.6354
0.7175572519083969,-1.1145038167938932,-1.9541984732824427,-0.413330078125,0.0576171875,-0.33544921875,1.6371
0.4122137404580153,-1.2213740458015268,-1.8778625954198473,-0.407958984375,0.055419921875,-0.343017578125,1.6387999999999998
0.5038167938931297,-1.0229007633587786,-2.015267175572519,-0.41064453125,0.051513671875,-0.339111328125,1.6404999999999998
0.3053435114503817,-1.0381679389312977,-2.0916030534351147,-0.412109375,0.05615234375,-0.33349609375,1.6421999999999999
0.5954198473282443,-0.8702290076335878,-2.16793893129771,-0.404052734375,0.054931640625,-0.337646484375,1.6439
0.6717557251908397,-0.732824427480916,-2.16793893129771,-0.406005859375,0.051025390625,-0.341796875,1.6456
0.5038167938931297,-0.9618320610687023,-2.122137404580153,-0.40625,0.05322265625,-0.3427734375,1.6473
0.6259541984732825,-0.8854961832061069,-2.2900763358778624,-0.407958984375,0.05517578125,-0.343017578125,1.6489999999999998
0.8854961832061069,-0.9007633587786259,-2.549618320610687,-0.406494140625,0.064208984375,-0.3330078125,1.6506999999999998
1.0381679389312977,-0.8549618320610687,-2.6564885496183206,-0.404296875,0.059814453125,-0.332763671875,1.6523999999999999
0.9923664122137404,-0.9312977099236641,-2.7938931297709924,-0.4111328125,0.05419921875,-0.331298828125,1.6541
1.0076335877862594,-0.9770992366412213,-2.7786259541984735,-0.4052734375,0.057373046875,-0.33203125,1.6558
1.297709923664122,-0.9465648854961832,-2.9618320610687023,-0.400390625,0.059814453125,-0.3349609375,1.6575
1.1450381679389312,-0.8396946564885496,-3.2519083969465647,-0.40673828125,0.0595703125,-0.33154296875,1.6592
1.4961832061068703,-1.0687022900763359,-3.3740458015267176,-0.40673828125,0.059326171875,-0.331298828125,1.6608999999999998
1.5877862595419847,-0.9923664122137404,-3.49618320610687,-0.40185546875,0.056640625,-0.3369140625,1.6625999999999999
1.6793893129770991,-1.1450381679389312,-3.404580152671756,-0.402587890625,0.058349609375,-0.336181640625,1.6643
1.7251908396946565,-1.0687022900763359,-3.7404580152671754,-0.40478515625,0.05859375,-0.335205078125,1.666
2.045801526717557,-1.2061068702290076,-3.786259541984733,-0.405517578125,0.058349609375,-0.326416015625,1.6677
2.0,-1.251908396946565,-4.152671755725191,-0.402587890625,0.064208984375,-0.3330078125,1.6694
2.0763358778625953,-1.3587786259541985,-4.076335877862595,-0.400390625,0.061279296875,-0.333984375,1.6710999999999998
2.381679389312977,-1.3282442748091603,-4.33587786259542,-0.39990234375,0.064697265625,-0.32958984375,1.6727999999999998
2.33587786259542,-1.465648854961832,-4.427480916030534,-0.39990234375,0.0615234375,-0.32373046875,1.6744999999999999
2.687022900763359,-1.297709923664122,-4.67175572519084,-0.39404296875,0.060791015625,-0.31884765625,1.6762
2.854961832061069,-1.5419847328244274,-4.67175572519084,-0.39892578125,0.064453125,-0.324462890625,1.6779
2.9770992366412212,-1.786259541984733,-4.854961832061068,-0.401611328125,0.06005859375,-0.339111328125,1.6796
3.099236641221374,-1.83206106870229,-4.916030534351145,-0.397705078125,0.059326171875,-0.327880859375,1.6813
3.2061068702290076,-1.8625954198473282,-5.190839694656488,-0.396728515625,0.059326171875,-0.3359375,1.6829999999999998
3.3740458015267176,-1.83206106870229,-5.343511450381679,-0.39501953125,0.065185546875,-0.330810546875,1.6846999999999999
3.2519083969465647,-2.045801526717557,-5.557251908396947,-0.400146484375,0.061279296875,-0.32958984375,1.6864
3.404580152671756,-2.2900763358778624,-5.66412213740458,-0.396484375,0.06201171875,-0.328125,1.6881
3.5114503816793894,-2.2442748091603053,-5.679389312977099,-0.401611328125,0.0654296875,-0.334716796875,1.6898
3.801526717557252,-2.366412213740458,-5.770992366412214,-0.399169921875,0.065673828125,-0.334716796875,1.6915
3.9389312977099236,-2.4732824427480917,-5.893129770992366,-0.398193359375,0.0625,-0.328857421875,1.6931999999999998
3.7557251908396947,-2.4580152671755724,-6.106870229007634,-0.394775390625,0.054931640625,-0.3310546875,1.6948999999999999
3.9236641221374047,-2.6717557251908395,-6.137404580152672,-0.39794921875,0.059326171875,-0.32373046875,1.6965999999999999
4.106870229007634,-2.8702290076335877,-6.183206106870229,-0.396484375,0.059326171875,-0.329345703125,1.6983
4.198473282442748,-2.8396946564885495,-6.564885496183206,-0.3974609375,0.061279296875,-0.332275390625,1.7
4.076335877862595,-2.9160305343511452,-6.641221374045801,-0.393798828125,0.06005859375,-0.33203125,1.7017
4.3816793893129775,-3.114503816793893,-6.687022900763359,-0.3984375,0.060546875,-0.329833984375,1.7033999999999998
4.564885496183206,-3.1297709923664123,-6.687022900763359,-0.39501953125,0.05859375,-0.336669921875,1.7050999999999998
4.351145038167939,-3.3587786259541983,-6.885496183206107,-0.396484375,0.05712890625,-0.332763671875,1.7067999999999999
4.549618320610687,-3.3435114503816794,-6.900763358778626,-0.39697265625,0.053466796875,-0.33251953125,1.7085
4.534351145038168,-3.3282442748091605,-6.793893129770993,-0.395751953125,0.056884765625,-0.3310546875,1.7102
4.885496183206107,-3.5877862595419847,-7.099236641221374,-0.39697265625,0.060546875,-0.332763671875,1.7119
4.931297709923665,-3.618320610687023,-7.190839694656488,-0.39697265625,0.064697265625,-0.3310546875,1.7136
4.916030534351145,-3.7557251908396947,-7.175572519083969,-0.39892578125,0.061279296875,-0.334228515625,1.7152999999999998
5.083969465648855,-3.83206106870229,-7.450381679389313,-0.39990234375,0.058837890625,-0.33837890625,1.7169999999999999
5.267175572519084,-3.801526717557252,-7.312977099236641,-0.40185546875,0.059814453125,-0.3310546875,1.7187
4.99236641221374,-4.290076335877862,-7.343511450381679,-0.396240234375,0.0546875,-0.333251953125,1.7204
5.312977099236641,-4.137404580152672,-7.374045801526718,-0.400390625,0.05224609375,-0.333251953125,1.7221
5.511450381679389,-4.030534351145038,-7.709923664122138,-0.399658203125,0.054931640625,-0.3369140625,1.7238
5.465648854961832,-4.0458015267175576,-7.358778625954199,-0.406005859375,0.054443359375,-0.332275390625,1.7254999999999998
5.572519083969466,-4.106870229007634,-7.587786259541985,-0.400146484375,0.05810546875,-0.3369140625,1.7271999999999998
5.648854961832061,-4.2748091603053435,-7.633587786259542,-0.400634765625,0.052978515625,-0.333740234375,1.7288999999999999
5.786259541984733,-4.061068702290076,-7.679389312977099,-0.40185546875,0.05419921875,-0.33349609375,1.7306
5.969465648854962,-4.137404580152672,-7.9541984732824424,-0.404052734375,0.055908203125,-0.34130859375,1.7323
6.076335877862595,-4.458015267175573,-7.801526717557252,-0.408447265625,0.05908203125,-0.32958984375,1.734
6.0,-4.183206106870229,-7.923664122137405,-0.408203125,0.05517578125,-0.334228515625,1.7356999999999998
6.198473282442748,-4.33587786259542,-8.0,-0.4013671875,0.062255859375,-0.33203125,1.7373999999999998
6.5038167938931295,-4.244274809160306,-8.122137404580153,-0.40283203125,0.049560546875,-0.332275390625,1.7390999999999999
6.748091603053435,-4.412213740458015,-8.091603053435115,-0.4013671875,0.049560546875,-0.340087890625,1.7408
6.5038167938931295,-4.580152671755725,-8.091603053435115,-0.404296875,0.05859375,-0.331787109375,1.7425
6.6106870229007635,-4.580152671755725,-7.9541984732824424,-0.404052734375,0.05419921875,-0.326171875,1.7442
6.763358778625954,-4.473282442748092,-8.396946564885496,-0.408203125,0.05126953125,-0.333984375,1.7459
6.99236641221374,-4.458015267175573,-8.106870229007633,-0.405517578125,0.054443359375,-0.3310546875,1.7475999999999998
7.038167938931298,-4.67175572519084,-8.488549618320612,-0.404052734375,0.056396484375,-0.33642578125,1.7492999999999999
7.221374045801527,-4.595419847328245,-8.442748091603054,-0.40283203125,0.053466796875,-0.3330078125,1.751
7.480916030534351,-4.748091603053435,-8.564885496183207,-0.404296875,0.04931640625,-0.3330078125,1.7527
7.4961832061068705,-4.778625954198473,-8.610687022900763,-0.407958984375,0.054443359375,-0.342041015625,1.7544
7.435114503816794,-4.687022900763359,-8.549618320610687,-0.403564453125,0.0517578125,-0.33154296875,1.7561
7.4961832061068705,-4.931297709923665,-8.458015267175572,-0.40283203125,0.048095703125,-0.334228515625,1.7577999999999998
7.816793893129771,-4.900763358778626,-8.83969465648855,-0.40283203125,0.05126953125,-0.33544921875,1.7594999999999998
8.076335877862595,-4.931297709923665,-8.625954198473282,-0.40576171875,0.054931640625,-0.327880859375,1.7611999999999999
7.862595419847328,-4.961832061068702,-8.65648854961832,-0.405029296875,0.052978515625,-0.33251953125,1.7629
8.076335877862595,-5.145038167938932,-8.763358778625955,-0.4111328125,0.05322265625,-0.338623046875,1.7646
8.335877862595419,-5.1603053435114505,-9.16030534351145,-0.404541015625,0.052001953125,-0.333984375,1.7663
8.458015267175572,-4.9465648854961835,-8.885496183206106,-0.403076171875,0.0517578125,-0.329345703125,1.7679999999999998
8.65648854961832,-4.99236641221374,-8.83969465648855,-0.401611328125,0.04931640625,-0.328857421875,1.7696999999999998
8.702290076335878,-5.0534351145038165,-8.65648854961832,-0.40625,0.04638671875,-0.331787109375,1.7713999999999999
8.534351145038167,-5.038167938931298,-8.83969465648855,-0.409423828125,0.048095703125,-0.33642578125,1.7731
8.763358778625955,-5.221374045801527,-8.885496183206106,-0.40380859375,0.051025390625,-0.333740234375,1.7748
8.748091603053435,-5.022900763358779,-8.977099236641221,-0.405029296875,0.045654296875,-0.329833984375,1.7765
8.900763358778626,-5.099236641221374,-8.625954198473282,-0.405029296875,0.045166015625,-0.337646484375,1.7782
8.732824427480915,-4.977099236641221,-8.961832061068701,-0.406982421875,0.043701171875,-0.333984375,1.7798999999999998
8.961832061068701,-4.931297709923665,-8.580152671755725,-0.40673828125,0.04736328125,-0.331298828125,1.7815999999999999
9.206106870229007,-4.99236641221374,-8.65648854961832,-0.41015625,0.046875,-0.32666015625,1.7832999999999999
9.236641221374045,-5.236641221374046,-8.641221374045802,-0.40869140625,0.050048828125,-0.333251953125,1.785
9.419847328244275,-4.977099236641221,-8.702290076335878,-0.408203125,0.0517578125,-0.333251953125,1.7867
9.435114503816793,-5.0534351145038165,-8.641221374045802,-0.409912109375,0.045654296875,-0.333740234375,1.7884
9.48091603053435,-5.038167938931298,-8.763358778625955,-0.406005859375,0.04443359375,-0.337158203125,1.7900999999999998
9.557251908396946,-4.977099236641221,-8.412213740458014,-0.40576171875,0.0400390625,-0.329833984375,1.7917999999999998
9.557251908396946,-4.9465648854961835,-8.427480916030534,-0.406005859375,0.042236328125,-0.339111328125,1.7934999999999999
9.709923664122137,-5.022900763358779,-8.427480916030534,-0.41162109375,0.044677734375,-0.33251953125,1.7952
9.755725190839694,-5.083969465648855,-8.381679389312977,-0.412353515625,0.0419921875,-0.335205078125,1.7969
9.404580152671755,-4.748091603053435,-8.305343511450381,-0.414306640625,0.0458984375,-0.335205078125,1.7986
9.511450381679388,-4.809160305343512,-8.412213740458014,-0.408447265625,0.04248046875,-0.3310546875,1.8002999999999998
9.908396946564885,-4.99236641221374,-8.244274809160306,-0.406494140625,0.044189453125,-0.326416015625,1.8019999999999998
9.954198473282442,-4.809160305343512,-8.01526717557252,-0.416259765625,0.0390625,-0.327880859375,1.8036999999999999
9.664122137404581,-4.900763358778626,-7.908396946564886,-0.412841796875,0.04150390625,-0.340576171875,1.8054
10.076335877862595,-4.885496183206107,-8.061068702290076,-0.40966796875,0.04541015625,-0.33203125,1.8071
10.122137404580153,-4.793893129770993,-7.740458015267175,-0.41015625,0.0478515625,-0.33544921875,1.8088
10.16793893129771,-4.748091603053435,-7.908396946564886,-0.4111328125,0.0400390625,-0.32958984375,1.8105
10.213740458015268,-4.687022900763359,-7.541984732824427,-0.41357421875,0.0380859375,-0.325927734375,1.8121999999999998
10.351145038167939,-4.67175572519084,-7.801526717557252,-0.406982421875,0.03857421875,-0.329833984375,1.8138999999999998
10.213740458015268,-4.580152671755725,-7.633587786259542,-0.410888671875,0.0400390625,-0.32861328125,1.8155999999999999
10.213740458015268,-4.564885496183206,-7.572519083969466,-0.411376953125,0.04052734375,-0.325927734375,1.8173
10.290076335877863,-4.656488549618321,-7.541984732824427,-0.40869140625,0.039794921875,-0.32421875,1.819
