gyrox1,gyroy1,gyroz1,accelx1,accely1,accelz1,Time
1.8015267175572518,1.8473282442748091,-1.1145038167938932,-0.435546875,-0.05615234375,-0.290771484375,0.0
1.6946564885496183,1.8778625954198473,-1.1908396946564885,-0.4326171875,-0.05517578125,-0.29345703125,0.0017
1.5877862595419847,1.9083969465648856,-0.916030534351145,-0.43017578125,-0.053466796875,-0.285888671875,0.0034
1.3282442748091603,1.8778625954198473,-1.0076335877862594,-0.43603515625,-0.060546875,-0.283447265625,0.0050999999999999995
1.251908396946565,1.9389312977099236,-1.099236641221374,-0.42724609375,-0.054931640625,-0.292236328125,0.0068
1.2671755725190839,1.9541984732824427,-1.1450381679389312,-0.429931640625,-0.05419921875,-0.28125,0.008499999999999999
1.083969465648855,2.1526717557251906,-0.9465648854961832,-0.430908203125,-0.054931640625,-0.29345703125,0.010199999999999999
1.2671755725190839,1.984732824427481,-0.8091603053435115,-0.432861328125,-0.0556640625,-0.279296875,0.011899999999999999
1.1755725190839694,2.0916030534351147,-1.0381679389312977,-0.4345703125,-0.06298828125,-0.288330078125,0.0136
1.1450381679389312,1.9389312977099236,-0.8091603053435115,-0.431884765625,-0.056640625,-0.279296875,0.0153
0.8549618320610687,1.984732824427481,-0.8244274809160306,-0.4296875,-0.054443359375,-0.280029296875,0.016999999999999998
1.0687022900763359,1.9083969465648856,-0.8091603053435115,-0.430908203125,-0.052734375,-0.277587890625,0.018699999999999998
1.0381679389312977,2.015267175572519,-1.083969465648855,-0.427490234375,-0.05810546875,-0.274658203125,0.020399999999999998
0.9923664122137404,1.9694656488549618,-1.1145038167938932,-0.42626953125,-0.056396484375,-0.28173828125,0.022099999999999998
1.0687022900763359,1.9083969465648856,-0.8702290076335878,-0.42919921875,-0.05224609375,-0.27783203125,0.023799999999999998
1.0687022900763359,1.9083969465648856,-0.9923664122137404,-0.42822265625,-0.052001953125,-0.280517578125,0.0255
1.1603053435114503,2.0763358778625953,-1.3129770992366412,-0.4248046875,-0.052978515625,-0.283935546875,0.0272
0.9770992366412213,2.030534351145038,-1.099236641221374,-0.42578125,-0.05810546875,-0.286865234375,0.0289
1.0076335877862594,1.8625954198473282,-1.1908396946564885,-0.42578125,-0.055419921875,-0.287109375,0.0306
0.9618320610687023,1.8778625954198473,-1.2213740458015268,-0.4248046875,-0.052001953125,-0.28955078125,0.032299999999999995
0.9465648854961832,1.7557251908396947,-1.1297709923664123,-0.427001953125,-0.056640625,-0.287109375,0.033999999999999996
1.1297709923664123,1.7557251908396947,-0.8244274809160306,-0.428466796875,-0.052978515625,-0.28515625,0.035699999999999996
1.0381679389312977,1.6641221374045803,-1.1603053435114503,-0.429443359375,-0.0556640625,-0.28076171875,0.037399999999999996
0.9618320610687023,1.5725190839694656,-1.083969465648855,-0.429443359375,-0.04931640625,-0.288818359375,0.039099999999999996
1.0534351145038168,1.618320610687023,-1.2061068702290076,-0.426513671875,-0.055908203125,-0.2802734375,0.040799999999999996
1.0534351145038168,1.5725190839694656,-1.2366412213740459,-0.43017578125,-0.0556640625,-0.282470703125,0.042499999999999996
0.7022900763358778,1.3129770992366412,-1.2213740458015268,-0.431640625,-0.055419921875,-0.2822265625,0.044199999999999996
1.099236641221374,1.4045801526717556,-1.2061068702290076,-0.42822265625,-0.04931640625,-0.287841796875,0.045899999999999996
0.916030534351145,1.5419847328244274,-1.282442748091603,-0.429931640625,-0.0498046875,-0.286865234375,0.047599999999999996
1.0229007633587786,1.5114503816793894,-1.2213740458015268,-0.42724609375,-0.053955078125,-0.28271484375,0.0493
1.0076335877862594,1.3282442748091603,-1.3587786259541985,-0.4248046875,-0.053955078125,-0.28173828125,0.051
1.0381679389312977,1.5877862595419847,-1.282442748091603,-0.431884765625,-0.050537109375,-0.279052734375,0.0527
1.1603053435114503,1.4351145038167938,-1.3129770992366412,-0.42724609375,-0.0537109375,-0.27978515625,0.0544
1.0534351145038168,1.1908396946564885,-0.9923664122137404,-0.4296875,-0.059326171875,-0.280029296875,0.0561
1.4045801526717556,1.3282442748091603,-1.3129770992366412,-0.423095703125,-0.054443359375,-0.284423828125,0.0578
1.1755725190839694,1.251908396946565,-1.2061068702290076,-0.427734375,-0.050537109375,-0.2822265625,0.0595
1.1603053435114503,1.1603053435114503,-1.1755725190839694,-0.427490234375,-0.04931640625,-0.278076171875,0.0612
1.083969465648855,1.1297709923664123,-1.2061068702290076,-0.429931640625,-0.052734375,-0.28564453125,0.0629
1.2366412213740459,1.0687022900763359,-1.3740458015267176,-0.426513671875,-0.0576171875,-0.287109375,0.06459999999999999
1.282442748091603,1.0229007633587786,-1.1908396946564885,-0.429443359375,-0.055908203125,-0.284912109375,0.0663
1.2671755725190839,1.0076335877862594,-1.4045801526717556,-0.4248046875,-0.048095703125,-0.291259765625,0.06799999999999999
1.2366412213740459,1.1145038167938932,-1.3435114503816794,-0.427490234375,-0.0556640625,-0.28662109375,0.0697
1.0076335877862594,1.099236641221374,-1.3587786259541985,-0.427490234375,-0.05419921875,-0.281494140625,0.07139999999999999
1.2061068702290076,0.9923664122137404,-1.2213740458015268,-0.43115234375,-0.046875,-0.278564453125,0.0731
1.1450381679389312,1.0381679389312977,-1.3282442748091603,-0.42822265625,-0.049072265625,-0.28662109375,0.07479999999999999
1.1603053435114503,1.1908396946564885,-1.1755725190839694,-0.426513671875,-0.052734375,-0.28369140625,0.0765
1.1908396946564885,0.8854961832061069,-1.0381679389312977,-0.42578125,-0.05029296875,-0.283935546875,0.07819999999999999
1.2213740458015268,0.8854961832061069,-1.1145038167938932,-0.433837890625,-0.0517578125,-0.283935546875,0.0799
1.1755725190839694,0.8854961832061069,-1.1450381679389312,-0.427001953125,-0.053466796875,-0.284423828125,0.08159999999999999
1.3282442748091603,0.7786259541984732,-0.8702290076335878,-0.42431640625,-0.0517578125,-0.274658203125,0.0833
1.099236641221374,0.916030534351145,-1.1450381679389312,-0.43017578125,-0.057861328125,-0.290283203125,0.08499999999999999
1.1603053435114503,0.916030534351145,-1.0076335877862594,-0.429931640625,-0.055908203125,-0.28955078125,0.0867
1.099236641221374,0.916030534351145,-1.083969465648855,-0.427734375,-0.05078125,-0.29296875,0.08839999999999999
1.0534351145038168,0.9770992366412213,-0.9770992366412213,-0.4296875,-0.05322265625,-0.296142578125,0.0901
1.3740458015267176,0.732824427480916,-1.1450381679389312,-0.426513671875,-0.051513671875,-0.29150390625,0.09179999999999999
1.3587786259541985,0.732824427480916,-1.0229007633587786,-0.427734375,-0.054931640625,-0.292724609375,0.0935
1.1450381679389312,0.8702290076335878,-1.0229007633587786,-0.427734375,-0.05810546875,-0.287841796875,0.09519999999999999
1.4198473282442747,0.7022900763358778,-1.1450381679389312,-0.4296875,-0.05419921875,-0.2841796875,0.0969
1.3282442748091603,0.6717557251908397,-0.9465648854961832,-0.427490234375,-0.051025390625,-0.2861328125,0.0986
1.282442748091603,0.8396946564885496,-0.9312977099236641,-0.43017578125,-0.05517578125,-0.287841796875,0.1003
1.2671755725190839,0.8244274809160306,-1.0076335877862594,-0.4306640625,-0.05322265625,-0.29345703125,0.102
1.0687022900763359,0.9618320610687023,-0.8854961832061069,-0.42822265625,-0.05908203125,-0.282958984375,0.1037
1.4961832061068703,0.7938931297709924,-1.099236641221374,-0.42333984375,-0.054443359375,-0.280517578125,0.1054
1.2061068702290076,0.8091603053435115,-0.9618320610687023,-0.430419921875,-0.048828125,-0.288818359375,0.1071
0.9618320610687023,0.8549618320610687,-0.9770992366412213,-0.428466796875,-0.0546875,-0.290283203125,0.1088
1.1145038167938932,0.8244274809160306,-0.8396946564885496,-0.426513671875,-0.058349609375,-0.27734375,0.11049999999999999
1.4198473282442747,0.9312977099236641,-0.8702290076335878,-0.43115234375,-0.054443359375,-0.2880859375,0.1122
1.099236641221374,0.732824427480916,-0.8702290076335878,-0.427734375,-0.052978515625,-0.27783203125,0.11389999999999999
1.1603053435114503,0.8396946564885496,-0.9618320610687023,-0.424560546875,-0.054443359375,-0.28515625,0.1156
1.0534351145038168,0.8549618320610687,-0.8549618320610687,-0.427001953125,-0.0478515625,-0.286376953125,0.11729999999999999
1.3129770992366412,0.8702290076335878,-0.8091603053435115,-0.423583984375,-0.052490234375,-0.2861328125,0.119
1.1145038167938932,0.9312977099236641,-0.9312977099236641,-0.426513671875,-0.05322265625,-0.28564453125,0.12069999999999999
1.1755725190839694,0.8549618320610687,-1.1297709923664123,-0.42919921875,-0.0546875,-0.291259765625,0.1224
1.3740458015267176,1.0687022900763359,-0.916030534351145,-0.429931640625,-0.053955078125,-0.291259765625,0.12409999999999999
1.099236641221374,0.8702290076335878,-0.9465648854961832,-0.429931640625,-0.05322265625,-0.2841796875,0.1258
1.3282442748091603,0.8091603053435115,-1.1297709923664123,-0.429443359375,-0.054443359375,-0.279541015625,0.1275
1.1145038167938932,0.7786259541984732,-1.0076335877862594,-0.42333984375,-0.056884765625,-0.289794921875,0.12919999999999998
1.2671755725190839,0.7938931297709924,-0.916030534351145,-0.4267578125,-0.051025390625,-0.289306640625,0.1309
0.9923664122137404,0.7938931297709924,-1.099236641221374,-0.424072265625,-0.05078125,-0.285888671875,0.1326
1.3740458015267176,0.6412213740458015,-1.099236641221374,-0.4345703125,-0.0546875,-0.277587890625,0.1343
1.1450381679389312,0.8549618320610687,-1.1755725190839694,-0.426513671875,-0.055419921875,-0.281982421875,0.13599999999999998
1.1755725190839694,0.8244274809160306,-1.0687022900763359,-0.429443359375,-0.056640625,-0.279052734375,0.1377
1.3587786259541985,0.6870229007633588,-1.1145038167938932,-0.428466796875,-0.0537109375,-0.278564453125,0.1394
1.251908396946565,0.6259541984732825,-0.9770992366412213,-0.42919921875,-0.050537109375,-0.28173828125,0.1411
1.2213740458015268,0.6106870229007634,-1.1908396946564885,-0.427978515625,-0.052001953125,-0.28369140625,0.14279999999999998
1.465648854961832,0.6259541984732825,-1.0229007633587786,-0.425537109375,-0.049560546875,-0.279296875,0.1445
1.1755725190839694,0.7022900763358778,-1.2671755725190839,-0.43017578125,-0.0556640625,-0.2841796875,0.1462
1.3587786259541985,0.6259541984732825,-1.3129770992366412,-0.427490234375,-0.0498046875,-0.29150390625,0.1479
1.3893129770992367,0.7175572519083969,-1.4198473282442747,-0.423828125,-0.0546875,-0.291015625,0.14959999999999998
1.2061068702290076,0.48854961832061067,-1.3129770992366412,-0.421875,-0.0537109375,-0.28515625,0.1513
1.2366412213740459,0.48854961832061067,-1.2671755725190839,-0.431640625,-0.057861328125,-0.279052734375,0.153
1.1908396946564885,0.6259541984732825,-1.2671755725190839,-0.43115234375,-0.050537109375,-0.2841796875,0.1547
1.4961832061068703,0.44274809160305345,-1.4351145038167938,-0.4306640625,-0.052978515625,-0.2734375,0.15639999999999998
1.5419847328244274,0.5343511450381679,-1.4198473282442747,-0.4267578125,-0.05419921875,-0.284912109375,0.1581
1.6641221374045803,0.5648854961832062,-1.4351145038167938,-0.43212890625,-0.056640625,-0.28076171875,0.1598
1.465648854961832,0.48854961832061067,-1.3129770992366412,-0.433349609375,-0.054443359375,-0.28271484375,0.1615
1.4351145038167938,0.366412213740458,-1.450381679389313,-0.427001953125,-0.0546875,-0.283447265625,0.16319999999999998
1.4045801526717556,0.48854961832061067,-1.5877862595419847,-0.431640625,-0.059326171875,-0.279052734375,0.1649
1.5267175572519085,0.6564885496183206,-1.465648854961832,-0.434326171875,-0.05126953125,-0.28369140625,0.1666
1.3740458015267176,0.6259541984732825,-1.450381679389313,-0.42822265625,-0.05517578125,-0.28857421875,0.16829999999999998
1.4809160305343512,0.5038167938931297,-1.3893129770992367,-0.431396484375,-0.0517578125,-0.281494140625,0.16999999999999998
1.618320610687023,0.5648854961832062,-1.4351145038167938,-0.431396484375,-0.0537109375,-0.283447265625,0.1717
1.5725190839694656,0.5343511450381679,-1.5267175572519085,-0.434814453125,-0.052490234375,-0.2919921875,0.1734
1.4045801526717556,0.5954198473282443,-1.4351145038167938,-0.426513671875,-0.051025390625,-0.27490234375,0.17509999999999998
1.5419847328244274,0.7022900763358778,-1.5114503816793894,-0.42529296875,-0.054931640625,-0.283935546875,0.17679999999999998
1.4351145038167938,0.48854961832061067,-1.7404580152671756,-0.42333984375,-0.05224609375,-0.286865234375,0.1785
1.3740458015267176,0.5038167938931297,-1.7404580152671756,-0.4306640625,-0.056396484375,-0.28369140625,0.1802
1.5725190839694656,0.5038167938931297,-1.5267175572519085,-0.43017578125,-0.060546875,-0.283203125,0.18189999999999998
1.5877862595419847,0.5954198473282443,-1.5419847328244274,-0.435302734375,-0.05517578125,-0.284423828125,0.18359999999999999
1.4351145038167938,0.7938931297709924,-1.450381679389313,-0.430908203125,-0.052490234375,-0.284423828125,0.1853
1.4809160305343512,0.7786259541984732,-1.4045801526717556,-0.4248046875,-0.04833984375,-0.27490234375,0.187
1.6946564885496183,0.6412213740458015,-1.633587786259542,-0.4287109375,-0.04931640625,-0.279052734375,0.18869999999999998
1.5572519083969465,0.7022900763358778,-1.633587786259542,-0.426513671875,-0.05419921875,-0.279296875,0.19039999999999999
1.5267175572519085,0.916030534351145,-1.465648854961832,-0.431396484375,-0.05615234375,-0.289306640625,0.1921
1.5725190839694656,0.8702290076335878,-1.5572519083969465,-0.429443359375,-0.051513671875,-0.29345703125,0.1938
1.5419847328244274,0.8244274809160306,-1.6030534351145038,-0.4306640625,-0.054931640625,-0.285888671875,0.19549999999999998
1.6641221374045803,0.8396946564885496,-1.5419847328244274,-0.431884765625,-0.054931640625,-0.285888671875,0.1972
1.5877862595419847,0.7022900763358778,-1.5419847328244274,-0.43212890625,-0.051513671875,-0.285888671875,0.1989
1.465648854961832,0.6412213740458015,-1.465648854961832,-0.4375,-0.058349609375,-0.288330078125,0.2006
1.7099236641221374,0.7786259541984732,-1.633587786259542,-0.43017578125,-0.04833984375,-0.276611328125,0.20229999999999998
1.6641221374045803,0.9465648854961832,-1.4809160305343512,-0.431640625,-0.05224609375,-0.287353515625,0.204
1.7557251908396947,0.9770992366412213,-1.465648854961832,-0.429443359375,-0.052001953125,-0.283935546875,0.2057
1.786259541984733,0.9465648854961832,-1.4961832061068703,-0.43359375,-0.05615234375,-0.284423828125,0.2074
1.4961832061068703,0.8091603053435115,-1.450381679389313,-0.428466796875,-0.052734375,-0.287109375,0.20909999999999998
1.465648854961832,0.8702290076335878,-1.6030534351145038,-0.433837890625,-0.050048828125,-0.2841796875,0.2108
1.618320610687023,0.7633587786259542,-1.4961832061068703,-0.430908203125,-0.06005859375,-0.287109375,0.2125
1.8778625954198473,0.9618320610687023,-1.465648854961832,-0.4326171875,-0.05712890625,-0.28955078125,0.2142
1.7404580152671756,0.8549618320610687,-1.4045801526717556,-0.429931640625,-0.05615234375,-0.281494140625,0.21589999999999998
1.4809160305343512,0.8091603053435115,-1.251908396946565,-0.431640625,-0.055908203125,-0.286865234375,0.2176
1.6030534351145038,0.9312977099236641,-1.4198473282442747,-0.43603515625,-0.053955078125,-0.280029296875,0.2193
1.786259541984733,0.9618320610687023,-1.3587786259541985,-0.432373046875,-0.052978515625,-0.28955078125,0.22099999999999997
1.5114503816793894,0.5954198473282443,-1.3740458015267176,-0.427734375,-0.05322265625,-0.287109375,0.22269999999999998
1.633587786259542,0.916030534351145,-1.3740458015267176,-0.429443359375,-0.05859375,-0.282958984375,0.2244
1.618320610687023,0.9618320610687023,-1.5725190839694656,-0.42822265625,-0.055908203125,-0.281982421875,0.2261
1.5572519083969465,0.8702290076335878,-1.3740458015267176,-0.42919921875,-0.0546875,-0.279541015625,0.22779999999999997
1.6793893129770991,0.9770992366412213,-1.450381679389313,-0.42578125,-0.05859375,-0.282958984375,0.22949999999999998
1.83206106870229,1.1297709923664123,-1.251908396946565,-0.431396484375,-0.05712890625,-0.2822265625,0.2312
1.6946564885496183,1.1755725190839694,-1.297709923664122,-0.433349609375,-0.056640625,-0.280029296875,0.2329
1.7709923664122138,1.0076335877862594,-1.450381679389313,-0.431640625,-0.05712890625,-0.279541015625,0.23459999999999998
1.4351145038167938,1.0534351145038168,-1.3282442748091603,-0.4306640625,-0.059326171875,-0.289794921875,0.23629999999999998
1.7099236641221374,0.8702290076335878,-1.1145038167938932,-0.427001953125,-0.0546875,-0.28271484375,0.238
1.5267175572519085,0.5801526717557252,-1.297709923664122,-0.42822265625,-0.057861328125,-0.291259765625,0.2397
1.5572519083969465,0.916030534351145,-1.3740458015267176,-0.426025390625,-0.05126953125,-0.28759765625,0.24139999999999998
1.786259541984733,1.1603053435114503,-1.3587786259541985,-0.431396484375,-0.0537109375,-0.279541015625,0.24309999999999998
1.6793893129770991,0.8091603053435115,-1.3435114503816794,-0.430908203125,-0.0546875,-0.280517578125,0.2448
1.6030534351145038,0.9618320610687023,-1.3282442748091603,-0.43310546875,-0.05859375,-0.287109375,0.2465
1.618320610687023,0.9007633587786259,-1.297709923664122,-0.429931640625,-0.051025390625,-0.285400390625,0.24819999999999998
1.2671755725190839,0.8702290076335878,-1.2061068702290076,-0.4228515625,-0.055419921875,-0.284912109375,0.24989999999999998
1.465648854961832,0.9312977099236641,-1.1603053435114503,-0.42919921875,-0.060791015625,-0.290283203125,0.2516
1.4961832061068703,0.9465648854961832,-1.1908396946564885,-0.43359375,-0.06005859375,-0.28271484375,0.25329999999999997
1.7251908396946565,0.9007633587786259,-1.1145038167938932,-0.431640625,-0.0576171875,-0.283447265625,0.255
1.450381679389313,0.9312977099236641,-1.0381679389312977,-0.43212890625,-0.055419921875,-0.28271484375,0.2567
1.1603053435114503,0.7480916030534351,-0.9618320610687023,-0.429443359375,-0.058349609375,-0.2861328125,0.25839999999999996
1.3129770992366412,0.7022900763358778,-1.1908396946564885,-0.427490234375,-0.05322265625,-0.283203125,0.2601
1.4045801526717556,0.6564885496183206,-0.9923664122137404,-0.43017578125,-0.05908203125,-0.27392578125,0.2618
1.2366412213740459,0.6106870229007634,-0.9618320610687023,-0.427734375,-0.060791015625,-0.28466796875,0.2635
1.1908396946564885,0.6412213740458015,-1.1908396946564885,-0.425048828125,-0.057373046875,-0.28271484375,0.2652
1.2213740458015268,0.9618320610687023,-0.916030534351145,-0.4306640625,-0.05810546875,-0.28662109375,0.26689999999999997
1.0687022900763359,0.5648854961832062,-1.0076335877862594,-0.432373046875,-0.0517578125,-0.2890625,0.2686
1.4809160305343512,0.7022900763358778,-1.1450381679389312,-0.428466796875,-0.057373046875,-0.281982421875,0.2703
1.083969465648855,0.8396946564885496,-0.916030534351145,-0.42919921875,-0.056396484375,-0.278076171875,0.27199999999999996
1.083969465648855,0.6870229007633588,-1.083969465648855,-0.429931640625,-0.0537109375,-0.27392578125,0.2737
1.1603053435114503,0.6717557251908397,-1.0076335877862594,-0.430419921875,-0.054443359375,-0.280029296875,0.2754
1.3893129770992367,0.7633587786259542,-1.0229007633587786,-0.43017578125,-0.05224609375,-0.28466796875,0.27709999999999996
1.2061068702290076,0.7175572519083969,-0.916030534351145,-0.42333984375,-0.053466796875,-0.283203125,0.2788
0.9007633587786259,0.8396946564885496,-1.3893129770992367,-0.430908203125,-0.052734375,-0.279541015625,0.28049999999999997
1.099236641221374,0.7480916030534351,-0.9618320610687023,-0.431640625,-0.0498046875,-0.283935546875,0.2822
0.9618320610687023,0.8702290076335878,-1.1145038167938932,-0.4306640625,-0.052734375,-0.27978515625,0.2839
1.099236641221374,0.9312977099236641,-1.1450381679389312,-0.425048828125,-0.050537109375,-0.2861328125,0.28559999999999997
1.282442748091603,0.8549618320610687,-1.0076335877862594,-0.42919921875,-0.0576171875,-0.287109375,0.2873
1.1603053435114503,0.8244274809160306,-0.6564885496183206,-0.43408203125,-0.0546875,-0.28369140625,0.289
1.1603053435114503,0.8244274809160306,-0.8854961832061069,-0.4287109375,-0.05517578125,-0.27734375,0.29069999999999996
1.6030534351145038,0.8702290076335878,-0.9465648854961832,-0.433837890625,-0.053466796875,-0.28173828125,0.2924
1.282442748091603,0.8854961832061069,-1.1603053435114503,-0.43017578125,-0.05517578125,-0.2890625,0.2941
1.3740458015267176,1.0687022900763359,-1.0534351145038168,-0.42919921875,-0.053466796875,-0.2890625,0.2958
1.1908396946564885,0.8396946564885496,-0.9618320610687023,-0.429931640625,-0.054931640625,-0.28955078125,0.2975
1.4198473282442747,0.916030534351145,-0.9618320610687023,-0.435546875,-0.05126953125,-0.28515625,0.29919999999999997
1.251908396946565,1.251908396946565,-1.1297709923664123,-0.43115234375,-0.0556640625,-0.28662109375,0.3009
1.3129770992366412,1.1297709923664123,-0.9923664122137404,-0.43017578125,-0.056640625,-0.2822265625,0.3026
1.4045801526717556,1.1297709923664123,-1.1603053435114503,-0.435302734375,-0.059814453125,-0.283935546875,0.30429999999999996
1.2213740458015268,1.3282442748091603,-1.1603053435114503,-0.428466796875,-0.056884765625,-0.282470703125,0.306
1.083969465648855,1.297709923664122,-1.3282442748091603,-0.434814453125,-0.055419921875,-0.2763671875,0.3077
1.0381679389312977,1.3740458015267176,-0.9465648854961832,-0.433349609375,-0.056640625,-0.2880859375,0.3094
1.2213740458015268,1.6488549618320612,-1.2061068702290076,-0.435302734375,-0.05615234375,-0.284912109375,0.3111
1.2671755725190839,1.5419847328244274,-1.1603053435114503,-0.433349609375,-0.0546875,-0.281982421875,0.31279999999999997
1.1755725190839694,1.3587786259541985,-1.4198473282442747,-0.4306640625,-0.051513671875,-0.28369140625,0.3145
1.3129770992366412,1.5725190839694656,-1.5572519083969465,-0.430419921875,-0.052490234375,-0.28564453125,0.3162
1.1603053435114503,1.5419847328244274,-1.6030534351145038,-0.43115234375,-0.0537109375,-0.280029296875,0.31789999999999996
0.916030534351145,1.5572519083969465,-1.3587786259541985,-0.43212890625,-0.062255859375,-0.285400390625,0.3196
1.0076335877862594,1.5572519083969465,-1.3740458015267176,-0.42919921875,-0.052734375,-0.287109375,0.3213
0.9312977099236641,1.618320610687023,-1.3587786259541985,-0.426513671875,-0.052490234375,-0.28759765625,0.323
1.1755725190839694,1.5419847328244274,-1.2366412213740459,-0.4267578125,-0.055908203125,-0.277099609375,0.3247
0.7175572519083969,1.450381679389313,-0.9923664122137404,-0.42236328125,-0.0595703125,-0.288818359375,0.32639999999999997
0.9007633587786259,1.5572519083969465,-1.2671755725190839,-0.42138671875,-0.0576171875,-0.285400390625,0.3281
0.9007633587786259,1.5114503816793894,-1.1297709923664123,-0.428466796875,-0.05859375,-0.282958984375,0.3298
0.9923664122137404,1.4809160305343512,-1.297709923664122,-0.421875,-0.05419921875,-0.286865234375,0.33149999999999996
0.9465648854961832,1.2366412213740459,-1.2671755725190839,-0.42529296875,-0.0556640625,-0.290771484375,0.3332
0.8854961832061069,1.282442748091603,-1.3740458015267176,-0.419921875,-0.056884765625,-0.28515625,0.3349
0.5343511450381679,1.0381679389312977,-1.1297709923664123,-0.423095703125,-0.054931640625,-0.27978515625,0.33659999999999995
0.732824427480916,1.083969465648855,-1.0229007633587786,-0.43212890625,-0.0537109375,-0.284423828125,0.3383
0.7938931297709924,1.083969465648855,-0.9770992366412213,-0.429443359375,-0.06103515625,-0.287109375,0.33999999999999997
0.6259541984732825,1.0076335877862594,-1.0229007633587786,-0.427734375,-0.05419921875,-0.287841796875,0.3417
0.7633587786259542,0.7938931297709924,-0.9312977099236641,-0.425048828125,-0.05322265625,-0.287841796875,0.3434
0.732824427480916,0.916030534351145,-0.916030534351145,-0.4267578125,-0.055419921875,-0.283935546875,0.34509999999999996
0.5038167938931297,0.8091603053435115,-0.7938931297709924,-0.426513671875,-0.05517578125,-0.276611328125,0.3468
0.549618320610687,0.9312977099236641,-0.8549618320610687,-0.43115234375,-0.050537109375,-0.284912109375,0.3485
0.5954198473282443,0.8854961832061069,-0.6564885496183206,-0.43017578125,-0.0517578125,-0.292236328125,0.35019999999999996
0.3053435114503817,1.0381679389312977,-0.732824427480916,-0.433837890625,-0.052734375,-0.283447265625,0.3519
0.16793893129770993,0.9007633587786259,-0.42748091603053434,-0.427734375,-0.05322265625,-0.283935546875,0.35359999999999997
0.1984732824427481,1.0076335877862594,-0.6717557251908397,-0.429931640625,-0.0576171875,-0.28515625,0.3553
0.1984732824427481,1.0687022900763359,-0.5801526717557252,-0.4345703125,-0.05517578125,-0.286376953125,0.357
0.15267175572519084,1.3129770992366412,-0.7480916030534351,-0.434326171875,-0.056396484375,-0.27587890625,0.35869999999999996
0.2595419847328244,1.3893129770992367,-0.6259541984732825,-0.430419921875,-0.052490234375,-0.283447265625,0.3604
0.16793893129770993,1.3740458015267176,-0.6106870229007634,-0.431640625,-0.051513671875,-0.28076171875,0.3621
0.24427480916030533,1.5114503816793894,-0.6259541984732825,-0.43310546875,-0.05859375,-0.27978515625,0.36379999999999996
0.061068702290076333,1.465648854961832,-0.8549618320610687,-0.433837890625,-0.05029296875,-0.2939453125,0.3655
0.061068702290076333,1.4961832061068703,-0.732824427480916,-0.434814453125,-0.054931640625,-0.285400390625,0.36719999999999997
0.366412213740458,1.6030534351145038,-0.9618320610687023,-0.43017578125,-0.049560546875,-0.28515625,0.3689
0.22900763358778625,1.465648854961832,-1.1450381679389312,-0.43115234375,-0.048583984375,-0.28125,0.3706
0.2595419847328244,1.5572519083969465,-1.5572519083969465,-0.434814453125,-0.04541015625,-0.28662109375,0.37229999999999996
0.6412213740458015,1.282442748091603,-1.4961832061068703,-0.43359375,-0.04248046875,-0.28271484375,0.374
0.6106870229007634,1.1297709923664123,-1.5725190839694656,-0.43017578125,-0.052001953125,-0.281005859375,0.3757
0.6259541984732825,1.3129770992366412,-1.8625954198473282,-0.4326171875,-0.04833984375,-0.281005859375,0.37739999999999996
0.8091603053435115,1.1908396946564885,-1.9236641221374047,-0.42626953125,-0.048828125,-0.2822265625,0.3791
0.9465648854961832,1.3435114503816794,-2.1068702290076335,-0.430908203125,-0.046875,-0.291015625,0.38079999999999997
1.0381679389312977,1.1755725190839694,-2.2442748091603053,-0.427734375,-0.049072265625,-0.283935546875,0.38249999999999995
1.0381679389312977,0.9923664122137404,-2.0916030534351147,-0.4267578125,-0.050537109375,-0.281494140625,0.3842
0.9770992366412213,1.0534351145038168,-2.1526717557251906,-0.421875,-0.052490234375,-0.2880859375,0.38589999999999997
1.282442748091603,1.2366412213740459,-2.4427480916030535,-0.430419921875,-0.055419921875,-0.283447265625,0.3876
1.5419847328244274,0.9770992366412213,-2.6717557251908395,-0.429443359375,-0.0478515625,-0.287353515625,0.3893
1.2671755725190839,0.9465648854961832,-2.4427480916030535,-0.43408203125,-0.047119140625,-0.284423828125,0.39099999999999996
1.3282442748091603,1.1450381679389312,-2.381679389312977,-0.426513671875,-0.05615234375,-0.288330078125,0.3927
1.282442748091603,1.0687022900763359,-2.427480916030534,-0.427490234375,-0.05224609375,-0.287109375,0.3944
1.4961832061068703,1.1755725190839694,-2.381679389312977,-0.4296875,-0.051025390625,-0.281494140625,0.39609999999999995
1.6030534351145038,0.9770992366412213,-2.2900763358778624,-0.432373046875,-0.0517578125,-0.2880859375,0.3978
1.3740458015267176,1.099236641221374,-2.33587786259542,-0.431396484375,-0.048583984375,-0.28857421875,0.39949999999999997
1.4045801526717556,1.251908396946565,-2.2900763358778624,-0.43212890625,-0.047119140625,-0.282470703125,0.4012
1.3587786259541985,1.4045801526717556,-2.183206106870229,-0.43017578125,-0.05126953125,-0.2861328125,0.4029
1.5267175572519085,1.2213740458015268,-2.4122137404580153,-0.433837890625,-0.0537109375,-0.281005859375,0.40459999999999996
1.4961832061068703,1.2061068702290076,-2.2442748091603053,-0.4326171875,-0.052490234375,-0.28369140625,0.4063
1.297709923664122,1.282442748091603,-2.2595419847328246,-0.426025390625,-0.060302734375,-0.29150390625,0.408
1.3893129770992367,1.1603053435114503,-1.9083969465648856,-0.426513671875,-0.049560546875,-0.283203125,0.40969999999999995
1.3435114503816794,0.9618320610687023,-1.8015267175572518,-0.42919921875,-0.0556640625,-0.286376953125,0.4114
1.3893129770992367,0.9923664122137404,-1.6488549618320612,-0.425537109375,-0.057861328125,-0.285888671875,0.41309999999999997
1.2366412213740459,0.9312977099236641,-1.7404580152671756,-0.431884765625,-0.055908203125,-0.279052734375,0.4148
1.251908396946565,0.9465648854961832,-1.6793893129770991,-0.4296875,-0.056640625,-0.27197265625,0.4165
1.2213740458015268,0.9618320610687023,-1.6030534351145038,-0.43212890625,-0.05126953125,-0.272216796875,0.41819999999999996
1.3129770992366412,0.9618320610687023,-1.5572519083969465,-0.42822265625,-0.05419921875,-0.2861328125,0.4199
1.3587786259541985,0.8396946564885496,-1.4351145038167938,-0.425537109375,-0.050537109375,-0.28759765625,0.4216
1.2213740458015268,0.8549618320610687,-1.3893129770992367,-0.429931640625,-0.051025390625,-0.28271484375,0.42329999999999995
1.1297709923664123,0.732824427480916,-1.465648854961832,-0.42626953125,-0.048828125,-0.278564453125,0.425
1.1145038167938932,0.7633587786259542,-1.4351145038167938,-0.427978515625,-0.05126953125,-0.278076171875,0.42669999999999997
1.282442748091603,0.5190839694656488,-1.2366412213740459,-0.427978515625,-0.05224609375,-0.279052734375,0.4284
1.2671755725190839,0.732824427480916,-1.1450381679389312,-0.4248046875,-0.052734375,-0.280029296875,0.4301
1.1908396946564885,0.8854961832061069,-1.3129770992366412,-0.42724609375,-0.0556640625,-0.273681640625,0.43179999999999996
1.3587786259541985,0.7022900763358778,-1.0381679389312977,-0.4296875,-0.0517578125,-0.274658203125,0.4335
1.465648854961832,0.6106870229007634,-1.1145038167938932,-0.427734375,-0.055419921875,-0.284912109375,0.4352
1.4351145038167938,0.7022900763358778,-1.1908396946564885,-0.4306640625,-0.05322265625,-0.279541015625,0.43689999999999996
1.3740458015267176,0.6106870229007634,-1.3129770992366412,-0.427001953125,-0.049560546875,-0.286376953125,0.4386
1.4198473282442747,0.5954198473282443,-1.3587786259541985,-0.4267578125,-0.051025390625,-0.2890625,0.44029999999999997
1.5877862595419847,0.7633587786259542,-1.3587786259541985,-0.430419921875,-0.04931640625,-0.2802734375,0.44199999999999995
1.5114503816793894,0.6412213740458015,-1.3435114503816794,-0.43115234375,-0.05517578125,-0.28076171875,0.4437
1.4045801526717556,0.6870229007633588,-1.3282442748091603,-0.4248046875,-0.053466796875,-0.2802734375,0.44539999999999996
1.5725190839694656,0.549618320610687,-1.3587786259541985,-0.427001953125,-0.055908203125,-0.2705078125,0.4471
1.5267175572519085,0.6259541984732825,-1.3740458015267176,-0.42919921875,-0.053466796875,-0.2822265625,0.4488
1.5572519083969465,0.6106870229007634,-1.3435114503816794,-0.42431640625,-0.051025390625,-0.2822265625,0.45049999999999996
1.7099236641221374,0.5801526717557252,-1.4961832061068703,-0.42919921875,-0.04833984375,-0.285888671875,0.4522
1.6641221374045803,0.6259541984732825,-1.297709923664122,-0.42529296875,-0.052734375,-0.278076171875,0.45389999999999997
1.5267175572519085,0.42748091603053434,-1.3893129770992367,-0.428466796875,-0.052490234375,-0.279052734375,0.45559999999999995
1.5725190839694656,0.5038167938931297,-1.282442748091603,-0.427978515625,-0.05615234375,-0.281982421875,0.4573
1.8778625954198473,0.5038167938931297,-1.3893129770992367,-0.42236328125,-0.0517578125,-0.283935546875,0.45899999999999996
1.7557251908396947,0.6106870229007634,-1.099236641221374,-0.427978515625,-0.057373046875,-0.2763671875,0.4607
1.6030534351145038,0.5343511450381679,-1.4809160305343512,-0.429443359375,-0.054443359375,-0.27685546875,0.4624
1.5877862595419847,0.4122137404580153,-1.4198473282442747,-0.430419921875,-0.052490234375,-0.2900390625,0.46409999999999996
1.816793893129771,0.3511450381679389,-1.3129770992366412,-0.42822265625,-0.05224609375,-0.2783203125,0.4658
1.4809160305343512,0.3816793893129771,-1.282442748091603,-0.426025390625,-0.0546875,-0.27490234375,0.46749999999999997
1.618320610687023,0.4732824427480916,-1.1450381679389312,-0.42919921875,-0.052978515625,-0.27490234375,0.46919999999999995
1.7251908396946565,0.3511450381679389,-1.1145038167938932,-0.426513671875,-0.058837890625,-0.279052734375,0.4709
1.5877862595419847,0.3053435114503817,-1.3282442748091603,-0.4248046875,-0.057373046875,-0.28271484375,0.47259999999999996
1.618320610687023,0.24427480916030533,-1.2366412213740459,-0.427734375,-0.05078125,-0.275390625,0.4743
1.5267175572519085,0.2748091603053435,-1.3587786259541985,-0.427734375,-0.05615234375,-0.28125,0.476
1.297709923664122,0.4732824427480916,-1.3282442748091603,-0.42822265625,-0.050537109375,-0.275390625,0.47769999999999996
1.5572519083969465,0.183206106870229,-1.4961832061068703,-0.427978515625,-0.05615234375,-0.27001953125,0.4794
1.3129770992366412,0.3511450381679389,-1.2213740458015268,-0.42822265625,-0.0556640625,-0.288818359375,0.48109999999999997
1.251908396946565,0.4122137404580153,-1.3435114503816794,-0.441650390625,-0.053955078125,-0.280029296875,0.48279999999999995
1.5419847328244274,0.3969465648854962,-1.3893129770992367,-0.430908203125,-0.055419921875,-0.283935546875,0.4845
1.282442748091603,0.32061068702290074,-1.4045801526717556,-0.4287109375,-0.05810546875,-0.284423828125,0.48619999999999997
1.282442748091603,0.4580152671755725,-1.251908396946565,-0.42822265625,-0.052978515625,-0.27978515625,0.4879
1.465648854961832,0.24427480916030533,-1.0687022900763359,-0.42919921875,-0.06005859375,-0.28662109375,0.4896
1.3435114503816794,0.42748091603053434,-1.2061068702290076,-0.42822265625,-0.0556640625,-0.28369140625,0.49129999999999996
1.251908396946565,0.42748091603053434,-1.2366412213740459,-0.431640625,-0.056640625,-0.284423828125,0.493
1.1908396946564885,0.22900763358778625,-1.0229007633587786,-0.428466796875,-0.051513671875,-0.281982421875,0.4947
1.1297709923664123,0.3969465648854962,-1.1297709923664123,-0.423828125,-0.052490234375,-0.28173828125,0.49639999999999995
1.1908396946564885,0.4122137404580153,-1.1450381679389312,-0.430419921875,-0.05322265625,-0.284912109375,0.4981
0.7633587786259542,0.33587786259541985,-1.083969465648855,-0.432373046875,-0.05615234375,-0.276611328125,0.49979999999999997
0.8396946564885496,0.5190839694656488,-0.9007633587786259,-0.4306640625,-0.054931640625,-0.279541015625,0.5015
0.6564885496183206,0.42748091603053434,-0.9770992366412213,-0.43212890625,-0.054931640625,-0.276123046875,0.5032
0.6412213740458015,0.2748091603053435,-1.1450381679389312,-0.43017578125,-0.058837890625,-0.27490234375,0.5049
0.6412213740458015,0.5801526717557252,-1.1603053435114503,-0.427001953125,-0.059326171875,-0.2919921875,0.5065999999999999
0.6412213740458015,0.732824427480916,-1.0381679389312977,-0.428466796875,-0.060791015625,-0.285400390625,0.5083
0.5801526717557252,0.5648854961832062,-1.0229007633587786,-0.43017578125,-0.05712890625,-0.28564453125,0.51
0.5190839694656488,0.4732824427480916,-0.9312977099236641,-0.42431640625,-0.0556640625,-0.2880859375,0.5116999999999999
0.6259541984732825,0.6870229007633588,-1.1145038167938932,-0.4287109375,-0.051513671875,-0.28466796875,0.5134
0.7633587786259542,0.5648854961832062,-1.1603053435114503,-0.42529296875,-0.0537109375,-0.293701171875,0.5151
0.21374045801526717,0.4580152671755725,-1.0076335877862594,-0.431640625,-0.055419921875,-0.275634765625,0.5167999999999999
0.3511450381679389,0.6412213740458015,-0.9007633587786259,-0.431396484375,-0.056640625,-0.283935546875,0.5185
0.42748091603053434,0.6412213740458015,-1.2671755725190839,-0.431640625,-0.0517578125,-0.28271484375,0.5202
0.44274809160305345,0.3816793893129771,-1.0381679389312977,-0.42578125,-0.056396484375,-0.28271484375,0.5218999999999999
0.3511450381679389,0.2900763358778626,-1.2061068702290076,-0.426513671875,-0.060302734375,-0.283935546875,0.5236
0.4122137404580153,0.3511450381679389,-1.1297709923664123,-0.43115234375,-0.0537109375,-0.274658203125,0.5253
0.3053435114503817,0.5343511450381679,-1.2366412213740459,-0.435791015625,-0.05517578125,-0.28515625,0.527
0.32061068702290074,0.4580152671755725,-1.2366412213740459,-0.430908203125,-0.052001953125,-0.281494140625,0.5287
0.5648854961832062,0.2748091603053435,-1.251908396946565,-0.428466796875,-0.050048828125,-0.279052734375,0.5304
0.5190839694656488,0.2595419847328244,-1.2061068702290076,-0.424560546875,-0.05615234375,-0.283447265625,0.5321
0.48854961832061067,0.3816793893129771,-1.3435114503816794,-0.43359375,-0.057861328125,-0.286865234375,0.5337999999999999
0.4122137404580153,0.366412213740458,-0.9465648854961832,-0.433349609375,-0.0537109375,-0.28564453125,0.5355
0.3053435114503817,0.1984732824427481,-1.282442748091603,-0.434814453125,-0.052978515625,-0.29248046875,0.5372
0.44274809160305345,0.3053435114503817,-1.297709923664122,-0.4267578125,-0.05615234375,-0.282470703125,0.5388999999999999
0.5038167938931297,0.3053435114503817,-1.3129770992366412,-0.427001953125,-0.05517578125,-0.29296875,0.5406
0.2900763358778626,0.3816793893129771,-1.3740458015267176,-0.431884765625,-0.0537109375,-0.28173828125,0.5423
0.4580152671755725,0.21374045801526717,-1.4045801526717556,-0.423828125,-0.052734375,-0.283935546875,0.5439999999999999
0.15267175572519084,0.42748091603053434,-1.1755725190839694,-0.429931640625,-0.04931640625,-0.287109375,0.5457
0.42748091603053434,0.24427480916030533,-1.5419847328244274,-0.431396484375,-0.05322265625,-0.28369140625,0.5474
0.6564885496183206,0.21374045801526717,-1.618320610687023,-0.43603515625,-0.05322265625,-0.279052734375,0.5490999999999999
0.5954198473282443,0.366412213740458,-1.465648854961832,-0.43017578125,-0.05078125,-0.27490234375,0.5508
0.366412213740458,0.3511450381679389,-1.3435114503816794,-0.4287109375,-0.05859375,-0.28515625,0.5525
0.4732824427480916,0.2900763358778626,-1.6030534351145038,-0.427978515625,-0.053955078125,-0.288818359375,0.5541999999999999
0.7633587786259542,0.07633587786259542,-1.465648854961832,-0.428466796875,-0.063232421875,-0.282958984375,0.5559
0.732824427480916,0.2900763358778626,-1.6488549618320612,-0.431640625,-0.057373046875,-0.280517578125,0.5576
0.6564885496183206,-0.061068702290076333,-1.5877862595419847,-0.431884765625,-0.049560546875,-0.283203125,0.5593
0.6564885496183206,0.030534351145038167,-1.618320610687023,-0.43115234375,-0.054931640625,-0.286865234375,0.5609999999999999
0.9618320610687023,0.12213740458015267,-1.297709923664122,-0.431396484375,-0.05419921875,-0.2890625,0.5627
0.6870229007633588,0.061068702290076333,-1.5572519083969465,-0.427734375,-0.053955078125,-0.283447265625,0.5644
0.549618320610687,0.15267175572519084,-1.450381679389313,-0.429931640625,-0.054443359375,-0.283935546875,0.5660999999999999
0.9007633587786259,0.015267175572519083,-1.465648854961832,-0.430419921875,-0.052734375,-0.279052734375,0.5678
0.7633587786259542,-0.13740458015267176,-1.3435114503816794,-0.432373046875,-0.04833984375,-0.283447265625,0.5695
0.7633587786259542,-0.15267175572519084,-1.4351145038167938,-0.4326171875,-0.05517578125,-0.275390625,0.5711999999999999
0.7022900763358778,-0.07633587786259542,-1.1908396946564885,-0.4306640625,-0.0537109375,-0.282958984375,0.5729
0.5190839694656488,-0.1984732824427481,-1.3129770992366412,-0.429931640625,-0.056396484375,-0.286376953125,0.5746
0.4732824427480916,-0.33587786259541985,-1.1755725190839694,-0.431396484375,-0.054443359375,-0.297607421875,0.5762999999999999
0.8244274809160306,-0.21374045801526717,-1.297709923664122,-0.432373046875,-0.0458984375,-0.283935546875,0.578
0.6564885496183206,-0.3511450381679389,-1.1450381679389312,-0.43017578125,-0.049072265625,-0.2841796875,0.5797
0.8396946564885496,-0.3816793893129771,-1.1908396946564885,-0.4287109375,-0.05322265625,-0.283203125,0.5813999999999999
0.5801526717557252,-0.24427480916030533,-1.1297709923664123,-0.43212890625,-0.053466796875,-0.273193359375,0.5831
0.7175572519083969,-0.15267175572519084,-0.9923664122137404,-0.428955078125,-0.05810546875,-0.283447265625,0.5848
0.8396946564885496,-0.2748091603053435,-1.1908396946564885,-0.43310546875,-0.0498046875,-0.28125,0.5865
0.7480916030534351,-0.22900763358778625,-1.2671755725190839,-0.431396484375,-0.0517578125,-0.27685546875,0.5882
0.8702290076335878,-0.21374045801526717,-1.2061068702290076,-0.429931640625,-0.052978515625,-0.2822265625,0.5899
0.7786259541984732,-0.3816793893129771,-1.2213740458015268,-0.4287109375,-0.052978515625,-0.28759765625,0.5916
0.732824427480916,-0.5038167938931297,-1.099236641221374,-0.427490234375,-0.05419921875,-0.29052734375,0.5932999999999999
0.7633587786259542,-0.6564885496183206,-1.1450381679389312,-0.42626953125,-0.05322265625,-0.282958984375,0.595
0.7938931297709924,-0.3969465648854962,-1.0687022900763359,-0.43115234375,-0.052490234375,-0.2841796875,0.5967
0.7480916030534351,-0.3511450381679389,-0.9770992366412213,-0.4287109375,-0.048583984375,-0.278076171875,0.5983999999999999
0.7938931297709924,-0.2900763358778626,-0.9007633587786259,-0.43359375,-0.054931640625,-0.2822265625,0.6001
0.8702290076335878,-0.22900763358778625,-0.9618320610687023,-0.431884765625,-0.058837890625,-0.28173828125,0.6018
0.8396946564885496,-0.33587786259541985,-0.9007633587786259,-0.4306640625,-0.052734375,-0.290283203125,0.6034999999999999
0.7022900763358778,-0.0916030534351145,-0.7022900763358778,-0.42822265625,-0.058837890625,-0.282958984375,0.6052
0.5343511450381679,-0.10687022900763359,-0.5038167938931297,-0.4296875,-0.057373046875,-0.282958984375,0.6069
0.44274809160305345,-0.13740458015267176,-0.3511450381679389,-0.42919921875,-0.057861328125,-0.275634765625,0.6085999999999999
0.42748091603053434,-0.13740458015267176,-0.6564885496183206,-0.42822265625,-0.051513671875,-0.282958984375,0.6103
0.32061068702290074,0.10687022900763359,-0.5343511450381679,-0.434326171875,-0.055419921875,-0.278564453125,0.612
0.3816793893129771,0.2748091603053435,-0.3969465648854962,-0.4287109375,-0.05322265625,-0.282958984375,0.6136999999999999
0.549618320610687,0.12213740458015267,-0.549618320610687,-0.437744140625,-0.05126953125,-0.271728515625,0.6154
0.32061068702290074,0.3511450381679389,-0.4732824427480916,-0.43798828125,-0.056396484375,-0.275146484375,0.6171
0.21374045801526717,0.5343511450381679,-0.5190839694656488,-0.4326171875,-0.054443359375,-0.27783203125,0.6188
0.10687022900763359,0.32061068702290074,-0.6106870229007634,-0.430908203125,-0.05322265625,-0.281005859375,0.6204999999999999
0.48854961832061067,0.6259541984732825,-0.6106870229007634,-0.432373046875,-0.0517578125,-0.277099609375,0.6222
0.3969465648854962,0.732824427480916,-0.6259541984732825,-0.435791015625,-0.0556640625,-0.284423828125,0.6239
0.48854961832061067,0.5954198473282443,-0.6564885496183206,-0.4375,-0.048095703125,-0.283447265625,0.6255999999999999
0.183206106870229,0.732824427480916,-0.7938931297709924,-0.433837890625,-0.05322265625,-0.28271484375,0.6273
0.15267175572519084,0.8549618320610687,-1.0687022900763359,-0.427978515625,-0.051513671875,-0.28662109375,0.629
0.5801526717557252,0.8091603053435115,-1.0381679389312977,-0.431396484375,-0.05517578125,-0.2861328125,0.6306999999999999
0.549618320610687,0.9923664122137404,-1.2061068702290076,-0.438232421875,-0.051513671875,-0.284912109375,0.6324
0.3511450381679389,1.0534351145038168,-1.3282442748091603,-0.435546875,-0.048095703125,-0.280517578125,0.6341
0.3511450381679389,0.9923664122137404,-1.3435114503816794,-0.432861328125,-0.051513671875,-0.283447265625,0.6357999999999999
0.5954198473282443,1.251908396946565,-1.3435114503816794,-0.427490234375,-0.05126953125,-0.28662109375,0.6375
0.4580152671755725,1.3435114503816794,-1.3893129770992367,-0.4384765625,-0.05908203125,-0.2802734375,0.6392
0.2748091603053435,1.251908396946565,-1.297709923664122,-0.438720703125,-0.052490234375,-0.283447265625,0.6408999999999999
0.3969465648854962,1.4198473282442747,-1.3740458015267176,-0.43603515625,-0.052001953125,-0.277587890625,0.6426
0.2900763358778626,1.6488549618320612,-1.5114503816793894,-0.43212890625,-0.05859375,-0.279052734375,0.6443
0.366412213740458,1.633587786259542,-1.450381679389313,-0.4306640625,-0.0576171875,-0.283447265625,0.646
0.16793893129770993,1.6641221374045803,-1.5267175572519085,-0.432861328125,-0.056640625,-0.2880859375,0.6476999999999999
0.1984732824427481,1.8473282442748091,-1.4198473282442747,-0.43798828125,-0.05712890625,-0.275634765625,0.6494
0.183206106870229,1.9236641221374047,-1.3740458015267176,-0.4306640625,-0.057373046875,-0.284912109375,0.6511
-0.061068702290076333,2.0,-1.465648854961832,-0.43212890625,-0.05517578125,-0.27685546875,0.6527999999999999
0.0,2.3053435114503817,-1.5572519083969465,-0.432373046875,-0.054931640625,-0.279296875,0.6545
-0.07633587786259542,1.9541984732824427,-1.5419847328244274,-0.43359375,-0.050537109375,-0.28173828125,0.6562
-0.0916030534351145,1.8625954198473282,-1.7099236641221374,-0.433837890625,-0.05224609375,-0.280517578125,0.6578999999999999
-0.015267175572519083,2.0,-1.7709923664122138,-0.431640625,-0.054931640625,-0.286376953125,0.6596
-0.24427480916030533,2.122137404580153,-1.7557251908396947,-0.430908203125,-0.0576171875,-0.2822265625,0.6613
-0.21374045801526717,2.198473282442748,-1.618320610687023,-0.43017578125,-0.060302734375,-0.287353515625,0.6629999999999999
-0.3053435114503817,2.16793893129771,-1.5877862595419847,-0.4306640625,-0.056884765625,-0.285400390625,0.6647
-0.10687022900763359,2.015267175572519,-1.6030534351145038,-0.4287109375,-0.05712890625,-0.27587890625,0.6664
-0.32061068702290074,2.1374045801526718,-1.8473282442748091,-0.428955078125,-0.057861328125,-0.287841796875,0.6680999999999999
-0.5801526717557252,2.030534351145038,-1.7404580152671756,-0.43017578125,-0.05126953125,-0.28564453125,0.6698
-0.44274809160305345,2.0763358778625953,-1.7099236641221374,-0.4326171875,-0.048583984375,-0.283203125,0.6715
-0.4732824427480916,1.9389312977099236,-1.9083969465648856,-0.426513671875,-0.052734375,-0.29150390625,0.6731999999999999
-0.5038167938931297,2.1526717557251906,-1.5572519083969465,-0.4267578125,-0.054443359375,-0.290283203125,0.6748999999999999
-0.7022900763358778,2.030534351145038,-1.4198473282442747,-0.429443359375,-0.051513671875,-0.284423828125,0.6766
-0.7175572519083969,1.9083969465648856,-1.450381679389313,-0.42333984375,-0.05078125,-0.279052734375,0.6783
-0.7022900763358778,2.0,-1.465648854961832,-0.43212890625,-0.054443359375,-0.283935546875,0.6799999999999999
-1.1145038167938932,1.9389312977099236,-1.4198473282442747,-0.429443359375,-0.056884765625,-0.27392578125,0.6817
-1.1450381679389312,1.9389312977099236,-1.5267175572519085,-0.43115234375,-0.05859375,-0.279296875,0.6834
-0.9007633587786259,2.045801526717557,-1.2366412213740459,-0.43310546875,-0.055419921875,-0.28857421875,0.6850999999999999
-0.916030534351145,2.0763358778625953,-1.3435114503816794,-0.43212890625,-0.0595703125,-0.287841796875,0.6868
-0.8549618320610687,2.0916030534351147,-1.465648854961832,-0.43017578125,-0.053466796875,-0.28515625,0.6885
-1.083969465648855,2.1068702290076335,-1.3129770992366412,-0.43505859375,-0.060302734375,-0.2861328125,0.6901999999999999
-1.2671755725190839,2.0,-1.4809160305343512,-0.43212890625,-0.05322265625,-0.283935546875,0.6919
-1.1297709923664123,2.0,-1.450381679389313,-0.425537109375,-0.053466796875,-0.2861328125,0.6936
-1.0229007633587786,2.030534351145038,-1.1908396946564885,-0.4267578125,-0.049560546875,-0.2861328125,0.6952999999999999
-1.2213740458015268,2.0763358778625953,-1.1603053435114503,-0.43115234375,-0.0537109375,-0.2880859375,0.697
-1.1450381679389312,2.0916030534351147,-1.4198473282442747,-0.427734375,-0.051513671875,-0.280029296875,0.6987
-1.0381679389312977,2.198473282442748,-1.4045801526717556,-0.426513671875,-0.05224609375,-0.28759765625,0.7003999999999999
-1.2213740458015268,1.9236641221374047,-1.4961832061068703,-0.42529296875,-0.05419921875,-0.279052734375,0.7021
-1.4809160305343512,1.9694656488549618,-1.1603053435114503,-0.429443359375,-0.054443359375,-0.28125,0.7038
-1.4198473282442747,1.7709923664122138,-1.2213740458015268,-0.42919921875,-0.049560546875,-0.285400390625,0.7055
-1.3893129770992367,1.7251908396946565,-1.1755725190839694,-0.427001953125,-0.0498046875,-0.2900390625,0.7071999999999999
-1.450381679389313,1.816793893129771,-1.4045801526717556,-0.42529296875,-0.046875,-0.2890625,0.7089
-1.282442748091603,1.6641221374045803,-1.3435114503816794,-0.427490234375,-0.0517578125,-0.282470703125,0.7106
-1.0687022900763359,1.6641221374045803,-1.3282442748091603,-0.425048828125,-0.048095703125,-0.285888671875,0.7122999999999999
-1.1603053435114503,1.4045801526717556,-1.4198473282442747,-0.425048828125,-0.055419921875,-0.282470703125,0.714
-1.0381679389312977,1.251908396946565,-1.4045801526717556,-0.43115234375,-0.048828125,-0.279052734375,0.7157
-1.0229007633587786,1.099236641221374,-1.3740458015267176,-0.42578125,-0.0458984375,-0.277587890625,0.7173999999999999
-1.0381679389312977,1.1755725190839694,-1.465648854961832,-0.42578125,-0.05322265625,-0.278076171875,0.7191
-1.099236641221374,1.2213740458015268,-1.3893129770992367,-0.43310546875,-0.052734375,-0.291259765625,0.7208
-1.099236641221374,1.0687022900763359,-1.465648854961832,-0.42529296875,-0.05078125,-0.28857421875,0.7224999999999999
-1.0381679389312977,0.8854961832061069,-1.3282442748091603,-0.42822265625,-0.04931640625,-0.27587890625,0.7242
-0.9007633587786259,0.9312977099236641,-1.3893129770992367,-0.4248046875,-0.050537109375,-0.27685546875,0.7259
-0.8549618320610687,0.9770992366412213,-1.4045801526717556,-0.4287109375,-0.055908203125,-0.28076171875,0.7275999999999999
-0.8091603053435115,1.083969465648855,-1.5572519083969465,-0.428466796875,-0.049072265625,-0.28271484375,0.7293
-1.0229007633587786,0.732824427480916,-1.3740458015267176,-0.4287109375,-0.05126953125,-0.285400390625,0.731
-0.916030534351145,0.7633587786259542,-1.4045801526717556,-0.43017578125,-0.051513671875,-0.287109375,0.7326999999999999
-0.9312977099236641,0.7480916030534351,-1.1450381679389312,-0.4306640625,-0.04931640625,-0.288818359375,0.7343999999999999
-0.8244274809160306,0.8854961832061069,-1.3282442748091603,-0.431640625,-0.048828125,-0.2841796875,0.7361
-0.7480916030534351,0.8091603053435115,-1.3587786259541985,-0.4296875,-0.055419921875,-0.2802734375,0.7378
-0.6870229007633588,0.8549618320610687,-1.3282442748091603,-0.428955078125,-0.0478515625,-0.2822265625,0.7394999999999999
-0.6412213740458015,0.7786259541984732,-1.3893129770992367,-0.431884765625,-0.053466796875,-0.2841796875,0.7412
-0.8702290076335878,0.6717557251908397,-1.3282442748091603,-0.42919921875,-0.048095703125,-0.284423828125,0.7429
-0.5648854961832062,0.9770992366412213,-1.2671755725190839,-0.426025390625,-0.050048828125,-0.27783203125,0.7445999999999999
-0.5954198473282443,0.6564885496183206,-1.3282442748091603,-0.427734375,-0.042724609375,-0.285888671875,0.7463
-0.5801526717557252,0.7633587786259542,-1.618320610687023,-0.430419921875,-0.0439453125,-0.284912109375,0.748
-0.4580152671755725,0.5190839694656488,-1.6030534351145038,-0.4296875,-0.0419921875,-0.27685546875,0.7496999999999999
-0.32061068702290074,0.5648854961832062,-1.4961832061068703,-0.4306640625,-0.051513671875,-0.2802734375,0.7514
-0.549618320610687,0.6106870229007634,-1.5877862595419847,-0.428955078125,-0.058349609375,-0.278076171875,0.7531
-0.4580152671755725,0.6717557251908397,-1.3282442748091603,-0.4296875,-0.051513671875,-0.286376953125,0.7547999999999999
-0.42748091603053434,0.6106870229007634,-1.7251908396946565,-0.421875,-0.046630859375,-0.2841796875,0.7565
-0.183206106870229,0.5038167938931297,-1.7099236641221374,-0.429443359375,-0.047119140625,-0.285888671875,0.7582
-0.12213740458015267,0.5801526717557252,-1.450381679389313,-0.430419921875,-0.05126953125,-0.290283203125,0.7598999999999999
-0.13740458015267176,0.4732824427480916,-1.4045801526717556,-0.428955078125,-0.054443359375,-0.28125,0.7615999999999999
-0.13740458015267176,0.24427480916030533,-1.5725190839694656,-0.427734375,-0.0498046875,-0.29296875,0.7633
-0.10687022900763359,0.3816793893129771,-1.465648854961832,-0.431640625,-0.051025390625,-0.285400390625,0.7649999999999999
-0.030534351145038167,0.2595419847328244,-1.5877862595419847,-0.429443359375,-0.046142578125,-0.27587890625,0.7666999999999999
-0.12213740458015267,0.183206106870229,-1.4045801526717556,-0.42822265625,-0.051513671875,-0.287109375,0.7684
-0.061068702290076333,0.3816793893129771,-1.5877862595419847,-0.4267578125,-0.052001953125,-0.28271484375,0.7701
0.0916030534351145,0.3969465648854962,-1.465648854961832,-0.426513671875,-0.0546875,-0.28857421875,0.7717999999999999
0.13740458015267176,0.12213740458015267,-1.5572519083969465,-0.424560546875,-0.051513671875,-0.29150390625,0.7735
0.24427480916030533,0.061068702290076333,-1.5114503816793894,-0.4267578125,-0.048828125,-0.2822265625,0.7752
-0.07633587786259542,0.2748091603053435,-1.5572519083969465,-0.423828125,-0.049560546875,-0.283203125,0.7768999999999999
0.10687022900763359,0.16793893129770993,-1.5267175572519085,-0.426513671875,-0.05078125,-0.28466796875,0.7786
0.4122137404580153,0.10687022900763359,-1.5725190839694656,-0.429931640625,-0.05419921875,-0.279052734375,0.7803
0.33587786259541985,-0.07633587786259542,-1.4809160305343512,-0.42578125,-0.052734375,-0.28466796875,0.7819999999999999
0.22900763358778625,0.061068702290076333,-1.8015267175572518,-0.42724609375,-0.04443359375,-0.283447265625,0.7837
0.2748091603053435,0.015267175572519083,-1.5419847328244274,-0.4267578125,-0.04443359375,-0.284912109375,0.7854
0.13740458015267176,-0.030534351145038167,-1.6641221374045803,-0.430908203125,-0.0458984375,-0.282470703125,0.7870999999999999
0.183206106870229,-0.030534351145038167,-1.4198473282442747,-0.4208984375,-0.052001953125,-0.281494140625,0.7888
0.21374045801526717,-0.13740458015267176,-1.5572519083969465,-0.427734375,-0.049072265625,-0.28515625,0.7905
0.32061068702290074,-0.2748091603053435,-1.297709923664122,-0.4228515625,-0.046142578125,-0.280029296875,0.7921999999999999
0.2900763358778626,-0.2748091603053435,-1.5114503816793894,-0.431640625,-0.052734375,-0.281494140625,0.7938999999999999
0.6106870229007634,-0.44274809160305345,-1.5725190839694656,-0.4326171875,-0.049072265625,-0.276611328125,0.7956
0.5343511450381679,-0.21374045801526717,-1.5419847328244274,-0.4306640625,-0.053955078125,-0.278564453125,0.7973
0.33587786259541985,-0.33587786259541985,-1.4351145038167938,-0.427001953125,-0.052001953125,-0.279296875,0.7989999999999999
0.3511450381679389,-0.3511450381679389,-1.6488549618320612,-0.431396484375,-0.04931640625,-0.2822265625,0.8007
0.5343511450381679,-0.3816793893129771,-1.5267175572519085,-0.427734375,-0.05126953125,-0.28076171875,0.8024
0.4122137404580153,-0.5038167938931297,-1.5114503816793894,-0.42919921875,-0.05126953125,-0.2841796875,0.8040999999999999
0.33587786259541985,-0.6412213740458015,-1.4809160305343512,-0.423828125,-0.051025390625,-0.28125,0.8058
0.5801526717557252,-0.6870229007633588,-1.5267175572519085,-0.427001953125,-0.051025390625,-0.28564453125,0.8075
0.5038167938931297,-0.5038167938931297,-1.6946564885496183,-0.427734375,-0.046630859375,-0.2822265625,0.8091999999999999
0.48854961832061067,-0.5801526717557252,-1.786259541984733,-0.426513671875,-0.04443359375,-0.28955078125,0.8109
0.5190839694656488,-0.8854961832061069,-1.633587786259542,-0.42822265625,-0.0458984375,-0.284912109375,0.8126
0.4732824427480916,-0.8091603053435115,-1.5725190839694656,-0.431396484375,-0.048828125,-0.277587890625,0.8142999999999999
0.6259541984732825,-0.9770992366412213,-1.6641221374045803,-0.42578125,-0.05224609375,-0.278076171875,0.816
0.7022900763358778,-1.1297709923664123,-1.83206106870229,-0.4306640625,-0.045654296875,-0.282958984375,0.8177
0.5954198473282443,-1.0534351145038168,-1.7099236641221374,-0.431640625,-0.050537109375,-0.28173828125,0.8193999999999999
0.7480916030534351,-0.9618320610687023,-1.7709923664122138,-0.426025390625,-0.05078125,-0.282958984375,0.8210999999999999
0.5190839694656488,-1.1145038167938932,-1.7404580152671756,-0.429931640625,-0.0498046875,-0.28466796875,0.8228
0.6564885496183206,-1.1450381679389312,-1.786259541984733,-0.4287109375,-0.0498046875,-0.287109375,0.8244999999999999
0.7480916030534351,-1.282442748091603,-1.6030534351145038,-0.42724609375,-0.047607421875,-0.291259765625,0.8261999999999999
0.7633587786259542,-1.282442748091603,-1.7557251908396947,-0.43115234375,-0.05078125,-0.288330078125,0.8279
0.9923664122137404,-1.4198473282442747,-1.7251908396946565,-0.42919921875,-0.0498046875,-0.281494140625,0.8296
0.732824427480916,-1.3587786259541985,-1.8015267175572518,-0.43603515625,-0.04931640625,-0.27783203125,0.8312999999999999
0.7633587786259542,-1.2366412213740459,-1.6488549618320612,-0.4345703125,-0.049560546875,-0.278564453125,0.833
0.7175572519083969,-1.2366412213740459,-1.8473282442748091,-0.435546875,-0.0546875,-0.27783203125,0.8347
0.6717557251908397,-1.3435114503816794,-1.633587786259542,-0.437255859375,-0.0537109375,-0.27587890625,0.8363999999999999
0.8091603053435115,-1.251908396946565,-1.5725190839694656,-0.432373046875,-0.0517578125,-0.283447265625,0.8381
0.5954198473282443,-1.1297709923664123,-1.786259541984733,-0.431640625,-0.049072265625,-0.28564453125,0.8398
0.8091603053435115,-1.1755725190839694,-1.7557251908396947,-0.43603515625,-0.04931640625,-0.280029296875,0.8414999999999999
1.1450381679389312,-1.1145038167938932,-1.8015267175572518,-0.43359375,-0.048828125,-0.27587890625,0.8432
1.0229007633587786,-1.1603053435114503,-1.7557251908396947,-0.42919921875,-0.05029296875,-0.288330078125,0.8449
1.0076335877862594,-0.9465648854961832,-1.83206106870229,-0.43017578125,-0.04931640625,-0.282470703125,0.8465999999999999
0.9007633587786259,-0.7633587786259542,-1.6641221374045803,-0.43359375,-0.05126953125,-0.287841796875,0.8482999999999999
1.0229007633587786,-0.7786259541984732,-1.633587786259542,-0.427978515625,-0.054443359375,-0.2841796875,0.85
1.0076335877862594,-0.42748091603053434,-1.8931297709923665,-0.430908203125,-0.05322265625,-0.285888671875,0.8516999999999999
1.0687022900763359,-0.6870229007633588,-1.786259541984733,-0.43115234375,-0.050048828125,-0.287353515625,0.8533999999999999
1.2671755725190839,-0.7022900763358778,-1.6946564885496183,-0.433349609375,-0.05322265625,-0.2802734375,0.8551
1.2366412213740459,-0.2748091603053435,-1.786259541984733,-0.437744140625,-0.05029296875,-0.281982421875,0.8568
1.1755725190839694,-0.21374045801526717,-1.6946564885496183,-0.435791015625,-0.051513671875,-0.283447265625,0.8584999999999999
1.2213740458015268,-0.13740458015267176,-1.6641221374045803,-0.43359375,-0.05029296875,-0.283203125,0.8602
1.4045801526717556,-0.183206106870229,-1.7709923664122138,-0.43017578125,-0.04833984375,-0.283203125,0.8619
1.2213740458015268,-0.2748091603053435,-1.8015267175572518,-0.4326171875,-0.051025390625,-0.282958984375,0.8635999999999999
1.1297709923664123,-0.061068702290076333,-1.7251908396946565,-0.431396484375,-0.055908203125,-0.28076171875,0.8653
1.3435114503816794,0.0,-1.5725190839694656,-0.429931640625,-0.047607421875,-0.27880859375,0.867
1.1908396946564885,0.07633587786259542,-1.6641221374045803,-0.436279296875,-0.0498046875,-0.281494140625,0.8686999999999999
1.1145038167938932,0.183206106870229,-1.6030534351145038,-0.43994140625,-0.049560546875,-0.280517578125,0.8704
1.2213740458015268,0.3511450381679389,-1.6793893129770991,-0.435546875,-0.050048828125,-0.284912109375,0.8721
1.251908396946565,0.5343511450381679,-1.4961832061068703,-0.433837890625,-0.0498046875,-0.275390625,0.8737999999999999
1.1450381679389312,0.5038167938931297,-1.5572519083969465,-0.431396484375,-0.052734375,-0.278564453125,0.8755
1.297709923664122,0.44274809160305345,-1.450381679389313,-0.43212890625,-0.053466796875,-0.29052734375,0.8772
1.282442748091603,0.916030534351145,-1.5572519083969465,-0.437255859375,-0.048828125,-0.277587890625,0.8788999999999999
1.0534351145038168,0.7175572519083969,-1.5877862595419847,-0.43505859375,-0.047119140625,-0.288818359375,0.8805999999999999
1.2671755725190839,0.732824427480916,-1.3893129770992367,-0.43359375,-0.051025390625,-0.28515625,0.8823
1.1145038167938932,0.8396946564885496,-1.3587786259541985,-0.43408203125,-0.0517578125,-0.286376953125,0.8839999999999999
1.1297709923664123,0.9923664122137404,-1.3740458015267176,-0.431884765625,-0.052734375,-0.272705078125,0.8856999999999999
1.099236641221374,1.0229007633587786,-1.3129770992366412,-0.430908203125,-0.051513671875,-0.271728515625,0.8874
1.2366412213740459,0.9618320610687023,-1.4809160305343512,-0.429443359375,-0.0498046875,-0.275634765625,0.8891
1.0381679389312977,1.1145038167938932,-1.6641221374045803,-0.435791015625,-0.054931640625,-0.29052734375,0.8907999999999999
1.099236641221374,1.1450381679389312,-1.4198473282442747,-0.4296875,-0.05224609375,-0.288818359375,0.8925
1.0229007633587786,1.2671755725190839,-1.251908396946565,-0.432861328125,-0.050048828125,-0.284912109375,0.8942
0.8854961832061069,1.2213740458015268,-1.4198473282442747,-0.43701171875,-0.05322265625,-0.2763671875,0.8958999999999999
1.0381679389312977,1.3435114503816794,-1.2061068702290076,-0.431884765625,-0.05322265625,-0.27783203125,0.8976
1.1908396946564885,1.251908396946565,-1.3587786259541985,-0.432373046875,-0.051025390625,-0.274169921875,0.8993
1.1297709923664123,1.3282442748091603,-1.3587786259541985,-0.42822265625,-0.0546875,-0.279052734375,0.9009999999999999
1.1450381679389312,1.3129770992366412,-1.2366412213740459,-0.4287109375,-0.05224609375,-0.27197265625,0.9027
0.9923664122137404,1.2366412213740459,-1.297709923664122,-0.427001953125,-0.04736328125,-0.279541015625,0.9044
1.1145038167938932,1.0534351145038168,-1.3587786259541985,-0.428466796875,-0.0537109375,-0.2763671875,0.9060999999999999
0.9312977099236641,1.083969465648855,-1.3587786259541985,-0.4287109375,-0.05126953125,-0.272216796875,0.9077999999999999
0.9465648854961832,1.2061068702290076,-1.465648854961832,-0.42724609375,-0.048095703125,-0.27978515625,0.9095
1.1755725190839694,1.2671755725190839,-1.2366412213740459,-0.42919921875,-0.04931640625,-0.289794921875,0.9111999999999999
1.1603053435114503,1.0229007633587786,-1.3435114503816794,-0.435302734375,-0.05078125,-0.2783203125,0.9128999999999999
1.0687022900763359,1.0076335877862594,-1.282442748091603,-0.4326171875,-0.050048828125,-0.272705078125,0.9146
1.3129770992366412,0.9770992366412213,-1.633587786259542,-0.42724609375,-0.05615234375,-0.284912109375,0.9163
1.3282442748091603,0.9770992366412213,-1.4809160305343512,-0.42529296875,-0.04931640625,-0.28076171875,0.9179999999999999
1.4045801526717556,0.9770992366412213,-1.3587786259541985,-0.42919921875,-0.051513671875,-0.279541015625,0.9197
1.1297709923664123,0.9465648854961832,-1.7404580152671756,-0.42919921875,-0.048828125,-0.27783203125,0.9214
1.1145038167938932,0.916030534351145,-1.5572519083969465,-0.436279296875,-0.04931640625,-0.286865234375,0.9230999999999999
1.3740458015267176,1.1603053435114503,-1.450381679389313,-0.4267578125,-0.052734375,-0.281005859375,0.9248
1.282442748091603,1.1603053435114503,-1.3587786259541985,-0.426025390625,-0.050048828125,-0.277587890625,0.9265
1.3587786259541985,1.1297709923664123,-1.618320610687023,-0.4287109375,-0.049072265625,-0.276123046875,0.9281999999999999
1.3282442748091603,0.9770992366412213,-1.3893129770992367,-0.4296875,-0.0517578125,-0.286865234375,0.9299
1.297709923664122,1.1755725190839694,-1.4351145038167938,-0.428466796875,-0.053955078125,-0.2890625,0.9316
1.1755725190839694,1.0534351145038168,-1.4961832061068703,-0.432373046875,-0.052734375,-0.28369140625,0.9332999999999999
1.2213740458015268,1.0076335877862594,-1.5267175572519085,-0.4306640625,-0.04736328125,-0.27880859375,0.9349999999999999
1.099236641221374,1.1908396946564885,-1.4351145038167938,-0.434326171875,-0.051513671875,-0.27734375,0.9367
1.3282442748091603,1.1145038167938932,-1.5114503816793894,-0.430908203125,-0.052001953125,-0.276611328125,0.9383999999999999
1.1145038167938932,1.1450381679389312,-1.465648854961832,-0.431884765625,-0.05029296875,-0.280517578125,0.9400999999999999
1.1908396946564885,1.099236641221374,-1.5725190839694656,-0.4326171875,-0.06005859375,-0.28076171875,0.9418
1.099236641221374,1.2366412213740459,-1.3740458015267176,-0.43017578125,-0.054931640625,-0.281005859375,0.9434999999999999
1.282442748091603,1.1450381679389312,-1.6946564885496183,-0.429443359375,-0.055419921875,-0.28759765625,0.9451999999999999
1.5114503816793894,1.3129770992366412,-1.4809160305343512,-0.432861328125,-0.045654296875,-0.27685546875,0.9469
1.4351145038167938,1.5877862595419847,-1.4809160305343512,-0.429443359375,-0.04931640625,-0.277587890625,0.9486
1.4198473282442747,1.465648854961832,-1.7099236641221374,-0.4267578125,-0.051025390625,-0.279296875,0.9502999999999999
1.2061068702290076,1.3893129770992367,-1.5725190839694656,-0.43017578125,-0.04833984375,-0.281005859375,0.952
1.1603053435114503,1.5572519083969465,-1.618320610687023,-0.431884765625,-0.052001953125,-0.2802734375,0.9537
1.2213740458015268,1.7557251908396947,-1.7099236641221374,-0.431884765625,-0.054443359375,-0.279052734375,0.9553999999999999
1.2061068702290076,1.9083969465648856,-1.7099236641221374,-0.427001953125,-0.0546875,-0.279296875,0.9571
1.2671755725190839,1.9389312977099236,-1.5572519083969465,-0.43408203125,-0.04638671875,-0.28466796875,0.9588
1.3893129770992367,1.7709923664122138,-1.4961832061068703,-0.4326171875,-0.0517578125,-0.27978515625,0.9604999999999999
1.2061068702290076,1.9541984732824427,-1.5267175572519085,-0.43408203125,-0.048828125,-0.2880859375,0.9621999999999999
1.297709923664122,2.030534351145038,-1.2213740458015268,-0.43603515625,-0.056884765625,-0.281005859375,0.9639
1.3435114503816794,2.0,-1.5267175572519085,-0.434814453125,-0.0537109375,-0.2822265625,0.9655999999999999
1.465648854961832,2.030534351145038,-1.251908396946565,-0.431884765625,-0.05078125,-0.285400390625,0.9672999999999999
1.4045801526717556,2.1068702290076335,-1.450381679389313,-0.430908203125,-0.0517578125,-0.28076171875,0.969
1.083969465648855,1.9389312977099236,-1.3435114503816794,-0.427978515625,-0.05029296875,-0.285888671875,0.9706999999999999
1.3282442748091603,2.0916030534351147,-1.3282442748091603,-0.43505859375,-0.05126953125,-0.273193359375,0.9723999999999999
1.282442748091603,2.16793893129771,-1.450381679389313,-0.432861328125,-0.049560546875,-0.283447265625,0.9741
0.8854961832061069,2.2442748091603053,-1.4809160305343512,-0.433837890625,-0.050048828125,-0.27880859375,0.9758
1.0381679389312977,2.519083969465649,-1.6793893129770991,-0.435546875,-0.051513671875,-0.279541015625,0.9774999999999999
1.083969465648855,2.6564885496183206,-1.7251908396946565,-0.4326171875,-0.0556640625,-0.278076171875,0.9792
1.297709923664122,2.595419847328244,-1.7709923664122138,-0.4248046875,-0.05224609375,-0.28271484375,0.9809
1.251908396946565,2.4885496183206106,-1.7709923664122138,-0.430908203125,-0.051025390625,-0.288818359375,0.9825999999999999
0.9618320610687023,2.595419847328244,-2.030534351145038,-0.430419921875,-0.0517578125,-0.285400390625,0.9843
0.9770992366412213,2.519083969465649,-2.2748091603053435,-0.432861328125,-0.050537109375,-0.28759765625,0.986
1.2366412213740459,2.687022900763359,-1.8473282442748091,-0.432861328125,-0.055419921875,-0.28759765625,0.9876999999999999
0.916030534351145,2.595419847328244,-1.7557251908396947,-0.43359375,-0.05078125,-0.28369140625,0.9894
1.2366412213740459,2.687022900763359,-1.7251908396946565,-0.424072265625,-0.052001953125,-0.28564453125,0.9911
1.1297709923664123,2.6412213740458017,-1.7404580152671756,-0.426025390625,-0.048828125,-0.2802734375,0.9927999999999999
0.7480916030534351,2.7022900763358777,-1.6793893129770991,-0.4248046875,-0.05322265625,-0.281494140625,0.9944999999999999
0.9007633587786259,2.687022900763359,-1.8778625954198473,-0.43212890625,-0.051025390625,-0.2841796875,0.9962
1.2061068702290076,2.717557251908397,-1.618320610687023,-0.42333984375,-0.060791015625,-0.282470703125,0.9978999999999999
0.9618320610687023,2.564885496183206,-1.6488549618320612,-0.42578125,-0.064208984375,-0.285400390625,0.9995999999999999
1.083969465648855,2.3969465648854964,-1.5114503816793894,-0.4208984375,-0.05419921875,-0.2861328125,1.0012999999999999
0.9618320610687023,2.4122137404580153,-1.6641221374045803,-0.42333984375,-0.0556640625,-0.27734375,1.003
0.7938931297709924,2.2900763358778624,-1.3129770992366412,-0.42431640625,-0.058349609375,-0.2802734375,1.0047
0.9312977099236641,2.1374045801526718,-1.465648854961832,-0.426513671875,-0.052734375,-0.278076171875,1.0064
0.9465648854961832,1.8625954198473282,-1.297709923664122,-0.424560546875,-0.0517578125,-0.2822265625,1.0081
1.2061068702290076,1.8015267175572518,-1.5877862595419847,-0.427734375,-0.052734375,-0.279052734375,1.0098
1.083969465648855,1.9541984732824427,-1.3282442748091603,-0.427978515625,-0.051513671875,-0.290771484375,1.0114999999999998
1.0687022900763359,1.5572519083969465,-1.4351145038167938,-0.427490234375,-0.053955078125,-0.28662109375,1.0131999999999999
0.7938931297709924,1.297709923664122,-1.2366412213740459,-0.42724609375,-0.05712890625,-0.289794921875,1.0149
0.9618320610687023,1.3282442748091603,-1.3129770992366412,-0.4287109375,-0.05615234375,-0.287353515625,1.0166
0.8854961832061069,1.282442748091603,-1.2366412213740459,-0.43505859375,-0.056640625,-0.28369140625,1.0183
0.9770992366412213,1.2213740458015268,-1.2061068702290076,-0.4267578125,-0.05419921875,-0.2783203125,1.02
0.8396946564885496,1.2213740458015268,-1.1297709923664123,-0.434814453125,-0.052490234375,-0.2841796875,1.0217
0.916030534351145,1.3282442748091603,-1.099236641221374,-0.426513671875,-0.054443359375,-0.29052734375,1.0233999999999999
0.7938931297709924,1.3129770992366412,-0.8396946564885496,-0.429443359375,-0.055419921875,-0.286865234375,1.0251
0.9770992366412213,0.9770992366412213,-0.916030534351145,-0.432861328125,-0.052734375,-0.284423828125,1.0268
0.7480916030534351,1.297709923664122,-0.8396946564885496,-0.434814453125,-0.051025390625,-0.282470703125,1.0285
0.6564885496183206,1.0687022900763359,-0.7175572519083969,-0.433837890625,-0.054931640625,-0.27978515625,1.0302
0.7480916030534351,1.1908396946564885,-0.7786259541984732,-0.43115234375,-0.057861328125,-0.28271484375,1.0319
0.732824427480916,1.4809160305343512,-1.0229007633587786,-0.431396484375,-0.05029296875,-0.28125,1.0335999999999999
0.8549618320610687,1.2061068702290076,-0.7175572519083969,-0.431640625,-0.052734375,-0.282470703125,1.0352999999999999
0.8854961832061069,1.1450381679389312,-0.9465648854961832,-0.43310546875,-0.052490234375,-0.2841796875,1.037
0.7175572519083969,1.1908396946564885,-1.1908396946564885,-0.432373046875,-0.048828125,-0.284423828125,1.0387
0.9618320610687023,1.083969465648855,-1.3740458015267176,-0.42822265625,-0.0478515625,-0.283935546875,1.0404
1.1145038167938932,1.1145038167938932,-1.4809160305343512,-0.428466796875,-0.0458984375,-0.28759765625,1.0421
1.2061068702290076,0.9618320610687023,-1.5725190839694656,-0.4326171875,-0.047119140625,-0.2880859375,1.0437999999999998
1.465648854961832,1.0229007633587786,-1.7404580152671756,-0.426513671875,-0.046142578125,-0.283203125,1.0454999999999999
1.450381679389313,0.7480916030534351,-1.9694656488549618,-0.428955078125,-0.047607421875,-0.291748046875,1.0472
1.5267175572519085,0.6412213740458015,-1.9083969465648856,-0.42529296875,-0.05322265625,-0.28857421875,1.0489
1.7557251908396947,0.7175572519083969,-2.030534351145038,-0.430419921875,-0.04833984375,-0.282470703125,1.0506
1.5725190839694656,0.5648854961832062,-2.2442748091603053,-0.429443359375,-0.052490234375,-0.283447265625,1.0523
1.83206106870229,0.3053435114503817,-2.4580152671755724,-0.428955078125,-0.047607421875,-0.280029296875,1.054
1.786259541984733,0.10687022900763359,-2.381679389312977,-0.429443359375,-0.047607421875,-0.2802734375,1.0556999999999999
2.045801526717557,0.07633587786259542,-2.427480916030534,-0.428466796875,-0.0478515625,-0.291748046875,1.0574
2.030534351145038,0.04580152671755725,-2.33587786259542,-0.423583984375,-0.048828125,-0.29150390625,1.0591
2.0,0.15267175572519084,-2.595419847328244,-0.42578125,-0.048828125,-0.2841796875,1.0608
2.2900763358778624,0.07633587786259542,-2.427480916030534,-0.427978515625,-0.05224609375,-0.284912109375,1.0625
2.16793893129771,0.04580152671755725,-2.6259541984732824,-0.4296875,-0.058349609375,-0.2890625,1.0642
2.045801526717557,-0.13740458015267176,-2.549618320610687,-0.428466796875,-0.059814453125,-0.283447265625,1.0658999999999998
2.213740458015267,-0.0916030534351145,-2.4580152671755724,-0.432373046875,-0.051025390625,-0.279541015625,1.0675999999999999
1.9541984732824427,0.15267175572519084,-2.4427480916030535,-0.427001953125,-0.05615234375,-0.2822265625,1.0693
2.045801526717557,0.04580152671755725,-2.427480916030534,-0.427734375,-0.052001953125,-0.2783203125,1.071
2.1526717557251906,-0.21374045801526717,-2.3206106870229006,-0.42822265625,-0.050537109375,-0.277587890625,1.0727
2.2595419847328246,-0.15267175572519084,-2.4427480916030535,-0.427734375,-0.049072265625,-0.278076171875,1.0744
2.183206106870229,-0.015267175572519083,-2.1526717557251906,-0.424560546875,-0.05615234375,-0.282958984375,1.0760999999999998
1.8778625954198473,0.0916030534351145,-2.198473282442748,-0.4267578125,-0.04931640625,-0.28369140625,1.0777999999999999
2.1068702290076335,-0.16793893129770993,-2.2290076335877864,-0.427734375,-0.05126953125,-0.279052734375,1.0795
1.9083969465648856,-0.12213740458015267,-2.2290076335877864,-0.421630859375,-0.05029296875,-0.279541015625,1.0812
1.816793893129771,-0.1984732824427481,-2.1526717557251906,-0.4287109375,-0.055419921875,-0.279052734375,1.0829
1.9083969465648856,0.030534351145038167,-2.2900763358778624,-0.429443359375,-0.0556640625,-0.282470703125,1.0846
1.6030534351145038,-0.15267175572519084,-2.2290076335877864,-0.42578125,-0.056640625,-0.27392578125,1.0863
1.5877862595419847,-0.2900763358778626,-2.2290076335877864,-0.427734375,-0.05517578125,-0.285400390625,1.0879999999999999
1.618320610687023,-0.183206106870229,-1.816793893129771,-0.42431640625,-0.05126953125,-0.28564453125,1.0897
1.6946564885496183,-0.44274809160305345,-2.0610687022900764,-0.427490234375,-0.05517578125,-0.283203125,1.0914
1.3282442748091603,-0.5954198473282443,-1.8625954198473282,-0.423828125,-0.05517578125,-0.278076171875,1.0931
1.4809160305343512,-0.5190839694656488,-2.0,-0.421875,-0.0556640625,-0.28369140625,1.0948
1.5267175572519085,-0.5343511450381679,-1.83206106870229,-0.4248046875,-0.055419921875,-0.2822265625,1.0965
1.450381679389313,-0.6564885496183206,-1.5267175572519085,-0.423095703125,-0.05517578125,-0.28369140625,1.0981999999999998
1.450381679389313,-0.8702290076335878,-1.6488549618320612,-0.423583984375,-0.05029296875,-0.278564453125,1.0998999999999999
1.4809160305343512,-0.9770992366412213,-1.8625954198473282,-0.429931640625,-0.052490234375,-0.27880859375,1.1016
1.7099236641221374,-0.916030534351145,-1.7251908396946565,-0.4267578125,-0.054931640625,-0.274658203125,1.1033
1.6641221374045803,-1.2213740458015268,-1.7709923664122138,-0.425537109375,-0.053466796875,-0.283935546875,1.105
1.2671755725190839,-1.1603053435114503,-1.5725190839694656,-0.426513671875,-0.0546875,-0.28955078125,1.1067
1.5877862595419847,-1.4351145038167938,-2.030534351145038,-0.427490234375,-0.05029296875,-0.275390625,1.1083999999999998
1.5419847328244274,-1.5572519083969465,-1.6793893129770991,-0.42919921875,-0.050048828125,-0.27001953125,1.1100999999999999
1.4809160305343512,-1.3587786259541985,-1.786259541984733,-0.4306640625,-0.055419921875,-0.28125,1.1118
1.7709923664122138,-1.3893129770992367,-1.9083969465648856,-0.42529296875,-0.059326171875,-0.283935546875,1.1135
1.8473282442748091,-1.7404580152671756,-1.83206106870229,-0.422119140625,-0.05517578125,-0.2841796875,1.1152
1.8473282442748091,-1.6641221374045803,-1.984732824427481,-0.4208984375,-0.0537109375,-0.2763671875,1.1169
1.8778625954198473,-1.984732824427481,-1.984732824427481,-0.42626953125,-0.053466796875,-0.281982421875,1.1186
1.786259541984733,-1.984732824427481,-1.9541984732824427,-0.423828125,-0.05126953125,-0.279541015625,1.1202999999999999
1.8625954198473282,-2.0763358778625953,-1.83206106870229,-0.426025390625,-0.05517578125,-0.272216796875,1.1219999999999999
1.8931297709923665,-1.984732824427481,-1.984732824427481,-0.427001953125,-0.055419921875,-0.27880859375,1.1237
2.183206106870229,-2.0610687022900764,-1.8931297709923665,-0.43359375,-0.0576171875,-0.2763671875,1.1254
1.8778625954198473,-2.4732824427480917,-1.7251908396946565,-0.43359375,-0.050048828125,-0.279541015625,1.1271
2.045801526717557,-2.213740458015267,-1.7404580152671756,-0.427001953125,-0.0546875,-0.281005859375,1.1288
2.045801526717557,-2.4122137404580153,-1.5572519083969465,-0.430908203125,-0.058349609375,-0.27587890625,1.1304999999999998
1.9694656488549618,-2.351145038167939,-1.633587786259542,-0.43701171875,-0.055419921875,-0.2890625,1.1321999999999999
1.9083969465648856,-2.3053435114503817,-1.6030534351145038,-0.436767578125,-0.056640625,-0.276123046875,1.1339
2.1526717557251906,-2.3206106870229006,-1.786259541984733,-0.429443359375,-0.054443359375,-0.276123046875,1.1356
2.2442748091603053,-2.2900763358778624,-1.7404580152671756,-0.428955078125,-0.054931640625,-0.27587890625,1.1373
2.198473282442748,-2.2290076335877864,-1.5725190839694656,-0.430908203125,-0.05419921875,-0.27880859375,1.139
2.1374045801526718,-2.1374045801526718,-1.6030534351145038,-0.431884765625,-0.050048828125,-0.281494140625,1.1407
2.0,-2.0610687022900764,-1.4961832061068703,-0.43310546875,-0.056640625,-0.274169921875,1.1423999999999999
2.198473282442748,-2.198473282442748,-1.5419847328244274,-0.434326171875,-0.052001953125,-0.2783203125,1.1441
2.381679389312977,-2.030534351145038,-1.4809160305343512,-0.433349609375,-0.0517578125,-0.2802734375,1.1458
2.3206106870229006,-2.1374045801526718,-1.3435114503816794,-0.43115234375,-0.057373046875,-0.282470703125,1.1475
2.1526717557251906,-1.9083969465648856,-1.1450381679389312,-0.4365234375,-0.056884765625,-0.2744140625,1.1492
2.4427480916030535,-2.2442748091603053,-1.1908396946564885,-0.439208984375,-0.05419921875,-0.27880859375,1.1509
2.6412213740458017,-2.045801526717557,-1.1755725190839694,-0.43212890625,-0.053955078125,-0.283935546875,1.1525999999999998
2.4732824427480917,-1.8625954198473282,-1.1145038167938932,-0.436279296875,-0.05126953125,-0.283203125,1.1542999999999999
2.5343511450381677,-1.9236641221374047,-0.9770992366412213,-0.440673828125,-0.052490234375,-0.2822265625,1.156
2.687022900763359,-2.045801526717557,-1.0534351145038168,-0.4326171875,-0.0498046875,-0.275390625,1.1577
2.6564885496183206,-1.816793893129771,-0.8854961832061069,-0.4375,-0.049072265625,-0.27490234375,1.1594
2.7022900763358777,-1.7557251908396947,-0.916030534351145,-0.43603515625,-0.05126953125,-0.283203125,1.1611
2.7786259541984735,-1.816793893129771,-0.6259541984732825,-0.436279296875,-0.05029296875,-0.27978515625,1.1627999999999998
2.7480916030534353,-1.6946564885496183,-0.5954198473282443,-0.4306640625,-0.054443359375,-0.277587890625,1.1644999999999999
2.595419847328244,-1.7404580152671756,-0.48854961832061067,-0.435791015625,-0.052001953125,-0.275390625,1.1662
2.7480916030534353,-1.5725190839694656,-0.732824427480916,-0.436279296875,-0.0498046875,-0.28271484375,1.1679
2.8091603053435112,-1.6030534351145038,-0.4580152671755725,-0.43798828125,-0.051513671875,-0.270263671875,1.1696
3.0229007633587788,-1.4961832061068703,-0.6259541984732825,-0.43115234375,-0.0517578125,-0.280029296875,1.1713
2.8091603053435112,-1.6488549618320612,-0.5343511450381679,-0.43603515625,-0.05517578125,-0.27978515625,1.173
2.9160305343511452,-1.5725190839694656,-0.2748091603053435,-0.4326171875,-0.047607421875,-0.27685546875,1.1746999999999999
3.068702290076336,-1.4809160305343512,-0.44274809160305345,-0.435546875,-0.052978515625,-0.27880859375,1.1764
3.0839694656488548,-1.3435114503816794,-0.5190839694656488,-0.43359375,-0.05517578125,-0.2783203125,1.1781
2.9618320610687023,-1.3435114503816794,-0.4580152671755725,-0.431640625,-0.05029296875,-0.283935546875,1.1798
2.854961832061069,-1.3435114503816794,-0.366412213740458,-0.440185546875,-0.055419921875,-0.273681640625,1.1815
3.0839694656488548,-1.450381679389313,-0.5648854961832062,-0.4326171875,-0.053955078125,-0.2705078125,1.1832
3.1908396946564888,-1.2366412213740459,-0.5648854961832062,-0.428466796875,-0.05322265625,-0.27783203125,1.1848999999999998
3.099236641221374,-1.3129770992366412,-0.2595419847328244,-0.438720703125,-0.053955078125,-0.27978515625,1.1865999999999999
3.267175572519084,-1.465648854961832,-0.3511450381679389,-0.439208984375,-0.0556640625,-0.27783203125,1.1883
2.946564885496183,-1.4198473282442747,-0.2595419847328244,-0.439208984375,-0.052490234375,-0.271728515625,1.19
3.282442748091603,-1.3435114503816794,-0.5038167938931297,-0.43115234375,-0.050537109375,-0.26806640625,1.1917
3.0381679389312977,-1.3129770992366412,-0.6870229007633588,-0.43408203125,-0.04931640625,-0.273193359375,1.1934
3.267175572519084,-1.1908396946564885,-0.5343511450381679,-0.432861328125,-0.048828125,-0.271728515625,1.1950999999999998
3.3282442748091605,-1.3435114503816794,-0.4122137404580153,-0.433837890625,-0.051025390625,-0.275146484375,1.1967999999999999
3.114503816793893,-1.083969465648855,-0.6259541984732825,-0.43212890625,-0.05322265625,-0.2705078125,1.1985
3.0839694656488548,-1.2061068702290076,-0.6870229007633588,-0.43505859375,-0.0537109375,-0.272705078125,1.2002
3.2977099236641223,-1.3435114503816794,-0.6717557251908397,-0.43310546875,-0.05419921875,-0.273681640625,1.2019
3.2213740458015265,-1.1450381679389312,-0.6259541984732825,-0.43115234375,-0.05029296875,-0.279052734375,1.2036
3.3587786259541983,-1.1908396946564885,-0.8244274809160306,-0.432373046875,-0.046875,-0.28173828125,1.2053
3.3435114503816794,-1.3129770992366412,-0.7175572519083969,-0.43212890625,-0.05224609375,-0.27294921875,1.2069999999999999
3.2519083969465647,-1.1603053435114503,-0.9312977099236641,-0.43115234375,-0.052734375,-0.272216796875,1.2086999999999999
3.1297709923664123,-0.9770992366412213,-1.0229007633587786,-0.432861328125,-0.052734375,-0.279052734375,1.2104
3.2213740458015265,-0.7938931297709924,-1.1755725190839694,-0.433349609375,-0.052734375,-0.27685546875,1.2121
3.2977099236641223,-0.8244274809160306,-1.1908396946564885,-0.430908203125,-0.0498046875,-0.2666015625,1.2138
3.114503816793893,-0.9465648854961832,-1.3282442748091603,-0.43212890625,-0.055908203125,-0.27490234375,1.2155
3.0839694656488548,-0.732824427480916,-1.2366412213740459,-0.435302734375,-0.055908203125,-0.269775390625,1.2171999999999998
3.1297709923664123,-0.5190839694656488,-1.5114503816793894,-0.431640625,-0.0498046875,-0.271728515625,1.2188999999999999
2.946564885496183,-0.7175572519083969,-1.3129770992366412,-0.436767578125,-0.049072265625,-0.277587890625,1.2206
3.0076335877862594,-0.4580152671755725,-1.4961832061068703,-0.437744140625,-0.0498046875,-0.279541015625,1.2223
2.885496183206107,-0.4580152671755725,-1.6793893129770991,-0.432861328125,-0.053466796875,-0.274658203125,1.224
3.0076335877862594,-0.5954198473282443,-1.6946564885496183,-0.44091796875,-0.050537109375,-0.26953125,1.2257
3.145038167938931,-0.44274809160305345,-1.5267175572519085,-0.437744140625,-0.052490234375,-0.278564453125,1.2273999999999998
2.885496183206107,-0.2900763358778626,-1.6946564885496183,-0.436279296875,-0.05419921875,-0.271484375,1.2290999999999999
2.7938931297709924,-0.2595419847328244,-1.7557251908396947,-0.435791015625,-0.058349609375,-0.275390625,1.2308
2.7786259541984735,-0.2900763358778626,-1.8778625954198473,-0.435302734375,-0.05810546875,-0.27001953125,1.2325
2.9160305343511452,-0.0916030534351145,-1.8778625954198473,-0.43505859375,-0.05712890625,-0.27099609375,1.2342
2.946564885496183,-0.13740458015267176,-1.984732824427481,-0.43017578125,-0.055908203125,-0.2724609375,1.2359
2.6106870229007635,-0.12213740458015267,-2.0,-0.436279296875,-0.052734375,-0.281982421875,1.2376
2.50381679389313,-0.12213740458015267,-2.1526717557251906,-0.435302734375,-0.052734375,-0.279052734375,1.2392999999999998
2.4580152671755724,-0.061068702290076333,-1.9083969465648856,-0.434326171875,-0.055419921875,-0.279296875,1.2409999999999999
2.4580152671755724,-0.12213740458015267,-1.9694656488549618,-0.437744140625,-0.05419921875,-0.277587890625,1.2427
2.50381679389313,-0.13740458015267176,-1.9083969465648856,-0.4326171875,-0.0546875,-0.2822265625,1.2444
2.2900763358778624,0.0,-2.0916030534351147,-0.435546875,-0.054931640625,-0.2763671875,1.2461
2.4885496183206106,0.10687022900763359,-1.9694656488549618,-0.432373046875,-0.052978515625,-0.278076171875,1.2478
2.4122137404580153,0.12213740458015267,-2.1068702290076335,-0.43505859375,-0.05908203125,-0.282470703125,1.2494999999999998
2.4580152671755724,0.22900763358778625,-2.0916030534351147,-0.438232421875,-0.056884765625,-0.27685546875,1.2511999999999999
2.1526717557251906,0.5648854961832062,-2.2290076335877864,-0.4345703125,-0.057373046875,-0.27490234375,1.2529
2.198473282442748,0.7175572519083969,-2.045801526717557,-0.435791015625,-0.054931640625,-0.28125,1.2546
2.198473282442748,0.6106870229007634,-2.2748091603053435,-0.43505859375,-0.053466796875,-0.275390625,1.2563
2.0763358778625953,0.8396946564885496,-1.8931297709923665,-0.4384765625,-0.056640625,-0.2734375,1.258
2.16793893129771,1.0229007633587786,-2.3969465648854964,-0.43115234375,-0.04931640625,-0.277587890625,1.2596999999999998
2.351145038167939,1.251908396946565,-2.381679389312977,-0.4345703125,-0.052490234375,-0.283935546875,1.2613999999999999
2.427480916030534,1.1755725190839694,-2.33587786259542,-0.436767578125,-0.0576171875,-0.284912109375,1.2631
2.1374045801526718,1.3129770992366412,-2.33587786259542,-0.434814453125,-0.0498046875,-0.272216796875,1.2648
2.0610687022900764,1.2061068702290076,-2.4122137404580153,-0.434326171875,-0.052734375,-0.269287109375,1.2665
2.3053435114503817,1.3129770992366412,-2.0763358778625953,-0.43994140625,-0.056884765625,-0.281494140625,1.2682
2.16793893129771,1.5114503816793894,-2.198473282442748,-0.43505859375,-0.052734375,-0.2861328125,1.2699
2.122137404580153,1.5114503816793894,-1.9236641221374047,-0.43603515625,-0.055419921875,-0.274658203125,1.2715999999999998
1.816793893129771,1.6793893129770991,-2.0763358778625953,-0.4345703125,-0.05859375,-0.2783203125,1.2732999999999999
1.9083969465648856,1.9694656488549618,-2.0610687022900764,-0.43359375,-0.060791015625,-0.280029296875,1.275
2.015267175572519,1.9694656488549618,-1.9694656488549618,-0.435302734375,-0.0498046875,-0.273193359375,1.2767
1.8015267175572518,1.7557251908396947,-1.6488549618320612,-0.433837890625,-0.0537109375,-0.278564453125,1.2784
1.8473282442748091,2.0610687022900764,-1.8015267175572518,-0.434814453125,-0.056640625,-0.28857421875,1.2801
1.8778625954198473,2.3053435114503817,-1.6793893129770991,-0.436767578125,-0.064208984375,-0.2802734375,1.2817999999999998
1.83206106870229,2.3206106870229006,-1.83206106870229,-0.4375,-0.05419921875,-0.282470703125,1.2834999999999999
1.5877862595419847,2.381679389312977,-1.465648854961832,-0.435546875,-0.05517578125,-0.2802734375,1.2852
1.6946564885496183,2.366412213740458,-1.7404580152671756,-0.43603515625,-0.055908203125,-0.279541015625,1.2869
1.6641221374045803,2.549618320610687,-1.4198473282442747,-0.439697265625,-0.0556640625,-0.273681640625,1.2886
1.5877862595419847,2.595419847328244,-1.7709923664122138,-0.43701171875,-0.059326171875,-0.285400390625,1.2903
1.5419847328244274,2.7786259541984735,-1.450381679389313,-0.431396484375,-0.058837890625,-0.2685546875,1.292
2.0916030534351147,2.8396946564885495,-1.83206106870229,-0.42626953125,-0.057861328125,-0.279052734375,1.2936999999999999
1.786259541984733,2.7938931297709924,-1.5572519083969465,-0.431640625,-0.053955078125,-0.28564453125,1.2953999999999999
1.8015267175572518,2.9160305343511452,-1.6641221374045803,-0.43310546875,-0.05615234375,-0.283447265625,1.2971
1.9083969465648856,2.9160305343511452,-1.8473282442748091,-0.436767578125,-0.053955078125,-0.285400390625,1.2988
1.8778625954198473,3.0229007633587788,-1.8473282442748091,-0.431884765625,-0.055419921875,-0.27978515625,1.3005
1.9541984732824427,2.946564885496183,-2.030534351145038,-0.4306640625,-0.053955078125,-0.28564453125,1.3022
1.8931297709923665,2.931297709923664,-2.015267175572519,-0.4306640625,-0.052490234375,-0.272216796875,1.3038999999999998
1.984732824427481,2.9923664122137406,-1.9236641221374047,-0.43310546875,-0.050048828125,-0.275146484375,1.3055999999999999
2.0916030534351147,2.8244274809160306,-1.8625954198473282,-0.435791015625,-0.056640625,-0.27587890625,1.3073
1.8473282442748091,2.8091603053435112,-2.0,-0.429443359375,-0.05615234375,-0.279052734375,1.309
2.045801526717557,2.931297709923664,-1.8625954198473282,-0.431640625,-0.05615234375,-0.28271484375,1.3107
1.9389312977099236,2.946564885496183,-1.8015267175572518,-0.4287109375,-0.05712890625,-0.280517578125,1.3124
1.8625954198473282,2.9618320610687023,-1.83206106870229,-0.4384765625,-0.055908203125,-0.278564453125,1.3140999999999998
1.8931297709923665,3.099236641221374,-1.7099236641221374,-0.4306640625,-0.058349609375,-0.280029296875,1.3157999999999999
1.8778625954198473,2.931297709923664,-1.7099236641221374,-0.43115234375,-0.0576171875,-0.274658203125,1.3175
1.8473282442748091,2.854961832061069,-1.5877862595419847,-0.428466796875,-0.059326171875,-0.283447265625,1.3192
1.8015267175572518,2.9923664122137406,-1.618320610687023,-0.42822265625,-0.0576171875,-0.275146484375,1.3209
1.8625954198473282,2.9923664122137406,-1.6488549618320612,-0.430908203125,-0.055908203125,-0.280029296875,1.3226
1.6946564885496183,2.9160305343511452,-1.633587786259542,-0.434326171875,-0.06201171875,-0.274169921875,1.3243
1.633587786259542,2.9618320610687023,-1.5114503816793894,-0.429443359375,-0.058837890625,-0.277099609375,1.3259999999999998
1.9083969465648856,2.717557251908397,-1.5114503816793894,-0.43408203125,-0.05712890625,-0.27978515625,1.3276999999999999
1.816793893129771,2.854961832061069,-1.3435114503816794,-0.4306640625,-0.05859375,-0.283447265625,1.3294
1.5114503816793894,2.763358778625954,-1.3740458015267176,-0.43212890625,-0.055419921875,-0.275634765625,1.3311
1.450381679389313,2.900763358778626,-1.4351145038167938,-0.43359375,-0.0546875,-0.287109375,1.3328
1.633587786259542,2.9160305343511452,-1.4961832061068703,-0.42822265625,-0.064453125,-0.286376953125,1.3345
1.450381679389313,2.763358778625954,-1.465648854961832,-0.432373046875,-0.056640625,-0.27685546875,1.3361999999999998
1.099236641221374,2.900763358778626,-1.3587786259541985,-0.427490234375,-0.0576171875,-0.281005859375,1.3378999999999999
1.099236641221374,2.717557251908397,-1.1145038167938932,-0.432373046875,-0.060546875,-0.287109375,1.3396
1.1297709923664123,2.6412213740458017,-1.099236641221374,-0.431640625,-0.06103515625,-0.276123046875,1.3413
1.0076335877862594,2.6717557251908395,-1.1755725190839694,-0.431884765625,-0.059814453125,-0.292236328125,1.343
0.916030534351145,2.6564885496183206,-1.0534351145038168,-0.43017578125,-0.063232421875,-0.277587890625,1.3447
0.8549618320610687,2.6412213740458017,-0.7633587786259542,-0.43212890625,-0.05859375,-0.2783203125,1.3463999999999998
0.8549618320610687,2.6259541984732824,-1.0076335877862594,-0.4384765625,-0.060546875,-0.284423828125,1.3480999999999999
0.5038167938931297,2.5801526717557253,-0.5954198473282443,-0.433837890625,-0.05712890625,-0.277587890625,1.3497999999999999
0.33587786259541985,2.549618320610687,-0.5038167938931297,-0.432861328125,-0.055908203125,-0.28076171875,1.3515
0.42748091603053434,2.687022900763359,-0.4122137404580153,-0.4306640625,-0.059814453125,-0.279541015625,1.3532
0.4580152671755725,2.50381679389313,-0.7175572519083969,-0.43212890625,-0.059326171875,-0.274169921875,1.3549
0.3511450381679389,2.6259541984732824,-0.5648854961832062,-0.431884765625,-0.055419921875,-0.28271484375,1.3566
0.22900763358778625,2.6717557251908395,-0.5801526717557252,-0.434326171875,-0.06689453125,-0.279541015625,1.3582999999999998
0.3969465648854962,2.7938931297709924,-0.5190839694656488,-0.432861328125,-0.059814453125,-0.282958984375,1.3599999999999999
0.33587786259541985,2.717557251908397,-0.7175572519083969,-0.430908203125,-0.056640625,-0.2841796875,1.3617
0.16793893129770993,2.6259541984732824,-0.3816793893129771,-0.427001953125,-0.059814453125,-0.281005859375,1.3634
0.24427480916030533,2.7022900763358777,-0.4580152671755725,-0.431884765625,-0.057861328125,-0.28759765625,1.3651
0.22900763358778625,2.8091603053435112,-0.5648854961832062,-0.431396484375,-0.060546875,-0.27783203125,1.3668
0.16793893129770993,2.6259541984732824,-0.6564885496183206,-0.430908203125,-0.059814453125,-0.27685546875,1.3684999999999998
-0.061068702290076333,2.687022900763359,-0.5343511450381679,-0.426513671875,-0.054443359375,-0.289794921875,1.3701999999999999
-0.22900763358778625,2.595419847328244,-0.366412213740458,-0.4228515625,-0.058837890625,-0.279052734375,1.3719
0.07633587786259542,2.6564885496183206,-0.5801526717557252,-0.427001953125,-0.0625,-0.28173828125,1.3736
-0.16793893129770993,2.6412213740458017,-0.5343511450381679,-0.427734375,-0.056396484375,-0.276611328125,1.3753
-0.12213740458015267,2.6106870229007635,-0.4122137404580153,-0.4326171875,-0.057861328125,-0.279052734375,1.377
-0.183206106870229,2.5343511450381677,-0.3969465648854962,-0.427490234375,-0.05908203125,-0.288818359375,1.3786999999999998
-0.5190839694656488,2.564885496183206,-0.366412213740458,-0.43115234375,-0.053466796875,-0.286865234375,1.3803999999999998
-0.44274809160305345,2.5801526717557253,-0.24427480916030533,-0.432373046875,-0.0576171875,-0.286376953125,1.3820999999999999
-0.33587786259541985,2.3053435114503817,-0.24427480916030533,-0.427978515625,-0.05908203125,-0.283935546875,1.3838
-0.48854961832061067,2.381679389312977,-0.3511450381679389,-0.43017578125,-0.0576171875,-0.285888671875,1.3855
-0.5343511450381679,2.381679389312977,-0.33587786259541985,-0.431640625,-0.0595703125,-0.28759765625,1.3872
-0.5648854961832062,2.4427480916030535,-0.183206106870229,-0.43505859375,-0.05859375,-0.276611328125,1.3889
-0.7786259541984732,2.3053435114503817,-0.2595419847328244,-0.429931640625,-0.052001953125,-0.27490234375,1.3905999999999998
-0.4732824427480916,2.366412213740458,-0.366412213740458,-0.428955078125,-0.05712890625,-0.28076171875,1.3922999999999999
-0.5801526717557252,2.381679389312977,-0.3053435114503817,-0.423095703125,-0.0498046875,-0.275146484375,1.394
-0.7480916030534351,2.3053435114503817,-0.13740458015267176,-0.423095703125,-0.05712890625,-0.27587890625,1.3957
-0.8549618320610687,2.351145038167939,-0.3053435114503817,-0.4287109375,-0.06201171875,-0.283203125,1.3974
-0.916030534351145,2.4427480916030535,-0.2595419847328244,-0.421142578125,-0.050537109375,-0.27978515625,1.3991
-1.0381679389312977,2.2595419847328246,-0.4122137404580153,-0.42724609375,-0.05419921875,-0.281005859375,1.4007999999999998
-0.9465648854961832,2.2290076335877864,-0.42748091603053434,-0.42822265625,-0.05126953125,-0.278564453125,1.4024999999999999
-1.0076335877862594,2.0610687022900764,-0.32061068702290074,-0.42236328125,-0.054931640625,-0.2783203125,1.4042
-1.1145038167938932,2.16793893129771,-0.2748091603053435,-0.425048828125,-0.052978515625,-0.27783203125,1.4059
-1.0229007633587786,2.045801526717557,-0.366412213740458,-0.42626953125,-0.048583984375,-0.2880859375,1.4076
-0.8244274809160306,1.9236641221374047,-0.16793893129770993,-0.428955078125,-0.05126953125,-0.27783203125,1.4093
-0.9312977099236641,2.1526717557251906,-0.42748091603053434,-0.42919921875,-0.055419921875,-0.277099609375,1.411
-1.251908396946565,1.8625954198473282,-0.32061068702290074,-0.427490234375,-0.051513671875,-0.28466796875,1.4126999999999998
-0.916030534351145,1.5572519083969465,-0.5190839694656488,-0.42919921875,-0.051025390625,-0.28173828125,1.4143999999999999
-1.1450381679389312,1.7557251908396947,-0.5801526717557252,-0.429931640625,-0.048095703125,-0.282470703125,1.4161
-1.1603053435114503,1.633587786259542,-0.44274809160305345,-0.43017578125,-0.050537109375,-0.285888671875,1.4178
-1.099236641221374,1.7404580152671756,-0.42748091603053434,-0.430419921875,-0.05126953125,-0.28076171875,1.4195
-1.2061068702290076,1.7251908396946565,-0.366412213740458,-0.428466796875,-0.053466796875,-0.28076171875,1.4212
-1.2061068702290076,1.4351145038167938,-0.366412213740458,-0.428955078125,-0.052001953125,-0.28369140625,1.4228999999999998
-0.9312977099236641,1.4809160305343512,-0.3511450381679389,-0.4287109375,-0.054443359375,-0.277587890625,1.4245999999999999
-1.0534351145038168,1.5877862595419847,-0.48854961832061067,-0.429931640625,-0.052978515625,-0.27978515625,1.4263
-1.3740458015267176,1.6030534351145038,-0.4580152671755725,-0.427734375,-0.04931640625,-0.28173828125,1.428
-1.0229007633587786,1.5419847328244274,-0.48854961832061067,-0.422119140625,-0.04931640625,-0.286865234375,1.4297
-1.0381679389312977,1.6488549618320612,-0.549618320610687,-0.42822265625,-0.051025390625,-0.27783203125,1.4314
-1.1755725190839694,1.7251908396946565,-0.48854961832061067,-0.43017578125,-0.05029296875,-0.28125,1.4330999999999998
-1.099236641221374,1.7251908396946565,-0.5954198473282443,-0.431640625,-0.050537109375,-0.281982421875,1.4347999999999999
-1.1145038167938932,1.6946564885496183,-0.4580152671755725,-0.427734375,-0.052490234375,-0.284423828125,1.4364999999999999
-0.7786259541984732,1.7557251908396947,-0.42748091603053434,-0.426513671875,-0.049560546875,-0.28759765625,1.4382
-0.8549618320610687,1.7251908396946565,-0.3511450381679389,-0.429443359375,-0.048583984375,-0.28173828125,1.4399
-0.9465648854961832,1.5877862595419847,-0.5190839694656488,-0.429931640625,-0.056396484375,-0.27978515625,1.4416
-1.0076335877862594,1.5419847328244274,-0.5343511450381679,-0.429931640625,-0.05029296875,-0.28662109375,1.4433
-0.732824427480916,1.9236641221374047,-0.7022900763358778,-0.42919921875,-0.049560546875,-0.2744140625,1.4449999999999998
-0.8854961832061069,1.6946564885496183,-0.44274809160305345,-0.431884765625,-0.04833984375,-0.27880859375,1.4466999999999999
-0.8549618320610687,1.5419847328244274,-0.44274809160305345,-0.429931640625,-0.051025390625,-0.2763671875,1.4484
-0.732824427480916,1.4809160305343512,-0.2900763358778626,-0.430419921875,-0.0478515625,-0.283447265625,1.4501
-0.8702290076335878,1.5572519083969465,-0.4732824427480916,-0.42724609375,-0.048095703125,-0.278076171875,1.4518
-0.8854961832061069,1.4809160305343512,-0.32061068702290074,-0.42822265625,-0.0498046875,-0.280029296875,1.4535
-0.6259541984732825,1.3740458015267176,-0.6106870229007634,-0.4296875,-0.04443359375,-0.283447265625,1.4551999999999998
-0.6564885496183206,1.465648854961832,-0.6106870229007634,-0.430419921875,-0.046142578125,-0.282470703125,1.4568999999999999
-0.4122137404580153,1.7099236641221374,-0.7175572519083969,-0.427734375,-0.048583984375,-0.279541015625,1.4586
-0.5648854961832062,1.633587786259542,-0.5190839694656488,-0.4267578125,-0.046630859375,-0.28271484375,1.4603
-0.7480916030534351,1.282442748091603,-0.6564885496183206,-0.429931640625,-0.047607421875,-0.279052734375,1.462
-0.42748091603053434,1.3587786259541985,-0.42748091603053434,-0.435302734375,-0.044921875,-0.281005859375,1.4637
-0.1984732824427481,1.5114503816793894,-0.5954198473282443,-0.430908203125,-0.045654296875,-0.27880859375,1.4653999999999998
-0.12213740458015267,1.4198473282442747,-0.5801526717557252,-0.430419921875,-0.046142578125,-0.28857421875,1.4670999999999998
-0.32061068702290074,1.3282442748091603,-0.732824427480916,-0.426513671875,-0.052001953125,-0.287353515625,1.4687999999999999
-0.3969465648854962,1.5267175572519085,-0.48854961832061067,-0.43310546875,-0.047607421875,-0.27978515625,1.4705
0.0,1.4961832061068703,-0.7175572519083969,-0.43359375,-0.048095703125,-0.279541015625,1.4722
-0.16793893129770993,1.450381679389313,-0.5038167938931297,-0.432373046875,-0.050537109375,-0.28857421875,1.4739
-0.07633587786259542,1.4961832061068703,-0.5954198473282443,-0.433349609375,-0.04541015625,-0.284912109375,1.4756
0.12213740458015267,1.5419847328244274,-0.6717557251908397,-0.433349609375,-0.052734375,-0.280029296875,1.4772999999999998
-0.04580152671755725,1.6946564885496183,-0.6870229007633588,-0.429443359375,-0.051025390625,-0.281982421875,1.4789999999999999
0.183206106870229,1.7251908396946565,-0.7022900763358778,-0.4326171875,-0.046630859375,-0.283447265625,1.4807
0.24427480916030533,1.7251908396946565,-0.9618320610687023,-0.432861328125,-0.047119140625,-0.279296875,1.4824
0.22900763358778625,1.786259541984733,-0.7480916030534351,-0.427978515625,-0.0498046875,-0.2763671875,1.4841
0.33587786259541985,1.7099236641221374,-0.9923664122137404,-0.429931640625,-0.050537109375,-0.288330078125,1.4858
0.5190839694656488,1.83206106870229,-0.8702290076335878,-0.43310546875,-0.052490234375,-0.28076171875,1.4874999999999998
0.2595419847328244,1.5572519083969465,-0.9465648854961832,-0.431884765625,-0.04833984375,-0.2822265625,1.4891999999999999
0.2595419847328244,1.7557251908396947,-0.7786259541984732,-0.43212890625,-0.052734375,-0.2802734375,1.4909
0.44274809160305345,1.9694656488549618,-0.8854961832061069,-0.42919921875,-0.051025390625,-0.281982421875,1.4926
0.44274809160305345,1.7404580152671756,-0.6717557251908397,-0.433349609375,-0.0458984375,-0.282958984375,1.4943
0.5038167938931297,1.6641221374045803,-0.6870229007633588,-0.432861328125,-0.04296875,-0.29052734375,1.496
0.3816793893129771,1.8015267175572518,-0.4732824427480916,-0.42919921875,-0.04931640625,-0.27880859375,1.4976999999999998
0.3816793893129771,1.7251908396946565,-0.5801526717557252,-0.43408203125,-0.049072265625,-0.281005859375,1.4993999999999998
0.4122137404580153,1.8473282442748091,-0.33587786259541985,-0.43359375,-0.0498046875,-0.28466796875,1.5010999999999999
0.4580152671755725,1.984732824427481,-0.33587786259541985,-0.42919921875,-0.04833984375,-0.27978515625,1.5028
0.5648854961832062,1.984732824427481,-0.4732824427480916,-0.431396484375,-0.052001953125,-0.2744140625,1.5045
0.33587786259541985,2.0763358778625953,-0.6717557251908397,-0.4287109375,-0.046630859375,-0.28173828125,1.5062
0.3816793893129771,1.9541984732824427,-0.4732824427480916,-0.43115234375,-0.046875,-0.279296875,1.5079
0.3969465648854962,1.8931297709923665,-0.2748091603053435,-0.42919921875,-0.0439453125,-0.283447265625,1.5095999999999998
0.4580152671755725,2.0,-0.183206106870229,-0.429931640625,-0.049560546875,-0.283447265625,1.5112999999999999
0.5038167938931297,1.9083969465648856,-0.3053435114503817,-0.4296875,-0.04931640625,-0.2763671875,1.513
0.3511450381679389,1.8015267175572518,-0.07633587786259542,-0.4287109375,-0.046630859375,-0.28271484375,1.5147
0.4580152671755725,1.9541984732824427,-0.13740458015267176,-0.428955078125,-0.053466796875,-0.27880859375,1.5164
0.44274809160305345,1.9694656488549618,-0.1984732824427481,-0.430908203125,-0.0478515625,-0.28466796875,1.5181
0.4122137404580153,1.83206106870229,-0.13740458015267176,-0.43408203125,-0.048095703125,-0.277099609375,1.5197999999999998
0.366412213740458,1.7709923664122138,-0.061068702290076333,-0.429931640625,-0.042724609375,-0.281982421875,1.5214999999999999
0.5343511450381679,1.7557251908396947,-0.12213740458015267,-0.4306640625,-0.045166015625,-0.277099609375,1.5231999999999999
0.6106870229007634,1.7557251908396947,-0.13740458015267176,-0.4287109375,-0.044921875,-0.281494140625,1.5249
0.549618320610687,1.7099236641221374,-0.15267175572519084,-0.428955078125,-0.04296875,-0.287109375,1.5266
0.732824427480916,1.4961832061068703,-0.42748091603053434,-0.433837890625,-0.0478515625,-0.284423828125,1.5283
0.5954198473282443,1.6488549618320612,-0.2900763358778626,-0.43408203125,-0.047119140625,-0.282958984375,1.5299999999999998
0.44274809160305345,1.5725190839694656,-0.2595419847328244,-0.433837890625,-0.046630859375,-0.28369140625,1.5316999999999998
0.6717557251908397,1.5114503816793894,-0.3511450381679389,-0.43017578125,-0.049072265625,-0.284423828125,1.5333999999999999
0.7633587786259542,1.5114503816793894,-0.07633587786259542,-0.430419921875,-0.052490234375,-0.283935546875,1.5351
0.7633587786259542,1.7251908396946565,-0.5190839694656488,-0.431640625,-0.046630859375,-0.28173828125,1.5368
0.6259541984732825,1.5419847328244274,-0.48854961832061067,-0.431396484375,-0.048095703125,-0.292724609375,1.5385
0.5343511450381679,1.4045801526717556,-0.4122137404580153,-0.427001953125,-0.048095703125,-0.286865234375,1.5402
0.6717557251908397,1.6030534351145038,-0.5343511450381679,-0.43017578125,-0.05224609375,-0.27978515625,1.5418999999999998
0.6412213740458015,1.4198473282442747,-0.5038167938931297,-0.431640625,-0.0498046875,-0.283203125,1.5435999999999999
0.732824427480916,1.5572519083969465,-0.366412213740458,-0.428466796875,-0.0517578125,-0.291015625,1.5453
0.7786259541984732,1.6793893129770991,-0.549618320610687,-0.429931640625,-0.052490234375,-0.28173828125,1.547
0.916030534351145,1.6488549618320612,-0.4580152671755725,-0.43310546875,-0.046630859375,-0.284912109375,1.5487
0.9618320610687023,1.618320610687023,-0.8244274809160306,-0.435546875,-0.048583984375,-0.279052734375,1.5504
0.8244274809160306,1.6030534351145038,-1.0076335877862594,-0.432373046875,-0.04833984375,-0.283203125,1.5520999999999998
0.6564885496183206,1.8625954198473282,-0.732824427480916,-0.429931640625,-0.047607421875,-0.282470703125,1.5537999999999998
0.9770992366412213,1.7404580152671756,-0.7786259541984732,-0.42626953125,-0.05029296875,-0.279541015625,1.5554999999999999
0.8854961832061069,1.6946564885496183,-0.7480916030534351,-0.431396484375,-0.0517578125,-0.277099609375,1.5572
0.9465648854961832,1.6946564885496183,-0.6259541984732825,-0.4326171875,-0.05712890625,-0.27685546875,1.5589
0.9770992366412213,1.6946564885496183,-0.6564885496183206,-0.426513671875,-0.046630859375,-0.272705078125,1.5606
0.5954198473282443,1.7557251908396947,-0.6259541984732825,-0.4296875,-0.0517578125,-0.2802734375,1.5623
0.8091603053435115,1.6946564885496183,-0.7938931297709924,-0.432373046875,-0.04833984375,-0.27880859375,1.5639999999999998
0.8396946564885496,1.6030534351145038,-0.5954198473282443,-0.4267578125,-0.04931640625,-0.27587890625,1.5656999999999999
0.8702290076335878,1.4351145038167938,-0.6259541984732825,-0.427001953125,-0.049072265625,-0.2880859375,1.5674
0.6259541984732825,1.7099236641221374,-0.7022900763358778,-0.429931640625,-0.053955078125,-0.291259765625,1.5691
0.6717557251908397,1.8473282442748091,-0.7633587786259542,-0.43115234375,-0.05029296875,-0.28125,1.5708
0.4580152671755725,1.7404580152671756,-0.6412213740458015,-0.42919921875,-0.04833984375,-0.28125,1.5725
0.5954198473282443,1.984732824427481,-0.6870229007633588,-0.427734375,-0.047119140625,-0.281982421875,1.5741999999999998
0.6259541984732825,1.816793893129771,-0.6564885496183206,-0.422607421875,-0.049072265625,-0.28076171875,1.5758999999999999
0.4122137404580153,1.9541984732824427,-0.7175572519083969,-0.431396484375,-0.049072265625,-0.28271484375,1.5776
0.5038167938931297,1.8778625954198473,-0.6259541984732825,-0.432861328125,-0.051513671875,-0.2802734375,1.5793
0.42748091603053434,1.7709923664122138,-0.7938931297709924,-0.430419921875,-0.045654296875,-0.285400390625,1.581
0.6106870229007634,1.7709923664122138,-0.6564885496183206,-0.43212890625,-0.052734375,-0.28125,1.5827
0.6106870229007634,1.9236641221374047,-0.6106870229007634,-0.429443359375,-0.04541015625,-0.2841796875,1.5843999999999998
0.6412213740458015,1.7251908396946565,-0.5954198473282443,-0.423095703125,-0.052490234375,-0.29052734375,1.5860999999999998
0.5038167938931297,1.7251908396946565,-0.7786259541984732,-0.430419921875,-0.044921875,-0.2822265625,1.5877999999999999
0.42748091603053434,1.6488549618320612,-0.7480916030534351,-0.433837890625,-0.0458984375,-0.277587890625,1.5895
0.44274809160305345,1.6641221374045803,-0.7786259541984732,-0.429443359375,-0.050537109375,-0.28271484375,1.5912
0.5343511450381679,1.6641221374045803,-0.7633587786259542,-0.43115234375,-0.05224609375,-0.281005859375,1.5929
0.48854961832061067,1.6946564885496183,-0.6106870229007634,-0.430419921875,-0.052734375,-0.2744140625,1.5946
0.366412213740458,1.9541984732824427,-0.549618320610687,-0.42822265625,-0.049560546875,-0.2861328125,1.5962999999999998
0.3816793893129771,1.9236641221374047,-0.5190839694656488,-0.427734375,-0.048828125,-0.292236328125,1.5979999999999999
0.2900763358778626,1.6488549618320612,-0.6564885496183206,-0.433349609375,-0.051025390625,-0.28125,1.5997
0.4732824427480916,1.8625954198473282,-0.7938931297709924,-0.430908203125,-0.048095703125,-0.28076171875,1.6014
0.6564885496183206,1.786259541984733,-0.3969465648854962,-0.42822265625,-0.046142578125,-0.288330078125,1.6031
0.44274809160305345,1.8015267175572518,-0.7022900763358778,-0.427001953125,-0.0498046875,-0.27783203125,1.6048
0.3511450381679389,1.633587786259542,-0.8244274809160306,-0.43017578125,-0.051025390625,-0.2822265625,1.6064999999999998
0.24427480916030533,1.7557251908396947,-0.8091603053435115,-0.428466796875,-0.054931640625,-0.282958984375,1.6081999999999999
0.5190839694656488,1.633587786259542,-0.7480916030534351,-0.42919921875,-0.048095703125,-0.280029296875,1.6098999999999999
0.3969465648854962,1.6793893129770991,-0.8396946564885496,-0.431640625,-0.04736328125,-0.27978515625,1.6116
0.42748091603053434,1.6793893129770991,-0.8854961832061069,-0.431640625,-0.047607421875,-0.28271484375,1.6133
0.33587786259541985,1.5877862595419847,-0.8396946564885496,-0.431884765625,-0.05078125,-0.2861328125,1.615
0.6106870229007634,1.786259541984733,-0.8854961832061069,-0.430908203125,-0.04833984375,-0.28515625,1.6166999999999998
0.24427480916030533,1.8931297709923665,-0.9770992366412213,-0.426513671875,-0.04736328125,-0.27783203125,1.6183999999999998
0.5190839694656488,1.633587786259542,-1.0687022900763359,-0.430908203125,-0.048828125,-0.288330078125,1.6200999999999999
0.6717557251908397,1.8473282442748091,-1.0381679389312977,-0.424560546875,-0.050537109375,-0.286376953125,1.6218
0.22900763358778625,1.8778625954198473,-1.099236641221374,-0.430419921875,-0.0546875,-0.28125,1.6235
0.42748091603053434,1.7709923664122138,-1.3435114503816794,-0.42822265625,-0.05126953125,-0.280517578125,1.6252
0.33587786259541985,1.7404580152671756,-1.083969465648855,-0.4365234375,-0.0537109375,-0.275634765625,1.6269
0.2748091603053435,1.8473282442748091,-1.2366412213740459,-0.42724609375,-0.050048828125,-0.28759765625,1.6285999999999998
0.2900763358778626,1.7557251908396947,-1.251908396946565,-0.427734375,-0.050537109375,-0.297119140625,1.6302999999999999
0.12213740458015267,1.7099236641221374,-1.2213740458015268,-0.425048828125,-0.05126953125,-0.275146484375,1.632
-0.030534351145038167,1.7099236641221374,-1.1145038167938932,-0.42529296875,-0.05029296875,-0.2822265625,1.6337
0.2595419847328244,1.6488549618320612,-1.083969465648855,-0.42578125,-0.050537109375,-0.275634765625,1.6354
0.015267175572519083,1.5114503816793894,-0.9770992366412213,-0.4306640625,-0.051513671875,-0.2841796875,1.6371
-0.16793893129770993,1.3587786259541985,-0.9923664122137404,-0.432373046875,-0.05322265625,-0.281494140625,1.6387999999999998
0.12213740458015267,1.5419847328244274,-0.8549618320610687,-0.423583984375,-0.048095703125,-0.283447265625,1.6404999999999998
-0.07633587786259542,1.3893129770992367,-0.8702290076335878,-0.42529296875,-0.0498046875,-0.291748046875,1.6421999999999999
-0.16793893129770993,1.3740458015267176,-0.6412213740458015,-0.4287109375,-0.050048828125,-0.275634765625,1.6439
-0.1984732824427481,1.0381679389312977,-0.4580152671755725,-0.426025390625,-0.047607421875,-0.28125,1.6456
-0.12213740458015267,0.9923664122137404,-0.5648854961832062,-0.42333984375,-0.044677734375,-0.283935546875,1.6473
-0.1984732824427481,0.916030534351145,-0.5190839694656488,-0.426513671875,-0.048828125,-0.2763671875,1.6489999999999998
-0.22900763358778625,0.7633587786259542,-0.6259541984732825,-0.421630859375,-0.047119140625,-0.28515625,1.6506999999999998
-0.24427480916030533,0.6564885496183206,-0.6259541984732825,-0.42333984375,-0.051025390625,-0.283447265625,1.6523999999999999
-0.061068702290076333,0.7938931297709924,-0.5801526717557252,-0.423583984375,-0.04736328125,-0.28466796875,1.6541
-0.10687022900763359,0.32061068702290074,-0.4580152671755725,-0.42431640625,-0.0517578125,-0.2841796875,1.6558
-0.183206106870229,0.2748091603053435,-0.6564885496183206,-0.427001953125,-0.053955078125,-0.28857421875,1.6575
-0.2748091603053435,0.2595419847328244,-0.4580152671755725,-0.4306640625,-0.049072265625,-0.281494140625,1.6592
-0.15267175572519084,0.3053435114503817,-0.6106870229007634,-0.431640625,-0.050048828125,-0.282958984375,1.6608999999999998
-0.12213740458015267,0.16793893129770993,-0.5954198473282443,-0.428955078125,-0.049072265625,-0.28271484375,1.6625999999999999
-0.015267175572519083,0.10687022900763359,-0.4732824427480916,-0.4267578125,-0.054443359375,-0.27783203125,1.6643
0.015267175572519083,0.32061068702290074,-0.4122137404580153,-0.430908203125,-0.0478515625,-0.28466796875,1.666
-0.0916030534351145,0.3511450381679389,-0.3816793893129771,-0.4287109375,-0.045654296875,-0.277587890625,1.6677
-0.15267175572519084,0.366412213740458,-0.366412213740458,-0.431640625,-0.050048828125,-0.2802734375,1.6694
-0.16793893129770993,0.4580152671755725,-0.13740458015267176,-0.433837890625,-0.04248046875,-0.28662109375,1.6710999999999998
-0.16793893129770993,0.4732824427480916,-0.5343511450381679,-0.43359375,-0.041015625,-0.2822265625,1.6727999999999998
-0.0916030534351145,0.5648854961832062,-0.33587786259541985,-0.43310546875,-0.041015625,-0.28857421875,1.6744999999999999
-0.04580152671755725,0.6870229007633588,-0.3053435114503817,-0.4384765625,-0.04443359375,-0.28759765625,1.6762
-0.07633587786259542,0.8396946564885496,-0.5190839694656488,-0.4345703125,-0.042236328125,-0.2880859375,1.6779
0.13740458015267176,0.7786259541984732,-0.5038167938931297,-0.42919921875,-0.044189453125,-0.283935546875,1.6796
0.21374045801526717,0.8854961832061069,-0.6259541984732825,-0.43603515625,-0.044921875,-0.290283203125,1.6813
0.2900763358778626,1.0076335877862594,-0.5343511450381679,-0.43359375,-0.043701171875,-0.28564453125,1.6829999999999998
0.4580152671755725,1.0534351145038168,-0.9312977099236641,-0.43359375,-0.043701171875,-0.287841796875,1.6846999999999999
0.549618320610687,1.1297709923664123,-0.916030534351145,-0.43115234375,-0.042724609375,-0.283935546875,1.6864
0.6870229007633588,1.1450381679389312,-1.1297709923664123,-0.43017578125,-0.04345703125,-0.28369140625,1.6881
0.8854961832061069,1.099236641221374,-1.2671755725190839,-0.43017578125,-0.043701171875,-0.28076171875,1.6898
0.8091603053435115,1.0381679389312977,-1.450381679389313,-0.43408203125,-0.044189453125,-0.282470703125,1.6915
0.9770992366412213,0.9923664122137404,-1.6641221374045803,-0.425537109375,-0.045654296875,-0.28369140625,1.6931999999999998
1.1908396946564885,0.8396946564885496,-1.8625954198473282,-0.426025390625,-0.046875,-0.285400390625,1.6948999999999999
1.3740458015267176,0.6412213740458015,-1.633587786259542,-0.427734375,-0.044677734375,-0.27978515625,1.6965999999999999
1.1755725190839694,0.7022900763358778,-1.9541984732824427,-0.433837890625,-0.043212890625,-0.28564453125,1.6983
1.465648854961832,0.4580152671755725,-1.83206106870229,-0.431640625,-0.0400390625,-0.28369140625,1.7
1.450381679389313,0.3816793893129771,-1.9083969465648856,-0.429443359375,-0.04638671875,-0.283447265625,1.7017
1.4809160305343512,0.3969465648854962,-1.5725190839694656,-0.42431640625,-0.047119140625,-0.284912109375,1.7033999999999998
1.5572519083969465,0.183206106870229,-1.618320610687023,-0.427490234375,-0.04736328125,-0.282958984375,1.7050999999999998
1.2213740458015268,0.32061068702290074,-1.6793893129770991,-0.432373046875,-0.047607421875,-0.2890625,1.7067999999999999
1.5725190839694656,0.33587786259541985,-1.465648854961832,-0.43115234375,-0.04248046875,-0.2802734375,1.7085
1.4351145038167938,0.2748091603053435,-1.3587786259541985,-0.4296875,-0.0458984375,-0.279541015625,1.7102
1.5114503816793894,0.22900763358778625,-1.2671755725190839,-0.43115234375,-0.04833984375,-0.287109375,1.7119
1.5114503816793894,0.183206106870229,-1.1145038167938932,-0.4287109375,-0.048583984375,-0.279052734375,1.7136
1.4809160305343512,0.183206106870229,-1.2213740458015268,-0.429931640625,-0.049560546875,-0.28662109375,1.7152999999999998
1.3587786259541985,0.2595419847328244,-1.1145038167938932,-0.429931640625,-0.047119140625,-0.28076171875,1.7169999999999999
1.6793893129770991,0.4732824427480916,-1.083969465648855,-0.427490234375,-0.044189453125,-0.286865234375,1.7187
1.8015267175572518,0.42748091603053434,-1.297709923664122,-0.42822265625,-0.047119140625,-0.28173828125,1.7204
1.5267175572519085,0.3816793893129771,-1.3435114503816794,-0.423095703125,-0.043701171875,-0.283447265625,1.7221
1.5267175572519085,0.3053435114503817,-1.4351145038167938,-0.42529296875,-0.048095703125,-0.285400390625,1.7238
1.5114503816793894,0.061068702290076333,-1.618320610687023,-0.4306640625,-0.050048828125,-0.28125,1.7254999999999998
1.5877862595419847,0.04580152671755725,-1.2366412213740459,-0.427490234375,-0.042236328125,-0.283203125,1.7271999999999998
1.5114503816793894,0.13740458015267176,-1.2213740458015268,-0.42431640625,-0.04736328125,-0.2841796875,1.7288999999999999
1.618320610687023,-0.10687022900763359,-1.2366412213740459,-0.4267578125,-0.049560546875,-0.2890625,1.7306
1.5725190839694656,-0.061068702290076333,-1.2366412213740459,-0.426513671875,-0.045654296875,-0.268798828125,1.7323
1.450381679389313,-0.07633587786259542,-1.0687022900763359,-0.427001953125,-0.04833984375,-0.281982421875,1.734
1.618320610687023,-0.183206106870229,-1.083969465648855,-0.42822265625,-0.04931640625,-0.287109375,1.7356999999999998
1.4961832061068703,-0.24427480916030533,-0.8702290076335878,-0.42529296875,-0.044921875,-0.27685546875,1.7373999999999998
1.5114503816793894,-0.2595419847328244,-0.9618320610687023,-0.42919921875,-0.049560546875,-0.279052734375,1.7390999999999999
1.3893129770992367,-0.5038167938931297,-0.916030534351145,-0.42626953125,-0.05126953125,-0.275634765625,1.7408
1.4351145038167938,-0.5038167938931297,-0.9770992366412213,-0.422607421875,-0.04833984375,-0.281494140625,1.7425
1.6946564885496183,-0.6412213740458015,-0.6259541984732825,-0.429931640625,-0.04833984375,-0.2822265625,1.7442
1.450381679389313,-0.6717557251908397,-0.8091603053435115,-0.427978515625,-0.048828125,-0.284423828125,1.7459
1.6488549618320612,-0.732824427480916,-1.0076335877862594,-0.429931640625,-0.042236328125,-0.2841796875,1.7475999999999998
1.4809160305343512,-0.8244274809160306,-1.0381679389312977,-0.425537109375,-0.04541015625,-0.273193359375,1.7492999999999999
1.6488549618320612,-0.732824427480916,-0.8854961832061069,-0.42529296875,-0.046875,-0.28515625,1.751
1.8015267175572518,-0.6564885496183206,-1.0534351145038168,-0.428466796875,-0.046875,-0.2861328125,1.7527
1.4198473282442747,-0.6870229007633588,-1.0076335877862594,-0.427734375,-0.044921875,-0.280029296875,1.7544
1.786259541984733,-0.8549618320610687,-1.0534351145038168,-0.429931640625,-0.04931640625,-0.28662109375,1.7561
1.7557251908396947,-0.8091603053435115,-0.916030534351145,-0.427734375,-0.047607421875,-0.272705078125,1.7577999999999998
1.7709923664122138,-1.0534351145038168,-1.0381679389312977,-0.42529296875,-0.045654296875,-0.274169921875,1.7594999999999998
1.83206106870229,-0.9618320610687023,-0.8549618320610687,-0.42822265625,-0.0537109375,-0.276611328125,1.7611999999999999
1.8931297709923665,-0.9465648854961832,-1.0687022900763359,-0.425048828125,-0.0458984375,-0.277099609375,1.7629
1.9694656488549618,-0.9618320610687023,-0.8854961832061069,-0.426025390625,-0.045166015625,-0.27197265625,1.7646
1.9236641221374047,-0.7480916030534351,-1.251908396946565,-0.427734375,-0.05029296875,-0.277587890625,1.7663
1.9541984732824427,-0.9923664122137404,-1.0534351145038168,-0.420654296875,-0.048095703125,-0.28662109375,1.7679999999999998
1.7099236641221374,-0.9770992366412213,-1.1755725190839694,-0.423095703125,-0.044677734375,-0.281982421875,1.7696999999999998
2.0610687022900764,-0.9312977099236641,-1.0229007633587786,-0.42431640625,-0.047607421875,-0.2841796875,1.7713999999999999
1.9694656488549618,-1.1297709923664123,-1.4351145038167938,-0.429443359375,-0.049072265625,-0.282958984375,1.7731
1.7557251908396947,-1.251908396946565,-1.1755725190839694,-0.4267578125,-0.047119140625,-0.2724609375,1.7748
1.816793893129771,-1.1755725190839694,-1.4198473282442747,-0.426513671875,-0.050048828125,-0.273193359375,1.7765
2.0610687022900764,-1.4351145038167938,-1.3435114503816794,-0.424072265625,-0.046875,-0.27783203125,1.7782
1.83206106870229,-1.4961832061068703,-1.4351145038167938,-0.42626953125,-0.047119140625,-0.283447265625,1.7798999999999998
