gyrox1,gyroy1,gyroz1,accelx1,accely1,accelz1,Time
1.1145038167938932,1.9694656488549618,-1.5114503816793894,-0.417724609375,-0.0322265625,-0.32958984375,0.0
1.2366412213740459,1.83206106870229,-1.5114503816793894,-0.4169921875,-0.0322265625,-0.32763671875,0.0017
1.2671755725190839,2.0610687022900764,-1.251908396946565,-0.417236328125,-0.034912109375,-0.31884765625,0.0034
1.1755725190839694,1.8625954198473282,-1.6793893129770991,-0.412841796875,-0.037841796875,-0.328125,0.0050999999999999995
1.2061068702290076,2.0916030534351147,-1.4809160305343512,-0.416748046875,-0.03515625,-0.329345703125,0.0068
1.3282442748091603,2.0610687022900764,-1.6641221374045803,-0.416015625,-0.035888671875,-0.32861328125,0.008499999999999999
1.2061068702290076,2.045801526717557,-1.5267175572519085,-0.416259765625,-0.033447265625,-0.32958984375,0.010199999999999999
1.0381679389312977,2.0916030534351147,-1.5725190839694656,-0.419189453125,-0.032958984375,-0.3291015625,0.011899999999999999
1.2671755725190839,2.0763358778625953,-1.282442748091603,-0.415283203125,-0.034423828125,-0.32568359375,0.0136
1.4351145038167938,2.0763358778625953,-1.3587786259541985,-0.414306640625,-0.032470703125,-0.324951171875,0.0153
1.251908396946565,1.984732824427481,-1.465648854961832,-0.413818359375,-0.02978515625,-0.32568359375,0.016999999999999998
1.3435114503816794,1.9694656488549618,-1.6488549618320612,-0.417724609375,-0.0302734375,-0.3251953125,0.018699999999999998
1.4351145038167938,2.030534351145038,-1.4351145038167938,-0.413818359375,-0.033203125,-0.33642578125,0.020399999999999998
1.4351145038167938,1.9694656488549618,-1.4198473282442747,-0.4208984375,-0.039306640625,-0.3310546875,0.022099999999999998
1.2061068702290076,2.1526717557251906,-1.465648854961832,-0.416259765625,-0.037841796875,-0.33447265625,0.023799999999999998
1.2366412213740459,1.9389312977099236,-1.5572519083969465,-0.415283203125,-0.040283203125,-0.331298828125,0.0255
1.465648854961832,1.8931297709923665,-1.618320610687023,-0.410888671875,-0.036376953125,-0.32861328125,0.0272
1.1450381679389312,2.122137404580153,-1.5877862595419847,-0.416015625,-0.037353515625,-0.330810546875,0.0289
1.1603053435114503,2.030534351145038,-1.5114503816793894,-0.419189453125,-0.036376953125,-0.328857421875,0.0306
1.3587786259541985,2.1374045801526718,-1.5877862595419847,-0.409912109375,-0.036376953125,-0.330322265625,0.032299999999999995
1.2671755725190839,2.0916030534351147,-1.786259541984733,-0.419189453125,-0.033935546875,-0.325439453125,0.033999999999999996
1.4045801526717556,2.0610687022900764,-1.83206106870229,-0.416015625,-0.0302734375,-0.328125,0.035699999999999996
1.1908396946564885,2.122137404580153,-1.5419847328244274,-0.41748046875,-0.0322265625,-0.328857421875,0.037399999999999996
1.2671755725190839,2.16793893129771,-1.5267175572519085,-0.416015625,-0.033203125,-0.324462890625,0.039099999999999996
1.3282442748091603,2.0,-1.5877862595419847,-0.41259765625,-0.034423828125,-0.32958984375,0.040799999999999996
1.5114503816793894,1.9694656488549618,-1.7251908396946565,-0.4091796875,-0.030029296875,-0.32373046875,0.042499999999999996
1.2061068702290076,2.0,-1.6641221374045803,-0.414794921875,-0.04296875,-0.328369140625,0.044199999999999996
1.099236641221374,2.015267175572519,-1.6030534351145038,-0.416015625,-0.034912109375,-0.32861328125,0.045899999999999996
1.2671755725190839,2.045801526717557,-1.633587786259542,-0.419189453125,-0.035400390625,-0.3251953125,0.047599999999999996
0.9618320610687023,1.9083969465648856,-1.7557251908396947,-0.417724609375,-0.029541015625,-0.322998046875,0.0493
1.2213740458015268,1.9083969465648856,-1.6793893129770991,-0.417724609375,-0.03662109375,-0.332763671875,0.051
1.3435114503816794,1.9541984732824427,-1.6641221374045803,-0.41650390625,-0.038818359375,-0.333251953125,0.0527
1.4809160305343512,1.9541984732824427,-1.6946564885496183,-0.414306640625,-0.03564453125,-0.32568359375,0.0544
1.1297709923664123,1.83206106870229,-1.5114503816793894,-0.41259765625,-0.031982421875,-0.32861328125,0.0561
1.0534351145038168,1.8625954198473282,-1.618320610687023,-0.41748046875,-0.034423828125,-0.337158203125,0.0578
1.2213740458015268,1.7557251908396947,-1.465648854961832,-0.4150390625,-0.037109375,-0.333984375,0.0595
0.9618320610687023,1.7557251908396947,-1.7557251908396947,-0.411376953125,-0.037353515625,-0.323974609375,0.0612
1.1908396946564885,1.6641221374045803,-1.5419847328244274,-0.41064453125,-0.03076171875,-0.33349609375,0.0629
1.3587786259541985,1.4961832061068703,-1.5114503816793894,-0.407470703125,-0.03955078125,-0.3388671875,0.06459999999999999
1.083969465648855,1.6793893129770991,-1.450381679389313,-0.412353515625,-0.0341796875,-0.33349609375,0.0663
1.099236641221374,1.6793893129770991,-1.3740458015267176,-0.4140625,-0.037353515625,-0.32861328125,0.06799999999999999
1.0229007633587786,1.6030534351145038,-1.4961832061068703,-0.414306640625,-0.03564453125,-0.334716796875,0.0697
0.916030534351145,1.6488549618320612,-1.4198473282442747,-0.414794921875,-0.0439453125,-0.330322265625,0.07139999999999999
1.0534351145038168,1.633587786259542,-1.4198473282442747,-0.41845703125,-0.0400390625,-0.327392578125,0.0731
1.1603053435114503,1.5725190839694656,-1.3740458015267176,-0.4208984375,-0.03759765625,-0.327392578125,0.07479999999999999
1.1450381679389312,1.450381679389313,-1.1450381679389312,-0.41650390625,-0.03857421875,-0.3291015625,0.0765
0.9312977099236641,1.5267175572519085,-1.465648854961832,-0.412841796875,-0.03564453125,-0.32958984375,0.07819999999999999
0.9770992366412213,1.4809160305343512,-1.3129770992366412,-0.416015625,-0.04248046875,-0.327392578125,0.0799
0.916030534351145,1.4809160305343512,-1.5572519083969465,-0.41748046875,-0.03466796875,-0.335205078125,0.08159999999999999
0.6106870229007634,1.465648854961832,-1.4045801526717556,-0.418701171875,-0.03125,-0.333251953125,0.0833
0.8396946564885496,1.5114503816793894,-1.4045801526717556,-0.41943359375,-0.037353515625,-0.325927734375,0.08499999999999999
0.7786259541984732,1.5267175572519085,-1.251908396946565,-0.41796875,-0.037353515625,-0.333740234375,0.0867
0.8396946564885496,1.7251908396946565,-1.2671755725190839,-0.4150390625,-0.039306640625,-0.334228515625,0.08839999999999999
0.9923664122137404,1.6793893129770991,-1.1297709923664123,-0.41845703125,-0.034912109375,-0.32958984375,0.0901
0.8854961832061069,1.618320610687023,-1.0687022900763359,-0.41845703125,-0.036865234375,-0.33056640625,0.09179999999999999
0.7633587786259542,1.8473282442748091,-1.099236641221374,-0.420166015625,-0.033935546875,-0.332763671875,0.0935
0.732824427480916,1.83206106870229,-1.1145038167938932,-0.410888671875,-0.036376953125,-0.3310546875,0.09519999999999999
0.7938931297709924,1.9083969465648856,-0.9312977099236641,-0.411865234375,-0.03759765625,-0.33447265625,0.0969
0.5801526717557252,1.7709923664122138,-1.2061068702290076,-0.416748046875,-0.033447265625,-0.327392578125,0.0986
0.732824427480916,1.8015267175572518,-0.9312977099236641,-0.4140625,-0.039306640625,-0.323974609375,0.1003
0.7022900763358778,1.6488549618320612,-1.297709923664122,-0.420166015625,-0.035888671875,-0.328369140625,0.102
0.8091603053435115,1.5725190839694656,-1.251908396946565,-0.4150390625,-0.033447265625,-0.334716796875,0.1037
0.6259541984732825,1.6946564885496183,-1.1297709923664123,-0.4130859375,-0.0361328125,-0.330322265625,0.1054
0.732824427480916,1.618320610687023,-1.1908396946564885,-0.416748046875,-0.0380859375,-0.330322265625,0.1071
0.6412213740458015,1.8778625954198473,-1.3282442748091603,-0.415283203125,-0.0390625,-0.331298828125,0.1088
0.5801526717557252,1.618320610687023,-1.2671755725190839,-0.41357421875,-0.042236328125,-0.329833984375,0.11049999999999999
0.7480916030534351,1.5725190839694656,-1.3893129770992367,-0.41259765625,-0.032958984375,-0.32470703125,0.1122
0.6564885496183206,1.5114503816793894,-1.282442748091603,-0.41650390625,-0.03662109375,-0.322509765625,0.11389999999999999
0.5954198473282443,1.7709923664122138,-1.3587786259541985,-0.416259765625,-0.03515625,-0.32958984375,0.1156
0.5954198473282443,1.6488549618320612,-1.083969465648855,-0.41650390625,-0.036376953125,-0.32763671875,0.11729999999999999
0.5343511450381679,1.786259541984733,-1.0687022900763359,-0.414794921875,-0.035400390625,-0.327392578125,0.119
0.5038167938931297,1.7099236641221374,-1.0076335877862594,-0.417236328125,-0.034912109375,-0.321533203125,0.12069999999999999
0.44274809160305345,1.8931297709923665,-1.3129770992366412,-0.412841796875,-0.036865234375,-0.33740234375,0.1224
0.549618320610687,1.7251908396946565,-1.2366412213740459,-0.41259765625,-0.03564453125,-0.33447265625,0.12409999999999999
0.48854961832061067,1.6793893129770991,-1.3740458015267176,-0.4130859375,-0.03759765625,-0.33056640625,0.1258
0.5954198473282443,1.83206106870229,-1.1755725190839694,-0.41748046875,-0.03369140625,-0.336181640625,0.1275
0.32061068702290074,1.8015267175572518,-1.2671755725190839,-0.416259765625,-0.036865234375,-0.333740234375,0.12919999999999998
0.3816793893129771,1.6946564885496183,-1.1145038167938932,-0.411376953125,-0.031982421875,-0.333251953125,0.1309
0.13740458015267176,1.7404580152671756,-1.3282442748091603,-0.418701171875,-0.0341796875,-0.338623046875,0.1326
0.07633587786259542,1.7404580152671756,-1.083969465648855,-0.415283203125,-0.03515625,-0.322021484375,0.1343
0.5038167938931297,1.5877862595419847,-1.4961832061068703,-0.413330078125,-0.037109375,-0.3330078125,0.13599999999999998
0.5038167938931297,1.6488549618320612,-1.5572519083969465,-0.423583984375,-0.03564453125,-0.327880859375,0.1377
0.5038167938931297,1.5419847328244274,-1.4809160305343512,-0.420654296875,-0.03857421875,-0.327880859375,0.1394
0.22900763358778625,1.5877862595419847,-1.4809160305343512,-0.419677734375,-0.041015625,-0.337158203125,0.1411
0.48854961832061067,1.7557251908396947,-1.297709923664122,-0.419921875,-0.037109375,-0.33203125,0.14279999999999998
0.33587786259541985,1.9694656488549618,-1.251908396946565,-0.4208984375,-0.036865234375,-0.335693359375,0.1445
0.2900763358778626,1.9694656488549618,-1.4809160305343512,-0.419189453125,-0.03857421875,-0.336669921875,0.1462
0.4122137404580153,1.816793893129771,-1.4351145038167938,-0.42236328125,-0.031982421875,-0.329833984375,0.1479
0.4580152671755725,2.0,-1.5572519083969465,-0.41845703125,-0.0361328125,-0.328369140625,0.14959999999999998
0.6259541984732825,2.1068702290076335,-1.4198473282442747,-0.416748046875,-0.0400390625,-0.331787109375,0.1513
0.4580152671755725,2.045801526717557,-1.5877862595419847,-0.413818359375,-0.032470703125,-0.33642578125,0.153
0.4122137404580153,2.0610687022900764,-1.4961832061068703,-0.41552734375,-0.03955078125,-0.333251953125,0.1547
0.549618320610687,1.9694656488549618,-1.450381679389313,-0.416748046875,-0.034423828125,-0.330078125,0.15639999999999998
0.4580152671755725,1.984732824427481,-1.4198473282442747,-0.414306640625,-0.032958984375,-0.3330078125,0.1581
0.4122137404580153,2.1068702290076335,-1.6488549618320612,-0.4111328125,-0.03173828125,-0.33203125,0.1598
0.4732824427480916,2.183206106870229,-1.633587786259542,-0.41259765625,-0.03369140625,-0.3193359375,0.1615
0.4580152671755725,2.1526717557251906,-1.6793893129770991,-0.414794921875,-0.032470703125,-0.334228515625,0.16319999999999998
0.5190839694656488,1.9389312977099236,-1.5267175572519085,-0.414306640625,-0.034912109375,-0.330810546875,0.1649
0.5038167938931297,1.6488549618320612,-1.6946564885496183,-0.41357421875,-0.03271484375,-0.32861328125,0.1666
0.6564885496183206,1.5877862595419847,-1.9541984732824427,-0.413330078125,-0.03271484375,-0.3291015625,0.16829999999999998
0.8244274809160306,1.633587786259542,-1.83206106870229,-0.412353515625,-0.03271484375,-0.3330078125,0.16999999999999998
0.6412213740458015,1.5877862595419847,-1.7557251908396947,-0.41552734375,-0.03662109375,-0.331787109375,0.1717
0.5801526717557252,1.3282442748091603,-1.8015267175572518,-0.410888671875,-0.0361328125,-0.326904296875,0.1734
0.8549618320610687,1.3740458015267176,-1.8473282442748091,-0.408203125,-0.02978515625,-0.328125,0.17509999999999998
0.8244274809160306,1.1297709923664123,-2.0763358778625953,-0.410888671875,-0.0322265625,-0.33447265625,0.17679999999999998
0.8396946564885496,1.2366412213740459,-1.9694656488549618,-0.41162109375,-0.034912109375,-0.33203125,0.1785
0.9618320610687023,1.2671755725190839,-1.8931297709923665,-0.41162109375,-0.0361328125,-0.33203125,0.1802
0.9465648854961832,1.1145038167938932,-1.8015267175572518,-0.407958984375,-0.032470703125,-0.334716796875,0.18189999999999998
0.8702290076335878,1.099236641221374,-1.9083969465648856,-0.412109375,-0.03271484375,-0.326416015625,0.18359999999999999
0.8396946564885496,0.8091603053435115,-1.9236641221374047,-0.413330078125,-0.033203125,-0.3388671875,0.1853
0.9007633587786259,0.8091603053435115,-1.8473282442748091,-0.411865234375,-0.0322265625,-0.332763671875,0.187
0.8702290076335878,0.7480916030534351,-1.8625954198473282,-0.4130859375,-0.034423828125,-0.33349609375,0.18869999999999998
0.7022900763358778,0.7175572519083969,-1.5877862595419847,-0.4130859375,-0.03125,-0.332275390625,0.19039999999999999
0.8854961832061069,0.549618320610687,-1.7099236641221374,-0.41552734375,-0.0341796875,-0.335205078125,0.1921
0.7786259541984732,0.8702290076335878,-1.7099236641221374,-0.414306640625,-0.03857421875,-0.335693359375,0.1938
1.0687022900763359,0.8244274809160306,-1.6488549618320612,-0.41455078125,-0.033935546875,-0.329833984375,0.19549999999999998
1.0229007633587786,0.5801526717557252,-1.6488549618320612,-0.41455078125,-0.035888671875,-0.331787109375,0.1972
0.9312977099236641,0.5038167938931297,-1.5419847328244274,-0.412109375,-0.03271484375,-0.330810546875,0.1989
0.916030534351145,0.4580152671755725,-1.6641221374045803,-0.4169921875,-0.037109375,-0.326904296875,0.2006
0.8702290076335878,0.6259541984732825,-1.465648854961832,-0.417236328125,-0.031005859375,-0.3212890625,0.20229999999999998
0.7786259541984732,0.4732824427480916,-1.3893129770992367,-0.417236328125,-0.035400390625,-0.32958984375,0.204
0.7938931297709924,0.4732824427480916,-1.4198473282442747,-0.4140625,-0.034423828125,-0.333251953125,0.2057
0.8549618320610687,0.5801526717557252,-1.4198473282442747,-0.41064453125,-0.04150390625,-0.33251953125,0.2074
0.7786259541984732,0.4580152671755725,-1.3435114503816794,-0.417236328125,-0.041748046875,-0.324951171875,0.20909999999999998
0.8091603053435115,0.3969465648854962,-1.3740458015267176,-0.419189453125,-0.034423828125,-0.33544921875,0.2108
0.9770992366412213,0.44274809160305345,-1.4809160305343512,-0.416015625,-0.034912109375,-0.330810546875,0.2125
0.8091603053435115,0.4580152671755725,-1.0076335877862594,-0.41943359375,-0.037109375,-0.326171875,0.2142
0.732824427480916,0.3053435114503817,-1.2213740458015268,-0.41650390625,-0.03125,-0.32470703125,0.21589999999999998
0.8244274809160306,0.3969465648854962,-1.1908396946564885,-0.415283203125,-0.033447265625,-0.33544921875,0.2176
0.8549618320610687,0.366412213740458,-1.083969465648855,-0.410888671875,-0.03759765625,-0.326904296875,0.2193
0.7480916030534351,0.33587786259541985,-0.9007633587786259,-0.417236328125,-0.037109375,-0.328125,0.22099999999999997
0.8549618320610687,0.6412213740458015,-1.1603053435114503,-0.419189453125,-0.03564453125,-0.33154296875,0.22269999999999998
0.9465648854961832,0.549618320610687,-1.0534351145038168,-0.416259765625,-0.042236328125,-0.330810546875,0.2244
0.7786259541984732,0.4122137404580153,-1.0534351145038168,-0.41796875,-0.0400390625,-0.319580078125,0.2261
0.9007633587786259,0.42748091603053434,-0.916030534351145,-0.418212890625,-0.031005859375,-0.3291015625,0.22779999999999997
0.9312977099236641,0.6412213740458015,-1.1755725190839694,-0.416015625,-0.0322265625,-0.324951171875,0.22949999999999998
0.9618320610687023,0.8091603053435115,-0.9465648854961832,-0.419189453125,-0.034423828125,-0.3291015625,0.2312
0.7938931297709924,0.6412213740458015,-0.9923664122137404,-0.417236328125,-0.036376953125,-0.334716796875,0.2329
1.0687022900763359,0.7786259541984732,-0.8396946564885496,-0.415283203125,-0.034912109375,-0.32861328125,0.23459999999999998
0.9618320610687023,0.8854961832061069,-0.9923664122137404,-0.41796875,-0.038818359375,-0.3310546875,0.23629999999999998
0.9312977099236641,0.8702290076335878,-0.916030534351145,-0.41796875,-0.034912109375,-0.328369140625,0.238
1.0076335877862594,0.7480916030534351,-1.0229007633587786,-0.4208984375,-0.037353515625,-0.326904296875,0.2397
1.083969465648855,0.8549618320610687,-0.7633587786259542,-0.42236328125,-0.040283203125,-0.333251953125,0.24139999999999998
1.0687022900763359,0.732824427480916,-0.9923664122137404,-0.416015625,-0.03466796875,-0.332275390625,0.24309999999999998
1.1755725190839694,0.7022900763358778,-0.8702290076335878,-0.4140625,-0.033447265625,-0.333251953125,0.2448
1.0534351145038168,0.8091603053435115,-1.0076335877862594,-0.423095703125,-0.037841796875,-0.3271484375,0.2465
1.0381679389312977,0.9770992366412213,-0.8854961832061069,-0.42138671875,-0.0390625,-0.33544921875,0.24819999999999998
0.916030534351145,0.7786259541984732,-1.0229007633587786,-0.4150390625,-0.03857421875,-0.330322265625,0.24989999999999998
1.297709923664122,0.8244274809160306,-1.2213740458015268,-0.41455078125,-0.034423828125,-0.32421875,0.2516
1.083969465648855,0.732824427480916,-1.1450381679389312,-0.413818359375,-0.034912109375,-0.32861328125,0.25329999999999997
1.0534351145038168,0.9618320610687023,-0.9618320610687023,-0.4130859375,-0.03173828125,-0.330078125,0.255
0.9618320610687023,0.8549618320610687,-1.1755725190839694,-0.416748046875,-0.03564453125,-0.3310546875,0.2567
1.1297709923664123,1.0381679389312977,-0.7480916030534351,-0.4140625,-0.033447265625,-0.32470703125,0.25839999999999996
1.0229007633587786,1.2061068702290076,-1.0381679389312977,-0.412109375,-0.036865234375,-0.325439453125,0.2601
0.9465648854961832,1.0534351145038168,-0.9312977099236641,-0.412841796875,-0.03662109375,-0.3232421875,0.2618
1.0229007633587786,1.1908396946564885,-1.1450381679389312,-0.419189453125,-0.041748046875,-0.34228515625,0.2635
0.9923664122137404,1.2671755725190839,-1.083969465648855,-0.419677734375,-0.03662109375,-0.33203125,0.2652
0.9007633587786259,1.3435114503816794,-1.282442748091603,-0.419189453125,-0.03125,-0.330810546875,0.26689999999999997
1.1450381679389312,1.2366412213740459,-1.0381679389312977,-0.413818359375,-0.0341796875,-0.333251953125,0.2686
0.9007633587786259,1.4045801526717556,-1.282442748091603,-0.418701171875,-0.037109375,-0.331787109375,0.2703
0.916030534351145,1.4198473282442747,-0.9770992366412213,-0.419677734375,-0.032958984375,-0.3330078125,0.27199999999999996
1.099236641221374,1.6946564885496183,-1.1908396946564885,-0.420654296875,-0.034423828125,-0.3291015625,0.2737
0.9618320610687023,1.5725190839694656,-0.8854961832061069,-0.421630859375,-0.0380859375,-0.32958984375,0.2754
0.9465648854961832,1.5725190839694656,-1.1145038167938932,-0.412109375,-0.031005859375,-0.32666015625,0.27709999999999996
0.6259541984732825,1.7404580152671756,-1.2213740458015268,-0.4150390625,-0.0361328125,-0.33642578125,0.2788
0.5954198473282443,1.7251908396946565,-1.2671755725190839,-0.42041015625,-0.034912109375,-0.33154296875,0.28049999999999997
0.732824427480916,1.8625954198473282,-1.2366412213740459,-0.417236328125,-0.0341796875,-0.330322265625,0.2822
0.7633587786259542,1.8778625954198473,-1.251908396946565,-0.412109375,-0.039794921875,-0.328125,0.2839
0.7022900763358778,1.8931297709923665,-1.1145038167938932,-0.420166015625,-0.03857421875,-0.332275390625,0.28559999999999997
0.42748091603053434,2.045801526717557,-1.3129770992366412,-0.42236328125,-0.0361328125,-0.327392578125,0.2873
0.44274809160305345,1.8931297709923665,-1.0229007633587786,-0.414794921875,-0.0380859375,-0.330322265625,0.289
0.3969465648854962,2.0,-1.297709923664122,-0.41845703125,-0.037353515625,-0.330078125,0.29069999999999996
0.42748091603053434,2.2595419847328246,-1.297709923664122,-0.412109375,-0.038330078125,-0.3359375,0.2924
0.366412213740458,2.1068702290076335,-1.3435114503816794,-0.417236328125,-0.035400390625,-0.33642578125,0.2941
0.42748091603053434,2.0,-1.3587786259541985,-0.41650390625,-0.03955078125,-0.32861328125,0.2958
0.33587786259541985,2.0610687022900764,-1.4045801526717556,-0.41552734375,-0.03271484375,-0.3330078125,0.2975
0.16793893129770993,2.2595419847328246,-1.3740458015267176,-0.41748046875,-0.033203125,-0.33349609375,0.29919999999999997
0.061068702290076333,2.213740458015267,-1.450381679389313,-0.4189453125,-0.038330078125,-0.330810546875,0.3009
0.15267175572519084,1.9083969465648856,-1.1603053435114503,-0.412841796875,-0.034912109375,-0.335693359375,0.3026
0.12213740458015267,2.0763358778625953,-1.465648854961832,-0.414306640625,-0.038330078125,-0.332763671875,0.30429999999999996
-0.183206106870229,2.0916030534351147,-1.4961832061068703,-0.415283203125,-0.041748046875,-0.330322265625,0.306
0.07633587786259542,2.0,-1.3587786259541985,-0.412353515625,-0.038818359375,-0.33642578125,0.3077
0.22900763358778625,1.984732824427481,-1.3893129770992367,-0.413818359375,-0.037109375,-0.334716796875,0.3094
0.0,1.8931297709923665,-1.4961832061068703,-0.41796875,-0.0400390625,-0.3359375,0.3111
-0.061068702290076333,1.9236641221374047,-1.4961832061068703,-0.4111328125,-0.033935546875,-0.3369140625,0.31279999999999997
-0.0916030534351145,1.7709923664122138,-1.633587786259542,-0.420654296875,-0.03125,-0.341064453125,0.3145
-0.24427480916030533,1.8015267175572518,-1.6488549618320612,-0.416259765625,-0.0341796875,-0.33544921875,0.3162
-0.13740458015267176,1.83206106870229,-1.465648854961832,-0.414306640625,-0.03955078125,-0.329833984375,0.31789999999999996
-0.030534351145038167,1.8778625954198473,-1.3893129770992367,-0.416748046875,-0.0380859375,-0.328369140625,0.3196
-0.061068702290076333,1.8931297709923665,-1.4351145038167938,-0.418212890625,-0.034912109375,-0.331787109375,0.3213
-0.030534351145038167,1.7404580152671756,-1.5114503816793894,-0.4189453125,-0.035888671875,-0.32958984375,0.323
-0.030534351145038167,1.8015267175572518,-1.6793893129770991,-0.409912109375,-0.034912109375,-0.3408203125,0.3247
-0.183206106870229,1.6946564885496183,-1.8473282442748091,-0.415283203125,-0.037109375,-0.340087890625,0.32639999999999997
0.015267175572519083,1.7251908396946565,-1.4351145038167938,-0.414306640625,-0.033935546875,-0.330810546875,0.3281
0.0916030534351145,1.83206106870229,-1.4961832061068703,-0.415771484375,-0.037353515625,-0.3330078125,0.3298
0.015267175572519083,1.7099236641221374,-1.6030534351145038,-0.412353515625,-0.033203125,-0.329833984375,0.33149999999999996
-0.15267175572519084,1.7099236641221374,-1.6793893129770991,-0.4130859375,-0.03515625,-0.336669921875,0.3332
0.10687022900763359,1.7099236641221374,-1.8015267175572518,-0.41015625,-0.037353515625,-0.335693359375,0.3349
0.0,1.7251908396946565,-1.816793893129771,-0.414794921875,-0.03466796875,-0.328857421875,0.33659999999999995
-0.015267175572519083,1.633587786259542,-1.7404580152671756,-0.410888671875,-0.029296875,-0.333740234375,0.3383
-0.030534351145038167,1.4198473282442747,-1.9694656488549618,-0.41455078125,-0.03125,-0.32080078125,0.33999999999999997
0.0916030534351145,1.2671755725190839,-1.8778625954198473,-0.413818359375,-0.03466796875,-0.3310546875,0.3417
0.061068702290076333,1.2061068702290076,-1.7404580152671756,-0.41552734375,-0.034423828125,-0.34228515625,0.3434
0.10687022900763359,1.1297709923664123,-1.9083969465648856,-0.418701171875,-0.033203125,-0.330078125,0.34509999999999996
0.24427480916030533,1.251908396946565,-1.7099236641221374,-0.4169921875,-0.03759765625,-0.3291015625,0.3468
0.04580152671755725,1.1297709923664123,-1.8015267175572518,-0.409912109375,-0.03515625,-0.32958984375,0.3485
0.04580152671755725,1.1603053435114503,-1.6488549618320612,-0.414794921875,-0.03662109375,-0.333251953125,0.35019999999999996
0.13740458015267176,1.3129770992366412,-1.5114503816793894,-0.4140625,-0.02685546875,-0.337890625,0.3519
0.21374045801526717,1.3740458015267176,-1.4961832061068703,-0.4150390625,-0.030029296875,-0.338134765625,0.35359999999999997
0.32061068702290074,1.2366412213740459,-1.5419847328244274,-0.4189453125,-0.0341796875,-0.332275390625,0.3553
0.4580152671755725,1.3129770992366412,-1.3893129770992367,-0.410888671875,-0.03173828125,-0.328857421875,0.357
0.16793893129770993,1.297709923664122,-1.465648854961832,-0.42138671875,-0.03564453125,-0.329345703125,0.35869999999999996
0.366412213740458,1.251908396946565,-1.5877862595419847,-0.418701171875,-0.033447265625,-0.328857421875,0.3604
0.2748091603053435,1.3129770992366412,-1.2213740458015268,-0.421875,-0.034912109375,-0.3291015625,0.3621
0.5190839694656488,1.4198473282442747,-1.6030534351145038,-0.418212890625,-0.030517578125,-0.34130859375,0.36379999999999996
0.48854961832061067,1.3129770992366412,-1.3740458015267176,-0.4169921875,-0.0341796875,-0.3291015625,0.3655
0.4580152671755725,1.3282442748091603,-1.4045801526717556,-0.4150390625,-0.032958984375,-0.337890625,0.36719999999999997
0.44274809160305345,1.5877862595419847,-1.3587786259541985,-0.4130859375,-0.0322265625,-0.336181640625,0.3689
0.3053435114503817,1.465648854961832,-1.4351145038167938,-0.417724609375,-0.0322265625,-0.33837890625,0.3706
0.5190839694656488,1.282442748091603,-1.1908396946564885,-0.41796875,-0.032470703125,-0.33056640625,0.37229999999999996
0.6259541984732825,1.3129770992366412,-1.2671755725190839,-0.4169921875,-0.03271484375,-0.33837890625,0.374
0.42748091603053434,1.4961832061068703,-1.3893129770992367,-0.41748046875,-0.033935546875,-0.3310546875,0.3757
0.7633587786259542,1.4351145038167938,-1.5725190839694656,-0.41552734375,-0.0341796875,-0.332275390625,0.37739999999999996
0.9618320610687023,1.5114503816793894,-1.465648854961832,-0.415283203125,-0.037841796875,-0.334716796875,0.3791
0.5801526717557252,1.282442748091603,-1.4961832061068703,-0.412353515625,-0.032470703125,-0.326904296875,0.38079999999999997
0.8244274809160306,1.3740458015267176,-1.4351145038167938,-0.411376953125,-0.03662109375,-0.323486328125,0.38249999999999995
0.8702290076335878,1.4045801526717556,-1.450381679389313,-0.41455078125,-0.03515625,-0.330078125,0.3842
0.8549618320610687,1.5267175572519085,-1.282442748091603,-0.413330078125,-0.02734375,-0.323486328125,0.38589999999999997
0.9923664122137404,1.4198473282442747,-1.7099236641221374,-0.410400390625,-0.030517578125,-0.325927734375,0.3876
1.1908396946564885,1.3435114503816794,-1.618320610687023,-0.4140625,-0.031982421875,-0.32275390625,0.3893
1.1145038167938932,1.4809160305343512,-1.5725190839694656,-0.4150390625,-0.03125,-0.336669921875,0.39099999999999996
1.297709923664122,1.4045801526717556,-1.5725190839694656,-0.414794921875,-0.028564453125,-0.323486328125,0.3927
1.0534351145038168,1.3282442748091603,-1.5877862595419847,-0.416015625,-0.03466796875,-0.331298828125,0.3944
1.3740458015267176,1.297709923664122,-1.6641221374045803,-0.41845703125,-0.03076171875,-0.329345703125,0.39609999999999995
1.5267175572519085,1.1297709923664123,-1.5877862595419847,-0.416015625,-0.033935546875,-0.32861328125,0.3978
1.5267175572519085,1.465648854961832,-1.6946564885496183,-0.416748046875,-0.031982421875,-0.3330078125,0.39949999999999997
1.5877862595419847,1.450381679389313,-1.83206106870229,-0.416748046875,-0.034423828125,-0.333251953125,0.4012
1.5572519083969465,1.3587786259541985,-1.618320610687023,-0.4150390625,-0.036376953125,-0.333984375,0.4029
1.7709923664122138,1.4961832061068703,-1.5572519083969465,-0.417724609375,-0.034423828125,-0.3349609375,0.40459999999999996
1.7099236641221374,1.3435114503816794,-1.633587786259542,-0.41796875,-0.035400390625,-0.3232421875,0.4063
1.6488549618320612,1.5114503816793894,-1.450381679389313,-0.416259765625,-0.036376953125,-0.333251953125,0.408
1.6488549618320612,1.618320610687023,-1.5419847328244274,-0.41455078125,-0.03515625,-0.33056640625,0.40969999999999995
1.4961832061068703,1.450381679389313,-1.6030534351145038,-0.416259765625,-0.036865234375,-0.326416015625,0.4114
1.618320610687023,1.4045801526717556,-1.4198473282442747,-0.41552734375,-0.03515625,-0.33251953125,0.41309999999999997
1.7709923664122138,1.5267175572519085,-1.6946564885496183,-0.4140625,-0.032470703125,-0.337646484375,0.4148
1.7404580152671756,1.5419847328244274,-1.5419847328244274,-0.41943359375,-0.03515625,-0.330078125,0.4165
1.633587786259542,1.5114503816793894,-1.4045801526717556,-0.415283203125,-0.037109375,-0.333740234375,0.41819999999999996
1.5877862595419847,1.4809160305343512,-1.2061068702290076,-0.41552734375,-0.035888671875,-0.32373046875,0.4199
1.450381679389313,1.4809160305343512,-1.4351145038167938,-0.415283203125,-0.036376953125,-0.328125,0.4216
1.618320610687023,1.4809160305343512,-1.297709923664122,-0.420654296875,-0.03466796875,-0.33251953125,0.42329999999999995
1.5877862595419847,1.5267175572519085,-1.3282442748091603,-0.4140625,-0.03857421875,-0.329345703125,0.425
1.6946564885496183,1.4198473282442747,-1.1145038167938932,-0.41845703125,-0.03173828125,-0.330810546875,0.42669999999999997
1.465648854961832,1.5725190839694656,-1.3129770992366412,-0.416259765625,-0.03515625,-0.334228515625,0.4284
1.251908396946565,1.5114503816793894,-0.9923664122137404,-0.4189453125,-0.03564453125,-0.3271484375,0.4301
1.5877862595419847,1.465648854961832,-1.3282442748091603,-0.41845703125,-0.0380859375,-0.32275390625,0.43179999999999996
1.450381679389313,1.4198473282442747,-1.1145038167938932,-0.419189453125,-0.03955078125,-0.330078125,0.4335
1.465648854961832,1.5267175572519085,-1.0381679389312977,-0.408447265625,-0.035400390625,-0.33740234375,0.4352
1.5572519083969465,1.3587786259541985,-0.8854961832061069,-0.41650390625,-0.0361328125,-0.326171875,0.43689999999999996
1.4045801526717556,1.4045801526717556,-1.0076335877862594,-0.416748046875,-0.033935546875,-0.33447265625,0.4386
1.4045801526717556,1.3129770992366412,-0.9770992366412213,-0.412109375,-0.038330078125,-0.336669921875,0.44029999999999997
1.3587786259541985,1.465648854961832,-1.1603053435114503,-0.416748046875,-0.038330078125,-0.333740234375,0.44199999999999995
1.2671755725190839,1.5114503816793894,-1.0534351145038168,-0.41259765625,-0.03857421875,-0.330322265625,0.4437
1.4809160305343512,1.4045801526717556,-0.8854961832061069,-0.4150390625,-0.029296875,-0.331787109375,0.44539999999999996
1.5114503816793894,1.3435114503816794,-0.8702290076335878,-0.418701171875,-0.037109375,-0.3154296875,0.4471
1.4198473282442747,1.4045801526717556,-1.1450381679389312,-0.4150390625,-0.039306640625,-0.327392578125,0.4488
1.3282442748091603,1.3129770992366412,-1.083969465648855,-0.420654296875,-0.0380859375,-0.332763671875,0.45049999999999996
1.3587786259541985,1.3282442748091603,-1.0687022900763359,-0.414306640625,-0.03955078125,-0.33447265625,0.4522
1.2671755725190839,1.282442748091603,-0.9618320610687023,-0.41845703125,-0.037353515625,-0.3330078125,0.45389999999999997
1.2671755725190839,1.4961832061068703,-1.0687022900763359,-0.413330078125,-0.037353515625,-0.32958984375,0.45559999999999995
1.2061068702290076,1.3282442748091603,-1.1450381679389312,-0.415771484375,-0.0361328125,-0.330078125,0.4573
1.4351145038167938,1.3129770992366412,-1.1603053435114503,-0.41748046875,-0.032958984375,-0.328369140625,0.45899999999999996
1.1908396946564885,1.2061068702290076,-0.8854961832061069,-0.41845703125,-0.037841796875,-0.335693359375,0.4607
1.2213740458015268,1.0381679389312977,-0.9465648854961832,-0.4150390625,-0.037109375,-0.325927734375,0.4624
1.297709923664122,1.083969465648855,-1.1145038167938932,-0.41650390625,-0.0380859375,-0.328125,0.46409999999999996
1.1603053435114503,1.1145038167938932,-1.2213740458015268,-0.417724609375,-0.034423828125,-0.328857421875,0.4658
1.282442748091603,0.9618320610687023,-1.1603053435114503,-0.416748046875,-0.034912109375,-0.329833984375,0.46749999999999997
1.2213740458015268,1.1450381679389312,-1.1755725190839694,-0.409912109375,-0.033203125,-0.33740234375,0.46919999999999995
1.251908396946565,0.9770992366412213,-1.1908396946564885,-0.4150390625,-0.03125,-0.326171875,0.4709
1.1145038167938932,1.2061068702290076,-1.099236641221374,-0.417724609375,-0.03515625,-0.330078125,0.47259999999999996
1.1755725190839694,1.099236641221374,-1.0229007633587786,-0.41748046875,-0.034912109375,-0.329833984375,0.4743
1.1908396946564885,0.9312977099236641,-1.0534351145038168,-0.4150390625,-0.03515625,-0.334228515625,0.476
1.0381679389312977,1.0076335877862594,-1.251908396946565,-0.41259765625,-0.042724609375,-0.326904296875,0.47769999999999996
0.916030534351145,1.0229007633587786,-1.1755725190839694,-0.4150390625,-0.03369140625,-0.326171875,0.4794
1.083969465648855,1.2213740458015268,-1.1450381679389312,-0.416748046875,-0.03662109375,-0.324951171875,0.48109999999999997
1.0076335877862594,1.083969465648855,-1.083969465648855,-0.413818359375,-0.036865234375,-0.328857421875,0.48279999999999995
0.8396946564885496,1.2366412213740459,-1.2671755725190839,-0.41943359375,-0.039794921875,-0.33056640625,0.4845
0.9465648854961832,1.1297709923664123,-1.3740458015267176,-0.4130859375,-0.035400390625,-0.326416015625,0.48619999999999997
1.0381679389312977,1.1297709923664123,-1.2213740458015268,-0.4150390625,-0.036376953125,-0.329833984375,0.4879
0.8854961832061069,1.297709923664122,-1.0229007633587786,-0.413330078125,-0.03564453125,-0.33203125,0.4896
0.8396946564885496,1.1755725190839694,-1.2213740458015268,-0.41845703125,-0.03515625,-0.332763671875,0.49129999999999996
0.8549618320610687,0.8396946564885496,-1.0381679389312977,-0.4208984375,-0.034912109375,-0.333251953125,0.493
0.6564885496183206,1.1145038167938932,-1.0076335877862594,-0.417724609375,-0.038330078125,-0.34130859375,0.4947
0.5801526717557252,1.2366412213740459,-1.0076335877862594,-0.414794921875,-0.033935546875,-0.33544921875,0.49639999999999995
0.5954198473282443,1.3740458015267176,-1.2671755725190839,-0.41552734375,-0.032958984375,-0.333984375,0.4981
0.8091603053435115,1.1450381679389312,-1.5267175572519085,-0.418212890625,-0.033935546875,-0.334716796875,0.49979999999999997
0.6717557251908397,1.1297709923664123,-1.3893129770992367,-0.417236328125,-0.037353515625,-0.33544921875,0.5015
0.5801526717557252,1.0687022900763359,-1.099236641221374,-0.415283203125,-0.0400390625,-0.331787109375,0.5032
0.7633587786259542,1.083969465648855,-1.2671755725190839,-0.41064453125,-0.03662109375,-0.327880859375,0.5049
0.3969465648854962,1.083969465648855,-1.2366412213740459,-0.413818359375,-0.034912109375,-0.333740234375,0.5065999999999999
0.5038167938931297,1.297709923664122,-1.2366412213740459,-0.415771484375,-0.0361328125,-0.332763671875,0.5083
0.6106870229007634,1.099236641221374,-1.0534351145038168,-0.414794921875,-0.031494140625,-0.327880859375,0.51
0.33587786259541985,1.083969465648855,-1.2366412213740459,-0.41162109375,-0.03369140625,-0.327392578125,0.5116999999999999
0.5648854961832062,1.0687022900763359,-1.3587786259541985,-0.414306640625,-0.037353515625,-0.33251953125,0.5134
0.5190839694656488,1.1297709923664123,-1.297709923664122,-0.420166015625,-0.038330078125,-0.330810546875,0.5151
0.44274809160305345,1.099236641221374,-1.1450381679389312,-0.41943359375,-0.038330078125,-0.330078125,0.5167999999999999
0.2900763358778626,1.0381679389312977,-1.3587786259541985,-0.41552734375,-0.03564453125,-0.332275390625,0.5185
0.5038167938931297,1.0381679389312977,-1.3740458015267176,-0.415283203125,-0.03515625,-0.32958984375,0.5202
0.33587786259541985,1.0687022900763359,-1.1908396946564885,-0.416748046875,-0.035400390625,-0.3408203125,0.5218999999999999
0.44274809160305345,0.8702290076335878,-1.1450381679389312,-0.416259765625,-0.034423828125,-0.330810546875,0.5236
0.10687022900763359,1.1603053435114503,-1.3740458015267176,-0.415283203125,-0.033935546875,-0.33154296875,0.5253
0.1984732824427481,1.1450381679389312,-1.3282442748091603,-0.416748046875,-0.03173828125,-0.32958984375,0.527
0.10687022900763359,1.2061068702290076,-1.618320610687023,-0.417236328125,-0.035400390625,-0.331787109375,0.5287
0.24427480916030533,1.0229007633587786,-1.282442748091603,-0.419921875,-0.0361328125,-0.333251953125,0.5304
0.1984732824427481,1.0534351145038168,-1.4809160305343512,-0.4189453125,-0.03466796875,-0.33642578125,0.5321
0.13740458015267176,1.0687022900763359,-1.3282442748091603,-0.418212890625,-0.03271484375,-0.3251953125,0.5337999999999999
0.3511450381679389,1.0229007633587786,-1.4351145038167938,-0.41650390625,-0.032958984375,-0.32421875,0.5355
0.12213740458015267,1.0381679389312977,-1.3587786259541985,-0.41748046875,-0.03857421875,-0.333984375,0.5372
0.13740458015267176,1.1145038167938932,-1.465648854961832,-0.413818359375,-0.03466796875,-0.3359375,0.5388999999999999
0.549618320610687,1.083969465648855,-1.3435114503816794,-0.41552734375,-0.034912109375,-0.3232421875,0.5406
0.2748091603053435,1.2213740458015268,-1.465648854961832,-0.41748046875,-0.031982421875,-0.329345703125,0.5423
0.2748091603053435,1.0687022900763359,-1.3893129770992367,-0.41552734375,-0.031494140625,-0.33203125,0.5439999999999999
0.21374045801526717,1.3435114503816794,-1.5725190839694656,-0.423583984375,-0.033935546875,-0.325439453125,0.5457
0.549618320610687,0.9923664122137404,-1.2671755725190839,-0.4189453125,-0.03466796875,-0.32763671875,0.5474
0.0916030534351145,1.0381679389312977,-1.5419847328244274,-0.41748046875,-0.033935546875,-0.330078125,0.5490999999999999
0.22900763358778625,1.1450381679389312,-1.5114503816793894,-0.415771484375,-0.033935546875,-0.330078125,0.5508
0.33587786259541985,1.0381679389312977,-1.7099236641221374,-0.416015625,-0.031494140625,-0.329345703125,0.5525
0.32061068702290074,1.282442748091603,-1.4961832061068703,-0.414794921875,-0.029296875,-0.33544921875,0.5541999999999999
0.12213740458015267,1.1603053435114503,-1.450381679389313,-0.4130859375,-0.03271484375,-0.333740234375,0.5559
0.3816793893129771,1.2213740458015268,-1.4198473282442747,-0.416015625,-0.03271484375,-0.326416015625,0.5576
0.3969465648854962,1.1603053435114503,-1.6030534351145038,-0.415283203125,-0.03466796875,-0.33349609375,0.5593
0.366412213740458,1.0229007633587786,-1.5725190839694656,-0.415771484375,-0.038330078125,-0.33447265625,0.5609999999999999
0.21374045801526717,1.2671755725190839,-1.5877862595419847,-0.411376953125,-0.0322265625,-0.323974609375,0.5627
0.549618320610687,1.297709923664122,-1.5419847328244274,-0.4169921875,-0.031494140625,-0.33056640625,0.5644
0.3816793893129771,1.099236641221374,-1.5877862595419847,-0.40869140625,-0.03564453125,-0.342041015625,0.5660999999999999
0.42748091603053434,1.0381679389312977,-1.5419847328244274,-0.412841796875,-0.030517578125,-0.33642578125,0.5678
0.5190839694656488,1.2213740458015268,-1.465648854961832,-0.41650390625,-0.027099609375,-0.325927734375,0.5695
0.33587786259541985,1.4045801526717556,-1.5114503816793894,-0.41357421875,-0.027587890625,-0.337890625,0.5711999999999999
0.5190839694656488,1.083969465648855,-1.5572519083969465,-0.41259765625,-0.0302734375,-0.32958984375,0.5729
0.4122137404580153,1.1603053435114503,-1.7251908396946565,-0.421875,-0.03515625,-0.333740234375,0.5746
0.5801526717557252,1.0534351145038168,-1.7099236641221374,-0.41796875,-0.03466796875,-0.332275390625,0.5762999999999999
0.6564885496183206,0.9618320610687023,-1.5419847328244274,-0.41943359375,-0.032470703125,-0.3369140625,0.578
0.5648854961832062,1.4198473282442747,-1.6946564885496183,-0.417724609375,-0.03857421875,-0.32861328125,0.5797
0.7938931297709924,1.2366412213740459,-1.4809160305343512,-0.41943359375,-0.034423828125,-0.334228515625,0.5813999999999999
0.7022900763358778,1.5419847328244274,-1.6641221374045803,-0.422119140625,-0.032470703125,-0.3310546875,0.5831
0.7938931297709924,1.3740458015267176,-1.618320610687023,-0.417236328125,-0.033935546875,-0.329833984375,0.5848
0.42748091603053434,1.4198473282442747,-1.5725190839694656,-0.41845703125,-0.031005859375,-0.333251953125,0.5865
0.6870229007633588,1.4045801526717556,-1.5419847328244274,-0.421630859375,-0.034912109375,-0.327880859375,0.5882
0.7480916030534351,1.2671755725190839,-1.3587786259541985,-0.41552734375,-0.03955078125,-0.324951171875,0.5899
0.7175572519083969,1.3282442748091603,-1.3740458015267176,-0.415283203125,-0.030517578125,-0.330078125,0.5916
0.732824427480916,1.4809160305343512,-1.5419847328244274,-0.41796875,-0.037109375,-0.327392578125,0.5932999999999999
0.7175572519083969,1.2671755725190839,-1.3435114503816794,-0.41357421875,-0.035400390625,-0.325439453125,0.595
0.6106870229007634,1.3587786259541985,-1.3435114503816794,-0.413818359375,-0.034912109375,-0.326171875,0.5967
0.7786259541984732,1.450381679389313,-1.465648854961832,-0.414306640625,-0.03515625,-0.328369140625,0.5983999999999999
1.1603053435114503,1.3435114503816794,-1.3282442748091603,-0.4169921875,-0.0400390625,-0.333984375,0.6001
0.6717557251908397,1.3893129770992367,-1.4351145038167938,-0.4150390625,-0.033447265625,-0.329833984375,0.6018
0.8091603053435115,1.4961832061068703,-1.5267175572519085,-0.4150390625,-0.03173828125,-0.33251953125,0.6034999999999999
0.8549618320610687,1.465648854961832,-1.3893129770992367,-0.41796875,-0.03759765625,-0.330078125,0.6052
1.0534351145038168,1.6946564885496183,-1.3740458015267176,-0.41943359375,-0.03466796875,-0.3251953125,0.6069
0.9312977099236641,1.4961832061068703,-1.297709923664122,-0.417724609375,-0.033935546875,-0.332275390625,0.6085999999999999
0.8702290076335878,1.6030534351145038,-1.3740458015267176,-0.41650390625,-0.033447265625,-0.3203125,0.6103
1.0381679389312977,1.4809160305343512,-1.3282442748091603,-0.417724609375,-0.037109375,-0.3330078125,0.612
0.8549618320610687,1.5419847328244274,-1.5572519083969465,-0.419921875,-0.03759765625,-0.338623046875,0.6136999999999999
1.099236641221374,1.4961832061068703,-1.4045801526717556,-0.413818359375,-0.03564453125,-0.33349609375,0.6154
1.099236641221374,1.4809160305343512,-1.618320610687023,-0.412109375,-0.033203125,-0.32958984375,0.6171
1.1908396946564885,1.5725190839694656,-1.450381679389313,-0.41552734375,-0.035400390625,-0.33154296875,0.6188
1.083969465648855,1.633587786259542,-1.4961832061068703,-0.41748046875,-0.036376953125,-0.330078125,0.6204999999999999
0.916030534351145,1.5267175572519085,-1.5114503816793894,-0.41455078125,-0.037353515625,-0.33056640625,0.6222
1.2366412213740459,1.5572519083969465,-1.5572519083969465,-0.4169921875,-0.037353515625,-0.327392578125,0.6239
1.2671755725190839,1.618320610687023,-1.5725190839694656,-0.416015625,-0.0322265625,-0.338623046875,0.6255999999999999
1.3129770992366412,1.618320610687023,-1.6793893129770991,-0.415283203125,-0.03857421875,-0.33251953125,0.6273
1.2366412213740459,1.633587786259542,-1.5114503816793894,-0.4140625,-0.032470703125,-0.324951171875,0.629
1.1450381679389312,1.7404580152671756,-1.3740458015267176,-0.41748046875,-0.03076171875,-0.32763671875,0.6306999999999999
1.0381679389312977,1.6488549618320612,-1.6488549618320612,-0.413818359375,-0.03466796875,-0.333740234375,0.6324
1.2366412213740459,1.5419847328244274,-1.3435114503816794,-0.41650390625,-0.033935546875,-0.3271484375,0.6341
1.2213740458015268,1.5267175572519085,-1.5267175572519085,-0.4189453125,-0.03759765625,-0.332763671875,0.6357999999999999
1.2671755725190839,1.5114503816793894,-1.4351145038167938,-0.4140625,-0.037109375,-0.33349609375,0.6375
1.1603053435114503,1.6946564885496183,-1.5114503816793894,-0.419189453125,-0.03466796875,-0.329345703125,0.6392
1.2671755725190839,1.7404580152671756,-1.4809160305343512,-0.419677734375,-0.031982421875,-0.3291015625,0.6408999999999999
1.251908396946565,1.465648854961832,-1.633587786259542,-0.411865234375,-0.03466796875,-0.328125,0.6426
1.3587786259541985,1.5114503816793894,-1.633587786259542,-0.4150390625,-0.041015625,-0.330078125,0.6443
1.2671755725190839,1.83206106870229,-1.4809160305343512,-0.413330078125,-0.03662109375,-0.327880859375,0.646
1.1450381679389312,1.7557251908396947,-1.3740458015267176,-0.41845703125,-0.033203125,-0.32958984375,0.6476999999999999
1.2366412213740459,1.4809160305343512,-1.4809160305343512,-0.41748046875,-0.0380859375,-0.327880859375,0.6494
1.2213740458015268,1.633587786259542,-1.465648854961832,-0.416015625,-0.04052734375,-0.331298828125,0.6511
1.1603053435114503,1.8015267175572518,-1.4198473282442747,-0.417724609375,-0.03369140625,-0.330078125,0.6527999999999999
1.2366412213740459,1.7099236641221374,-1.4351145038167938,-0.417236328125,-0.0322265625,-0.318359375,0.6545
1.1755725190839694,1.6793893129770991,-1.6641221374045803,-0.416259765625,-0.035400390625,-0.321533203125,0.6562
1.0687022900763359,1.5877862595419847,-1.3435114503816794,-0.419921875,-0.041015625,-0.34130859375,0.6578999999999999
1.1755725190839694,1.2671755725190839,-1.4809160305343512,-0.4169921875,-0.0390625,-0.33056640625,0.6596
1.1603053435114503,1.5725190839694656,-1.4351145038167938,-0.41015625,-0.033935546875,-0.32763671875,0.6613
1.1450381679389312,1.618320610687023,-1.465648854961832,-0.422119140625,-0.034912109375,-0.34130859375,0.6629999999999999
1.1908396946564885,1.5419847328244274,-1.4961832061068703,-0.41845703125,-0.036865234375,-0.321533203125,0.6647
1.1450381679389312,1.618320610687023,-1.450381679389313,-0.413818359375,-0.0361328125,-0.328369140625,0.6664
1.1450381679389312,1.7099236641221374,-1.2366412213740459,-0.415771484375,-0.033203125,-0.331787109375,0.6680999999999999
1.2213740458015268,1.4198473282442747,-1.5419847328244274,-0.41748046875,-0.03662109375,-0.333740234375,0.6698
1.1297709923664123,1.4809160305343512,-1.1908396946564885,-0.41650390625,-0.038330078125,-0.3369140625,0.6715
0.8702290076335878,1.3587786259541985,-1.4045801526717556,-0.4208984375,-0.039306640625,-0.33740234375,0.6731999999999999
0.9770992366412213,1.4809160305343512,-1.1908396946564885,-0.409912109375,-0.02978515625,-0.32958984375,0.6748999999999999
1.0381679389312977,1.3893129770992367,-1.1450381679389312,-0.415283203125,-0.04052734375,-0.33837890625,0.6766
0.9923664122137404,1.282442748091603,-1.1145038167938932,-0.418701171875,-0.038818359375,-0.33642578125,0.6783
0.9770992366412213,1.450381679389313,-1.251908396946565,-0.414794921875,-0.0341796875,-0.33740234375,0.6799999999999999
0.8549618320610687,1.633587786259542,-1.1297709923664123,-0.4228515625,-0.0341796875,-0.332275390625,0.6817
0.8854961832061069,1.4351145038167938,-1.099236641221374,-0.4169921875,-0.03662109375,-0.326904296875,0.6834
0.8854961832061069,1.4045801526717556,-1.0076335877862594,-0.421630859375,-0.037353515625,-0.333740234375,0.6850999999999999
0.8549618320610687,1.4351145038167938,-1.2061068702290076,-0.4169921875,-0.031494140625,-0.328125,0.6868
0.7786259541984732,1.6488549618320612,-0.8702290076335878,-0.41455078125,-0.039306640625,-0.33056640625,0.6885
0.5954198473282443,1.5572519083969465,-1.0076335877862594,-0.41259765625,-0.040771484375,-0.3310546875,0.6901999999999999
0.6870229007633588,1.450381679389313,-1.0076335877862594,-0.420166015625,-0.035888671875,-0.3349609375,0.6919
0.8854961832061069,1.297709923664122,-1.1297709923664123,-0.4169921875,-0.03759765625,-0.328857421875,0.6936
0.916030534351145,1.5267175572519085,-1.0076335877862594,-0.417724609375,-0.038818359375,-0.32958984375,0.6952999999999999
0.8702290076335878,1.5419847328244274,-0.9465648854961832,-0.411376953125,-0.034423828125,-0.337158203125,0.697
0.9007633587786259,1.4961832061068703,-0.916030534351145,-0.41845703125,-0.034912109375,-0.327392578125,0.6987
0.8702290076335878,1.251908396946565,-0.8854961832061069,-0.418701171875,-0.038818359375,-0.325927734375,0.7003999999999999
0.9312977099236641,1.0687022900763359,-1.2213740458015268,-0.412353515625,-0.032470703125,-0.336181640625,0.7021
0.8091603053435115,1.3740458015267176,-1.1450381679389312,-0.412353515625,-0.035400390625,-0.334228515625,0.7038
0.6412213740458015,1.1603053435114503,-1.0687022900763359,-0.414306640625,-0.038330078125,-0.33251953125,0.7055
0.8244274809160306,1.3282442748091603,-1.2061068702290076,-0.4130859375,-0.031005859375,-0.328369140625,0.7071999999999999
0.8396946564885496,1.282442748091603,-1.0687022900763359,-0.4140625,-0.034423828125,-0.330078125,0.7089
0.7633587786259542,1.0534351145038168,-1.0534351145038168,-0.411376953125,-0.0322265625,-0.337890625,0.7106
0.732824427480916,1.251908396946565,-1.0381679389312977,-0.410888671875,-0.034912109375,-0.335693359375,0.7122999999999999
0.5954198473282443,1.1145038167938932,-1.3282442748091603,-0.4130859375,-0.03515625,-0.328857421875,0.714
0.5648854961832062,1.083969465648855,-1.297709923664122,-0.413330078125,-0.03466796875,-0.331787109375,0.7157
0.5954198473282443,1.3740458015267176,-1.099236641221374,-0.413330078125,-0.037353515625,-0.3310546875,0.7173999999999999
0.7022900763358778,1.3282442748091603,-0.9770992366412213,-0.411376953125,-0.03662109375,-0.3349609375,0.7191
0.5038167938931297,1.3129770992366412,-1.1603053435114503,-0.417724609375,-0.040283203125,-0.336669921875,0.7208
0.6564885496183206,1.4198473282442747,-1.2671755725190839,-0.417236328125,-0.035400390625,-0.329345703125,0.7224999999999999
0.5190839694656488,1.4809160305343512,-1.2213740458015268,-0.419189453125,-0.03369140625,-0.332763671875,0.7242
0.48854961832061067,1.2213740458015268,-1.0229007633587786,-0.418212890625,-0.035888671875,-0.32470703125,0.7259
0.4122137404580153,1.0687022900763359,-1.297709923664122,-0.41845703125,-0.03369140625,-0.3349609375,0.7275999999999999
0.3969465648854962,1.1603053435114503,-1.3740458015267176,-0.418212890625,-0.03564453125,-0.33349609375,0.7293
0.3816793893129771,1.4045801526717556,-1.3435114503816794,-0.41650390625,-0.037109375,-0.33984375,0.731
0.5190839694656488,1.297709923664122,-1.3435114503816794,-0.41357421875,-0.040283203125,-0.327880859375,0.7326999999999999
0.366412213740458,1.2213740458015268,-1.2061068702290076,-0.41845703125,-0.0341796875,-0.3349609375,0.7343999999999999
0.4122137404580153,1.0687022900763359,-1.3893129770992367,-0.41455078125,-0.036865234375,-0.334228515625,0.7361
0.48854961832061067,1.297709923664122,-1.5267175572519085,-0.416748046875,-0.032470703125,-0.338134765625,0.7378
0.5801526717557252,1.3129770992366412,-1.3435114503816794,-0.4189453125,-0.033447265625,-0.33251953125,0.7394999999999999
0.5190839694656488,1.3893129770992367,-1.251908396946565,-0.418212890625,-0.0302734375,-0.3330078125,0.7412
0.44274809160305345,1.297709923664122,-1.4961832061068703,-0.417724609375,-0.030029296875,-0.33251953125,0.7429
0.5190839694656488,1.3435114503816794,-1.4351145038167938,-0.415771484375,-0.034423828125,-0.32958984375,0.7445999999999999
0.4732824427480916,1.3282442748091603,-1.5267175572519085,-0.417236328125,-0.03173828125,-0.3232421875,0.7463
0.366412213740458,1.3893129770992367,-1.282442748091603,-0.4140625,-0.031982421875,-0.335693359375,0.748
0.32061068702290074,1.4351145038167938,-1.4351145038167938,-0.41455078125,-0.03173828125,-0.320068359375,0.7496999999999999
0.42748091603053434,1.5877862595419847,-1.3740458015267176,-0.41357421875,-0.03271484375,-0.331298828125,0.7514
0.3816793893129771,1.4198473282442747,-1.4198473282442747,-0.419189453125,-0.0322265625,-0.339111328125,0.7531
0.3969465648854962,1.3282442748091603,-1.5725190839694656,-0.4169921875,-0.033203125,-0.33349609375,0.7547999999999999
0.5801526717557252,1.5267175572519085,-1.3893129770992367,-0.416259765625,-0.026123046875,-0.338134765625,0.7565
0.5343511450381679,1.5267175572519085,-1.4809160305343512,-0.413330078125,-0.031982421875,-0.332763671875,0.7582
0.5343511450381679,1.3435114503816794,-1.7404580152671756,-0.411376953125,-0.035888671875,-0.330078125,0.7598999999999999
0.8244274809160306,1.3587786259541985,-1.7557251908396947,-0.41162109375,-0.031494140625,-0.333740234375,0.7615999999999999
0.8091603053435115,1.1450381679389312,-1.816793893129771,-0.41552734375,-0.03466796875,-0.33203125,0.7633
0.6564885496183206,0.9923664122137404,-1.9541984732824427,-0.416015625,-0.034912109375,-0.332763671875,0.7649999999999999
0.8244274809160306,0.9923664122137404,-1.8778625954198473,-0.414306640625,-0.03125,-0.325927734375,0.7666999999999999
0.7480916030534351,1.0076335877862594,-1.8625954198473282,-0.4140625,-0.0263671875,-0.328125,0.7684
0.549618320610687,0.8549618320610687,-2.045801526717557,-0.412841796875,-0.031005859375,-0.32861328125,0.7701
0.7480916030534351,0.7786259541984732,-1.8931297709923665,-0.41650390625,-0.0322265625,-0.333740234375,0.7717999999999999
0.7786259541984732,0.8244274809160306,-2.045801526717557,-0.4150390625,-0.03369140625,-0.33251953125,0.7735
1.099236641221374,0.7022900763358778,-2.2290076335877864,-0.41650390625,-0.034912109375,-0.333251953125,0.7752
0.9465648854961832,0.7786259541984732,-1.984732824427481,-0.413330078125,-0.0361328125,-0.332763671875,0.7768999999999999
1.083969465648855,0.916030534351145,-1.8625954198473282,-0.419189453125,-0.034912109375,-0.330810546875,0.7786
1.2366412213740459,0.9465648854961832,-2.0,-0.416015625,-0.032958984375,-0.330810546875,0.7803
0.916030534351145,0.8549618320610687,-2.030534351145038,-0.421630859375,-0.030517578125,-0.32275390625,0.7819999999999999
1.0381679389312977,0.7633587786259542,-1.9236641221374047,-0.417724609375,-0.0361328125,-0.3369140625,0.7837
0.9770992366412213,0.7938931297709924,-1.7709923664122138,-0.416748046875,-0.033935546875,-0.326416015625,0.7854
0.9770992366412213,0.9923664122137404,-1.9694656488549618,-0.4150390625,-0.03515625,-0.325439453125,0.7870999999999999
0.8702290076335878,0.8396946564885496,-1.8778625954198473,-0.413818359375,-0.03515625,-0.3359375,0.7888
0.8396946564885496,0.9465648854961832,-1.8473282442748091,-0.41552734375,-0.037841796875,-0.34228515625,0.7905
0.9465648854961832,0.9770992366412213,-1.7404580152671756,-0.415283203125,-0.034912109375,-0.333740234375,0.7921999999999999
0.8091603053435115,0.9770992366412213,-1.6946564885496183,-0.418212890625,-0.034423828125,-0.3291015625,0.7938999999999999
0.9923664122137404,0.9465648854961832,-1.5725190839694656,-0.421875,-0.039306640625,-0.33740234375,0.7956
0.9465648854961832,1.1603053435114503,-1.5267175572519085,-0.416015625,-0.03369140625,-0.327392578125,0.7973
0.7633587786259542,1.0076335877862594,-1.5572519083969465,-0.41455078125,-0.035888671875,-0.33154296875,0.7989999999999999
0.8244274809160306,0.9312977099236641,-1.4961832061068703,-0.4228515625,-0.04052734375,-0.326171875,0.8007
1.0381679389312977,1.1145038167938932,-1.3282442748091603,-0.413818359375,-0.03662109375,-0.3271484375,0.8024
0.732824427480916,0.9007633587786259,-1.5725190839694656,-0.419921875,-0.038818359375,-0.3359375,0.8040999999999999
0.7175572519083969,0.916030534351145,-1.3740458015267176,-0.4169921875,-0.0322265625,-0.327880859375,0.8058
0.916030534351145,1.0381679389312977,-1.2671755725190839,-0.41650390625,-0.03271484375,-0.337646484375,0.8075
0.8549618320610687,0.9465648854961832,-1.3129770992366412,-0.413818359375,-0.03662109375,-0.329833984375,0.8091999999999999
0.6564885496183206,0.8854961832061069,-1.465648854961832,-0.413818359375,-0.032470703125,-0.33837890625,0.8109
0.9923664122137404,0.9618320610687023,-1.0534351145038168,-0.418212890625,-0.03515625,-0.33740234375,0.8126
1.0229007633587786,1.1450381679389312,-1.1755725190839694,-0.414794921875,-0.040771484375,-0.33154296875,0.8142999999999999
0.916030534351145,1.0076335877862594,-1.1755725190839694,-0.417236328125,-0.031494140625,-0.331787109375,0.816
0.7633587786259542,0.8244274809160306,-1.083969465648855,-0.420654296875,-0.036865234375,-0.330078125,0.8177
0.6564885496183206,1.0076335877862594,-1.083969465648855,-0.417236328125,-0.03466796875,-0.324951171875,0.8193999999999999
0.732824427480916,0.8549618320610687,-1.2213740458015268,-0.416259765625,-0.0400390625,-0.330322265625,0.8210999999999999
1.0381679389312977,0.8396946564885496,-0.9923664122137404,-0.4130859375,-0.034423828125,-0.33056640625,0.8228
1.0687022900763359,0.6870229007633588,-1.0534351145038168,-0.4150390625,-0.029052734375,-0.326904296875,0.8244999999999999
0.8702290076335878,0.7938931297709924,-0.8396946564885496,-0.417724609375,-0.028564453125,-0.330078125,0.8261999999999999
1.0076335877862594,0.7022900763358778,-0.9465648854961832,-0.412841796875,-0.0390625,-0.329833984375,0.8279
1.0534351145038168,0.7175572519083969,-0.7786259541984732,-0.41259765625,-0.033203125,-0.32763671875,0.8296
0.9312977099236641,0.6870229007633588,-0.9770992366412213,-0.414794921875,-0.0283203125,-0.327880859375,0.8312999999999999
1.0381679389312977,0.8244274809160306,-0.8549618320610687,-0.416259765625,-0.032958984375,-0.32373046875,0.833
0.9312977099236641,0.5190839694656488,-0.9007633587786259,-0.417724609375,-0.03564453125,-0.327392578125,0.8347
0.9923664122137404,0.5648854961832062,-0.9770992366412213,-0.4130859375,-0.036865234375,-0.324462890625,0.8363999999999999
1.0534351145038168,0.48854961832061067,-1.0534351145038168,-0.41796875,-0.037841796875,-0.335693359375,0.8381
0.916030534351145,0.732824427480916,-0.9465648854961832,-0.41845703125,-0.0322265625,-0.32958984375,0.8398
1.282442748091603,0.6870229007633588,-0.9007633587786259,-0.414794921875,-0.033935546875,-0.325927734375,0.8414999999999999
1.297709923664122,0.8396946564885496,-0.916030534351145,-0.4140625,-0.03466796875,-0.328369140625,0.8432
0.8396946564885496,0.6870229007633588,-1.1297709923664123,-0.4169921875,-0.032470703125,-0.329345703125,0.8449
1.1450381679389312,0.7480916030534351,-1.1297709923664123,-0.412109375,-0.03564453125,-0.33154296875,0.8465999999999999
1.0534351145038168,0.7633587786259542,-1.2671755725190839,-0.4140625,-0.0380859375,-0.333984375,0.8482999999999999
1.083969465648855,0.6717557251908397,-0.8549618320610687,-0.4169921875,-0.0341796875,-0.3330078125,0.85
0.9923664122137404,0.7633587786259542,-0.8702290076335878,-0.415283203125,-0.033935546875,-0.325927734375,0.8516999999999999
1.083969465648855,0.7786259541984732,-0.9770992366412213,-0.420654296875,-0.037841796875,-0.338134765625,0.8533999999999999
1.1755725190839694,0.916030534351145,-1.0381679389312977,-0.418212890625,-0.038330078125,-0.340087890625,0.8551
0.9007633587786259,0.916030534351145,-1.0229007633587786,-0.413330078125,-0.03759765625,-0.324462890625,0.8568
0.7938931297709924,0.7938931297709924,-1.2671755725190839,-0.41552734375,-0.038330078125,-0.32373046875,0.8584999999999999
0.7633587786259542,0.8549618320610687,-1.0229007633587786,-0.41943359375,-0.03271484375,-0.330810546875,0.8602
0.8244274809160306,1.0076335877862594,-0.7938931297709924,-0.41845703125,-0.034912109375,-0.33154296875,0.8619
0.8396946564885496,1.3129770992366412,-0.9007633587786259,-0.416748046875,-0.0361328125,-0.325439453125,0.8635999999999999
0.7633587786259542,1.0076335877862594,-1.0687022900763359,-0.41796875,-0.034423828125,-0.3349609375,0.8653
0.732824427480916,1.0381679389312977,-1.0076335877862594,-0.415771484375,-0.038330078125,-0.32763671875,0.867
0.5190839694656488,1.4809160305343512,-1.0381679389312977,-0.417236328125,-0.037353515625,-0.327880859375,0.8686999999999999
0.5954198473282443,1.3587786259541985,-0.9770992366412213,-0.416015625,-0.038330078125,-0.32568359375,0.8704
0.5038167938931297,1.3740458015267176,-0.9618320610687023,-0.416748046875,-0.037841796875,-0.3349609375,0.8721
0.5190839694656488,1.4961832061068703,-0.9770992366412213,-0.41650390625,-0.033935546875,-0.3330078125,0.8737999999999999
0.4732824427480916,1.465648854961832,-1.0229007633587786,-0.416748046875,-0.034912109375,-0.333984375,0.8755
0.4580152671755725,1.6488549618320612,-1.0687022900763359,-0.410888671875,-0.037353515625,-0.33154296875,0.8772
0.5648854961832062,1.6488549618320612,-1.1145038167938932,-0.41845703125,-0.036865234375,-0.330810546875,0.8788999999999999
0.2748091603053435,1.5572519083969465,-1.1450381679389312,-0.418212890625,-0.039794921875,-0.331787109375,0.8805999999999999
0.183206106870229,1.786259541984733,-1.1145038167938932,-0.408447265625,-0.032958984375,-0.329345703125,0.8823
0.4732824427480916,1.7557251908396947,-1.251908396946565,-0.42138671875,-0.0361328125,-0.330322265625,0.8839999999999999
0.2748091603053435,1.816793893129771,-1.2061068702290076,-0.4189453125,-0.037353515625,-0.33203125,0.8856999999999999
0.2748091603053435,1.8015267175572518,-1.2061068702290076,-0.417724609375,-0.03271484375,-0.334716796875,0.8874
0.07633587786259542,1.6793893129770991,-1.1145038167938932,-0.412353515625,-0.03466796875,-0.340576171875,0.8891
0.16793893129770993,1.8625954198473282,-0.9923664122137404,-0.416015625,-0.03564453125,-0.334228515625,0.8907999999999999
-0.04580152671755725,1.8473282442748091,-1.1908396946564885,-0.418701171875,-0.0380859375,-0.334716796875,0.8925
-0.07633587786259542,1.8778625954198473,-1.1603053435114503,-0.41357421875,-0.03564453125,-0.329345703125,0.8942
0.0,1.7557251908396947,-1.0076335877862594,-0.412353515625,-0.029541015625,-0.330078125,0.8958999999999999
-0.15267175572519084,1.8778625954198473,-1.297709923664122,-0.41748046875,-0.031494140625,-0.335205078125,0.8976
-0.33587786259541985,1.9236641221374047,-1.282442748091603,-0.416748046875,-0.03466796875,-0.330078125,0.8993
-0.04580152671755725,1.7099236641221374,-1.3129770992366412,-0.41943359375,-0.037109375,-0.3427734375,0.9009999999999999
-0.12213740458015267,1.9236641221374047,-1.1450381679389312,-0.418701171875,-0.033447265625,-0.333251953125,0.9027
-0.15267175572519084,2.030534351145038,-1.3282442748091603,-0.414306640625,-0.0341796875,-0.33154296875,0.9044
-0.22900763358778625,1.9389312977099236,-1.4045801526717556,-0.41650390625,-0.03466796875,-0.329833984375,0.9060999999999999
-0.3053435114503817,1.7709923664122138,-1.3435114503816794,-0.41943359375,-0.029296875,-0.32861328125,0.9077999999999999
-0.3511450381679389,1.9541984732824427,-1.297709923664122,-0.41796875,-0.033447265625,-0.333740234375,0.9095
-0.1984732824427481,1.633587786259542,-1.3435114503816794,-0.421875,-0.03466796875,-0.336669921875,0.9111999999999999
-0.07633587786259542,1.6793893129770991,-1.5114503816793894,-0.421630859375,-0.031982421875,-0.330078125,0.9128999999999999
-0.21374045801526717,1.8778625954198473,-1.5877862595419847,-0.419677734375,-0.032958984375,-0.33935546875,0.9146
-0.24427480916030533,1.6946564885496183,-1.297709923664122,-0.41259765625,-0.03662109375,-0.336181640625,0.9163
-0.42748091603053434,1.5572519083969465,-1.450381679389313,-0.41259765625,-0.03173828125,-0.3310546875,0.9179999999999999
-0.1984732824427481,1.786259541984733,-1.3129770992366412,-0.41455078125,-0.03515625,-0.33154296875,0.9197
-0.42748091603053434,1.6030534351145038,-1.6946564885496183,-0.41552734375,-0.03271484375,-0.327880859375,0.9214
-0.24427480916030533,1.7251908396946565,-1.6030534351145038,-0.4189453125,-0.0341796875,-0.341796875,0.9230999999999999
-0.12213740458015267,1.5572519083969465,-1.5114503816793894,-0.4169921875,-0.03564453125,-0.33544921875,0.9248
-0.12213740458015267,1.618320610687023,-1.6946564885496183,-0.41455078125,-0.03173828125,-0.33642578125,0.9265
-0.1984732824427481,1.633587786259542,-1.8015267175572518,-0.4150390625,-0.03125,-0.335205078125,0.9281999999999999
-0.1984732824427481,1.8015267175572518,-1.7099236641221374,-0.414794921875,-0.0322265625,-0.33349609375,0.9299
-0.183206106870229,1.786259541984733,-1.7709923664122138,-0.4130859375,-0.0361328125,-0.3271484375,0.9316
-0.12213740458015267,1.633587786259542,-1.633587786259542,-0.417236328125,-0.037841796875,-0.33447265625,0.9332999999999999
0.10687022900763359,1.6946564885496183,-1.8015267175572518,-0.411865234375,-0.034912109375,-0.34033203125,0.9349999999999999
-0.0916030534351145,1.816793893129771,-1.7099236641221374,-0.41064453125,-0.02783203125,-0.331298828125,0.9367
-0.061068702290076333,1.618320610687023,-1.7709923664122138,-0.41650390625,-0.03271484375,-0.32958984375,0.9383999999999999
0.15267175572519084,1.5877862595419847,-1.633587786259542,-0.41552734375,-0.03271484375,-0.3291015625,0.9400999999999999
0.21374045801526717,1.5114503816793894,-1.9083969465648856,-0.416259765625,-0.03271484375,-0.334716796875,0.9418
0.030534351145038167,1.4961832061068703,-1.6946564885496183,-0.416259765625,-0.034423828125,-0.33056640625,0.9434999999999999
0.183206106870229,1.5267175572519085,-1.9541984732824427,-0.418212890625,-0.031005859375,-0.334716796875,0.9451999999999999
-0.04580152671755725,1.7251908396946565,-1.633587786259542,-0.4189453125,-0.02783203125,-0.336181640625,0.9469
0.15267175572519084,1.6641221374045803,-1.7557251908396947,-0.42236328125,-0.030029296875,-0.329345703125,0.9486
0.0916030534351145,1.7557251908396947,-1.6946564885496183,-0.42041015625,-0.032958984375,-0.335205078125,0.9502999999999999
0.015267175572519083,1.7557251908396947,-1.6793893129770991,-0.41796875,-0.03173828125,-0.33056640625,0.952
0.0,1.5419847328244274,-1.6030534351145038,-0.4169921875,-0.032470703125,-0.341552734375,0.9537
0.0,1.4961832061068703,-1.6946564885496183,-0.415283203125,-0.032470703125,-0.32568359375,0.9553999999999999
0.4122137404580153,1.618320610687023,-1.5419847328244274,-0.416015625,-0.033447265625,-0.3271484375,0.9571
0.24427480916030533,1.7251908396946565,-1.4961832061068703,-0.41259765625,-0.032958984375,-0.3369140625,0.9588
0.32061068702290074,1.7099236641221374,-1.450381679389313,-0.4130859375,-0.033935546875,-0.336181640625,0.9604999999999999
0.15267175572519084,1.7404580152671756,-1.6488549618320612,-0.41796875,-0.02880859375,-0.33349609375,0.9621999999999999
0.1984732824427481,1.8473282442748091,-1.5572519083969465,-0.4140625,-0.034423828125,-0.32861328125,0.9639
0.1984732824427481,1.8625954198473282,-1.4809160305343512,-0.41357421875,-0.03173828125,-0.33837890625,0.9655999999999999
0.21374045801526717,1.9389312977099236,-1.4198473282442747,-0.4130859375,-0.034912109375,-0.331787109375,0.9672999999999999
0.3053435114503817,1.8625954198473282,-1.4198473282442747,-0.413330078125,-0.03076171875,-0.331787109375,0.969
0.32061068702290074,1.816793893129771,-1.1755725190839694,-0.413818359375,-0.032470703125,-0.330322265625,0.9706999999999999
0.4122137404580153,1.9083969465648856,-1.4351145038167938,-0.4091796875,-0.0341796875,-0.336669921875,0.9723999999999999
0.22900763358778625,1.8473282442748091,-1.282442748091603,-0.4091796875,-0.03076171875,-0.32861328125,0.9741
0.48854961832061067,1.5572519083969465,-1.4809160305343512,-0.416259765625,-0.033447265625,-0.34033203125,0.9758
0.42748091603053434,1.618320610687023,-1.282442748091603,-0.414306640625,-0.0341796875,-0.326416015625,0.9774999999999999
0.549618320610687,1.6641221374045803,-1.4961832061068703,-0.410888671875,-0.034423828125,-0.334228515625,0.9792
0.8854961832061069,1.4045801526717556,-1.450381679389313,-0.40966796875,-0.03466796875,-0.329345703125,0.9809
0.5954198473282443,1.7099236641221374,-1.5114503816793894,-0.41259765625,-0.029052734375,-0.3388671875,0.9825999999999999
0.6564885496183206,1.6641221374045803,-1.450381679389313,-0.414794921875,-0.031494140625,-0.3330078125,0.9843
0.6564885496183206,1.5114503816793894,-1.7251908396946565,-0.41650390625,-0.03271484375,-0.3359375,0.986
0.9465648854961832,1.3740458015267176,-1.618320610687023,-0.415283203125,-0.029296875,-0.3330078125,0.9876999999999999
1.0381679389312977,1.297709923664122,-1.7251908396946565,-0.413818359375,-0.03125,-0.328369140625,0.9894
0.8549618320610687,1.5572519083969465,-1.7251908396946565,-0.412841796875,-0.030517578125,-0.3359375,0.9911
1.1297709923664123,1.5267175572519085,-1.9541984732824427,-0.41162109375,-0.029052734375,-0.3310546875,0.9927999999999999
1.1755725190839694,1.2213740458015268,-1.6793893129770991,-0.414794921875,-0.029052734375,-0.32666015625,0.9944999999999999
1.2061068702290076,1.1603053435114503,-2.030534351145038,-0.41748046875,-0.025390625,-0.33056640625,0.9962
1.3893129770992367,1.2213740458015268,-1.8473282442748091,-0.416748046875,-0.034423828125,-0.330810546875,0.9978999999999999
1.4045801526717556,1.4351145038167938,-1.8015267175572518,-0.417724609375,-0.0302734375,-0.33544921875,0.9995999999999999
1.2061068702290076,1.3129770992366412,-1.6030534351145038,-0.41064453125,-0.03515625,-0.333251953125,1.0012999999999999
1.2671755725190839,1.465648854961832,-1.5419847328244274,-0.41552734375,-0.039794921875,-0.332275390625,1.003
1.3587786259541985,1.251908396946565,-1.5267175572519085,-0.42236328125,-0.032958984375,-0.33447265625,1.0047
1.5725190839694656,1.465648854961832,-1.7557251908396947,-0.41943359375,-0.0361328125,-0.334228515625,1.0064
1.5725190839694656,1.5267175572519085,-1.5267175572519085,-0.4208984375,-0.035888671875,-0.33203125,1.0081
1.633587786259542,1.3282442748091603,-1.3282442748091603,-0.415771484375,-0.031005859375,-0.32861328125,1.0098
1.6946564885496183,1.5419847328244274,-1.5114503816793894,-0.40869140625,-0.03466796875,-0.326904296875,1.0114999999999998
1.6030534351145038,1.4045801526717556,-1.6030534351145038,-0.416015625,-0.035888671875,-0.3369140625,1.0131999999999999
1.4198473282442747,1.465648854961832,-1.6030534351145038,-0.419677734375,-0.036865234375,-0.337890625,1.0149
1.5267175572519085,1.2671755725190839,-1.450381679389313,-0.41455078125,-0.040771484375,-0.33154296875,1.0166
1.3740458015267176,1.5419847328244274,-1.3893129770992367,-0.41357421875,-0.0400390625,-0.3271484375,1.0183
1.4045801526717556,1.450381679389313,-1.4809160305343512,-0.421142578125,-0.032958984375,-0.33251953125,1.02
1.3893129770992367,1.3893129770992367,-1.3893129770992367,-0.41552734375,-0.0322265625,-0.3212890625,1.0217
1.450381679389313,1.4198473282442747,-1.3740458015267176,-0.411376953125,-0.037109375,-0.327880859375,1.0233999999999999
1.3435114503816794,1.5419847328244274,-1.2671755725190839,-0.41455078125,-0.035888671875,-0.33056640625,1.0251
1.2366412213740459,1.465648854961832,-1.251908396946565,-0.419189453125,-0.03173828125,-0.331787109375,1.0268
1.5114503816793894,1.5725190839694656,-1.0381679389312977,-0.41650390625,-0.0380859375,-0.335693359375,1.0285
1.297709923664122,1.5114503816793894,-1.1755725190839694,-0.41650390625,-0.03125,-0.3369140625,1.0302
1.3129770992366412,1.5267175572519085,-1.1450381679389312,-0.4169921875,-0.03125,-0.3291015625,1.0319
1.083969465648855,1.5419847328244274,-1.0534351145038168,-0.411865234375,-0.03515625,-0.333984375,1.0335999999999999
1.2366412213740459,1.5267175572519085,-1.0534351145038168,-0.41650390625,-0.0380859375,-0.326904296875,1.0352999999999999
1.1145038167938932,1.3740458015267176,-1.083969465648855,-0.416748046875,-0.037841796875,-0.338623046875,1.037
1.297709923664122,1.450381679389313,-1.099236641221374,-0.415283203125,-0.04150390625,-0.3388671875,1.0387
1.5114503816793894,1.5267175572519085,-1.0687022900763359,-0.418701171875,-0.038818359375,-0.341552734375,1.0404
1.0534351145038168,1.4045801526717556,-1.1450381679389312,-0.41748046875,-0.03662109375,-0.336181640625,1.0421
1.2061068702290076,1.4198473282442747,-1.0687022900763359,-0.41552734375,-0.03515625,-0.33642578125,1.0437999999999998
1.1908396946564885,1.282442748091603,-1.0076335877862594,-0.412841796875,-0.033935546875,-0.334228515625,1.0454999999999999
1.1755725190839694,1.465648854961832,-0.9770992366412213,-0.416748046875,-0.03125,-0.332275390625,1.0472
1.1755725190839694,1.4961832061068703,-1.1297709923664123,-0.413330078125,-0.031982421875,-0.33447265625,1.0489
1.0229007633587786,1.3282442748091603,-1.099236641221374,-0.412109375,-0.03662109375,-0.332275390625,1.0506
0.9923664122137404,1.3282442748091603,-1.1755725190839694,-0.423583984375,-0.031005859375,-0.335205078125,1.0523
0.916030534351145,1.450381679389313,-1.0381679389312977,-0.41943359375,-0.032958984375,-0.3310546875,1.054
0.9312977099236641,1.297709923664122,-1.1755725190839694,-0.410888671875,-0.034423828125,-0.34130859375,1.0556999999999999
1.1145038167938932,1.2061068702290076,-1.0229007633587786,-0.412109375,-0.033935546875,-0.34130859375,1.0574
1.1145038167938932,1.0229007633587786,-1.2671755725190839,-0.4140625,-0.029541015625,-0.337158203125,1.0591
1.0381679389312977,1.2061068702290076,-1.2061068702290076,-0.416748046875,-0.03369140625,-0.329345703125,1.0608
1.0229007633587786,1.2366412213740459,-0.9923664122137404,-0.415771484375,-0.035888671875,-0.332275390625,1.0625
1.0687022900763359,1.297709923664122,-1.282442748091603,-0.412109375,-0.036865234375,-0.32861328125,1.0642
1.0076335877862594,1.0381679389312977,-1.1450381679389312,-0.412841796875,-0.04052734375,-0.332763671875,1.0658999999999998
0.9618320610687023,1.1450381679389312,-1.2366412213740459,-0.412841796875,-0.034912109375,-0.332763671875,1.0675999999999999
1.0076335877862594,1.083969465648855,-1.3435114503816794,-0.414794921875,-0.032470703125,-0.3359375,1.0693
1.0381679389312977,1.282442748091603,-1.3587786259541985,-0.411376953125,-0.039306640625,-0.32861328125,1.071
1.0381679389312977,1.5419847328244274,-1.3740458015267176,-0.41845703125,-0.033203125,-0.331298828125,1.0727
1.083969465648855,1.3587786259541985,-1.2366412213740459,-0.417236328125,-0.028564453125,-0.331787109375,1.0744
0.9312977099236641,1.251908396946565,-1.4961832061068703,-0.41650390625,-0.03515625,-0.3388671875,1.0760999999999998
0.8091603053435115,1.3893129770992367,-1.2671755725190839,-0.412353515625,-0.0361328125,-0.3359375,1.0777999999999999
0.8549618320610687,1.297709923664122,-1.5114503816793894,-0.4189453125,-0.03857421875,-0.32373046875,1.0795
1.0381679389312977,1.3740458015267176,-1.251908396946565,-0.418212890625,-0.03662109375,-0.3251953125,1.0812
0.8549618320610687,1.4351145038167938,-1.3129770992366412,-0.4130859375,-0.033935546875,-0.323974609375,1.0829
0.7786259541984732,1.297709923664122,-1.3435114503816794,-0.413818359375,-0.03564453125,-0.331787109375,1.0846
0.732824427480916,1.3587786259541985,-1.450381679389313,-0.413818359375,-0.03271484375,-0.33251953125,1.0863
0.8244274809160306,1.4198473282442747,-1.282442748091603,-0.414306640625,-0.03564453125,-0.3359375,1.0879999999999999
0.6106870229007634,1.2671755725190839,-1.297709923664122,-0.410888671875,-0.030517578125,-0.330322265625,1.0897
0.7938931297709924,1.4045801526717556,-1.3435114503816794,-0.419921875,-0.03662109375,-0.328857421875,1.0914
0.8244274809160306,1.3893129770992367,-1.465648854961832,-0.418701171875,-0.03564453125,-0.3330078125,1.0931
0.6259541984732825,1.465648854961832,-1.2671755725190839,-0.41748046875,-0.0361328125,-0.33984375,1.0948
0.48854961832061067,1.282442748091603,-1.618320610687023,-0.40869140625,-0.0361328125,-0.33203125,1.0965
0.5190839694656488,1.2061068702290076,-1.2213740458015268,-0.415771484375,-0.033447265625,-0.333740234375,1.0981999999999998
0.5801526717557252,1.5267175572519085,-1.450381679389313,-0.416015625,-0.031494140625,-0.333740234375,1.0998999999999999
0.48854961832061067,1.3587786259541985,-1.4045801526717556,-0.4150390625,-0.03369140625,-0.331787109375,1.1016
0.6106870229007634,1.4351145038167938,-1.633587786259542,-0.41552734375,-0.03759765625,-0.32861328125,1.1033
0.6106870229007634,1.5267175572519085,-1.4961832061068703,-0.4150390625,-0.037841796875,-0.32958984375,1.105
0.24427480916030533,1.5267175572519085,-1.6641221374045803,-0.416259765625,-0.03662109375,-0.32470703125,1.1067
0.3816793893129771,1.282442748091603,-1.4961832061068703,-0.41796875,-0.0400390625,-0.3330078125,1.1083999999999998
0.4732824427480916,1.4351145038167938,-1.5572519083969465,-0.416015625,-0.032958984375,-0.33203125,1.1100999999999999
0.44274809160305345,1.3740458015267176,-1.5267175572519085,-0.420166015625,-0.02734375,-0.340087890625,1.1118
0.3053435114503817,1.3893129770992367,-1.5419847328244274,-0.414306640625,-0.041015625,-0.326904296875,1.1135
0.3969465648854962,1.4351145038167938,-1.450381679389313,-0.4208984375,-0.032958984375,-0.328369140625,1.1152
0.24427480916030533,1.4351145038167938,-1.6030534351145038,-0.417236328125,-0.031005859375,-0.33935546875,1.1169
0.32061068702290074,1.5419847328244274,-1.5877862595419847,-0.411865234375,-0.03564453125,-0.32666015625,1.1186
0.3053435114503817,1.6488549618320612,-1.4809160305343512,-0.418701171875,-0.032958984375,-0.32568359375,1.1202999999999999
0.3053435114503817,1.4198473282442747,-1.3435114503816794,-0.41650390625,-0.031494140625,-0.332763671875,1.1219999999999999
0.42748091603053434,1.5267175572519085,-1.4961832061068703,-0.41748046875,-0.03662109375,-0.33349609375,1.1237
0.22900763358778625,1.5114503816793894,-1.3740458015267176,-0.417236328125,-0.031005859375,-0.33203125,1.1254
0.3511450381679389,1.633587786259542,-1.633587786259542,-0.417236328125,-0.03759765625,-0.332275390625,1.1271
0.3511450381679389,1.5267175572519085,-1.4198473282442747,-0.41943359375,-0.03076171875,-0.3369140625,1.1288
0.44274809160305345,1.5114503816793894,-1.5877862595419847,-0.416748046875,-0.033447265625,-0.32763671875,1.1304999999999998
0.15267175572519084,1.633587786259542,-1.3740458015267176,-0.417724609375,-0.033447265625,-0.33447265625,1.1321999999999999
0.16793893129770993,1.6488549618320612,-1.3435114503816794,-0.419921875,-0.033935546875,-0.334228515625,1.1339
0.1984732824427481,1.5877862595419847,-1.633587786259542,-0.4189453125,-0.032958984375,-0.337890625,1.1356
0.44274809160305345,1.465648854961832,-1.6488549618320612,-0.41455078125,-0.032958984375,-0.33203125,1.1373
0.24427480916030533,1.6641221374045803,-1.6793893129770991,-0.411865234375,-0.03759765625,-0.327880859375,1.139
0.3816793893129771,1.4351145038167938,-1.5877862595419847,-0.41357421875,-0.029296875,-0.330322265625,1.1407
0.5038167938931297,1.3282442748091603,-1.5267175572519085,-0.413330078125,-0.033935546875,-0.327880859375,1.1423999999999999
0.32061068702290074,1.251908396946565,-1.5114503816793894,-0.413330078125,-0.03662109375,-0.33203125,1.1441
0.24427480916030533,1.3435114503816794,-1.3893129770992367,-0.416748046875,-0.037109375,-0.324951171875,1.1458
0.3969465648854962,1.4351145038167938,-1.5572519083969465,-0.4189453125,-0.035400390625,-0.333740234375,1.1475
0.24427480916030533,1.2213740458015268,-1.5725190839694656,-0.413818359375,-0.0322265625,-0.336669921875,1.1492
0.6259541984732825,1.4961832061068703,-1.633587786259542,-0.41455078125,-0.03857421875,-0.332275390625,1.1509
0.5801526717557252,1.633587786259542,-1.6946564885496183,-0.41943359375,-0.034912109375,-0.3330078125,1.1525999999999998
0.4732824427480916,1.4809160305343512,-1.8473282442748091,-0.4169921875,-0.03857421875,-0.3330078125,1.1542999999999999
0.5954198473282443,1.4198473282442747,-1.4961832061068703,-0.4130859375,-0.03271484375,-0.326416015625,1.156
0.48854961832061067,1.6641221374045803,-1.5725190839694656,-0.41259765625,-0.03125,-0.32958984375,1.1577
0.5038167938931297,1.4045801526717556,-1.6488549618320612,-0.41650390625,-0.028564453125,-0.329833984375,1.1594
0.5648854961832062,1.1145038167938932,-1.6030534351145038,-0.417236328125,-0.03125,-0.3232421875,1.1611
0.6870229007633588,1.4351145038167938,-1.6793893129770991,-0.413330078125,-0.03125,-0.33056640625,1.1627999999999998
0.8244274809160306,1.4198473282442747,-1.4961832061068703,-0.41455078125,-0.029052734375,-0.336181640625,1.1644999999999999
0.7633587786259542,1.3129770992366412,-1.5572519083969465,-0.41748046875,-0.03271484375,-0.339599609375,1.1662
0.6564885496183206,1.2213740458015268,-1.5877862595419847,-0.40869140625,-0.038818359375,-0.32373046875,1.1679
0.7938931297709924,1.3740458015267176,-1.4961832061068703,-0.41015625,-0.032470703125,-0.33154296875,1.1696
0.8244274809160306,1.4198473282442747,-1.465648854961832,-0.417236328125,-0.033447265625,-0.326904296875,1.1713
0.732824427480916,1.2213740458015268,-1.7557251908396947,-0.41455078125,-0.033203125,-0.332763671875,1.173
0.7786259541984732,1.3740458015267176,-1.7099236641221374,-0.415771484375,-0.029541015625,-0.333251953125,1.1746999999999999
0.5648854961832062,1.3893129770992367,-1.5267175572519085,-0.41650390625,-0.02880859375,-0.3359375,1.1764
0.732824427480916,1.3740458015267176,-1.4809160305343512,-0.4130859375,-0.0400390625,-0.3359375,1.1781
0.7786259541984732,1.4198473282442747,-1.6793893129770991,-0.416259765625,-0.03369140625,-0.33056640625,1.1798
0.9007633587786259,1.099236641221374,-1.5725190839694656,-0.4150390625,-0.035400390625,-0.32958984375,1.1815
0.8854961832061069,1.3282442748091603,-1.6488549618320612,-0.41357421875,-0.033447265625,-0.337890625,1.1832
1.0229007633587786,1.297709923664122,-1.4351145038167938,-0.411865234375,-0.039306640625,-0.332763671875,1.1848999999999998
1.0687022900763359,1.4809160305343512,-1.4809160305343512,-0.4150390625,-0.028076171875,-0.333251953125,1.1865999999999999
0.7175572519083969,1.465648854961832,-1.3282442748091603,-0.4189453125,-0.03271484375,-0.332275390625,1.1883
0.7022900763358778,1.3740458015267176,-1.3129770992366412,-0.41357421875,-0.036865234375,-0.33544921875,1.19
0.9312977099236641,1.5725190839694656,-1.5114503816793894,-0.418212890625,-0.0361328125,-0.336669921875,1.1917
1.083969465648855,1.3893129770992367,-1.450381679389313,-0.41748046875,-0.03515625,-0.333740234375,1.1934
0.9312977099236641,1.4961832061068703,-1.282442748091603,-0.414306640625,-0.032470703125,-0.3359375,1.1950999999999998
1.1755725190839694,1.3740458015267176,-1.3435114503816794,-0.417724609375,-0.037109375,-0.33203125,1.1967999999999999
1.2213740458015268,1.4351145038167938,-1.3435114503816794,-0.41845703125,-0.032958984375,-0.336181640625,1.1985
0.9770992366412213,1.1603053435114503,-1.2213740458015268,-0.418212890625,-0.037109375,-0.333251953125,1.2002
1.083969465648855,1.2061068702290076,-1.2671755725190839,-0.414794921875,-0.03369140625,-0.32763671875,1.2019
1.0076335877862594,1.3129770992366412,-1.4809160305343512,-0.4150390625,-0.03564453125,-0.334716796875,1.2036
1.0229007633587786,1.3893129770992367,-1.083969465648855,-0.4130859375,-0.033935546875,-0.330078125,1.2053
1.1755725190839694,1.3740458015267176,-1.1603053435114503,-0.422119140625,-0.034912109375,-0.3349609375,1.2069999999999999
1.0687022900763359,1.465648854961832,-1.297709923664122,-0.417236328125,-0.03662109375,-0.3291015625,1.2086999999999999
1.0076335877862594,1.1450381679389312,-1.5877862595419847,-0.413818359375,-0.03271484375,-0.330078125,1.2104
1.0687022900763359,1.1603053435114503,-1.3893129770992367,-0.4150390625,-0.031005859375,-0.33251953125,1.2121
1.3893129770992367,1.4045801526717556,-1.3893129770992367,-0.415283203125,-0.033203125,-0.3388671875,1.2138
1.083969465648855,1.3282442748091603,-1.2366412213740459,-0.415771484375,-0.03515625,-0.32861328125,1.2155
1.1603053435114503,1.3893129770992367,-1.3587786259541985,-0.414794921875,-0.033447265625,-0.324951171875,1.2171999999999998
1.0076335877862594,1.3129770992366412,-1.297709923664122,-0.418701171875,-0.03271484375,-0.336181640625,1.2188999999999999
1.1755725190839694,1.3740458015267176,-1.3587786259541985,-0.41748046875,-0.033447265625,-0.327880859375,1.2206
0.8702290076335878,1.3893129770992367,-1.1145038167938932,-0.41748046875,-0.040283203125,-0.332275390625,1.2223
0.8549618320610687,1.4351145038167938,-1.4045801526717556,-0.417236328125,-0.031494140625,-0.33740234375,1.224
1.2213740458015268,1.3740458015267176,-1.2061068702290076,-0.42138671875,-0.029052734375,-0.327880859375,1.2257
1.2366412213740459,1.4961832061068703,-1.3740458015267176,-0.419677734375,-0.033935546875,-0.337646484375,1.2273999999999998
0.9007633587786259,1.450381679389313,-1.1145038167938932,-0.41455078125,-0.02978515625,-0.335693359375,1.2290999999999999
0.9465648854961832,1.4198473282442747,-1.3893129770992367,-0.415283203125,-0.033935546875,-0.32568359375,1.2308
1.099236641221374,1.465648854961832,-1.1603053435114503,-0.416259765625,-0.03564453125,-0.3310546875,1.2325
1.2366412213740459,1.7404580152671756,-1.2366412213740459,-0.416015625,-0.029541015625,-0.3330078125,1.2342
1.0229007633587786,1.450381679389313,-1.251908396946565,-0.418701171875,-0.037109375,-0.326416015625,1.2359
0.8854961832061069,1.6488549618320612,-1.2671755725190839,-0.4169921875,-0.034423828125,-0.33251953125,1.2376
0.916030534351145,1.5419847328244274,-1.465648854961832,-0.416748046875,-0.03173828125,-0.3369140625,1.2392999999999998
1.0381679389312977,1.4198473282442747,-1.3435114503816794,-0.4169921875,-0.037841796875,-0.32373046875,1.2409999999999999
0.9923664122137404,1.5419847328244274,-1.3435114503816794,-0.416748046875,-0.03955078125,-0.326904296875,1.2427
1.0229007633587786,1.5114503816793894,-1.3129770992366412,-0.420654296875,-0.0361328125,-0.3203125,1.2444
1.0534351145038168,1.3893129770992367,-1.3587786259541985,-0.419677734375,-0.0390625,-0.330322265625,1.2461
1.0534351145038168,1.6793893129770991,-1.4351145038167938,-0.418701171875,-0.04052734375,-0.33056640625,1.2478
0.8549618320610687,1.5725190839694656,-1.282442748091603,-0.4140625,-0.03564453125,-0.332275390625,1.2494999999999998
0.9618320610687023,1.5877862595419847,-1.297709923664122,-0.41845703125,-0.03857421875,-0.3369140625,1.2511999999999999
1.0229007633587786,1.618320610687023,-1.2671755725190839,-0.41748046875,-0.03662109375,-0.327880859375,1.2529
0.9618320610687023,1.7709923664122138,-1.465648854961832,-0.416259765625,-0.036376953125,-0.329345703125,1.2546
0.6412213740458015,1.7251908396946565,-1.4961832061068703,-0.416015625,-0.034912109375,-0.33935546875,1.2563
0.916030534351145,1.5572519083969465,-1.297709923664122,-0.414794921875,-0.03759765625,-0.33349609375,1.258
0.9923664122137404,1.9083969465648856,-1.3282442748091603,-0.419189453125,-0.03857421875,-0.333984375,1.2596999999999998
0.7633587786259542,1.9694656488549618,-1.3435114503816794,-0.42041015625,-0.031982421875,-0.33349609375,1.2613999999999999
0.6259541984732825,2.015267175572519,-1.450381679389313,-0.41357421875,-0.040771484375,-0.32373046875,1.2631
0.7022900763358778,2.198473282442748,-1.3740458015267176,-0.41455078125,-0.03955078125,-0.328857421875,1.2648
0.7938931297709924,1.9236641221374047,-1.0076335877862594,-0.416259765625,-0.04248046875,-0.323974609375,1.2665
0.8244274809160306,2.1068702290076335,-1.282442748091603,-0.422607421875,-0.036376953125,-0.3310546875,1.2682
0.549618320610687,2.045801526717557,-1.297709923664122,-0.416015625,-0.033447265625,-0.328857421875,1.2699
0.5190839694656488,2.0,-1.2671755725190839,-0.415771484375,-0.03369140625,-0.328369140625,1.2715999999999998
0.183206106870229,2.0,-1.251908396946565,-0.4150390625,-0.03662109375,-0.3271484375,1.2732999999999999
0.42748091603053434,2.0763358778625953,-1.2671755725190839,-0.41796875,-0.04345703125,-0.325927734375,1.275
0.7175572519083969,2.0916030534351147,-1.1755725190839694,-0.4150390625,-0.03466796875,-0.333984375,1.2767
0.5038167938931297,2.045801526717557,-1.2366412213740459,-0.411376953125,-0.033935546875,-0.327880859375,1.2784
0.5954198473282443,2.0763358778625953,-1.083969465648855,-0.412109375,-0.034912109375,-0.336669921875,1.2801
0.44274809160305345,1.9541984732824427,-1.1755725190839694,-0.41259765625,-0.037353515625,-0.33740234375,1.2817999999999998
0.12213740458015267,2.0,-1.1145038167938932,-0.419921875,-0.044189453125,-0.325927734375,1.2834999999999999
0.3816793893129771,2.1068702290076335,-1.1603053435114503,-0.415283203125,-0.0380859375,-0.341796875,1.2852
0.3816793893129771,1.8473282442748091,-1.1450381679389312,-0.420166015625,-0.040771484375,-0.331298828125,1.2869
0.24427480916030533,1.8015267175572518,-1.2213740458015268,-0.424560546875,-0.04150390625,-0.32958984375,1.2886
0.21374045801526717,1.7251908396946565,-1.1297709923664123,-0.4189453125,-0.038330078125,-0.32958984375,1.2903
0.366412213740458,1.816793893129771,-1.0076335877862594,-0.4140625,-0.03759765625,-0.324951171875,1.292
0.24427480916030533,1.9083969465648856,-1.0076335877862594,-0.415771484375,-0.033203125,-0.335693359375,1.2936999999999999
0.10687022900763359,1.83206106870229,-0.9770992366412213,-0.41552734375,-0.03515625,-0.3310546875,1.2953999999999999
0.2595419847328244,1.816793893129771,-1.1755725190839694,-0.415283203125,-0.035888671875,-0.342529296875,1.2971
0.13740458015267176,1.8931297709923665,-1.083969465648855,-0.41748046875,-0.030517578125,-0.335693359375,1.2988
0.21374045801526717,2.0916030534351147,-1.1603053435114503,-0.419189453125,-0.03271484375,-0.3388671875,1.3005
0.3969465648854962,2.0610687022900764,-1.0381679389312977,-0.420166015625,-0.035888671875,-0.33544921875,1.3022
0.183206106870229,1.8625954198473282,-1.083969465648855,-0.412353515625,-0.033935546875,-0.3388671875,1.3038999999999998
0.24427480916030533,2.0,-1.1450381679389312,-0.411865234375,-0.03564453125,-0.341552734375,1.3055999999999999
0.183206106870229,1.8778625954198473,-1.3587786259541985,-0.413330078125,-0.03466796875,-0.33642578125,1.3073
0.16793893129770993,1.7251908396946565,-1.297709923664122,-0.40966796875,-0.034423828125,-0.331787109375,1.309
0.2900763358778626,1.6946564885496183,-1.3587786259541985,-0.414794921875,-0.030029296875,-0.328125,1.3107
0.3511450381679389,1.7557251908396947,-1.3282442748091603,-0.40966796875,-0.033203125,-0.334228515625,1.3124
0.5038167938931297,1.5725190839694656,-1.2671755725190839,-0.406494140625,-0.037109375,-0.330810546875,1.3140999999999998
0.15267175572519084,1.8015267175572518,-1.282442748091603,-0.412353515625,-0.035888671875,-0.331298828125,1.3157999999999999
0.3053435114503817,1.9236641221374047,-1.5419847328244274,-0.4140625,-0.034423828125,-0.324951171875,1.3175
0.21374045801526717,1.7709923664122138,-1.3435114503816794,-0.41943359375,-0.037109375,-0.32177734375,1.3192
0.2748091603053435,1.8625954198473282,-1.1908396946564885,-0.417724609375,-0.0302734375,-0.328369140625,1.3209
0.48854961832061067,1.786259541984733,-1.4198473282442747,-0.40625,-0.03466796875,-0.34033203125,1.3226
0.3816793893129771,1.6030534351145038,-1.5725190839694656,-0.4130859375,-0.03466796875,-0.323486328125,1.3243
0.2595419847328244,1.5877862595419847,-1.2366412213740459,-0.4130859375,-0.030517578125,-0.34130859375,1.3259999999999998
0.10687022900763359,1.5877862595419847,-1.4198473282442747,-0.415771484375,-0.03271484375,-0.32861328125,1.3276999999999999
0.22900763358778625,1.6488549618320612,-1.4351145038167938,-0.411376953125,-0.032470703125,-0.33056640625,1.3294
0.015267175572519083,1.4961832061068703,-1.4961832061068703,-0.41357421875,-0.031494140625,-0.333251953125,1.3311
0.1984732824427481,1.465648854961832,-1.465648854961832,-0.414306640625,-0.034423828125,-0.33837890625,1.3328
0.4580152671755725,1.4961832061068703,-1.4961832061068703,-0.412109375,-0.029052734375,-0.330322265625,1.3345
-0.030534351145038167,1.4961832061068703,-1.4198473282442747,-0.41845703125,-0.036376953125,-0.3447265625,1.3361999999999998
0.061068702290076333,1.4961832061068703,-1.4351145038167938,-0.414794921875,-0.03125,-0.33642578125,1.3378999999999999
0.4580152671755725,1.5114503816793894,-1.4961832061068703,-0.411865234375,-0.031494140625,-0.335205078125,1.3396
0.3511450381679389,1.4809160305343512,-1.4198473282442747,-0.418212890625,-0.026123046875,-0.339599609375,1.3413
0.13740458015267176,1.4198473282442747,-1.5725190839694656,-0.419921875,-0.02783203125,-0.331787109375,1.343
0.2748091603053435,1.4961832061068703,-1.6793893129770991,-0.42333984375,-0.03466796875,-0.34033203125,1.3447
0.366412213740458,1.3129770992366412,-1.5419847328244274,-0.41943359375,-0.029541015625,-0.331787109375,1.3463999999999998
0.22900763358778625,1.297709923664122,-1.5725190839694656,-0.412841796875,-0.027099609375,-0.338134765625,1.3480999999999999
0.3969465648854962,1.3740458015267176,-1.4961832061068703,-0.414306640625,-0.032470703125,-0.3310546875,1.3497999999999999
0.44274809160305345,1.282442748091603,-1.6793893129770991,-0.419677734375,-0.03515625,-0.33544921875,1.3515
0.4580152671755725,1.5114503816793894,-1.465648854961832,-0.41943359375,-0.035888671875,-0.332275390625,1.3532
0.5343511450381679,1.282442748091603,-1.6946564885496183,-0.416748046875,-0.03515625,-0.332763671875,1.3549
0.21374045801526717,1.465648854961832,-1.6946564885496183,-0.41162109375,-0.033447265625,-0.336669921875,1.3566
0.33587786259541985,1.4809160305343512,-1.6641221374045803,-0.413818359375,-0.028076171875,-0.33837890625,1.3582999999999998
0.4732824427480916,1.4198473282442747,-1.6030534351145038,-0.417236328125,-0.03271484375,-0.340087890625,1.3599999999999999
0.5038167938931297,1.251908396946565,-1.5572519083969465,-0.41455078125,-0.032470703125,-0.334716796875,1.3617
0.8396946564885496,1.3129770992366412,-1.5877862595419847,-0.4228515625,-0.03466796875,-0.335693359375,1.3634
0.42748091603053434,1.297709923664122,-1.5572519083969465,-0.41650390625,-0.030029296875,-0.333251953125,1.3651
0.6259541984732825,1.297709923664122,-1.7557251908396947,-0.416748046875,-0.03076171875,-0.331298828125,1.3668
0.7175572519083969,1.251908396946565,-1.9236641221374047,-0.415771484375,-0.0283203125,-0.334228515625,1.3684999999999998
0.7022900763358778,1.0534351145038168,-1.5114503816793894,-0.416015625,-0.032958984375,-0.33544921875,1.3701999999999999
0.9312977099236641,1.1145038167938932,-1.9541984732824427,-0.411865234375,-0.03173828125,-0.33154296875,1.3719
0.8091603053435115,1.0381679389312977,-1.9236641221374047,-0.416015625,-0.0322265625,-0.327880859375,1.3736
1.0381679389312977,0.8549618320610687,-2.122137404580153,-0.412353515625,-0.03662109375,-0.332275390625,1.3753
1.297709923664122,0.7175572519083969,-2.183206106870229,-0.416259765625,-0.03271484375,-0.3349609375,1.377
1.1603053435114503,1.0687022900763359,-2.1526717557251906,-0.4140625,-0.0322265625,-0.3310546875,1.3786999999999998
1.099236641221374,0.8702290076335878,-2.0,-0.41650390625,-0.031982421875,-0.335205078125,1.3803999999999998
1.3129770992366412,0.8244274809160306,-2.2748091603053435,-0.409912109375,-0.030517578125,-0.325439453125,1.3820999999999999
1.465648854961832,0.8091603053435115,-2.1374045801526718,-0.4169921875,-0.03173828125,-0.324951171875,1.3838
1.4045801526717556,0.8854961832061069,-2.1526717557251906,-0.415771484375,-0.0322265625,-0.334228515625,1.3855
1.3587786259541985,0.7633587786259542,-2.045801526717557,-0.416015625,-0.029541015625,-0.330078125,1.3872
1.2671755725190839,0.9465648854961832,-2.2748091603053435,-0.413818359375,-0.029541015625,-0.33740234375,1.3889
1.5572519083969465,1.0687022900763359,-2.198473282442748,-0.41357421875,-0.039306640625,-0.33349609375,1.3905999999999998
1.4809160305343512,0.8854961832061069,-2.16793893129771,-0.418701171875,-0.038330078125,-0.342529296875,1.3922999999999999
1.4198473282442747,1.0534351145038168,-2.0763358778625953,-0.420166015625,-0.034912109375,-0.32568359375,1.394
1.5267175572519085,0.9465648854961832,-1.9694656488549618,-0.416015625,-0.03515625,-0.3271484375,1.3957
1.4809160305343512,1.2671755725190839,-1.7251908396946565,-0.414306640625,-0.038330078125,-0.3359375,1.3974
1.6030534351145038,1.2366412213740459,-1.7557251908396947,-0.4150390625,-0.0322265625,-0.33154296875,1.3991
1.4961832061068703,1.2366412213740459,-1.6030534351145038,-0.412109375,-0.033935546875,-0.341552734375,1.4007999999999998
1.6030534351145038,1.1145038167938932,-1.8473282442748091,-0.418212890625,-0.03515625,-0.33447265625,1.4024999999999999
1.633587786259542,1.2213740458015268,-1.5572519083969465,-0.413330078125,-0.039794921875,-0.339111328125,1.4042
1.633587786259542,1.1603053435114503,-1.5114503816793894,-0.418212890625,-0.04150390625,-0.33837890625,1.4059
1.5419847328244274,1.083969465648855,-1.5114503816793894,-0.417724609375,-0.02978515625,-0.337890625,1.4076
1.5419847328244274,1.3282442748091603,-1.633587786259542,-0.412109375,-0.035888671875,-0.330078125,1.4093
1.5725190839694656,1.1297709923664123,-1.4961832061068703,-0.4140625,-0.03076171875,-0.33251953125,1.411
1.6641221374045803,0.9770992366412213,-1.6488549618320612,-0.411865234375,-0.0390625,-0.33447265625,1.4126999999999998
1.633587786259542,0.8396946564885496,-1.5267175572519085,-0.408447265625,-0.035888671875,-0.33203125,1.4143999999999999
1.4198473282442747,1.1908396946564885,-1.3740458015267176,-0.41455078125,-0.035400390625,-0.330322265625,1.4161
1.4961832061068703,1.3893129770992367,-1.1755725190839694,-0.411376953125,-0.032958984375,-0.33203125,1.4178
1.5267175572519085,1.0229007633587786,-1.2366412213740459,-0.416015625,-0.035888671875,-0.331787109375,1.4195
1.5114503816793894,1.099236641221374,-1.1297709923664123,-0.416748046875,-0.031982421875,-0.33837890625,1.4212
1.633587786259542,1.099236641221374,-1.3435114503816794,-0.416748046875,-0.031494140625,-0.341064453125,1.4228999999999998
1.6488549618320612,1.1908396946564885,-1.0534351145038168,-0.41650390625,-0.033203125,-0.337646484375,1.4245999999999999
1.3587786259541985,0.9618320610687023,-0.9312977099236641,-0.414794921875,-0.03662109375,-0.338623046875,1.4263
1.465648854961832,1.2213740458015268,-1.0381679389312977,-0.416748046875,-0.03955078125,-0.330078125,1.428
1.5114503816793894,1.1145038167938932,-1.083969465648855,-0.413818359375,-0.031982421875,-0.332275390625,1.4297
1.5114503816793894,0.8854961832061069,-0.8396946564885496,-0.415771484375,-0.041259765625,-0.322021484375,1.4314
1.7709923664122138,1.1908396946564885,-0.8244274809160306,-0.414794921875,-0.03564453125,-0.32861328125,1.4330999999999998
1.7404580152671756,1.0534351145038168,-0.8396946564885496,-0.417724609375,-0.037841796875,-0.3359375,1.4347999999999999
1.5725190839694656,1.0534351145038168,-0.916030534351145,-0.41259765625,-0.0341796875,-0.33740234375,1.4364999999999999
1.6488549618320612,1.0229007633587786,-0.8244274809160306,-0.4091796875,-0.034912109375,-0.3408203125,1.4382
1.6641221374045803,0.8702290076335878,-0.7175572519083969,-0.415771484375,-0.040771484375,-0.31787109375,1.4399
1.633587786259542,0.8854961832061069,-0.9007633587786259,-0.4130859375,-0.031982421875,-0.333251953125,1.4416
1.6946564885496183,0.7938931297709924,-0.7633587786259542,-0.415771484375,-0.04052734375,-0.328857421875,1.4433
1.5725190839694656,0.9923664122137404,-0.8854961832061069,-0.41552734375,-0.0361328125,-0.3251953125,1.4449999999999998
1.633587786259542,0.9618320610687023,-0.8854961832061069,-0.41748046875,-0.030517578125,-0.328125,1.4466999999999999
1.6030534351145038,0.8549618320610687,-0.8702290076335878,-0.408935546875,-0.033935546875,-0.335693359375,1.4484
1.816793893129771,0.732824427480916,-0.7480916030534351,-0.412353515625,-0.033935546875,-0.32861328125,1.4501
1.5419847328244274,0.9007633587786259,-0.8854961832061069,-0.414794921875,-0.036865234375,-0.329833984375,1.4518
1.465648854961832,0.9770992366412213,-0.8244274809160306,-0.414306640625,-0.0361328125,-0.33251953125,1.4535
1.465648854961832,0.7786259541984732,-0.732824427480916,-0.411865234375,-0.034912109375,-0.333740234375,1.4551999999999998
1.4809160305343512,0.7633587786259542,-0.7633587786259542,-0.412353515625,-0.041748046875,-0.325927734375,1.4568999999999999
1.6793893129770991,0.6717557251908397,-0.9007633587786259,-0.4169921875,-0.0380859375,-0.3330078125,1.4586
1.297709923664122,0.6106870229007634,-0.7938931297709924,-0.415283203125,-0.03662109375,-0.328857421875,1.4603
1.4351145038167938,0.7786259541984732,-0.8702290076335878,-0.41015625,-0.037109375,-0.330810546875,1.462
1.450381679389313,0.5648854961832062,-0.9770992366412213,-0.41552734375,-0.037841796875,-0.340087890625,1.4637
1.3282442748091603,0.8091603053435115,-0.8091603053435115,-0.41650390625,-0.038818359375,-0.327880859375,1.4653999999999998
1.1908396946564885,0.7480916030534351,-0.9618320610687023,-0.414306640625,-0.0361328125,-0.332275390625,1.4670999999999998
1.1145038167938932,0.9618320610687023,-1.1145038167938932,-0.412841796875,-0.034912109375,-0.33154296875,1.4687999999999999
1.1755725190839694,0.8854961832061069,-1.0229007633587786,-0.412109375,-0.04052734375,-0.32568359375,1.4705
1.1450381679389312,0.916030534351145,-0.9465648854961832,-0.4111328125,-0.0400390625,-0.336181640625,1.4722
0.9770992366412213,0.9618320610687023,-1.0076335877862594,-0.4169921875,-0.042724609375,-0.3388671875,1.4739
0.8854961832061069,1.0381679389312977,-0.8854961832061069,-0.4208984375,-0.0390625,-0.331787109375,1.4756
0.8244274809160306,0.8854961832061069,-1.0381679389312977,-0.417724609375,-0.0390625,-0.328125,1.4772999999999998
0.7022900763358778,0.9923664122137404,-1.0381679389312977,-0.4189453125,-0.034912109375,-0.336669921875,1.4789999999999999
0.5190839694656488,1.4351145038167938,-0.8396946564885496,-0.417236328125,-0.036865234375,-0.327880859375,1.4807
0.5190839694656488,1.0229007633587786,-1.099236641221374,-0.4140625,-0.040283203125,-0.325927734375,1.4824
0.5038167938931297,1.251908396946565,-1.1450381679389312,-0.414794921875,-0.032958984375,-0.328369140625,1.4841
0.5343511450381679,1.5419847328244274,-1.0534351145038168,-0.417724609375,-0.034912109375,-0.333740234375,1.4858
0.2900763358778626,1.2671755725190839,-0.9465648854961832,-0.41650390625,-0.03466796875,-0.3330078125,1.4874999999999998
0.4122137404580153,1.3587786259541985,-1.1297709923664123,-0.418212890625,-0.0341796875,-0.338134765625,1.4891999999999999
0.44274809160305345,1.5267175572519085,-0.9770992366412213,-0.4189453125,-0.037109375,-0.331298828125,1.4909
0.21374045801526717,1.4809160305343512,-1.2061068702290076,-0.418701171875,-0.03515625,-0.3349609375,1.4926
0.015267175572519083,1.633587786259542,-1.3129770992366412,-0.414794921875,-0.04150390625,-0.335693359375,1.4943
0.015267175572519083,1.4961832061068703,-1.2061068702290076,-0.4150390625,-0.039794921875,-0.3251953125,1.496
0.061068702290076333,1.5572519083969465,-1.2366412213740459,-0.42041015625,-0.038818359375,-0.32861328125,1.4976999999999998
0.13740458015267176,1.6946564885496183,-1.3893129770992367,-0.4189453125,-0.033447265625,-0.330322265625,1.4993999999999998
-0.16793893129770993,1.618320610687023,-1.2061068702290076,-0.41845703125,-0.037109375,-0.337158203125,1.5010999999999999
-0.13740458015267176,1.7099236641221374,-1.297709923664122,-0.4208984375,-0.033447265625,-0.3388671875,1.5028
0.015267175572519083,1.6946564885496183,-1.3435114503816794,-0.420166015625,-0.037841796875,-0.331787109375,1.5045
-0.3816793893129771,1.7099236641221374,-1.3282442748091603,-0.416015625,-0.0361328125,-0.335205078125,1.5062
-0.15267175572519084,1.7404580152671756,-1.4351145038167938,-0.419189453125,-0.04296875,-0.3251953125,1.5079
-0.5038167938931297,1.9694656488549618,-1.4198473282442747,-0.4130859375,-0.038818359375,-0.333984375,1.5095999999999998
-0.5038167938931297,1.6793893129770991,-1.4198473282442747,-0.415771484375,-0.03466796875,-0.3427734375,1.5112999999999999
-0.6259541984732825,1.7557251908396947,-1.3893129770992367,-0.414306640625,-0.032958984375,-0.330810546875,1.513
-0.5648854961832062,1.633587786259542,-1.3587786259541985,-0.415283203125,-0.03466796875,-0.337890625,1.5147
-0.5343511450381679,1.8015267175572518,-1.5877862595419847,-0.4169921875,-0.034912109375,-0.33251953125,1.5164
-0.732824427480916,1.7557251908396947,-1.5725190839694656,-0.419189453125,-0.03662109375,-0.337158203125,1.5181
-0.6870229007633588,1.5419847328244274,-1.6641221374045803,-0.413818359375,-0.035400390625,-0.3291015625,1.5197999999999998
-0.6717557251908397,1.6793893129770991,-1.633587786259542,-0.416015625,-0.039306640625,-0.3310546875,1.5214999999999999
-0.7022900763358778,1.5725190839694656,-1.6030534351145038,-0.413330078125,-0.033935546875,-0.332763671875,1.5231999999999999
-0.5190839694656488,1.5877862595419847,-1.4045801526717556,-0.418212890625,-0.0361328125,-0.3310546875,1.5249
-0.7175572519083969,1.6030534351145038,-1.6488549618320612,-0.41259765625,-0.03564453125,-0.3330078125,1.5266
-0.5648854961832062,1.5114503816793894,-1.633587786259542,-0.411865234375,-0.03076171875,-0.3359375,1.5283
-0.5343511450381679,1.3893129770992367,-1.83206106870229,-0.411865234375,-0.032470703125,-0.331298828125,1.5299999999999998
-0.48854961832061067,1.465648854961832,-1.816793893129771,-0.413330078125,-0.034423828125,-0.3310546875,1.5316999999999998
-0.5648854961832062,1.3740458015267176,-1.9236641221374047,-0.4130859375,-0.03515625,-0.327392578125,1.5333999999999999
-0.4580152671755725,1.4961832061068703,-1.8625954198473282,-0.414794921875,-0.03271484375,-0.326416015625,1.5351
-0.366412213740458,1.5267175572519085,-1.8015267175572518,-0.41259765625,-0.03125,-0.330810546875,1.5368
-0.4732824427480916,1.450381679389313,-1.7251908396946565,-0.4169921875,-0.038818359375,-0.340087890625,1.5385
-0.549618320610687,1.4351145038167938,-1.83206106870229,-0.41259765625,-0.03515625,-0.333251953125,1.5402
-0.5038167938931297,1.3129770992366412,-1.8015267175572518,-0.41455078125,-0.0283203125,-0.327880859375,1.5418999999999998
-0.42748091603053434,1.4198473282442747,-1.9389312977099236,-0.413330078125,-0.035888671875,-0.341064453125,1.5435999999999999
-0.183206106870229,1.3435114503816794,-1.9541984732824427,-0.414306640625,-0.032958984375,-0.329833984375,1.5453
-0.24427480916030533,1.2671755725190839,-2.2595419847328246,-0.415283203125,-0.030517578125,-0.333740234375,1.547
-0.2900763358778626,1.0381679389312977,-1.8625954198473282,-0.4169921875,-0.032958984375,-0.329833984375,1.5487
-0.04580152671755725,1.297709923664122,-1.816793893129771,-0.41845703125,-0.032470703125,-0.3349609375,1.5504
-0.04580152671755725,1.2366412213740459,-1.8625954198473282,-0.413330078125,-0.0283203125,-0.332763671875,1.5520999999999998
-0.32061068702290074,1.297709923664122,-1.9236641221374047,-0.41943359375,-0.0283203125,-0.33056640625,1.5537999999999998
-0.183206106870229,1.083969465648855,-1.9083969465648856,-0.414306640625,-0.02490234375,-0.32763671875,1.5554999999999999
0.0916030534351145,1.282442748091603,-1.786259541984733,-0.42138671875,-0.031494140625,-0.330810546875,1.5572
0.04580152671755725,1.297709923664122,-1.8625954198473282,-0.419921875,-0.02978515625,-0.332763671875,1.5589
-0.04580152671755725,1.1908396946564885,-1.7404580152671756,-0.4150390625,-0.033935546875,-0.337646484375,1.5606
0.061068702290076333,1.1908396946564885,-1.9236641221374047,-0.419921875,-0.0322265625,-0.3359375,1.5623
0.061068702290076333,1.4045801526717556,-1.83206106870229,-0.420654296875,-0.034423828125,-0.33642578125,1.5639999999999998
0.030534351145038167,1.5725190839694656,-1.5725190839694656,-0.409423828125,-0.035400390625,-0.33447265625,1.5656999999999999
-0.12213740458015267,1.618320610687023,-1.4961832061068703,-0.41552734375,-0.03662109375,-0.34521484375,1.5674
0.2595419847328244,1.6641221374045803,-1.633587786259542,-0.4189453125,-0.03173828125,-0.3330078125,1.5691
0.030534351145038167,1.7404580152671756,-1.3893129770992367,-0.412353515625,-0.030029296875,-0.332275390625,1.5708
0.15267175572519084,1.8015267175572518,-1.3282442748091603,-0.416748046875,-0.029541015625,-0.326416015625,1.5725
0.12213740458015267,1.8931297709923665,-1.4045801526717556,-0.41357421875,-0.03125,-0.338623046875,1.5741999999999998
0.16793893129770993,1.83206106870229,-1.5419847328244274,-0.416259765625,-0.031005859375,-0.333251953125,1.5758999999999999
0.061068702290076333,1.9236641221374047,-1.5572519083969465,-0.41796875,-0.0322265625,-0.333251953125,1.5776
0.22900763358778625,1.786259541984733,-1.465648854961832,-0.415771484375,-0.03173828125,-0.340087890625,1.5793
0.6106870229007634,1.8015267175572518,-1.4809160305343512,-0.413818359375,-0.030029296875,-0.33203125,1.581
0.549618320610687,1.618320610687023,-1.3282442748091603,-0.41064453125,-0.02978515625,-0.326904296875,1.5827
0.42748091603053434,1.6030534351145038,-1.4961832061068703,-0.4140625,-0.0283203125,-0.3330078125,1.5843999999999998
0.5190839694656488,1.6641221374045803,-1.5725190839694656,-0.41796875,-0.0322265625,-0.33642578125,1.5860999999999998
0.8549618320610687,1.7099236641221374,-1.3435114503816794,-0.41650390625,-0.030517578125,-0.337158203125,1.5877999999999999
0.7175572519083969,1.3587786259541985,-1.5572519083969465,-0.41259765625,-0.025146484375,-0.332275390625,1.5895
0.9007633587786259,1.6488549618320612,-1.5725190839694656,-0.413330078125,-0.030029296875,-0.3291015625,1.5912
0.9618320610687023,1.7251908396946565,-1.6641221374045803,-0.416748046875,-0.029541015625,-0.3388671875,1.5929
0.9770992366412213,1.3129770992366412,-1.4809160305343512,-0.416259765625,-0.02685546875,-0.327880859375,1.5946
0.9465648854961832,1.4045801526717556,-1.4351145038167938,-0.417724609375,-0.02587890625,-0.326416015625,1.5962999999999998
1.2366412213740459,1.4809160305343512,-1.633587786259542,-0.416259765625,-0.02880859375,-0.333740234375,1.5979999999999999
1.4351145038167938,1.633587786259542,-1.7557251908396947,-0.415771484375,-0.029052734375,-0.330078125,1.5997
1.3740458015267176,1.3129770992366412,-1.5877862595419847,-0.418701171875,-0.029296875,-0.325439453125,1.6014
1.297709923664122,1.1908396946564885,-1.5572519083969465,-0.419921875,-0.0302734375,-0.331787109375,1.6031
1.4198473282442747,1.282442748091603,-1.6793893129770991,-0.41552734375,-0.032958984375,-0.337158203125,1.6048
1.6488549618320612,1.1908396946564885,-1.6793893129770991,-0.412109375,-0.030517578125,-0.33837890625,1.6064999999999998
1.5572519083969465,1.1450381679389312,-1.5572519083969465,-0.4140625,-0.032958984375,-0.33349609375,1.6081999999999999
1.5267175572519085,1.465648854961832,-1.6793893129770991,-0.41162109375,-0.03515625,-0.331787109375,1.6098999999999999
1.7404580152671756,1.4351145038167938,-1.5419847328244274,-0.417236328125,-0.031494140625,-0.340087890625,1.6116
1.7251908396946565,1.0381679389312977,-1.8015267175572518,-0.41552734375,-0.035400390625,-0.332275390625,1.6133
1.7404580152671756,1.1145038167938932,-1.5725190839694656,-0.411865234375,-0.0341796875,-0.339111328125,1.615
1.6641221374045803,1.3282442748091603,-1.3282442748091603,-0.4140625,-0.03564453125,-0.338623046875,1.6166999999999998
1.6488549618320612,1.251908396946565,-1.2671755725190839,-0.41357421875,-0.036376953125,-0.336669921875,1.6183999999999998
1.83206106870229,1.1145038167938932,-1.2671755725190839,-0.413818359375,-0.036376953125,-0.325927734375,1.6200999999999999
1.7251908396946565,1.1450381679389312,-1.282442748091603,-0.41748046875,-0.03369140625,-0.335205078125,1.6218
1.8625954198473282,0.9465648854961832,-1.3893129770992367,-0.416748046875,-0.033935546875,-0.333984375,1.6235
1.8625954198473282,1.0076335877862594,-1.3435114503816794,-0.410888671875,-0.035888671875,-0.33447265625,1.6252
1.8931297709923665,1.1755725190839694,-1.465648854961832,-0.4169921875,-0.037353515625,-0.330078125,1.6269
1.7709923664122138,0.9465648854961832,-1.2671755725190839,-0.416259765625,-0.039794921875,-0.336181640625,1.6285999999999998
1.6946564885496183,1.0229007633587786,-1.1755725190839694,-0.412353515625,-0.0390625,-0.32763671875,1.6302999999999999
1.8015267175572518,0.9618320610687023,-1.1908396946564885,-0.412353515625,-0.03369140625,-0.335205078125,1.632
1.6488549618320612,0.9618320610687023,-1.3587786259541985,-0.413818359375,-0.032958984375,-0.330810546875,1.6337
1.6946564885496183,1.251908396946565,-1.297709923664122,-0.41748046875,-0.0380859375,-0.337646484375,1.6354
1.83206106870229,1.099236641221374,-1.2213740458015268,-0.418212890625,-0.04052734375,-0.33154296875,1.6371
1.5725190839694656,1.0534351145038168,-1.0381679389312977,-0.4189453125,-0.03955078125,-0.3369140625,1.6387999999999998
1.5419847328244274,0.9007633587786259,-1.1908396946564885,-0.41552734375,-0.034423828125,-0.333984375,1.6404999999999998
1.618320610687023,0.9312977099236641,-1.2061068702290076,-0.41650390625,-0.033935546875,-0.328125,1.6421999999999999
1.5114503816793894,1.0687022900763359,-1.297709923664122,-0.41796875,-0.034423828125,-0.325439453125,1.6439
1.5267175572519085,1.2366412213740459,-1.0534351145038168,-0.415771484375,-0.034912109375,-0.333984375,1.6456
1.618320610687023,1.1450381679389312,-1.0076335877862594,-0.418212890625,-0.038330078125,-0.333251953125,1.6473
1.4198473282442747,1.1755725190839694,-1.099236641221374,-0.4169921875,-0.037353515625,-0.335693359375,1.6489999999999998
1.3282442748091603,0.9312977099236641,-1.2061068702290076,-0.416748046875,-0.033203125,-0.3291015625,1.6506999999999998
1.2366412213740459,1.083969465648855,-1.251908396946565,-0.4189453125,-0.034423828125,-0.3359375,1.6523999999999999
1.3740458015267176,1.1145038167938932,-1.099236641221374,-0.41796875,-0.033935546875,-0.337158203125,1.6541
1.2061068702290076,0.8396946564885496,-1.1603053435114503,-0.41748046875,-0.037353515625,-0.33251953125,1.6558
1.3587786259541985,1.1145038167938932,-1.1450381679389312,-0.415283203125,-0.033935546875,-0.335693359375,1.6575
1.4809160305343512,0.9618320610687023,-1.1145038167938932,-0.4150390625,-0.035400390625,-0.337890625,1.6592
1.5419847328244274,1.083969465648855,-1.099236641221374,-0.41015625,-0.03173828125,-0.333251953125,1.6608999999999998
1.4351145038167938,0.9312977099236641,-1.1755725190839694,-0.41015625,-0.036865234375,-0.334228515625,1.6625999999999999
1.1145038167938932,1.0229007633587786,-1.3587786259541985,-0.41455078125,-0.038330078125,-0.332275390625,1.6643
1.3129770992366412,1.0687022900763359,-1.282442748091603,-0.4150390625,-0.032958984375,-0.32470703125,1.666
1.2061068702290076,0.9007633587786259,-1.450381679389313,-0.4150390625,-0.034423828125,-0.329833984375,1.6677
1.251908396946565,1.0229007633587786,-1.618320610687023,-0.4169921875,-0.03076171875,-0.33154296875,1.6694
1.3129770992366412,1.2366412213740459,-1.3282442748091603,-0.41796875,-0.037109375,-0.333984375,1.6710999999999998
0.9770992366412213,1.0381679389312977,-1.1297709923664123,-0.42236328125,-0.034423828125,-0.332275390625,1.6727999999999998
1.0381679389312977,0.9923664122137404,-1.4809160305343512,-0.41552734375,-0.037109375,-0.3369140625,1.6744999999999999
1.0534351145038168,1.1297709923664123,-1.450381679389313,-0.412841796875,-0.030517578125,-0.33203125,1.6762
1.0076335877862594,0.916030534351145,-1.5114503816793894,-0.4130859375,-0.037109375,-0.334228515625,1.6779
0.9618320610687023,0.8854961832061069,-1.297709923664122,-0.416259765625,-0.038818359375,-0.33544921875,1.6796
1.0229007633587786,0.9007633587786259,-1.5114503816793894,-0.419189453125,-0.032958984375,-0.331298828125,1.6813
0.5801526717557252,0.9465648854961832,-1.5114503816793894,-0.415771484375,-0.03466796875,-0.32470703125,1.6829999999999998
0.6870229007633588,0.9312977099236641,-1.5114503816793894,-0.41162109375,-0.027099609375,-0.328857421875,1.6846999999999999
0.9465648854961832,0.9618320610687023,-1.4351145038167938,-0.418212890625,-0.03466796875,-0.334716796875,1.6864
0.7633587786259542,0.8396946564885496,-1.5877862595419847,-0.4150390625,-0.03466796875,-0.326416015625,1.6881
0.6106870229007634,0.8091603053435115,-1.6641221374045803,-0.412109375,-0.038330078125,-0.338623046875,1.6898
0.7022900763358778,1.1908396946564885,-1.7251908396946565,-0.419921875,-0.04248046875,-0.329833984375,1.6915
0.5954198473282443,1.0534351145038168,-1.5877862595419847,-0.413330078125,-0.034423828125,-0.33154296875,1.6931999999999998
0.549618320610687,1.0381679389312977,-1.618320610687023,-0.415771484375,-0.033935546875,-0.3291015625,1.6948999999999999
0.5038167938931297,1.2366412213740459,-1.618320610687023,-0.4140625,-0.03955078125,-0.327392578125,1.6965999999999999
0.6870229007633588,1.1145038167938932,-1.465648854961832,-0.418701171875,-0.039794921875,-0.32568359375,1.6983
0.4732824427480916,1.1450381679389312,-1.4351145038167938,-0.416748046875,-0.036865234375,-0.3310546875,1.7
0.4580152671755725,1.2366412213740459,-1.450381679389313,-0.41748046875,-0.03955078125,-0.330078125,1.7017
0.2595419847328244,1.3129770992366412,-1.618320610687023,-0.411865234375,-0.03662109375,-0.333984375,1.7033999999999998
0.42748091603053434,1.083969465648855,-1.6793893129770991,-0.417724609375,-0.03564453125,-0.329833984375,1.7050999999999998
0.4580152671755725,1.2061068702290076,-1.6030534351145038,-0.417236328125,-0.0341796875,-0.327880859375,1.7067999999999999
0.2900763358778626,1.3435114503816794,-1.450381679389313,-0.416259765625,-0.03515625,-0.32421875,1.7085
0.183206106870229,1.4351145038167938,-1.5419847328244274,-0.414794921875,-0.03759765625,-0.334716796875,1.7102
0.2595419847328244,1.3893129770992367,-1.6641221374045803,-0.417236328125,-0.036376953125,-0.326171875,1.7119
0.2900763358778626,1.251908396946565,-1.6641221374045803,-0.41357421875,-0.033447265625,-0.32275390625,1.7136
0.07633587786259542,1.1297709923664123,-1.5419847328244274,-0.41455078125,-0.038330078125,-0.330322265625,1.7152999999999998
0.12213740458015267,1.3129770992366412,-1.7099236641221374,-0.411865234375,-0.03466796875,-0.330078125,1.7169999999999999
0.015267175572519083,1.4351145038167938,-1.5725190839694656,-0.410400390625,-0.029052734375,-0.328125,1.7187
0.1984732824427481,1.2061068702290076,-1.7557251908396947,-0.41455078125,-0.036376953125,-0.332763671875,1.7204
0.2900763358778626,1.3435114503816794,-1.6488549618320612,-0.41064453125,-0.03076171875,-0.340087890625,1.7221
0.3053435114503817,1.297709923664122,-1.7557251908396947,-0.411376953125,-0.029541015625,-0.33544921875,1.7238
0.030534351145038167,1.4351145038167938,-1.6946564885496183,-0.4130859375,-0.03125,-0.332763671875,1.7254999999999998
0.0,1.3129770992366412,-1.5419847328244274,-0.416015625,-0.0390625,-0.3388671875,1.7271999999999998
0.16793893129770993,1.3740458015267176,-1.618320610687023,-0.41650390625,-0.0380859375,-0.32861328125,1.7288999999999999
0.32061068702290074,1.251908396946565,-1.7251908396946565,-0.412109375,-0.03662109375,-0.333984375,1.7306
0.366412213740458,1.1297709923664123,-1.6793893129770991,-0.413818359375,-0.037353515625,-0.32958984375,1.7323
0.3053435114503817,1.0687022900763359,-1.9083969465648856,-0.41748046875,-0.03564453125,-0.3359375,1.734
0.15267175572519084,1.1297709923664123,-1.7099236641221374,-0.419189453125,-0.031494140625,-0.3310546875,1.7356999999999998
0.3816793893129771,1.3587786259541985,-1.6946564885496183,-0.413330078125,-0.034423828125,-0.3369140625,1.7373999999999998
0.030534351145038167,1.465648854961832,-1.7099236641221374,-0.41259765625,-0.0341796875,-0.33154296875,1.7390999999999999
0.2595419847328244,1.282442748091603,-1.8015267175572518,-0.412353515625,-0.041015625,-0.332275390625,1.7408
0.22900763358778625,1.099236641221374,-1.786259541984733,-0.41650390625,-0.03173828125,-0.326416015625,1.7425
0.2748091603053435,1.0076335877862594,-1.816793893129771,-0.411865234375,-0.029541015625,-0.326904296875,1.7442
0.4122137404580153,0.9618320610687023,-1.5725190839694656,-0.41162109375,-0.031982421875,-0.326904296875,1.7459
0.42748091603053434,1.1603053435114503,-1.7099236641221374,-0.409912109375,-0.02880859375,-0.333740234375,1.7475999999999998
0.32061068702290074,1.3282442748091603,-1.8931297709923665,-0.41552734375,-0.03271484375,-0.3388671875,1.7492999999999999
0.16793893129770993,0.9465648854961832,-1.8625954198473282,-0.41357421875,-0.03466796875,-0.337646484375,1.751
0.33587786259541985,1.083969465648855,-1.633587786259542,-0.4150390625,-0.029541015625,-0.326904296875,1.7527
0.22900763358778625,1.1603053435114503,-1.9694656488549618,-0.413330078125,-0.032958984375,-0.328857421875,1.7544
0.33587786259541985,1.099236641221374,-1.83206106870229,-0.414794921875,-0.0322265625,-0.338623046875,1.7561
0.4122137404580153,1.0687022900763359,-2.0,-0.415771484375,-0.034912109375,-0.336669921875,1.7577999999999998
0.4580152671755725,1.083969465648855,-1.8015267175572518,-0.413330078125,-0.033935546875,-0.321533203125,1.7594999999999998
0.5038167938931297,1.083969465648855,-1.9694656488549618,-0.41650390625,-0.032958984375,-0.32666015625,1.7611999999999999
0.3969465648854962,0.9770992366412213,-1.7557251908396947,-0.41796875,-0.038818359375,-0.32958984375,1.7629
0.2900763358778626,1.1755725190839694,-1.816793893129771,-0.40771484375,-0.03125,-0.32861328125,1.7646
0.6870229007633588,1.1450381679389312,-1.9541984732824427,-0.416748046875,-0.037353515625,-0.337890625,1.7663
0.6412213740458015,1.1297709923664123,-1.9236641221374047,-0.41650390625,-0.027587890625,-0.33056640625,1.7679999999999998
0.5954198473282443,1.1908396946564885,-1.633587786259542,-0.413818359375,-0.03369140625,-0.330810546875,1.7696999999999998
0.8549618320610687,1.1145038167938932,-1.8015267175572518,-0.412109375,-0.029296875,-0.33056640625,1.7713999999999999
0.6564885496183206,1.0381679389312977,-1.8625954198473282,-0.418212890625,-0.029296875,-0.330810546875,1.7731
0.7938931297709924,1.1145038167938932,-1.6793893129770991,-0.417236328125,-0.030517578125,-0.3291015625,1.7748
0.6564885496183206,1.2366412213740459,-1.8778625954198473,-0.413818359375,-0.0390625,-0.337158203125,1.7765
0.6564885496183206,1.2213740458015268,-1.9236641221374047,-0.41162109375,-0.028076171875,-0.329833984375,1.7782
0.7480916030534351,1.1145038167938932,-1.5114503816793894,-0.416015625,-0.03173828125,-0.328857421875,1.7798999999999998
0.9465648854961832,1.0229007633587786,-1.8473282442748091,-0.4072265625,-0.0302734375,-0.331787109375,1.7815999999999999
0.7786259541984732,1.1755725190839694,-1.7099236641221374,-0.414794921875,-0.0341796875,-0.322998046875,1.7832999999999999
0.7175572519083969,1.1297709923664123,-1.9236641221374047,-0.412353515625,-0.032958984375,-0.333251953125,1.785
