gyrox1,gyroy1,gyroz1,accelx1,accely1,accelz1,Time
28.595419847328245,8.183206106870228,-6.183206106870229,-0.470947265625,-0.016357421875,-0.14697265625,0.0
28.9618320610687,8.870229007633588,-6.229007633587786,-0.466552734375,-0.00927734375,-0.153076171875,0.0017
29.755725190839694,9.465648854961833,-6.091603053435114,-0.469970703125,-0.015380859375,-0.14453125,0.0034
30.977099236641223,9.770992366412214,-6.0458015267175576,-0.466552734375,-0.013427734375,-0.146240234375,0.0050999999999999995
31.633587786259543,10.01526717557252,-6.366412213740458,-0.466064453125,-0.015380859375,-0.153076171875,0.0068
31.954198473282442,10.488549618320612,-6.442748091603053,-0.469970703125,-0.0166015625,-0.142333984375,0.008499999999999999
32.30534351145038,10.65648854961832,-6.5038167938931295,-0.46435546875,-0.01708984375,-0.152099609375,0.010199999999999999
32.778625954198475,10.870229007633588,-6.656488549618321,-0.46875,-0.01806640625,-0.154296875,0.011899999999999999
33.725190839694655,10.900763358778626,-7.068702290076335,-0.469970703125,-0.024658203125,-0.141845703125,0.0136
34.595419847328245,10.900763358778626,-6.99236641221374,-0.464599609375,-0.0234375,-0.151123046875,0.0153
35.64885496183206,11.068702290076336,-6.961832061068702,-0.463134765625,-0.021728515625,-0.15283203125,0.016999999999999998
35.725190839694655,11.053435114503817,-6.870229007633588,-0.458984375,-0.015625,-0.1455078125,0.018699999999999998
35.20610687022901,10.366412213740459,-6.900763358778626,-0.463134765625,-0.020751953125,-0.1376953125,0.020399999999999998
34.93129770992366,9.923664122137405,-7.099236641221374,-0.46337890625,-0.026611328125,-0.133544921875,0.022099999999999998
35.14503816793893,9.755725190839694,-7.221374045801527,-0.46044921875,-0.028564453125,-0.139404296875,0.023799999999999998
35.32824427480916,9.603053435114504,-7.175572519083969,-0.462158203125,-0.02685546875,-0.148193359375,0.0255
35.29770992366412,9.19083969465649,-7.236641221374046,-0.4619140625,-0.025634765625,-0.139892578125,0.0272
35.57251908396947,8.946564885496183,-7.358778625954199,-0.4599609375,-0.029052734375,-0.140625,0.0289
35.770992366412216,8.992366412213741,-7.175572519083969,-0.46044921875,-0.01611328125,-0.136962890625,0.0306
35.343511450381676,8.977099236641221,-7.0534351145038165,-0.459716796875,-0.0205078125,-0.133056640625,0.032299999999999995
34.99236641221374,8.82442748091603,-6.748091603053435,-0.460205078125,-0.0166015625,-0.136474609375,0.033999999999999996
35.11450381679389,8.65648854961832,-6.6106870229007635,-0.4609375,-0.021728515625,-0.150146484375,0.035699999999999996
34.82442748091603,8.82442748091603,-5.893129770992366,-0.4609375,-0.019287109375,-0.144775390625,0.037399999999999996
34.82442748091603,8.778625954198473,-5.755725190839694,-0.46142578125,-0.022216796875,-0.149169921875,0.039099999999999996
35.083969465648856,8.564885496183207,-5.9541984732824424,-0.463134765625,-0.02099609375,-0.139404296875,0.040799999999999996
33.98473282442748,8.274809160305344,-5.984732824427481,-0.466796875,-0.01904296875,-0.139892578125,0.042499999999999996
32.68702290076336,8.335877862595419,-5.740458015267175,-0.463623046875,-0.02392578125,-0.147705078125,0.044199999999999996
32.68702290076336,8.030534351145038,-5.557251908396947,-0.46142578125,-0.026123046875,-0.144775390625,0.045899999999999996
32.99236641221374,8.13740458015267,-5.435114503816794,-0.46044921875,-0.023193359375,-0.150146484375,0.047599999999999996
32.76335877862596,7.923664122137405,-5.083969465648855,-0.458740234375,-0.0244140625,-0.146728515625,0.0493
32.67175572519084,7.923664122137405,-5.679389312977099,-0.469970703125,-0.02392578125,-0.1416015625,0.051
31.389312977099237,7.633587786259542,-5.740458015267175,-0.46337890625,-0.022216796875,-0.1396484375,0.0527
30.549618320610687,7.374045801526718,-5.587786259541985,-0.46337890625,-0.0234375,-0.14453125,0.0544
29.51145038167939,7.251908396946565,-5.572519083969466,-0.4677734375,-0.028564453125,-0.146728515625,0.0561
29.267175572519083,7.297709923664122,-5.450381679389313,-0.46533203125,-0.022216796875,-0.141357421875,0.0578
30.045801526717558,7.343511450381679,-5.022900763358779,-0.466064453125,-0.01904296875,-0.151123046875,0.0595
29.755725190839694,7.312977099236641,-4.259541984732825,-0.465576171875,-0.01708984375,-0.14794921875,0.0612
28.793893129770993,7.022900763358779,-4.198473282442748,-0.468017578125,-0.01318359375,-0.143310546875,0.0629
27.72519083969466,6.595419847328245,-4.259541984732825,-0.4677734375,-0.02001953125,-0.137451171875,0.06459999999999999
26.33587786259542,6.442748091603053,-4.244274809160306,-0.46630859375,-0.015869140625,-0.146240234375,0.0663
25.16030534351145,6.763358778625954,-3.954198473282443,-0.46826171875,-0.025390625,-0.14111328125,0.06799999999999999
23.87786259541985,6.488549618320611,-3.8473282442748094,-0.465576171875,-0.025146484375,-0.14453125,0.0697
22.47328244274809,6.1679389312977095,-4.015267175572519,-0.4697265625,-0.024658203125,-0.14453125,0.07139999999999999
22.0,6.366412213740458,-4.366412213740458,-0.4677734375,-0.01708984375,-0.1474609375,0.0731
21.480916030534353,6.702290076335878,-4.0,-0.467041015625,-0.014404296875,-0.146728515625,0.07479999999999999
20.259541984732824,6.870229007633588,-3.7557251908396947,-0.472412109375,-0.01708984375,-0.154296875,0.0765
19.236641221374047,6.8396946564885495,-3.648854961832061,-0.473388671875,-0.021728515625,-0.14794921875,0.07819999999999999
19.374045801526716,7.00763358778626,-4.015267175572519,-0.47021484375,-0.019775390625,-0.1484375,0.0799
18.916030534351144,6.809160305343512,-3.7557251908396947,-0.469970703125,-0.015869140625,-0.15380859375,0.08159999999999999
18.50381679389313,6.67175572519084,-3.7709923664122136,-0.4697265625,-0.016845703125,-0.153564453125,0.0833
17.72519083969466,6.564885496183206,-3.5419847328244276,-0.47021484375,-0.020263671875,-0.14794921875,0.08499999999999999
17.206106870229007,6.793893129770993,-3.3740458015267176,-0.46484375,-0.01806640625,-0.15478515625,0.0867
16.80916030534351,6.687022900763359,-3.3893129770992365,-0.46728515625,-0.018798828125,-0.156494140625,0.08839999999999999
17.328244274809162,6.99236641221374,-3.114503816793893,-0.46826171875,-0.015380859375,-0.152587890625,0.0901
17.46564885496183,6.641221374045801,-2.9923664122137406,-0.465576171875,-0.02001953125,-0.15673828125,0.09179999999999999
16.732824427480917,6.442748091603053,-3.236641221374046,-0.46875,-0.018310546875,-0.154541015625,0.0935
16.137404580152673,6.259541984732825,-2.9618320610687023,-0.469482421875,-0.015380859375,-0.14990234375,0.09519999999999999
16.045801526717558,6.122137404580153,-3.0839694656488548,-0.46484375,-0.019775390625,-0.15185546875,0.0969
15.34351145038168,5.740458015267175,-2.9618320610687023,-0.466796875,-0.02001953125,-0.15576171875,0.0986
14.65648854961832,5.786259541984733,-2.9160305343511452,-0.46630859375,-0.021484375,-0.15576171875,0.1003
14.625954198473282,5.9541984732824424,-2.4885496183206106,-0.460205078125,-0.0224609375,-0.162841796875,0.102
14.793893129770993,5.877862595419847,-2.351145038167939,-0.46240234375,-0.02685546875,-0.15576171875,0.1037
14.687022900763358,6.061068702290076,-2.015267175572519,-0.46484375,-0.01806640625,-0.155517578125,0.1054
14.625954198473282,5.847328244274809,-2.213740458015267,-0.4677734375,-0.02099609375,-0.15625,0.1071
13.84732824427481,5.923664122137405,-1.6793893129770991,-0.46630859375,-0.01953125,-0.158447265625,0.1088
13.603053435114504,5.984732824427481,-1.8778625954198473,-0.465576171875,-0.02197265625,-0.1552734375,0.11049999999999999
13.251908396946565,5.8320610687022905,-1.816793893129771,-0.46240234375,-0.0234375,-0.159912109375,0.1122
12.717557251908397,5.740458015267175,-1.9236641221374047,-0.468017578125,-0.01904296875,-0.1533203125,0.11389999999999999
12.946564885496183,5.7251908396946565,-1.7404580152671756,-0.4638671875,-0.02294921875,-0.15185546875,0.1156
13.053435114503817,5.9541984732824424,-1.465648854961832,-0.466552734375,-0.0234375,-0.160888671875,0.11729999999999999
12.564885496183207,5.801526717557252,-1.3893129770992367,-0.46337890625,-0.024658203125,-0.15380859375,0.119
12.641221374045802,5.847328244274809,-1.7557251908396947,-0.459716796875,-0.0263671875,-0.14794921875,0.12069999999999999
12.687022900763358,5.32824427480916,-1.8625954198473282,-0.462158203125,-0.025390625,-0.15283203125,0.1224
12.564885496183207,5.1603053435114505,-2.0,-0.46240234375,-0.02783203125,-0.148681640625,0.12409999999999999
12.702290076335878,5.221374045801527,-1.8625954198473282,-0.461669921875,-0.029052734375,-0.15283203125,0.1258
12.473282442748092,5.0534351145038165,-1.9694656488549618,-0.462646484375,-0.027099609375,-0.146240234375,0.1275
12.687022900763358,4.931297709923665,-1.9389312977099236,-0.458740234375,-0.0302734375,-0.150634765625,0.12919999999999998
13.068702290076336,4.763358778625954,-2.122137404580153,-0.462890625,-0.023681640625,-0.1474609375,0.1309
13.007633587786259,4.824427480916031,-2.2595419847328246,-0.46044921875,-0.02587890625,-0.143310546875,0.1326
12.67175572519084,4.595419847328245,-2.2442748091603053,-0.466552734375,-0.03125,-0.14892578125,0.1343
12.488549618320612,4.580152671755725,-2.1068702290076335,-0.461669921875,-0.023681640625,-0.146728515625,0.13599999999999998
12.442748091603054,4.595419847328245,-2.3969465648854964,-0.466552734375,-0.030029296875,-0.150390625,0.1377
12.305343511450381,4.793893129770993,-2.2748091603053435,-0.4638671875,-0.025634765625,-0.1533203125,0.1394
12.488549618320612,4.519083969465649,-2.50381679389313,-0.46484375,-0.030029296875,-0.15087890625,0.1411
12.290076335877863,4.641221374045801,-2.3053435114503817,-0.462890625,-0.03125,-0.150390625,0.14279999999999998
12.091603053435115,4.763358778625954,-2.7786259541984735,-0.46533203125,-0.03125,-0.151123046875,0.1445
12.259541984732824,5.129770992366412,-2.7480916030534353,-0.456787109375,-0.0322265625,-0.146484375,0.1462
12.335877862595419,5.038167938931298,-3.053435114503817,-0.459228515625,-0.02197265625,-0.146240234375,0.1479
12.549618320610687,5.068702290076335,-3.099236641221374,-0.46142578125,-0.018798828125,-0.144287109375,0.14959999999999998
12.290076335877863,4.854961832061068,-3.1603053435114505,-0.46240234375,-0.02294921875,-0.143798828125,0.1513
12.396946564885496,4.793893129770993,-3.1297709923664123,-0.463134765625,-0.021240234375,-0.14404296875,0.153
12.427480916030534,4.809160305343512,-3.1297709923664123,-0.4609375,-0.02587890625,-0.142822265625,0.1547
12.854961832061068,4.717557251908397,-3.1755725190839694,-0.46142578125,-0.023681640625,-0.149169921875,0.15639999999999998
13.297709923664122,4.824427480916031,-3.312977099236641,-0.45849609375,-0.01953125,-0.1474609375,0.1581
13.389312977099237,4.824427480916031,-2.9618320610687023,-0.457275390625,-0.022216796875,-0.151123046875,0.1598
13.465648854961833,4.931297709923665,-2.885496183206107,-0.457275390625,-0.025146484375,-0.146728515625,0.1615
13.557251908396946,5.022900763358779,-3.0381679389312977,-0.46044921875,-0.02294921875,-0.14208984375,0.16319999999999998
13.801526717557252,5.312977099236641,-2.8091603053435112,-0.463134765625,-0.023193359375,-0.146240234375,0.1649
14.458015267175572,5.3893129770992365,-2.4732824427480917,-0.46044921875,-0.021728515625,-0.150390625,0.1666
14.82442748091603,5.297709923664122,-2.4122137404580153,-0.460693359375,-0.025146484375,-0.153076171875,0.16829999999999998
14.916030534351146,5.374045801526718,-2.2290076335877864,-0.46240234375,-0.0234375,-0.148193359375,0.16999999999999998
15.17557251908397,5.236641221374046,-2.351145038167939,-0.4609375,-0.024658203125,-0.1494140625,0.1717
15.358778625954198,5.297709923664122,-2.366412213740458,-0.462158203125,-0.02587890625,-0.14990234375,0.1734
15.206106870229007,5.450381679389313,-2.427480916030534,-0.463623046875,-0.025634765625,-0.153564453125,0.17509999999999998
15.099236641221374,5.358778625954199,-2.351145038167939,-0.463623046875,-0.02880859375,-0.1533203125,0.17679999999999998
15.282442748091603,5.419847328244275,-2.122137404580153,-0.4638671875,-0.027099609375,-0.147705078125,0.1785
15.312977099236642,5.465648854961832,-2.16793893129771,-0.46630859375,-0.03076171875,-0.1484375,0.1802
15.32824427480916,5.847328244274809,-2.045801526717557,-0.459228515625,-0.01904296875,-0.154296875,0.18189999999999998
15.770992366412214,5.694656488549619,-2.0610687022900764,-0.46142578125,-0.021728515625,-0.159423828125,0.18359999999999999
15.755725190839694,5.587786259541985,-2.351145038167939,-0.466796875,-0.027587890625,-0.157470703125,0.1853
14.82442748091603,5.404580152671755,-2.4122137404580153,-0.460693359375,-0.023681640625,-0.15625,0.187
14.305343511450381,5.419847328244275,-2.6564885496183206,-0.465576171875,-0.025390625,-0.14892578125,0.18869999999999998
14.076335877862595,5.267175572519084,-2.900763358778626,-0.46240234375,-0.026123046875,-0.152587890625,0.19039999999999999
13.98473282442748,5.129770992366412,-3.1297709923664123,-0.46240234375,-0.033203125,-0.151123046875,0.1921
13.908396946564885,5.038167938931298,-2.9160305343511452,-0.463134765625,-0.028564453125,-0.15673828125,0.1938
13.786259541984732,5.129770992366412,-2.9923664122137406,-0.469482421875,-0.028564453125,-0.151611328125,0.19549999999999998
13.694656488549619,5.022900763358779,-2.931297709923664,-0.46533203125,-0.02783203125,-0.154541015625,0.1972
13.435114503816793,5.221374045801527,-3.053435114503817,-0.459716796875,-0.03125,-0.15380859375,0.1989
13.526717557251908,5.190839694656488,-2.9160305343511452,-0.46435546875,-0.02978515625,-0.1591796875,0.2006
13.251908396946565,4.9465648854961835,-3.1297709923664123,-0.457763671875,-0.029296875,-0.154541015625,0.20229999999999998
13.007633587786259,4.793893129770993,-2.717557251908397,-0.461669921875,-0.030517578125,-0.154052734375,0.204
13.49618320610687,4.702290076335878,-2.7786259541984735,-0.461181640625,-0.035400390625,-0.156982421875,0.2057
12.961832061068701,4.564885496183206,-2.946564885496183,-0.461181640625,-0.03662109375,-0.157958984375,0.2074
12.641221374045802,4.458015267175573,-2.946564885496183,-0.46142578125,-0.03271484375,-0.156982421875,0.20909999999999998
12.274809160305344,4.244274809160306,-2.900763358778626,-0.45849609375,-0.034912109375,-0.143310546875,0.2108
12.366412213740459,3.969465648854962,-3.2519083969465647,-0.46484375,-0.03662109375,-0.152099609375,0.2125
12.229007633587786,3.877862595419847,-3.236641221374046,-0.46142578125,-0.029296875,-0.1552734375,0.2142
11.603053435114504,3.9389312977099236,-3.1297709923664123,-0.464599609375,-0.034912109375,-0.15771484375,0.21589999999999998
11.740458015267176,3.9083969465648853,-3.1297709923664123,-0.460693359375,-0.029052734375,-0.15087890625,0.2176
11.86259541984733,3.5114503816793894,-3.1297709923664123,-0.455322265625,-0.03076171875,-0.153564453125,0.2193
11.618320610687023,3.3435114503816794,-3.1603053435114505,-0.4580078125,-0.029541015625,-0.159912109375,0.22099999999999997
11.587786259541986,3.2977099236641223,-2.9618320610687023,-0.46044921875,-0.025634765625,-0.1650390625,0.22269999999999998
11.114503816793894,3.0839694656488548,-2.6412213740458017,-0.458984375,-0.0283203125,-0.159912109375,0.2244
10.763358778625955,3.0381679389312977,-2.8396946564885495,-0.462646484375,-0.028564453125,-0.158935546875,0.2261
10.625954198473282,3.0839694656488548,-2.6259541984732824,-0.46044921875,-0.026123046875,-0.16162109375,0.22779999999999997
10.534351145038167,2.6564885496183206,-2.2748091603053435,-0.459228515625,-0.03173828125,-0.164794921875,0.22949999999999998
9.908396946564885,2.50381679389313,-2.4427480916030535,-0.462158203125,-0.037841796875,-0.151611328125,0.2312
9.312977099236642,2.5801526717557253,-2.8702290076335877,-0.464111328125,-0.033447265625,-0.150146484375,0.2329
9.083969465648854,2.366412213740458,-2.854961832061069,-0.4677734375,-0.03466796875,-0.15673828125,0.23459999999999998
9.038167938931299,2.717557251908397,-2.8244274809160306,-0.46142578125,-0.03662109375,-0.154052734375,0.23629999999999998
8.931297709923664,3.0076335877862594,-2.854961832061069,-0.465576171875,-0.03173828125,-0.14990234375,0.238
8.67175572519084,3.0381679389312977,-2.854961832061069,-0.4599609375,-0.0322265625,-0.1572265625,0.2397
8.244274809160306,2.9618320610687023,-2.687022900763359,-0.465576171875,-0.0302734375,-0.15478515625,0.24139999999999998
7.786259541984733,3.145038167938931,-2.946564885496183,-0.462158203125,-0.02978515625,-0.1552734375,0.24309999999999998
7.679389312977099,3.2213740458015265,-3.068702290076336,-0.4638671875,-0.033203125,-0.1484375,0.2448
8.229007633587786,3.4198473282442747,-2.946564885496183,-0.462646484375,-0.03564453125,-0.148193359375,0.2465
8.396946564885496,3.480916030534351,-2.7786259541984735,-0.46484375,-0.026611328125,-0.14794921875,0.24819999999999998
8.580152671755725,3.3282442748091605,-2.8396946564885495,-0.46533203125,-0.031005859375,-0.147216796875,0.24989999999999998
8.030534351145038,3.2213740458015265,-2.9160305343511452,-0.456298828125,-0.03125,-0.150390625,0.2516
7.7251908396946565,3.2977099236641223,-3.4198473282442747,-0.453857421875,-0.0322265625,-0.150146484375,0.25329999999999997
7.557251908396947,3.6946564885496183,-3.480916030534351,-0.4580078125,-0.03369140625,-0.147705078125,0.255
6.977099236641221,3.450381679389313,-4.061068702290076,-0.46044921875,-0.02978515625,-0.153564453125,0.2567
7.236641221374046,3.236641221374046,-3.954198473282443,-0.457763671875,-0.03466796875,-0.145263671875,0.25839999999999996
7.587786259541985,3.3893129770992365,-4.213740458015267,-0.456298828125,-0.03173828125,-0.139892578125,0.2601
8.030534351145038,3.282442748091603,-4.3816793893129775,-0.456298828125,-0.037109375,-0.14306640625,0.2618
8.778625954198473,3.0229007633587788,-4.412213740458015,-0.459716796875,-0.037353515625,-0.14404296875,0.2635
8.641221374045802,2.854961832061069,-4.580152671755725,-0.453857421875,-0.033447265625,-0.139892578125,0.2652
8.488549618320612,2.50381679389313,-4.6106870229007635,-0.447998046875,-0.03271484375,-0.135986328125,0.26689999999999997
8.396946564885496,2.3053435114503817,-4.793893129770993,-0.459228515625,-0.032958984375,-0.140869140625,0.2686
8.610687022900763,2.015267175572519,-5.038167938931298,-0.45166015625,-0.030517578125,-0.14501953125,0.2703
9.068702290076336,1.6946564885496183,-5.068702290076335,-0.45263671875,-0.033447265625,-0.150146484375,0.27199999999999996
9.358778625954198,1.6488549618320612,-4.916030534351145,-0.4541015625,-0.03271484375,-0.156494140625,0.2737
9.358778625954198,1.465648854961832,-4.656488549618321,-0.459228515625,-0.030029296875,-0.14697265625,0.2754
9.282442748091603,1.3282442748091603,-4.6106870229007635,-0.4580078125,-0.0322265625,-0.149169921875,0.27709999999999996
9.358778625954198,0.9770992366412213,-4.351145038167939,-0.45556640625,-0.029052734375,-0.148193359375,0.2788
9.236641221374045,0.9007633587786259,-4.152671755725191,-0.46337890625,-0.02685546875,-0.147216796875,0.28049999999999997
9.083969465648854,0.9007633587786259,-3.9389312977099236,-0.454833984375,-0.028076171875,-0.150390625,0.2822
8.793893129770993,0.6412213740458015,-3.8931297709923665,-0.45947265625,-0.026123046875,-0.14990234375,0.2839
8.870229007633588,0.8396946564885496,-3.5419847328244276,-0.460693359375,-0.0263671875,-0.146240234375,0.28559999999999997
9.099236641221374,0.6259541984732825,-3.5114503816793894,-0.461181640625,-0.03271484375,-0.1455078125,0.2873
8.305343511450381,0.4732824427480916,-3.66412213740458,-0.460205078125,-0.0263671875,-0.14599609375,0.289
7.465648854961832,0.24427480916030533,-3.7099236641221376,-0.459228515625,-0.027099609375,-0.15380859375,0.29069999999999996
7.00763358778626,0.12213740458015267,-3.450381679389313,-0.46484375,-0.029541015625,-0.146484375,0.2924
6.488549618320611,0.0916030534351145,-3.282442748091603,-0.463623046875,-0.02685546875,-0.145263671875,0.2941
6.351145038167939,0.030534351145038167,-3.236641221374046,-0.461669921875,-0.02392578125,-0.151611328125,0.2958
5.9541984732824424,0.13740458015267176,-3.0381679389312977,-0.464599609375,-0.02783203125,-0.157958984375,0.2975
5.221374045801527,0.183206106870229,-2.8091603053435112,-0.462890625,-0.027587890625,-0.15185546875,0.29919999999999997
4.732824427480916,0.16793893129770993,-2.7022900763358777,-0.4609375,-0.021240234375,-0.15625,0.3009
4.6106870229007635,0.33587786259541985,-2.33587786259542,-0.462890625,-0.025390625,-0.142822265625,0.3026
4.091603053435114,0.3969465648854962,-2.1526717557251906,-0.4638671875,-0.0234375,-0.15478515625,0.30429999999999996
3.7099236641221376,0.2748091603053435,-2.16793893129771,-0.46533203125,-0.02587890625,-0.152099609375,0.306
3.068702290076336,0.3053435114503817,-2.2595419847328246,-0.4619140625,-0.024658203125,-0.15478515625,0.3077
2.595419847328244,0.1984732824427481,-2.2595419847328246,-0.468994140625,-0.024658203125,-0.15087890625,0.3094
2.732824427480916,0.2595419847328244,-2.0610687022900764,-0.4677734375,-0.02294921875,-0.151123046875,0.3111
2.2290076335877864,0.24427480916030533,-2.1374045801526718,-0.464599609375,-0.02587890625,-0.1552734375,0.31279999999999997
1.9083969465648856,0.21374045801526717,-2.030534351145038,-0.46630859375,-0.02734375,-0.1611328125,0.3145
1.816793893129771,-0.0916030534351145,-2.030534351145038,-0.46240234375,-0.02783203125,-0.154541015625,0.3162
1.9236641221374047,-0.015267175572519083,-2.122137404580153,-0.463623046875,-0.02294921875,-0.151123046875,0.31789999999999996
1.8625954198473282,-0.16793893129770993,-2.015267175572519,-0.465087890625,-0.020751953125,-0.14990234375,0.3196
1.984732824427481,-0.16793893129770993,-2.0916030534351147,-0.466796875,-0.02197265625,-0.151611328125,0.3213
1.7099236641221374,-0.6717557251908397,-2.16793893129771,-0.466552734375,-0.029296875,-0.1513671875,0.323
1.7557251908396947,-0.549618320610687,-1.8015267175572518,-0.462158203125,-0.0263671875,-0.151123046875,0.3247
1.816793893129771,-0.7022900763358778,-2.2290076335877864,-0.45751953125,-0.0263671875,-0.157470703125,0.32639999999999997
1.8931297709923665,-0.7938931297709924,-2.4427480916030535,-0.462890625,-0.025146484375,-0.147216796875,0.3281
1.6793893129770991,-0.8091603053435115,-2.519083969465649,-0.462890625,-0.0361328125,-0.1455078125,0.3298
1.7251908396946565,-0.9007633587786259,-2.4580152671755724,-0.456787109375,-0.033447265625,-0.1552734375,0.33149999999999996
2.183206106870229,-1.0076335877862594,-2.5343511450381677,-0.4609375,-0.0380859375,-0.154296875,0.3332
2.564885496183206,-0.9312977099236641,-2.687022900763359,-0.457275390625,-0.036376953125,-0.16064453125,0.3349
2.763358778625954,-1.0687022900763359,-2.7480916030534353,-0.4619140625,-0.031982421875,-0.15185546875,0.33659999999999995
2.8244274809160306,-0.9007633587786259,-2.6717557251908395,-0.4609375,-0.034912109375,-0.14990234375,0.3383
3.114503816793893,-0.8091603053435115,-2.931297709923664,-0.46142578125,-0.03466796875,-0.156494140625,0.33999999999999997
3.66412213740458,-0.7633587786259542,-3.099236641221374,-0.463623046875,-0.037109375,-0.150390625,0.3417
3.480916030534351,-0.8091603053435115,-3.1603053435114505,-0.461181640625,-0.0322265625,-0.154541015625,0.3434
3.2519083969465647,-0.6717557251908397,-3.0076335877862594,-0.463623046875,-0.037109375,-0.158935546875,0.34509999999999996
3.145038167938931,-0.5648854961832062,-3.1297709923664123,-0.466796875,-0.032470703125,-0.157470703125,0.3468
3.114503816793893,-0.3969465648854962,-2.9770992366412212,-0.4609375,-0.03564453125,-0.160400390625,0.3485
2.9770992366412212,-0.3511450381679389,-3.0839694656488548,-0.45947265625,-0.034423828125,-0.153076171875,0.35019999999999996
2.9923664122137406,-0.2595419847328244,-2.9160305343511452,-0.460205078125,-0.036865234375,-0.145751953125,0.3519
2.946564885496183,-0.16793893129770993,-2.8244274809160306,-0.46240234375,-0.031494140625,-0.15966796875,0.35359999999999997
2.564885496183206,-0.13740458015267176,-2.8244274809160306,-0.462158203125,-0.031005859375,-0.15185546875,0.3553
2.717557251908397,0.030534351145038167,-2.8396946564885495,-0.46240234375,-0.03515625,-0.15478515625,0.357
2.6106870229007635,-0.10687022900763359,-2.854961832061069,-0.467041015625,-0.029541015625,-0.158935546875,0.35869999999999996
2.0763358778625953,-0.04580152671755725,-2.9923664122137406,-0.4677734375,-0.035400390625,-0.154296875,0.3604
1.7557251908396947,0.015267175572519083,-2.763358778625954,-0.46240234375,-0.031494140625,-0.159423828125,0.3621
1.6030534351145038,0.015267175572519083,-2.900763358778626,-0.461669921875,-0.0322265625,-0.1533203125,0.36379999999999996
1.6488549618320612,-0.15267175572519084,-2.9923664122137406,-0.464111328125,-0.032958984375,-0.15869140625,0.3655
1.251908396946565,0.10687022900763359,-3.1908396946564888,-0.46630859375,-0.03564453125,-0.166748046875,0.36719999999999997
0.9923664122137404,0.13740458015267176,-3.114503816793893,-0.464599609375,-0.033203125,-0.159423828125,0.3689
0.732824427480916,0.030534351145038167,-3.282442748091603,-0.467041015625,-0.03515625,-0.167724609375,0.3706
0.6412213740458015,-0.04580152671755725,-3.4656488549618323,-0.4609375,-0.034912109375,-0.159423828125,0.37229999999999996
0.5954198473282443,0.10687022900763359,-3.480916030534351,-0.462890625,-0.031982421875,-0.157470703125,0.374
0.3816793893129771,0.15267175572519084,-3.3893129770992365,-0.4609375,-0.030517578125,-0.1611328125,0.3757
0.5038167938931297,0.42748091603053434,-3.572519083969466,-0.462158203125,-0.031982421875,-0.163818359375,0.37739999999999996
0.3511450381679389,0.4732824427480916,-3.648854961832061,-0.467529296875,-0.029541015625,-0.15771484375,0.3791
0.44274809160305345,0.3053435114503817,-3.7709923664122136,-0.4580078125,-0.03173828125,-0.154541015625,0.38079999999999997
0.7480916030534351,0.15267175572519084,-3.8625954198473282,-0.457763671875,-0.028564453125,-0.154052734375,0.38249999999999995
0.8854961832061069,0.33587786259541985,-4.152671755725191,-0.46142578125,-0.03564453125,-0.153076171875,0.3842
1.0687022900763359,0.183206106870229,-3.9389312977099236,-0.457763671875,-0.0322265625,-0.15380859375,0.38589999999999997
1.5419847328244274,0.21374045801526717,-4.091603053435114,-0.45458984375,-0.03173828125,-0.146240234375,0.3876
1.7557251908396947,-0.24427480916030533,-4.213740458015267,-0.453857421875,-0.034912109375,-0.1630859375,0.3893
1.9389312977099236,-0.42748091603053434,-4.549618320610687,-0.45703125,-0.0361328125,-0.1533203125,0.39099999999999996
2.6412213740458017,-0.5038167938931297,-4.320610687022901,-0.454345703125,-0.03173828125,-0.153076171875,0.3927
3.5572519083969465,-0.5954198473282443,-4.687022900763359,-0.45849609375,-0.027587890625,-0.14013671875,0.3944
3.4656488549618323,-0.8396946564885496,-4.534351145038168,-0.453125,-0.034912109375,-0.14697265625,0.39609999999999995
3.236641221374046,-1.0687022900763359,-4.748091603053435,-0.459716796875,-0.03369140625,-0.148681640625,0.3978
3.4656488549618323,-1.2671755725190839,-5.022900763358779,-0.455078125,-0.0361328125,-0.148681640625,0.39949999999999997
3.984732824427481,-1.2671755725190839,-5.068702290076335,-0.457275390625,-0.038818359375,-0.141357421875,0.4012
3.984732824427481,-1.083969465648855,-4.763358778625954,-0.46044921875,-0.025634765625,-0.147216796875,0.4029
3.969465648854962,-1.1908396946564885,-4.687022900763359,-0.458740234375,-0.034423828125,-0.146484375,0.40459999999999996
4.015267175572519,-1.251908396946565,-4.687022900763359,-0.457763671875,-0.03076171875,-0.142578125,0.4063
4.152671755725191,-0.8854961832061069,-5.145038167938932,-0.46142578125,-0.03955078125,-0.150634765625,0.408
4.656488549618321,-0.9618320610687023,-5.00763358778626,-0.45947265625,-0.033935546875,-0.152587890625,0.40969999999999995
4.8396946564885495,-1.0534351145038168,-5.022900763358779,-0.45849609375,-0.039306640625,-0.144775390625,0.4114
4.183206106870229,-1.1603053435114503,-4.702290076335878,-0.458251953125,-0.03564453125,-0.1513671875,0.41309999999999997
4.106870229007634,-1.083969465648855,-4.916030534351145,-0.45458984375,-0.0400390625,-0.1513671875,0.4148
4.015267175572519,-1.0076335877862594,-4.916030534351145,-0.455322265625,-0.0380859375,-0.147216796875,0.4165
3.282442748091603,-1.0076335877862594,-4.854961832061068,-0.459228515625,-0.03955078125,-0.1484375,0.41819999999999996
3.3893129770992365,-1.2061068702290076,-4.824427480916031,-0.462890625,-0.038818359375,-0.154541015625,0.4199
3.435114503816794,-1.099236641221374,-4.778625954198473,-0.4599609375,-0.04248046875,-0.142333984375,0.4216
3.480916030534351,-0.9770992366412213,-4.809160305343512,-0.4619140625,-0.04638671875,-0.145263671875,0.42329999999999995
3.8473282442748094,-0.549618320610687,-5.267175572519084,-0.4619140625,-0.037353515625,-0.145263671875,0.425
3.6793893129770994,-0.5343511450381679,-5.236641221374046,-0.462890625,-0.040283203125,-0.1484375,0.42669999999999997
3.6793893129770994,-0.48854961832061067,-5.419847328244275,-0.461669921875,-0.04296875,-0.1484375,0.4284
3.49618320610687,-0.44274809160305345,-5.450381679389313,-0.462890625,-0.0439453125,-0.149169921875,0.4301
3.5419847328244276,0.015267175572519083,-5.66412213740458,-0.463623046875,-0.045654296875,-0.146484375,0.43179999999999996
3.8931297709923665,0.24427480916030533,-5.709923664122138,-0.4658203125,-0.03564453125,-0.145263671875,0.4335
4.091603053435114,-0.04580152671755725,-5.938931297709924,-0.459716796875,-0.04052734375,-0.1484375,0.4352
3.954198473282443,0.04580152671755725,-5.893129770992366,-0.463623046875,-0.041015625,-0.150146484375,0.43689999999999996
3.83206106870229,0.366412213740458,-6.412213740458015,-0.468994140625,-0.04345703125,-0.143798828125,0.4386
4.33587786259542,0.33587786259541985,-6.427480916030534,-0.466552734375,-0.040283203125,-0.14697265625,0.44029999999999997
4.229007633587786,0.2900763358778626,-6.717557251908397,-0.468994140625,-0.04443359375,-0.153076171875,0.44199999999999995
4.854961832061068,0.549618320610687,-6.763358778625954,-0.46435546875,-0.042724609375,-0.146728515625,0.4437
5.221374045801527,0.4732824427480916,-7.038167938931298,-0.460205078125,-0.042236328125,-0.15087890625,0.44539999999999996
5.4961832061068705,0.061068702290076333,-7.129770992366412,-0.46630859375,-0.04052734375,-0.153076171875,0.4471
5.129770992366412,0.15267175572519084,-7.175572519083969,-0.466552734375,-0.038330078125,-0.154052734375,0.4488
5.633587786259542,0.22900763358778625,-7.480916030534351,-0.463623046875,-0.038818359375,-0.1552734375,0.45049999999999996
5.8320610687022905,0.22900763358778625,-7.7251908396946565,-0.46240234375,-0.03955078125,-0.15478515625,0.4522
5.908396946564886,0.22900763358778625,-7.572519083969466,-0.459228515625,-0.043701171875,-0.15673828125,0.45389999999999997
6.076335877862595,0.33587786259541985,-7.4961832061068705,-0.4609375,-0.042724609375,-0.16064453125,0.45559999999999995
6.580152671755725,0.5343511450381679,-7.8320610687022905,-0.466064453125,-0.044677734375,-0.158935546875,0.4573
7.022900763358779,0.6106870229007634,-7.862595419847328,-0.467529296875,-0.037109375,-0.163330078125,0.45899999999999996
7.648854961832061,0.6564885496183206,-7.679389312977099,-0.466552734375,-0.03076171875,-0.15869140625,0.4607
7.526717557251908,0.8091603053435115,-7.679389312977099,-0.4638671875,-0.031494140625,-0.161376953125,0.4624
7.129770992366412,0.6717557251908397,-7.938931297709924,-0.466796875,-0.030517578125,-0.1611328125,0.46409999999999996
6.977099236641221,1.0076335877862594,-8.16793893129771,-0.467529296875,-0.0341796875,-0.156982421875,0.4658
7.038167938931298,0.8091603053435115,-8.091603053435115,-0.46728515625,-0.035400390625,-0.15673828125,0.46749999999999997
7.190839694656488,1.0534351145038168,-8.183206106870228,-0.462646484375,-0.03369140625,-0.15576171875,0.46919999999999995
8.259541984732824,1.5725190839694656,-8.335877862595419,-0.466796875,-0.033203125,-0.159912109375,0.4709
9.297709923664122,1.618320610687023,-8.259541984732824,-0.461181640625,-0.032470703125,-0.16357421875,0.47259999999999996
9.893129770992367,1.6030534351145038,-8.183206106870228,-0.464111328125,-0.031982421875,-0.1611328125,0.4743
10.351145038167939,1.3587786259541985,-8.274809160305344,-0.461669921875,-0.024658203125,-0.1669921875,0.476
10.274809160305344,1.450381679389313,-8.259541984732824,-0.458984375,-0.02685546875,-0.159912109375,0.47769999999999996
9.206106870229007,1.6641221374045803,-8.458015267175572,-0.46044921875,-0.024658203125,-0.1572265625,0.4794
8.931297709923664,1.6030534351145038,-8.50381679389313,-0.466064453125,-0.02978515625,-0.162109375,0.48109999999999997
9.374045801526718,2.030534351145038,-8.549618320610687,-0.465576171875,-0.035400390625,-0.16455078125,0.48279999999999995
9.969465648854962,2.2748091603053435,-8.687022900763358,-0.466552734375,-0.036376953125,-0.1640625,0.4845
10.625954198473282,2.381679389312977,-8.82442748091603,-0.461669921875,-0.034912109375,-0.170166015625,0.48619999999999997
11.007633587786259,2.564885496183206,-9.068702290076336,-0.45849609375,-0.03271484375,-0.167724609375,0.4879
10.778625954198473,2.7022900763358777,-8.992366412213741,-0.459716796875,-0.039306640625,-0.169677734375,0.4896
12.122137404580153,2.9770992366412212,-8.977099236641221,-0.4638671875,-0.037841796875,-0.176025390625,0.49129999999999996
13.297709923664122,2.854961832061069,-9.053435114503817,-0.460205078125,-0.03662109375,-0.173828125,0.493
14.122137404580153,3.145038167938931,-8.916030534351146,-0.463623046875,-0.03759765625,-0.17333984375,0.4947
14.259541984732824,3.3435114503816794,-8.80916030534351,-0.46142578125,-0.03515625,-0.169189453125,0.49639999999999995
14.717557251908397,3.572519083969466,-8.549618320610687,-0.46142578125,-0.03076171875,-0.169677734375,0.4981
15.34351145038168,3.3435114503816794,-8.580152671755725,-0.464599609375,-0.039306640625,-0.16015625,0.49979999999999997
15.755725190839694,2.8702290076335877,-8.977099236641221,-0.462158203125,-0.038330078125,-0.16552734375,0.5015
16.748091603053435,2.9923664122137406,-8.961832061068701,-0.46044921875,-0.040771484375,-0.17041015625,0.5032
17.51145038167939,3.282442748091603,-8.900763358778626,-0.45849609375,-0.0341796875,-0.165283203125,0.5049
17.908396946564885,3.3740458015267176,-8.793893129770993,-0.45947265625,-0.034423828125,-0.166015625,0.5065999999999999
17.908396946564885,3.6030534351145036,-8.335877862595419,-0.46142578125,-0.033935546875,-0.158935546875,0.5083
17.893129770992367,3.5267175572519083,-8.51908396946565,-0.45849609375,-0.036376953125,-0.1669921875,0.51
18.442748091603054,3.7557251908396947,-8.213740458015268,-0.454833984375,-0.03515625,-0.169677734375,0.5116999999999999
18.763358778625953,3.8625954198473282,-8.030534351145038,-0.457763671875,-0.035400390625,-0.173828125,0.5134
19.328244274809162,3.969465648854962,-8.01526717557252,-0.45703125,-0.0322265625,-0.1669921875,0.5151
19.221374045801525,3.7709923664122136,-7.877862595419847,-0.464599609375,-0.031494140625,-0.162353515625,0.5167999999999999
18.213740458015266,3.312977099236641,-8.244274809160306,-0.46728515625,-0.03173828125,-0.160400390625,0.5185
18.80916030534351,3.3893129770992365,-8.351145038167939,-0.4619140625,-0.033935546875,-0.1640625,0.5202
18.885496183206108,3.3740458015267176,-8.045801526717558,-0.4638671875,-0.033935546875,-0.1552734375,0.5218999999999999
17.893129770992367,3.786259541984733,-8.0,-0.465576171875,-0.028564453125,-0.163330078125,0.5236
17.81679389312977,3.633587786259542,-7.572519083969466,-0.4677734375,-0.0302734375,-0.163818359375,0.5253
19.282442748091604,4.122137404580153,-7.358778625954199,-0.46044921875,-0.031494140625,-0.159423828125,0.527
19.282442748091604,4.6106870229007635,-6.732824427480916,-0.46533203125,-0.029541015625,-0.16455078125,0.5287
19.099236641221374,4.8396946564885495,-6.519083969465649,-0.462890625,-0.02783203125,-0.164306640625,0.5304
19.17557251908397,4.702290076335878,-6.595419847328245,-0.46484375,-0.033935546875,-0.15771484375,0.5321
18.091603053435115,4.488549618320611,-6.854961832061068,-0.4638671875,-0.02783203125,-0.16162109375,0.5337999999999999
17.114503816793892,4.6106870229007635,-7.083969465648855,-0.467529296875,-0.033447265625,-0.158935546875,0.5355
17.083969465648856,4.809160305343512,-7.435114503816794,-0.46826171875,-0.03662109375,-0.155029296875,0.5372
16.68702290076336,5.175572519083969,-7.282442748091603,-0.4658203125,-0.04150390625,-0.17236328125,0.5388999999999999
16.48854961832061,5.022900763358779,-7.32824427480916,-0.46728515625,-0.042724609375,-0.164306640625,0.5406
17.19083969465649,5.66412213740458,-7.129770992366412,-0.467041015625,-0.04052734375,-0.167724609375,0.5423
17.923664122137403,6.030534351145038,-6.793893129770993,-0.468994140625,-0.03466796875,-0.16845703125,0.5439999999999999
17.068702290076335,6.076335877862595,-6.793893129770993,-0.46826171875,-0.03173828125,-0.16162109375,0.5457
16.0,6.137404580152672,-6.977099236641221,-0.4619140625,-0.0341796875,-0.169921875,0.5474
16.82442748091603,6.320610687022901,-6.854961832061068,-0.458740234375,-0.037109375,-0.170166015625,0.5490999999999999
17.801526717557252,6.519083969465649,-6.580152671755725,-0.460693359375,-0.033447265625,-0.162109375,0.5508
18.519083969465647,6.595419847328245,-6.687022900763359,-0.456787109375,-0.037841796875,-0.16796875,0.5525
18.83969465648855,6.534351145038168,-6.6106870229007635,-0.462890625,-0.03173828125,-0.168212890625,0.5541999999999999
17.61832061068702,6.396946564885496,-6.687022900763359,-0.46044921875,-0.031982421875,-0.158203125,0.5559
16.47328244274809,6.259541984732825,-6.900763358778626,-0.458740234375,-0.0361328125,-0.16357421875,0.5576
16.564885496183205,6.396946564885496,-6.809160305343512,-0.465576171875,-0.037353515625,-0.160400390625,0.5593
17.938931297709924,6.351145038167939,-6.625954198473282,-0.453125,-0.037841796875,-0.165283203125,0.5609999999999999
18.564885496183205,6.259541984732825,-6.580152671755725,-0.4619140625,-0.034423828125,-0.16162109375,0.5627
18.564885496183205,5.862595419847328,-6.793893129770993,-0.462646484375,-0.029541015625,-0.1650390625,0.5644
18.519083969465647,5.633587786259542,-7.0534351145038165,-0.46044921875,-0.0341796875,-0.1650390625,0.5660999999999999
19.221374045801525,5.877862595419847,-6.687022900763359,-0.456298828125,-0.030029296875,-0.160400390625,0.5678
19.61832061068702,6.015267175572519,-6.412213740458015,-0.45556640625,-0.0263671875,-0.16845703125,0.5695
20.366412213740457,6.030534351145038,-6.076335877862595,-0.46142578125,-0.02587890625,-0.160888671875,0.5711999999999999
20.946564885496183,5.770992366412214,-6.122137404580153,-0.46337890625,-0.02294921875,-0.156005859375,0.5729
21.49618320610687,5.709923664122138,-5.7251908396946565,-0.465576171875,-0.028564453125,-0.1630859375,0.5746
22.015267175572518,5.709923664122138,-5.633587786259542,-0.458740234375,-0.024658203125,-0.167236328125,0.5762999999999999
21.14503816793893,5.801526717557252,-6.091603053435114,-0.45947265625,-0.02294921875,-0.163330078125,0.578
19.954198473282442,5.557251908396947,-6.732824427480916,-0.459716796875,-0.020263671875,-0.17333984375,0.5797
20.885496183206108,5.343511450381679,-5.9541984732824424,-0.464111328125,-0.02490234375,-0.165771484375,0.5813999999999999
22.198473282442748,5.541984732824427,-5.282442748091603,-0.461181640625,-0.023193359375,-0.158203125,0.5831
22.229007633587788,5.648854961832061,-4.824427480916031,-0.462646484375,-0.024658203125,-0.16064453125,0.5848
22.366412213740457,5.770992366412214,-4.625954198473282,-0.462158203125,-0.02880859375,-0.156494140625,0.5865
23.740458015267176,5.969465648854962,-4.122137404580153,-0.4609375,-0.03564453125,-0.165771484375,0.5882
23.755725190839694,6.427480916030534,-3.648854961832061,-0.462646484375,-0.02490234375,-0.16357421875,0.5899
22.946564885496183,6.763358778625954,-3.6030534351145036,-0.46533203125,-0.03271484375,-0.16015625,0.5916
22.732824427480917,6.732824427480916,-3.572519083969466,-0.4599609375,-0.034912109375,-0.1640625,0.5932999999999999
23.17557251908397,6.931297709923665,-3.3893129770992365,-0.46728515625,-0.0380859375,-0.1689453125,0.595
22.778625954198475,6.916030534351145,-3.9083969465648853,-0.47119140625,-0.036376953125,-0.16650390625,0.5967
22.15267175572519,6.595419847328245,-3.8625954198473282,-0.46484375,-0.0361328125,-0.14892578125,0.5983999999999999
22.15267175572519,6.854961832061068,-3.66412213740458,-0.4638671875,-0.037353515625,-0.168701171875,0.6001
22.198473282442748,6.702290076335878,-3.5114503816793894,-0.4638671875,-0.03466796875,-0.160400390625,0.6018
22.015267175572518,6.809160305343512,-3.49618320610687,-0.460205078125,-0.0341796875,-0.161376953125,0.6034999999999999
22.198473282442748,6.763358778625954,-3.282442748091603,-0.46142578125,-0.039306640625,-0.15869140625,0.6052
22.244274809160306,6.656488549618321,-3.2213740458015265,-0.465576171875,-0.034912109375,-0.152099609375,0.6069
21.740458015267176,6.122137404580153,-3.3282442748091605,-0.46484375,-0.03857421875,-0.147216796875,0.6085999999999999
20.99236641221374,5.938931297709924,-3.5267175572519083,-0.47216796875,-0.04345703125,-0.15283203125,0.6103
20.290076335877863,5.633587786259542,-3.7099236641221376,-0.467041015625,-0.0439453125,-0.158203125,0.612
20.641221374045802,5.908396946564886,-3.4198473282442747,-0.46240234375,-0.040771484375,-0.152587890625,0.6136999999999999
21.16030534351145,6.122137404580153,-2.7022900763358777,-0.4580078125,-0.038330078125,-0.159423828125,0.6154
20.50381679389313,6.0458015267175576,-2.2748091603053435,-0.46533203125,-0.037109375,-0.150390625,0.6171
20.748091603053435,5.847328244274809,-1.6793893129770991,-0.46142578125,-0.038818359375,-0.161376953125,0.6188
20.53435114503817,5.694656488549619,-1.7557251908396947,-0.463623046875,-0.0361328125,-0.15478515625,0.6204999999999999
20.229007633587788,5.526717557251908,-1.4351145038167938,-0.464599609375,-0.038330078125,-0.1435546875,0.6222
18.38167938931298,5.022900763358779,-1.6030534351145038,-0.468994140625,-0.040771484375,-0.151611328125,0.6239
17.083969465648856,4.793893129770993,-1.8931297709923665,-0.472412109375,-0.041259765625,-0.152099609375,0.6255999999999999
16.458015267175572,4.9465648854961835,-1.9083969465648856,-0.47509765625,-0.038818359375,-0.15625,0.6273
15.83206106870229,5.145038167938932,-1.1145038167938932,-0.46533203125,-0.041748046875,-0.157958984375,0.629
14.427480916030534,5.083969465648855,-1.2061068702290076,-0.47265625,-0.039794921875,-0.155517578125,0.6306999999999999
14.15267175572519,5.129770992366412,-0.8854961832061069,-0.475830078125,-0.0380859375,-0.156494140625,0.6324
13.725190839694656,5.083969465648855,-0.48854961832061067,-0.472412109375,-0.037353515625,-0.156982421875,0.6341
12.870229007633588,5.175572519083969,-0.22900763358778625,-0.4697265625,-0.038818359375,-0.1484375,0.6357999999999999
12.213740458015268,5.4961832061068705,-0.4122137404580153,-0.471435546875,-0.039794921875,-0.15673828125,0.6375
11.267175572519085,5.511450381679389,-0.061068702290076333,-0.47021484375,-0.03466796875,-0.15185546875,0.6392
10.366412213740459,5.7251908396946565,-0.1984732824427481,-0.46875,-0.039306640625,-0.155517578125,0.6408999999999999
9.49618320610687,5.7251908396946565,-0.4122137404580153,-0.475341796875,-0.038818359375,-0.14892578125,0.6426
8.122137404580153,5.801526717557252,-0.7175572519083969,-0.478759765625,-0.044921875,-0.147216796875,0.6443
7.00763358778626,5.877862595419847,-0.732824427480916,-0.476318359375,-0.051025390625,-0.154296875,0.646
6.305343511450381,6.3816793893129775,-0.732824427480916,-0.478515625,-0.049560546875,-0.1513671875,0.6476999999999999
5.755725190839694,6.687022900763359,-0.5038167938931297,-0.473388671875,-0.04638671875,-0.1572265625,0.6494
5.267175572519084,7.083969465648855,-0.6412213740458015,-0.469970703125,-0.046875,-0.162841796875,0.6511
5.236641221374046,7.450381679389313,-0.3511450381679389,-0.46875,-0.04638671875,-0.154052734375,0.6527999999999999
4.656488549618321,7.511450381679389,-0.8091603053435115,-0.466552734375,-0.046875,-0.157470703125,0.6545
4.351145038167939,7.3893129770992365,-1.083969465648855,-0.468994140625,-0.04736328125,-0.14599609375,0.6562
4.564885496183206,6.977099236641221,-1.4045801526717556,-0.470703125,-0.050048828125,-0.147216796875,0.6578999999999999
4.717557251908397,7.00763358778626,-1.4045801526717556,-0.468994140625,-0.0478515625,-0.144287109375,0.6596
5.541984732824427,7.175572519083969,-1.6793893129770991,-0.4677734375,-0.04541015625,-0.156494140625,0.6613
6.244274809160306,6.763358778625954,-1.633587786259542,-0.46875,-0.03857421875,-0.151611328125,0.6629999999999999
6.748091603053435,6.3816793893129775,-1.8473282442748091,-0.464599609375,-0.041259765625,-0.14208984375,0.6647
7.32824427480916,6.030534351145038,-1.9694656488549618,-0.458984375,-0.04150390625,-0.144287109375,0.6664
8.366412213740459,5.587786259541985,-2.1526717557251906,-0.466064453125,-0.036865234375,-0.14599609375,0.6680999999999999
9.465648854961833,5.480916030534351,-1.6946564885496183,-0.46142578125,-0.029296875,-0.14453125,0.6698
10.412213740458014,5.206106870229007,-1.786259541984733,-0.462158203125,-0.03076171875,-0.1494140625,0.6715
11.007633587786259,4.824427480916031,-1.633587786259542,-0.459716796875,-0.02587890625,-0.145263671875,0.6731999999999999
11.664122137404581,4.900763358778626,-1.5114503816793894,-0.4638671875,-0.0283203125,-0.142333984375,0.6748999999999999
11.893129770992367,4.396946564885496,-1.4961832061068703,-0.46435546875,-0.03662109375,-0.140380859375,0.6766
12.259541984732824,4.259541984732825,-1.6641221374045803,-0.459716796875,-0.03173828125,-0.151611328125,0.6783
12.366412213740459,4.152671755725191,-1.7099236641221374,-0.463134765625,-0.0263671875,-0.14794921875,0.6799999999999999
12.259541984732824,4.076335877862595,-1.4961832061068703,-0.470458984375,-0.029052734375,-0.154052734375,0.6817
12.793893129770993,4.351145038167939,-0.9923664122137404,-0.4658203125,-0.02978515625,-0.156982421875,0.6834
12.961832061068701,4.687022900763359,-0.9007633587786259,-0.470458984375,-0.0263671875,-0.15966796875,0.6850999999999999
12.977099236641221,4.442748091603053,-0.9923664122137404,-0.46923828125,-0.0263671875,-0.162109375,0.6868
12.793893129770993,4.67175572519084,-1.0381679389312977,-0.46728515625,-0.023681640625,-0.151611328125,0.6885
12.549618320610687,4.809160305343512,-0.6106870229007634,-0.4697265625,-0.025634765625,-0.155029296875,0.6901999999999999
12.213740458015268,4.9465648854961835,-0.549618320610687,-0.466552734375,-0.025146484375,-0.1552734375,0.6919
12.16793893129771,5.267175572519084,-0.5038167938931297,-0.470947265625,-0.024658203125,-0.154052734375,0.6936
11.954198473282442,5.419847328244275,-0.2595419847328244,-0.467529296875,-0.02734375,-0.153076171875,0.6952999999999999
11.877862595419847,5.740458015267175,0.04580152671755725,-0.470703125,-0.026123046875,-0.153564453125,0.697
11.83206106870229,5.801526717557252,-0.2595419847328244,-0.4677734375,-0.02490234375,-0.169189453125,0.6987
11.740458015267176,5.801526717557252,-0.04580152671755725,-0.46875,-0.02734375,-0.16015625,0.7003999999999999
11.908396946564885,6.030534351145038,-0.04580152671755725,-0.466796875,-0.033203125,-0.152587890625,0.7021
11.633587786259541,6.076335877862595,-0.15267175572519084,-0.462646484375,-0.03662109375,-0.15380859375,0.7038
11.450381679389313,5.862595419847328,-0.0916030534351145,-0.46630859375,-0.029052734375,-0.162841796875,0.7055
10.82442748091603,5.633587786259542,-0.030534351145038167,-0.462158203125,-0.03125,-0.16259765625,0.7071999999999999
10.900763358778626,5.786259541984733,-0.3511450381679389,-0.462646484375,-0.037841796875,-0.16552734375,0.7089
11.221374045801527,5.816793893129771,-0.07633587786259542,-0.458984375,-0.04248046875,-0.165771484375,0.7106
10.854961832061068,5.7251908396946565,-0.10687022900763359,-0.45751953125,-0.038818359375,-0.1669921875,0.7122999999999999
11.374045801526718,5.694656488549619,-0.0916030534351145,-0.46044921875,-0.042724609375,-0.16845703125,0.714
11.404580152671755,5.541984732824427,-0.13740458015267176,-0.454345703125,-0.044677734375,-0.156005859375,0.7157
11.083969465648854,5.404580152671755,-0.07633587786259542,-0.45751953125,-0.03955078125,-0.166748046875,0.7173999999999999
10.51908396946565,5.068702290076335,-0.2900763358778626,-0.45849609375,-0.041259765625,-0.1591796875,0.7191
9.908396946564885,4.488549618320611,-0.7175572519083969,-0.459228515625,-0.050537109375,-0.15869140625,0.7208
9.618320610687023,4.412213740458015,-0.5648854961832062,-0.45703125,-0.04833984375,-0.151611328125,0.7224999999999999
9.572519083969466,4.412213740458015,-0.5190839694656488,-0.4609375,-0.056640625,-0.164306640625,0.7242
8.946564885496183,4.366412213740458,-0.8549618320610687,-0.4619140625,-0.05517578125,-0.164306640625,0.7259
8.549618320610687,4.5038167938931295,-0.8244274809160306,-0.455078125,-0.051025390625,-0.161376953125,0.7275999999999999
8.305343511450381,4.702290076335878,-0.7022900763358778,-0.453857421875,-0.048828125,-0.157958984375,0.7293
7.267175572519084,4.763358778625954,-0.7175572519083969,-0.45654296875,-0.052001953125,-0.159912109375,0.731
7.175572519083969,4.625954198473282,-0.9007633587786259,-0.45654296875,-0.051513671875,-0.1484375,0.7326999999999999
7.175572519083969,4.625954198473282,-1.099236641221374,-0.458251953125,-0.0478515625,-0.15673828125,0.7343999999999999
6.763358778625954,4.580152671755725,-0.9923664122137404,-0.45947265625,-0.04833984375,-0.1591796875,0.7361
6.396946564885496,4.320610687022901,-0.916030534351145,-0.46240234375,-0.0458984375,-0.15869140625,0.7378
6.305343511450381,4.259541984732825,-0.8854961832061069,-0.45556640625,-0.043701171875,-0.1533203125,0.7394999999999999
6.152671755725191,4.244274809160306,-0.8549618320610687,-0.45458984375,-0.03857421875,-0.153076171875,0.7412
6.137404580152672,4.259541984732825,-0.9007633587786259,-0.453857421875,-0.0380859375,-0.151123046875,0.7429
5.9541984732824424,4.0,-0.8244274809160306,-0.45556640625,-0.0400390625,-0.144287109375,0.7445999999999999
6.137404580152672,3.816793893129771,-0.48854961832061067,-0.451416015625,-0.042724609375,-0.153076171875,0.7463
6.152671755725191,3.83206106870229,-0.24427480916030533,-0.457763671875,-0.0390625,-0.150146484375,0.748
6.549618320610687,3.8625954198473282,-0.5038167938931297,-0.4599609375,-0.043212890625,-0.1494140625,0.7496999999999999
6.442748091603053,3.801526717557252,-0.2748091603053435,-0.461669921875,-0.040771484375,-0.14892578125,0.7514
6.396946564885496,3.786259541984733,-0.12213740458015267,-0.45703125,-0.03662109375,-0.151611328125,0.7531
6.687022900763359,3.7404580152671754,0.15267175572519084,-0.462890625,-0.033203125,-0.142822265625,0.7547999999999999
6.6106870229007635,3.786259541984733,0.1984732824427481,-0.4580078125,-0.039306640625,-0.1572265625,0.7565
6.5038167938931295,4.030534351145038,0.4580152671755725,-0.454345703125,-0.0390625,-0.154296875,0.7582
6.5038167938931295,3.969465648854962,0.48854961832061067,-0.4619140625,-0.037109375,-0.151611328125,0.7598999999999999
6.549618320610687,3.816793893129771,0.4122137404580153,-0.46044921875,-0.034912109375,-0.151123046875,0.7615999999999999
6.137404580152672,3.9083969465648853,0.5038167938931297,-0.458740234375,-0.043212890625,-0.15283203125,0.7633
5.893129770992366,3.9236641221374047,0.6259541984732825,-0.462158203125,-0.037841796875,-0.15380859375,0.7649999999999999
5.770992366412214,3.8625954198473282,0.5343511450381679,-0.46240234375,-0.044677734375,-0.15576171875,0.7666999999999999
5.847328244274809,3.9389312977099236,0.9923664122137404,-0.466064453125,-0.040283203125,-0.156494140625,0.7684
6.1679389312977095,3.7251908396946565,0.8244274809160306,-0.466552734375,-0.036865234375,-0.163330078125,0.7701
5.893129770992366,3.4656488549618323,0.6106870229007634,-0.4638671875,-0.03662109375,-0.155029296875,0.7717999999999999
5.66412213740458,3.2977099236641223,0.5190839694656488,-0.4638671875,-0.041015625,-0.153564453125,0.7735
5.786259541984733,3.3435114503816794,0.2900763358778626,-0.466796875,-0.041259765625,-0.15478515625,0.7752
5.404580152671755,3.282442748091603,0.1984732824427481,-0.46728515625,-0.03857421875,-0.16259765625,0.7768999999999999
5.175572519083969,3.2061068702290076,0.48854961832061067,-0.459716796875,-0.044189453125,-0.156005859375,0.7786
5.145038167938932,3.3587786259541983,0.22900763358778625,-0.46533203125,-0.043212890625,-0.167724609375,0.7803
4.885496183206107,3.2519083969465647,0.366412213740458,-0.469970703125,-0.045166015625,-0.165771484375,0.7819999999999999
4.854961832061068,3.1297709923664123,0.21374045801526717,-0.4658203125,-0.040771484375,-0.16796875,0.7837
4.778625954198473,3.1603053435114505,-0.015267175572519083,-0.468017578125,-0.042724609375,-0.160888671875,0.7854
4.442748091603053,3.053435114503817,-0.1984732824427481,-0.4658203125,-0.040771484375,-0.16357421875,0.7870999999999999
4.534351145038168,3.068702290076336,-0.366412213740458,-0.456298828125,-0.04248046875,-0.1689453125,0.7888
4.809160305343512,2.7480916030534353,-0.4580152671755725,-0.46142578125,-0.0458984375,-0.15673828125,0.7905
4.824427480916031,3.068702290076336,-0.4122137404580153,-0.466796875,-0.05126953125,-0.16064453125,0.7921999999999999
4.67175572519084,2.885496183206107,-0.6717557251908397,-0.466796875,-0.0498046875,-0.156982421875,0.7938999999999999
5.00763358778626,2.6106870229007635,-0.7786259541984732,-0.466064453125,-0.047119140625,-0.157958984375,0.7956
5.0534351145038165,2.8396946564885495,-0.6717557251908397,-0.4619140625,-0.050048828125,-0.153076171875,0.7973
5.145038167938932,2.8091603053435112,-1.0229007633587786,-0.4609375,-0.0458984375,-0.15478515625,0.7989999999999999
5.206106870229007,2.7786259541984735,-1.0381679389312977,-0.465087890625,-0.052978515625,-0.166259765625,0.8007
5.419847328244275,2.595419847328244,-1.1908396946564885,-0.457275390625,-0.052734375,-0.156982421875,0.8024
5.465648854961832,2.687022900763359,-1.3282442748091603,-0.4580078125,-0.047119140625,-0.1513671875,0.8040999999999999
5.923664122137405,2.687022900763359,-1.2671755725190839,-0.46240234375,-0.046630859375,-0.15380859375,0.8058
6.122137404580153,2.5801526717557253,-1.5114503816793894,-0.460205078125,-0.047119140625,-0.15576171875,0.8075
6.0,2.50381679389313,-1.4961832061068703,-0.461181640625,-0.050048828125,-0.161865234375,0.8091999999999999
6.091603053435114,2.6106870229007635,-1.4198473282442747,-0.4619140625,-0.047607421875,-0.151611328125,0.8109
6.183206106870229,2.4580152671755724,-1.8015267175572518,-0.457275390625,-0.04443359375,-0.1572265625,0.8126
6.580152671755725,2.549618320610687,-1.6641221374045803,-0.4580078125,-0.045166015625,-0.162109375,0.8142999999999999
6.870229007633588,2.381679389312977,-1.8778625954198473,-0.459228515625,-0.04248046875,-0.158203125,0.816
6.717557251908397,2.0763358778625953,-1.8778625954198473,-0.461669921875,-0.042236328125,-0.150390625,0.8177
6.8396946564885495,2.2595419847328246,-1.9389312977099236,-0.45947265625,-0.043212890625,-0.153076171875,0.8193999999999999
6.916030534351145,2.16793893129771,-2.0,-0.463134765625,-0.045654296875,-0.150146484375,0.8210999999999999
6.977099236641221,1.9541984732824427,-2.030534351145038,-0.456787109375,-0.04345703125,-0.152587890625,0.8228
7.175572519083969,1.9541984732824427,-2.015267175572519,-0.461181640625,-0.044189453125,-0.15771484375,0.8244999999999999
7.1603053435114505,1.9236641221374047,-2.0,-0.461669921875,-0.044677734375,-0.157470703125,0.8261999999999999
7.343511450381679,2.0763358778625953,-1.8931297709923665,-0.458984375,-0.043701171875,-0.15478515625,0.8279
7.267175572519084,1.9389312977099236,-1.633587786259542,-0.459716796875,-0.049072265625,-0.155029296875,0.8296
7.145038167938932,1.786259541984733,-1.8473282442748091,-0.458984375,-0.04638671875,-0.15673828125,0.8312999999999999
7.32824427480916,1.8473282442748091,-1.8931297709923665,-0.45703125,-0.0458984375,-0.149658203125,0.833
7.450381679389313,1.9236641221374047,-1.7404580152671756,-0.465576171875,-0.046142578125,-0.15771484375,0.8347
7.129770992366412,1.8931297709923665,-1.618320610687023,-0.463134765625,-0.043701171875,-0.15625,0.8363999999999999
6.977099236641221,1.7251908396946565,-1.5725190839694656,-0.456787109375,-0.04296875,-0.158203125,0.8381
6.763358778625954,1.9083969465648856,-1.618320610687023,-0.468994140625,-0.05078125,-0.158935546875,0.8398
6.625954198473282,1.984732824427481,-1.4809160305343512,-0.462158203125,-0.046630859375,-0.1611328125,0.8414999999999999
6.473282442748092,1.7099236641221374,-1.5267175572519085,-0.464599609375,-0.046142578125,-0.154296875,0.8432
6.0458015267175576,1.6641221374045803,-1.5267175572519085,-0.46142578125,-0.049072265625,-0.162841796875,0.8449
5.6183206106870225,1.5267175572519085,-1.3893129770992367,-0.46044921875,-0.04052734375,-0.15625,0.8465999999999999
5.587786259541985,1.6488549618320612,-1.2671755725190839,-0.4580078125,-0.04248046875,-0.16064453125,0.8482999999999999
5.404580152671755,1.816793893129771,-1.3129770992366412,-0.463623046875,-0.042724609375,-0.169677734375,0.85
5.022900763358779,1.450381679389313,-1.4198473282442747,-0.45654296875,-0.0478515625,-0.158447265625,0.8516999999999999
4.99236641221374,1.3587786259541985,-1.465648854961832,-0.456298828125,-0.048828125,-0.15673828125,0.8533999999999999
4.99236641221374,1.3435114503816794,-1.2366412213740459,-0.456787109375,-0.047119140625,-0.158935546875,0.8551
4.99236641221374,1.099236641221374,-1.5419847328244274,-0.45849609375,-0.04541015625,-0.15283203125,0.8568
4.900763358778626,0.7633587786259542,-1.7709923664122138,-0.4580078125,-0.04345703125,-0.15283203125,0.8584999999999999
4.824427480916031,0.7480916030534351,-1.7099236641221374,-0.465087890625,-0.046142578125,-0.157470703125,0.8602
4.778625954198473,0.7480916030534351,-1.5267175572519085,-0.458251953125,-0.048828125,-0.157470703125,0.8619
4.916030534351145,0.4732824427480916,-1.5419847328244274,-0.455322265625,-0.042236328125,-0.162109375,0.8635999999999999
4.916030534351145,0.3816793893129771,-1.5572519083969465,-0.455078125,-0.042724609375,-0.165283203125,0.8653
4.977099236641221,0.366412213740458,-1.5114503816793894,-0.45947265625,-0.0400390625,-0.1611328125,0.867
5.038167938931298,0.44274809160305345,-1.4045801526717556,-0.4638671875,-0.04443359375,-0.154541015625,0.8686999999999999
5.145038167938932,0.061068702290076333,-1.5267175572519085,-0.4599609375,-0.040771484375,-0.161376953125,0.8704
5.0534351145038165,0.0,-1.5725190839694656,-0.4599609375,-0.048583984375,-0.16064453125,0.8721
5.068702290076335,0.366412213740458,-1.618320610687023,-0.45849609375,-0.04541015625,-0.166015625,0.8737999999999999
4.977099236641221,0.16793893129770993,-1.4351145038167938,-0.4599609375,-0.045166015625,-0.162109375,0.8755
4.824427480916031,0.3053435114503817,-1.1908396946564885,-0.456787109375,-0.04833984375,-0.155029296875,0.8772
4.778625954198473,0.16793893129770993,-0.9770992366412213,-0.46044921875,-0.047607421875,-0.1640625,0.8788999999999999
4.6106870229007635,0.061068702290076333,-1.4045801526717556,-0.460205078125,-0.04931640625,-0.153564453125,0.8805999999999999
4.244274809160306,0.15267175572519084,-0.9312977099236641,-0.456298828125,-0.043701171875,-0.166015625,0.8823
4.091603053435114,0.061068702290076333,-0.8854961832061069,-0.455078125,-0.041748046875,-0.15625,0.8839999999999999
3.877862595419847,-0.1984732824427481,-0.8244274809160306,-0.45361328125,-0.045166015625,-0.15478515625,0.8856999999999999
3.83206106870229,-0.366412213740458,-0.7633587786259542,-0.462158203125,-0.043212890625,-0.1572265625,0.8874
3.4656488549618323,-0.6717557251908397,-0.4580152671755725,-0.44921875,-0.044189453125,-0.151611328125,0.8891
3.435114503816794,-0.8091603053435115,-0.5801526717557252,-0.4521484375,-0.03955078125,-0.160888671875,0.8907999999999999
3.068702290076336,-1.0229007633587786,-0.5038167938931297,-0.455810546875,-0.042724609375,-0.15283203125,0.8925
2.9923664122137406,-1.2061068702290076,-0.24427480916030533,-0.454833984375,-0.04296875,-0.161376953125,0.8942
2.854961832061069,-1.3129770992366412,-0.33587786259541985,-0.45263671875,-0.035400390625,-0.150146484375,0.8958999999999999
2.5343511450381677,-1.5572519083969465,-0.21374045801526717,-0.45068359375,-0.0361328125,-0.144775390625,0.8976
2.3969465648854964,-1.7251908396946565,0.07633587786259542,-0.455078125,-0.045166015625,-0.145263671875,0.8993
2.1526717557251906,-1.9236641221374047,0.183206106870229,-0.45654296875,-0.043701171875,-0.15185546875,0.9009999999999999
2.030534351145038,-2.2290076335877864,0.0916030534351145,-0.455078125,-0.043212890625,-0.1484375,0.9027
1.7404580152671756,-2.2900763358778624,0.04580152671755725,-0.452880859375,-0.04345703125,-0.144775390625,0.9044
1.8931297709923665,-2.427480916030534,0.42748091603053434,-0.45947265625,-0.03955078125,-0.147216796875,0.9060999999999999
1.618320610687023,-2.4885496183206106,0.5038167938931297,-0.454833984375,-0.042236328125,-0.156005859375,0.9077999999999999
1.1908396946564885,-2.732824427480916,0.5954198473282443,-0.457275390625,-0.04345703125,-0.15673828125,0.9095
1.083969465648855,-2.9618320610687023,0.4122137404580153,-0.461181640625,-0.0390625,-0.155517578125,0.9111999999999999
0.9770992366412213,-2.8244274809160306,0.9618320610687023,-0.457275390625,-0.041748046875,-0.14404296875,0.9128999999999999
0.9618320610687023,-3.236641221374046,0.7022900763358778,-0.45849609375,-0.038818359375,-0.1474609375,0.9146
0.5038167938931297,-3.145038167938931,1.0076335877862594,-0.458984375,-0.041748046875,-0.151611328125,0.9163
0.4122137404580153,-3.1755725190839694,1.1145038167938932,-0.45458984375,-0.04443359375,-0.14794921875,0.9179999999999999
0.4580152671755725,-3.312977099236641,1.1908396946564885,-0.454833984375,-0.047607421875,-0.146484375,0.9197
0.10687022900763359,-3.2213740458015265,1.3893129770992367,-0.451904296875,-0.043701171875,-0.14599609375,0.9214
-0.04580152671755725,-3.404580152671756,1.5572519083969465,-0.45556640625,-0.044189453125,-0.14599609375,0.9230999999999999
-0.366412213740458,-3.312977099236641,1.5877862595419847,-0.4541015625,-0.04248046875,-0.149658203125,0.9248
-0.549618320610687,-3.7099236641221376,1.8931297709923665,-0.453369140625,-0.0458984375,-0.151123046875,0.9265
-0.8091603053435115,-3.83206106870229,1.8015267175572518,-0.4638671875,-0.047607421875,-0.15380859375,0.9281999999999999
-1.4045801526717556,-3.9389312977099236,2.0763358778625953,-0.45458984375,-0.043701171875,-0.155029296875,0.9299
-1.7251908396946565,-4.015267175572519,2.1374045801526718,-0.4580078125,-0.043701171875,-0.145263671875,0.9316
-1.8778625954198473,-3.984732824427481,2.4885496183206106,-0.45849609375,-0.0478515625,-0.154541015625,0.9332999999999999
-2.3969465648854964,-4.061068702290076,2.4580152671755724,-0.456298828125,-0.040283203125,-0.1513671875,0.9349999999999999
-2.854961832061069,-4.244274809160306,2.4427480916030535,-0.454833984375,-0.04736328125,-0.1552734375,0.9367
-3.3435114503816794,-4.244274809160306,2.6564885496183206,-0.458251953125,-0.046630859375,-0.159423828125,0.9383999999999999
-3.5572519083969465,-4.33587786259542,2.8244274809160306,-0.455322265625,-0.045166015625,-0.156494140625,0.9400999999999999
-4.3816793893129775,-4.351145038167939,2.717557251908397,-0.460693359375,-0.04833984375,-0.156005859375,0.9418
-4.732824427480916,-4.473282442748092,3.0381679389312977,-0.46142578125,-0.0458984375,-0.1640625,0.9434999999999999
-4.809160305343512,-4.6106870229007635,2.931297709923664,-0.460205078125,-0.041748046875,-0.15478515625,0.9451999999999999
-5.00763358778626,-4.396946564885496,2.732824427480916,-0.462890625,-0.0439453125,-0.16162109375,0.9469
-5.32824427480916,-4.427480916030534,2.931297709923664,-0.470458984375,-0.04296875,-0.156494140625,0.9486
-5.6183206106870225,-4.427480916030534,3.0076335877862594,-0.463134765625,-0.0458984375,-0.16015625,0.9502999999999999
-5.755725190839694,-4.473282442748092,2.7786259541984735,-0.459228515625,-0.044677734375,-0.15771484375,0.952
-5.740458015267175,-4.396946564885496,2.6564885496183206,-0.46240234375,-0.044677734375,-0.16455078125,0.9537
-5.908396946564886,-4.244274809160306,2.351145038167939,-0.461669921875,-0.048095703125,-0.15478515625,0.9553999999999999
-5.969465648854962,-4.320610687022901,2.717557251908397,-0.46240234375,-0.046142578125,-0.158447265625,0.9571
-5.557251908396947,-4.259541984732825,2.213740458015267,-0.453125,-0.0517578125,-0.1591796875,0.9588
-5.847328244274809,-4.122137404580153,2.1374045801526718,-0.462890625,-0.05029296875,-0.160888671875,0.9604999999999999
-6.152671755725191,-4.396946564885496,1.8778625954198473,-0.4638671875,-0.04150390625,-0.15478515625,0.9621999999999999
-5.847328244274809,-4.488549618320611,1.8931297709923665,-0.462646484375,-0.048583984375,-0.1630859375,0.9639
-5.419847328244275,-4.3816793893129775,1.6793893129770991,-0.460205078125,-0.045166015625,-0.158203125,0.9655999999999999
-4.977099236641221,-4.1679389312977095,1.9236641221374047,-0.46240234375,-0.043701171875,-0.149658203125,0.9672999999999999
-4.6106870229007635,-4.396946564885496,1.6793893129770991,-0.464111328125,-0.043212890625,-0.1630859375,0.969
-4.2748091603053435,-4.519083969465649,1.4961832061068703,-0.467041015625,-0.0458984375,-0.16455078125,0.9706999999999999
-4.122137404580153,-4.549618320610687,1.5419847328244274,-0.462890625,-0.04248046875,-0.149658203125,0.9723999999999999
-3.618320610687023,-4.595419847328245,1.4961832061068703,-0.4609375,-0.039306640625,-0.155029296875,0.9741
-3.83206106870229,-4.412213740458015,1.3129770992366412,-0.46533203125,-0.038330078125,-0.1591796875,0.9758
-3.7709923664122136,-4.351145038167939,1.3129770992366412,-0.465576171875,-0.036376953125,-0.151611328125,0.9774999999999999
-3.3893129770992365,-4.625954198473282,1.282442748091603,-0.46728515625,-0.0390625,-0.16357421875,0.9792
-3.3587786259541983,-4.427480916030534,1.4351145038167938,-0.461669921875,-0.0361328125,-0.15625,0.9809
-3.0229007633587788,-4.396946564885496,1.1603053435114503,-0.461669921875,-0.03564453125,-0.15869140625,0.9825999999999999
-2.8396946564885495,-4.534351145038168,0.9923664122137404,-0.46826171875,-0.037353515625,-0.1591796875,0.9843
-2.50381679389313,-4.366412213740458,0.8244274809160306,-0.458251953125,-0.038818359375,-0.142822265625,0.986
-2.1526717557251906,-4.488549618320611,0.8702290076335878,-0.460205078125,-0.038818359375,-0.1435546875,0.9876999999999999
-2.122137404580153,-4.549618320610687,0.5954198473282443,-0.462158203125,-0.037353515625,-0.15087890625,0.9894
-1.816793893129771,-4.702290076335878,0.44274809160305345,-0.46533203125,-0.037841796875,-0.156494140625,0.9911
-1.2671755725190839,-4.9465648854961835,0.48854961832061067,-0.463134765625,-0.03759765625,-0.1484375,0.9927999999999999
-1.251908396946565,-4.99236641221374,0.4580152671755725,-0.465576171875,-0.038330078125,-0.1455078125,0.9944999999999999
-0.9618320610687023,-4.870229007633588,0.3969465648854962,-0.45849609375,-0.038330078125,-0.150390625,0.9962
-0.48854961832061067,-5.343511450381679,0.030534351145038167,-0.466064453125,-0.040771484375,-0.1416015625,0.9978999999999999
-0.3511450381679389,-5.145038167938932,-0.015267175572519083,-0.464599609375,-0.043701171875,-0.142578125,0.9995999999999999
0.13740458015267176,-5.129770992366412,0.04580152671755725,-0.465576171875,-0.042236328125,-0.146728515625,1.0012999999999999
0.0916030534351145,-5.190839694656488,-0.16793893129770993,-0.468017578125,-0.037841796875,-0.149169921875,1.003
0.24427480916030533,-5.129770992366412,0.04580152671755725,-0.4677734375,-0.0400390625,-0.1484375,1.0047
0.21374045801526717,-5.0534351145038165,-0.12213740458015267,-0.462646484375,-0.04052734375,-0.150634765625,1.0064
0.0916030534351145,-4.8396946564885495,0.15267175572519084,-0.467041015625,-0.043212890625,-0.151611328125,1.0081
0.24427480916030533,-4.8396946564885495,0.07633587786259542,-0.4619140625,-0.0390625,-0.147216796875,1.0098
-0.04580152671755725,-4.717557251908397,-0.13740458015267176,-0.46484375,-0.044189453125,-0.1611328125,1.0114999999999998
0.0,-4.595419847328245,-0.24427480916030533,-0.467041015625,-0.0439453125,-0.148681640625,1.0131999999999999
-0.4122137404580153,-4.488549618320611,-0.061068702290076333,-0.466796875,-0.0390625,-0.152587890625,1.0149
-0.732824427480916,-4.412213740458015,-0.2595419847328244,-0.460693359375,-0.03662109375,-0.157958984375,1.0166
-1.4198473282442747,-3.83206106870229,-0.21374045801526717,-0.467529296875,-0.040771484375,-0.151123046875,1.0183
-1.4351145038167938,-3.7404580152671754,-0.5954198473282443,-0.46728515625,-0.043212890625,-0.154296875,1.02
-1.6946564885496183,-3.9083969465648853,-0.44274809160305345,-0.468505859375,-0.0458984375,-0.155029296875,1.0217
-2.2290076335877864,-3.7557251908396947,-0.7786259541984732,-0.46875,-0.04833984375,-0.16162109375,1.0233999999999999
-2.3206106870229006,-3.099236641221374,-0.7786259541984732,-0.46826171875,-0.04736328125,-0.1572265625,1.0251
-2.717557251908397,-3.236641221374046,-0.8854961832061069,-0.470703125,-0.04443359375,-0.15771484375,1.0268
-2.8396946564885495,-3.1755725190839694,-1.1145038167938932,-0.46435546875,-0.05029296875,-0.159912109375,1.0285
-3.0076335877862594,-3.0381679389312977,-1.282442748091603,-0.461181640625,-0.04296875,-0.1611328125,1.0302
-3.2061068702290076,-3.1755725190839694,-1.2366412213740459,-0.462890625,-0.04443359375,-0.15576171875,1.0319
-3.053435114503817,-2.7480916030534353,-1.5572519083969465,-0.463134765625,-0.047119140625,-0.156005859375,1.0335999999999999
-2.8702290076335877,-3.053435114503817,-1.8015267175572518,-0.462890625,-0.047607421875,-0.163818359375,1.0352999999999999
-3.0839694656488548,-2.9160305343511452,-2.0,-0.4677734375,-0.0478515625,-0.15673828125,1.037
-3.0076335877862594,-2.9770992366412212,-2.2595419847328246,-0.45849609375,-0.0439453125,-0.15625,1.0387
-2.7480916030534353,-3.053435114503817,-2.427480916030534,-0.45751953125,-0.052978515625,-0.154052734375,1.0404
-2.4427480916030535,-3.2213740458015265,-2.4580152671755724,-0.461669921875,-0.048095703125,-0.162109375,1.0421
-2.0,-3.2061068702290076,-2.7480916030534353,-0.460693359375,-0.0439453125,-0.166015625,1.0437999999999998
-1.4198473282442747,-3.2061068702290076,-3.2061068702290076,-0.45947265625,-0.048828125,-0.1611328125,1.0454999999999999
-1.1450381679389312,-3.068702290076336,-3.1908396946564888,-0.456787109375,-0.047607421875,-0.16357421875,1.0472
-0.8244274809160306,-2.8702290076335877,-3.2061068702290076,-0.45849609375,-0.052001953125,-0.16162109375,1.0489
-0.33587786259541985,-3.2519083969465647,-3.4198473282442747,-0.4609375,-0.041015625,-0.158203125,1.0506
-0.04580152671755725,-3.1603053435114505,-3.5419847328244276,-0.45703125,-0.044677734375,-0.15673828125,1.0523
0.366412213740458,-3.053435114503817,-3.7099236641221376,-0.457275390625,-0.043212890625,-0.15966796875,1.054
0.7786259541984732,-2.9770992366412212,-3.7404580152671754,-0.45703125,-0.0458984375,-0.158447265625,1.0556999999999999
0.7938931297709924,-2.931297709923664,-3.801526717557252,-0.457763671875,-0.03857421875,-0.156494140625,1.0574
1.297709923664122,-3.0229007633587788,-4.091603053435114,-0.46484375,-0.046142578125,-0.150390625,1.0591
1.251908396946565,-2.8244274809160306,-3.9389312977099236,-0.463134765625,-0.041259765625,-0.15283203125,1.0608
1.5725190839694656,-2.8702290076335877,-4.091603053435114,-0.4638671875,-0.04248046875,-0.158203125,1.0625
1.7709923664122138,-2.6259541984732824,-4.091603053435114,-0.46826171875,-0.044921875,-0.15673828125,1.0642
1.5725190839694656,-2.6717557251908395,-4.0458015267175576,-0.46484375,-0.042724609375,-0.158203125,1.0658999999999998
1.4809160305343512,-2.2290076335877864,-4.244274809160306,-0.465576171875,-0.048828125,-0.162353515625,1.0675999999999999
1.5419847328244274,-2.030534351145038,-4.213740458015267,-0.467041015625,-0.05078125,-0.1591796875,1.0693
1.618320610687023,-2.0763358778625953,-4.320610687022901,-0.468994140625,-0.04833984375,-0.165771484375,1.071
1.465648854961832,-1.8931297709923665,-4.412213740458015,-0.45947265625,-0.046630859375,-0.159912109375,1.0727
1.0229007633587786,-1.8778625954198473,-4.2748091603053435,-0.46826171875,-0.04541015625,-0.16162109375,1.0744
0.8091603053435115,-1.6946564885496183,-4.213740458015267,-0.465087890625,-0.0498046875,-0.162109375,1.0760999999999998
0.42748091603053434,-1.5267175572519085,-4.625954198473282,-0.465576171875,-0.049560546875,-0.156494140625,1.0777999999999999
0.5038167938931297,-1.786259541984733,-4.656488549618321,-0.460693359375,-0.046142578125,-0.15869140625,1.0795
0.015267175572519083,-1.465648854961832,-4.702290076335878,-0.460205078125,-0.05126953125,-0.15576171875,1.0812
-0.1984732824427481,-1.282442748091603,-4.824427480916031,-0.459228515625,-0.05322265625,-0.142822265625,1.0829
-0.4580152671755725,-1.4809160305343512,-4.854961832061068,-0.459228515625,-0.04736328125,-0.153564453125,1.0846
-0.6717557251908397,-1.3129770992366412,-5.190839694656488,-0.462890625,-0.050537109375,-0.154296875,1.0863
-0.549618320610687,-1.4351145038167938,-5.1603053435114505,-0.465087890625,-0.047607421875,-0.151611328125,1.0879999999999999
-0.7786259541984732,-1.282442748091603,-5.358778625954199,-0.462158203125,-0.047607421875,-0.146240234375,1.0897
-0.8244274809160306,-1.3435114503816794,-5.480916030534351,-0.453857421875,-0.04345703125,-0.1572265625,1.0914
-0.8549618320610687,-1.3587786259541985,-5.603053435114504,-0.46142578125,-0.04443359375,-0.16015625,1.0931
-0.9618320610687023,-1.5877862595419847,-5.4961832061068705,-0.45703125,-0.0478515625,-0.144775390625,1.0948
-0.7480916030534351,-1.6030534351145038,-5.4961832061068705,-0.464111328125,-0.0478515625,-0.146728515625,1.0965
-0.7938931297709924,-1.5114503816793894,-5.709923664122138,-0.46044921875,-0.041015625,-0.1533203125,1.0981999999999998
-0.732824427480916,-1.6488549618320612,-5.847328244274809,-0.46044921875,-0.042236328125,-0.14599609375,1.0998999999999999
-0.44274809160305345,-1.5877862595419847,-5.847328244274809,-0.460205078125,-0.043212890625,-0.14697265625,1.1016
-0.3969465648854962,-1.816793893129771,-5.877862595419847,-0.461669921875,-0.046630859375,-0.149169921875,1.1033
-0.0916030534351145,-1.8015267175572518,-5.969465648854962,-0.463623046875,-0.04638671875,-0.145263671875,1.105
0.24427480916030533,-1.9083969465648856,-5.786259541984733,-0.45849609375,-0.047607421875,-0.145263671875,1.1067
0.3511450381679389,-1.8625954198473282,-5.923664122137405,-0.457763671875,-0.04296875,-0.154296875,1.1083999999999998
0.8091603053435115,-1.83206106870229,-6.061068702290076,-0.4560546875,-0.041015625,-0.15625,1.1100999999999999
0.7175572519083969,-1.6641221374045803,-5.893129770992366,-0.463623046875,-0.044677734375,-0.1533203125,1.1118
0.7938931297709924,-1.6946564885496183,-5.923664122137405,-0.459716796875,-0.039794921875,-0.14892578125,1.1135
1.1297709923664123,-1.465648854961832,-5.694656488549619,-0.458984375,-0.03759765625,-0.156005859375,1.1152
1.0381679389312977,-1.83206106870229,-5.801526717557252,-0.459716796875,-0.0341796875,-0.16015625,1.1169
1.1908396946564885,-1.816793893129771,-5.908396946564886,-0.463623046875,-0.04296875,-0.16650390625,1.1186
1.0076335877862594,-1.465648854961832,-5.6183206106870225,-0.4619140625,-0.038818359375,-0.1591796875,1.1202999999999999
0.9923664122137404,-1.450381679389313,-5.541984732824427,-0.46142578125,-0.036376953125,-0.15283203125,1.1219999999999999
1.1450381679389312,-1.5419847328244274,-5.236641221374046,-0.4658203125,-0.03125,-0.157470703125,1.1237
0.9923664122137404,-1.2061068702290076,-5.282442748091603,-0.466552734375,-0.038330078125,-0.163818359375,1.1254
0.732824427480916,-1.3587786259541985,-5.404580152671755,-0.46533203125,-0.038330078125,-0.1591796875,1.1271
1.0534351145038168,-1.1450381679389312,-5.00763358778626,-0.46484375,-0.03759765625,-0.154296875,1.1288
0.6106870229007634,-1.251908396946565,-5.129770992366412,-0.4638671875,-0.04296875,-0.154296875,1.1304999999999998
0.6717557251908397,-1.2061068702290076,-4.809160305343512,-0.467041015625,-0.037841796875,-0.155517578125,1.1321999999999999
0.5648854961832062,-1.251908396946565,-4.67175572519084,-0.47119140625,-0.036865234375,-0.16015625,1.1339
0.2900763358778626,-1.297709923664122,-4.534351145038168,-0.464599609375,-0.035400390625,-0.155029296875,1.1356
0.32061068702290074,-1.2061068702290076,-4.534351145038168,-0.462890625,-0.028076171875,-0.154541015625,1.1373
0.3053435114503817,-1.1450381679389312,-4.259541984732825,-0.465087890625,-0.03515625,-0.155517578125,1.139
0.42748091603053434,-1.0534351145038168,-4.320610687022901,-0.4638671875,-0.04052734375,-0.156005859375,1.1407
0.22900763358778625,-1.0534351145038168,-3.83206106870229,-0.466552734375,-0.04296875,-0.165283203125,1.1423999999999999
0.3511450381679389,-0.7480916030534351,-4.213740458015267,-0.4658203125,-0.044921875,-0.160888671875,1.1441
0.3511450381679389,-0.6870229007633588,-4.030534351145038,-0.47119140625,-0.043212890625,-0.16650390625,1.1458
0.24427480916030533,-0.7175572519083969,-4.061068702290076,-0.462890625,-0.04443359375,-0.16455078125,1.1475
0.183206106870229,-0.4732824427480916,-3.7709923664122136,-0.46923828125,-0.04345703125,-0.159912109375,1.1492
0.015267175572519083,-0.12213740458015267,-3.9236641221374047,-0.466796875,-0.048828125,-0.16064453125,1.1509
0.030534351145038167,0.13740458015267176,-3.801526717557252,-0.473876953125,-0.05029296875,-0.16015625,1.1525999999999998
-0.183206106870229,0.32061068702290074,-3.9389312977099236,-0.46923828125,-0.045166015625,-0.16845703125,1.1542999999999999
0.0916030534351145,0.5801526717557252,-3.7251908396946565,-0.46435546875,-0.047607421875,-0.1611328125,1.156
-0.21374045801526717,0.8396946564885496,-4.091603053435114,-0.467529296875,-0.04833984375,-0.156982421875,1.1577
0.2595419847328244,1.099236641221374,-4.061068702290076,-0.4677734375,-0.042724609375,-0.165771484375,1.1594
0.549618320610687,1.0076335877862594,-4.1679389312977095,-0.46875,-0.042724609375,-0.167236328125,1.1611
0.6106870229007634,1.2671755725190839,-4.030534351145038,-0.46826171875,-0.04833984375,-0.1611328125,1.1627999999999998
0.732824427480916,1.3893129770992367,-4.412213740458015,-0.468017578125,-0.048095703125,-0.165771484375,1.1644999999999999
1.251908396946565,1.0687022900763359,-4.427480916030534,-0.458740234375,-0.046142578125,-0.15869140625,1.1662
1.4961832061068703,1.0687022900763359,-4.580152671755725,-0.4619140625,-0.05322265625,-0.1572265625,1.1679
1.9083969465648856,1.0381679389312977,-4.67175572519084,-0.462646484375,-0.05126953125,-0.16357421875,1.1696
2.122137404580153,0.8549618320610687,-4.916030534351145,-0.458740234375,-0.05224609375,-0.16259765625,1.1713
2.198473282442748,0.8244274809160306,-4.931297709923665,-0.462646484375,-0.045654296875,-0.151611328125,1.173
2.564885496183206,0.8854961832061069,-5.206106870229007,-0.466796875,-0.04443359375,-0.159423828125,1.1746999999999999
3.3587786259541983,0.9312977099236641,-5.129770992366412,-0.46435546875,-0.042724609375,-0.1669921875,1.1764
3.3282442748091605,0.9618320610687023,-5.038167938931298,-0.4599609375,-0.0419921875,-0.159423828125,1.1781
3.633587786259542,1.083969465648855,-5.068702290076335,-0.466552734375,-0.041259765625,-0.14990234375,1.1798
3.572519083969466,0.7938931297709924,-5.419847328244275,-0.46728515625,-0.046630859375,-0.158935546875,1.1815
3.480916030534351,0.916030534351145,-5.267175572519084,-0.463623046875,-0.0458984375,-0.15380859375,1.1832
3.7709923664122136,1.083969465648855,-5.038167938931298,-0.46435546875,-0.047119140625,-0.150146484375,1.1848999999999998
3.984732824427481,1.1450381679389312,-5.083969465648855,-0.463134765625,-0.03662109375,-0.156494140625,1.1865999999999999
4.213740458015267,1.2061068702290076,-5.236641221374046,-0.468994140625,-0.03857421875,-0.1611328125,1.1883
4.091603053435114,1.3740458015267176,-4.900763358778626,-0.467041015625,-0.041015625,-0.1455078125,1.19
3.5877862595419847,1.3893129770992367,-4.625954198473282,-0.463623046875,-0.04345703125,-0.153564453125,1.1917
3.2977099236641223,1.4809160305343512,-4.854961832061068,-0.46826171875,-0.038330078125,-0.161865234375,1.1934
3.2061068702290076,1.618320610687023,-5.00763358778626,-0.462890625,-0.04638671875,-0.157958984375,1.1950999999999998
3.2061068702290076,1.5114503816793894,-4.732824427480916,-0.463623046875,-0.0458984375,-0.1455078125,1.1967999999999999
3.236641221374046,1.7404580152671756,-4.900763358778626,-0.4697265625,-0.03955078125,-0.150634765625,1.1985
3.1755725190839694,1.4961832061068703,-4.488549618320611,-0.46630859375,-0.041015625,-0.15087890625,1.2002
2.7938931297709924,1.6641221374045803,-4.290076335877862,-0.46044921875,-0.039306640625,-0.1474609375,1.2019
2.717557251908397,1.8015267175572518,-4.351145038167939,-0.460205078125,-0.04052734375,-0.1494140625,1.2036
2.6717557251908395,1.6793893129770991,-4.290076335877862,-0.463134765625,-0.04150390625,-0.149658203125,1.2053
2.717557251908397,1.7251908396946565,-4.183206106870229,-0.46240234375,-0.033935546875,-0.138671875,1.2069999999999999
2.4885496183206106,1.4961832061068703,-4.0,-0.458740234375,-0.0400390625,-0.1474609375,1.2086999999999999
2.0916030534351147,1.450381679389313,-3.6793893129770994,-0.458984375,-0.042236328125,-0.15234375,1.2104
2.045801526717557,1.5419847328244274,-3.66412213740458,-0.461669921875,-0.040283203125,-0.1455078125,1.2121
1.984732824427481,1.3893129770992367,-3.3740458015267176,-0.45947265625,-0.033935546875,-0.143310546875,1.2138
1.8473282442748091,1.1908396946564885,-3.404580152671756,-0.459716796875,-0.04345703125,-0.149169921875,1.2155
1.6641221374045803,1.0687022900763359,-3.3282442748091605,-0.460205078125,-0.044189453125,-0.153076171875,1.2171999999999998
1.6793893129770991,1.1908396946564885,-3.145038167938931,-0.457275390625,-0.038330078125,-0.153076171875,1.2188999999999999
1.4351145038167938,0.8549618320610687,-2.854961832061069,-0.458740234375,-0.0390625,-0.1484375,1.2206
1.0381679389312977,0.7175572519083969,-2.7022900763358777,-0.458740234375,-0.043701171875,-0.145751953125,1.2223
1.1908396946564885,0.6106870229007634,-2.4122137404580153,-0.46630859375,-0.04345703125,-0.153564453125,1.224
1.1603053435114503,0.5190839694656488,-2.3969465648854964,-0.45751953125,-0.042724609375,-0.14306640625,1.2257
0.9770992366412213,0.5190839694656488,-2.2595419847328246,-0.454833984375,-0.044677734375,-0.1474609375,1.2273999999999998
1.099236641221374,0.24427480916030533,-2.549618320610687,-0.457275390625,-0.043212890625,-0.1533203125,1.2290999999999999
0.8396946564885496,0.3816793893129771,-2.3206106870229006,-0.457275390625,-0.0390625,-0.14697265625,1.2308
0.48854961832061067,0.21374045801526717,-2.2748091603053435,-0.4599609375,-0.04296875,-0.15283203125,1.2325
0.2748091603053435,0.0916030534351145,-2.0916030534351147,-0.461181640625,-0.0458984375,-0.154296875,1.2342
0.366412213740458,0.12213740458015267,-1.9389312977099236,-0.45947265625,-0.04345703125,-0.145263671875,1.2359
0.3816793893129771,0.2748091603053435,-1.816793893129771,-0.45947265625,-0.043212890625,-0.148681640625,1.2376
0.1984732824427481,0.0,-1.984732824427481,-0.4619140625,-0.04443359375,-0.151611328125,1.2392999999999998
0.4580152671755725,0.22900763358778625,-1.9541984732824427,-0.463134765625,-0.049560546875,-0.145263671875,1.2409999999999999
0.4122137404580153,0.366412213740458,-1.8015267175572518,-0.4599609375,-0.04248046875,-0.15185546875,1.2427
0.5038167938931297,0.33587786259541985,-1.7251908396946565,-0.466552734375,-0.042724609375,-0.1611328125,1.2444
0.5190839694656488,0.3969465648854962,-1.7709923664122138,-0.454345703125,-0.0439453125,-0.1533203125,1.2461
0.5190839694656488,0.48854961832061067,-1.7709923664122138,-0.465087890625,-0.04296875,-0.15576171875,1.2478
0.732824427480916,0.4732824427480916,-1.5419847328244274,-0.464599609375,-0.045166015625,-0.156982421875,1.2494999999999998
0.7786259541984732,0.6106870229007634,-1.5267175572519085,-0.459228515625,-0.04541015625,-0.15380859375,1.2511999999999999
1.0534351145038168,0.5038167938931297,-1.5572519083969465,-0.463623046875,-0.046630859375,-0.154541015625,1.2529
1.297709923664122,0.549618320610687,-1.4351145038167938,-0.459716796875,-0.040283203125,-0.1513671875,1.2546
1.3435114503816794,0.5954198473282443,-1.6030534351145038,-0.45947265625,-0.040771484375,-0.1484375,1.2563
1.3893129770992367,0.7633587786259542,-1.3893129770992367,-0.46533203125,-0.048828125,-0.154052734375,1.258
1.6946564885496183,0.8091603053435115,-1.4351145038167938,-0.466064453125,-0.042724609375,-0.146728515625,1.2596999999999998
1.6488549618320612,0.7786259541984732,-1.1450381679389312,-0.466796875,-0.046142578125,-0.153076171875,1.2613999999999999
2.0916030534351147,0.8549618320610687,-1.251908396946565,-0.46337890625,-0.045654296875,-0.150390625,1.2631
2.2290076335877864,0.7938931297709924,-1.282442748091603,-0.465087890625,-0.043701171875,-0.158447265625,1.2648
2.2595419847328246,0.7480916030534351,-1.099236641221374,-0.463134765625,-0.0458984375,-0.151611328125,1.2665
2.33587786259542,0.6870229007633588,-1.1603053435114503,-0.465576171875,-0.043701171875,-0.158447265625,1.2682
2.3969465648854964,0.8244274809160306,-1.0229007633587786,-0.465576171875,-0.041748046875,-0.1572265625,1.2699
2.5343511450381677,0.6412213740458015,-0.7938931297709924,-0.460205078125,-0.041259765625,-0.15771484375,1.2715999999999998
2.3969465648854964,0.732824427480916,-0.8396946564885496,-0.464599609375,-0.041748046875,-0.15576171875,1.2732999999999999
2.2595419847328246,0.732824427480916,-0.8549618320610687,-0.468017578125,-0.03955078125,-0.14990234375,1.275
2.595419847328244,0.6412213740458015,-0.8549618320610687,-0.464599609375,-0.036865234375,-0.158935546875,1.2767
2.7480916030534353,0.9618320610687023,-0.7938931297709924,-0.464111328125,-0.037353515625,-0.16015625,1.2784
2.3969465648854964,0.9465648854961832,-0.8549618320610687,-0.466064453125,-0.040283203125,-0.15087890625,1.2801
2.6564885496183206,0.9618320610687023,-0.9770992366412213,-0.46240234375,-0.036376953125,-0.161376953125,1.2817999999999998
2.717557251908397,0.8854961832061069,-0.9618320610687023,-0.46435546875,-0.039306640625,-0.1591796875,1.2834999999999999
2.6259541984732824,1.0534351145038168,-0.9923664122137404,-0.466064453125,-0.04150390625,-0.157958984375,1.2852
2.900763358778626,1.1297709923664123,-0.9618320610687023,-0.4619140625,-0.037109375,-0.15185546875,1.2869
2.7480916030534353,1.2061068702290076,-1.1450381679389312,-0.46826171875,-0.035400390625,-0.1484375,1.2886
2.5343511450381677,1.1908396946564885,-1.0381679389312977,-0.466552734375,-0.040283203125,-0.153076171875,1.2903
2.7480916030534353,1.0687022900763359,-1.1908396946564885,-0.462890625,-0.041015625,-0.13818359375,1.292
2.9160305343511452,1.0687022900763359,-1.3587786259541985,-0.46044921875,-0.039306640625,-0.142822265625,1.2936999999999999
3.114503816793893,1.1603053435114503,-1.1450381679389312,-0.464599609375,-0.0400390625,-0.142578125,1.2953999999999999
3.435114503816794,0.9770992366412213,-1.0687022900763359,-0.4638671875,-0.039306640625,-0.144287109375,1.2971
3.068702290076336,0.9007633587786259,-1.2366412213740459,-0.462158203125,-0.04052734375,-0.136962890625,1.2988
3.114503816793893,0.8091603053435115,-1.1755725190839694,-0.459716796875,-0.040283203125,-0.1435546875,1.3005
3.282442748091603,0.9007633587786259,-1.2061068702290076,-0.45947265625,-0.038818359375,-0.150146484375,1.3022
3.49618320610687,0.9312977099236641,-1.2671755725190839,-0.46044921875,-0.04296875,-0.14404296875,1.3038999999999998
3.3435114503816794,0.8549618320610687,-1.3893129770992367,-0.464111328125,-0.041015625,-0.147216796875,1.3055999999999999
3.5267175572519083,0.9007633587786259,-1.5725190839694656,-0.456298828125,-0.041015625,-0.142333984375,1.3073
3.2061068702290076,0.8244274809160306,-1.7099236641221374,-0.46435546875,-0.04443359375,-0.14208984375,1.309
3.404580152671756,0.6870229007633588,-1.6030534351145038,-0.457275390625,-0.049072265625,-0.14404296875,1.3107
3.5419847328244276,0.5954198473282443,-1.7251908396946565,-0.46337890625,-0.051025390625,-0.14501953125,1.3124
3.435114503816794,0.549618320610687,-1.6946564885496183,-0.46142578125,-0.052978515625,-0.144775390625,1.3140999999999998
3.572519083969466,0.732824427480916,-1.83206106870229,-0.46240234375,-0.051025390625,-0.138427734375,1.3157999999999999
3.816793893129771,0.6412213740458015,-1.9083969465648856,-0.465087890625,-0.048828125,-0.14794921875,1.3175
3.7099236641221376,0.7175572519083969,-1.8625954198473282,-0.463623046875,-0.04541015625,-0.14013671875,1.3192
3.6793893129770994,0.7022900763358778,-2.0916030534351147,-0.46533203125,-0.051513671875,-0.144287109375,1.3209
3.8625954198473282,0.916030534351145,-2.0763358778625953,-0.46875,-0.049560546875,-0.14501953125,1.3226
3.6946564885496183,0.7938931297709924,-2.045801526717557,-0.468994140625,-0.047119140625,-0.145751953125,1.3243
3.648854961832061,1.0076335877862594,-1.9694656488549618,-0.463623046875,-0.050048828125,-0.150146484375,1.3259999999999998
3.5114503816793894,1.1755725190839694,-2.1374045801526718,-0.46875,-0.051025390625,-0.147216796875,1.3276999999999999
3.3893129770992365,1.2213740458015268,-2.1374045801526718,-0.469482421875,-0.050537109375,-0.140869140625,1.3294
3.1908396946564888,1.251908396946565,-2.2748091603053435,-0.466064453125,-0.048828125,-0.147216796875,1.3311
3.1297709923664123,1.5725190839694656,-2.213740458015267,-0.460693359375,-0.05322265625,-0.150390625,1.3328
3.1603053435114505,1.3893129770992367,-2.16793893129771,-0.463623046875,-0.047607421875,-0.14892578125,1.3345
2.8396946564885495,1.465648854961832,-2.366412213740458,-0.464111328125,-0.052490234375,-0.150146484375,1.3361999999999998
3.1603053435114505,1.4351145038167938,-2.351145038167939,-0.466552734375,-0.05322265625,-0.1484375,1.3378999999999999
3.1908396946564888,1.3740458015267176,-2.351145038167939,-0.465576171875,-0.05029296875,-0.152099609375,1.3396
2.9160305343511452,1.7251908396946565,-2.213740458015267,-0.462158203125,-0.05078125,-0.1484375,1.3413
3.2213740458015265,1.816793893129771,-2.549618320610687,-0.470947265625,-0.043701171875,-0.14892578125,1.343
3.3893129770992365,1.6641221374045803,-2.6412213740458017,-0.470947265625,-0.048583984375,-0.154541015625,1.3447
3.2519083969465647,1.7404580152671756,-2.50381679389313,-0.467529296875,-0.04736328125,-0.1494140625,1.3463999999999998
3.1755725190839694,1.5877862595419847,-2.381679389312977,-0.466796875,-0.04638671875,-0.159423828125,1.3480999999999999
3.5419847328244276,1.633587786259542,-2.6106870229007635,-0.468994140625,-0.050048828125,-0.153076171875,1.3497999999999999
3.816793893129771,1.7251908396946565,-2.7786259541984735,-0.465087890625,-0.04931640625,-0.14990234375,1.3515
3.8625954198473282,1.6488549618320612,-2.7022900763358777,-0.458984375,-0.047119140625,-0.153076171875,1.3532
3.969465648854962,1.6030534351145038,-2.549618320610687,-0.4658203125,-0.044921875,-0.161865234375,1.3549
3.9083969465648853,1.6641221374045803,-2.763358778625954,-0.464599609375,-0.043212890625,-0.154296875,1.3566
4.076335877862595,1.5114503816793894,-2.6717557251908395,-0.465576171875,-0.04443359375,-0.15478515625,1.3582999999999998
3.969465648854962,1.465648854961832,-2.4580152671755724,-0.46533203125,-0.045654296875,-0.150390625,1.3599999999999999
4.152671755725191,1.5114503816793894,-2.687022900763359,-0.466064453125,-0.044189453125,-0.1533203125,1.3617
4.366412213740458,1.465648854961832,-2.763358778625954,-0.46533203125,-0.036865234375,-0.153076171875,1.3634
4.183206106870229,1.5877862595419847,-2.4580152671755724,-0.46484375,-0.04541015625,-0.1533203125,1.3651
4.091603053435114,1.5725190839694656,-2.4580152671755724,-0.46337890625,-0.0439453125,-0.1552734375,1.3668
4.229007633587786,1.465648854961832,-2.564885496183206,-0.4638671875,-0.039306640625,-0.157958984375,1.3684999999999998
4.534351145038168,1.5572519083969465,-2.33587786259542,-0.466552734375,-0.038330078125,-0.162109375,1.3701999999999999
4.549618320610687,1.1603053435114503,-2.3969465648854964,-0.4638671875,-0.0458984375,-0.149658203125,1.3719
4.442748091603053,1.282442748091603,-2.2442748091603053,-0.46484375,-0.0458984375,-0.141357421875,1.3736
4.519083969465649,1.4045801526717556,-2.213740458015267,-0.46923828125,-0.041259765625,-0.152099609375,1.3753
4.595419847328245,1.5267175572519085,-2.1374045801526718,-0.46875,-0.04541015625,-0.150146484375,1.377
4.442748091603053,1.4809160305343512,-2.0610687022900764,-0.466796875,-0.046142578125,-0.154296875,1.3786999999999998
4.473282442748092,1.6030534351145038,-2.2595419847328246,-0.464599609375,-0.042236328125,-0.15869140625,1.3803999999999998
4.595419847328245,1.9236641221374047,-2.213740458015267,-0.465087890625,-0.04052734375,-0.15185546875,1.3820999999999999
4.427480916030534,1.816793893129771,-2.2900763358778624,-0.46142578125,-0.039794921875,-0.154296875,1.3838
4.427480916030534,2.015267175572519,-2.0,-0.4658203125,-0.044921875,-0.155517578125,1.3855
4.641221374045801,1.9694656488549618,-2.4885496183206106,-0.4638671875,-0.044921875,-0.15185546875,1.3872
4.8396946564885495,1.9236641221374047,-2.3053435114503817,-0.46240234375,-0.046142578125,-0.15771484375,1.3889
4.67175572519084,2.1068702290076335,-2.50381679389313,-0.45654296875,-0.052978515625,-0.1513671875,1.3905999999999998
4.809160305343512,2.381679389312977,-2.4732824427480917,-0.466796875,-0.0458984375,-0.143310546875,1.3922999999999999
4.778625954198473,2.351145038167939,-2.732824427480916,-0.46044921875,-0.05078125,-0.153076171875,1.394
4.824427480916031,2.33587786259542,-2.6412213740458017,-0.460693359375,-0.047607421875,-0.157470703125,1.3957
4.885496183206107,2.50381679389313,-2.7480916030534353,-0.4580078125,-0.047119140625,-0.157470703125,1.3974
5.145038167938932,2.7022900763358777,-2.717557251908397,-0.46337890625,-0.049560546875,-0.159912109375,1.3991
5.236641221374046,2.4122137404580153,-2.9923664122137406,-0.46337890625,-0.05029296875,-0.15625,1.4007999999999998
4.99236641221374,2.519083969465649,-2.7938931297709924,-0.46142578125,-0.04833984375,-0.1630859375,1.4024999999999999
5.374045801526718,2.595419847328244,-3.0229007633587788,-0.45947265625,-0.050537109375,-0.167724609375,1.4042
5.541984732824427,2.4885496183206106,-3.0381679389312977,-0.463134765625,-0.05517578125,-0.16064453125,1.4059
5.587786259541985,2.3053435114503817,-2.854961832061069,-0.45703125,-0.050048828125,-0.14697265625,1.4076
5.4961832061068705,2.381679389312977,-2.8702290076335877,-0.460205078125,-0.04736328125,-0.152587890625,1.4093
5.511450381679389,2.3206106870229006,-3.282442748091603,-0.45654296875,-0.045166015625,-0.154541015625,1.411
5.374045801526718,2.122137404580153,-3.053435114503817,-0.45947265625,-0.0517578125,-0.155029296875,1.4126999999999998
5.450381679389313,2.2748091603053435,-2.931297709923664,-0.456298828125,-0.046142578125,-0.150634765625,1.4143999999999999
5.847328244274809,2.1068702290076335,-2.900763358778626,-0.4580078125,-0.046630859375,-0.148193359375,1.4161
5.862595419847328,2.0610687022900764,-3.1603053435114505,-0.460693359375,-0.04833984375,-0.15185546875,1.4178
6.122137404580153,2.122137404580153,-2.885496183206107,-0.46240234375,-0.052001953125,-0.149169921875,1.4195
6.595419847328245,2.0763358778625953,-3.068702290076336,-0.458251953125,-0.044921875,-0.147705078125,1.4212
6.748091603053435,1.816793893129771,-2.9923664122137406,-0.462646484375,-0.048583984375,-0.146728515625,1.4228999999999998
6.702290076335878,1.633587786259542,-3.2061068702290076,-0.455810546875,-0.03759765625,-0.150390625,1.4245999999999999
6.885496183206107,1.7557251908396947,-2.7938931297709924,-0.461669921875,-0.04345703125,-0.151611328125,1.4263
6.687022900763359,1.5267175572519085,-3.0229007633587788,-0.45849609375,-0.041015625,-0.13671875,1.428
6.412213740458015,1.5419847328244274,-2.7938931297709924,-0.45703125,-0.039306640625,-0.139404296875,1.4297
5.893129770992366,1.5114503816793894,-2.7938931297709924,-0.460693359375,-0.04052734375,-0.143798828125,1.4314
5.633587786259542,1.450381679389313,-2.519083969465649,-0.4560546875,-0.0419921875,-0.145263671875,1.4330999999999998
5.404580152671755,1.1755725190839694,-2.50381679389313,-0.455322265625,-0.039794921875,-0.149658203125,1.4347999999999999
5.099236641221374,1.5267175572519085,-2.2900763358778624,-0.460205078125,-0.0390625,-0.150146484375,1.4364999999999999
4.687022900763359,1.5572519083969465,-2.1068702290076335,-0.46044921875,-0.04541015625,-0.147705078125,1.4382
4.6106870229007635,1.465648854961832,-1.8625954198473282,-0.456787109375,-0.0439453125,-0.14501953125,1.4399
4.2748091603053435,1.5419847328244274,-2.0763358778625953,-0.45703125,-0.044921875,-0.145263671875,1.4416
3.7251908396946565,1.786259541984733,-1.7709923664122138,-0.460205078125,-0.0400390625,-0.143798828125,1.4433
3.7251908396946565,1.618320610687023,-1.6793893129770991,-0.4638671875,-0.04248046875,-0.14404296875,1.4449999999999998
3.6030534351145036,1.5267175572519085,-1.282442748091603,-0.462890625,-0.038330078125,-0.150146484375,1.4466999999999999
3.2213740458015265,1.5419847328244274,-1.4351145038167938,-0.462158203125,-0.04052734375,-0.1474609375,1.4484
2.9770992366412212,1.4809160305343512,-1.251908396946565,-0.455810546875,-0.044677734375,-0.14892578125,1.4501
2.946564885496183,1.5114503816793894,-1.4045801526717556,-0.454345703125,-0.041259765625,-0.1474609375,1.4518
2.4580152671755724,1.6946564885496183,-1.3129770992366412,-0.4638671875,-0.048095703125,-0.148681640625,1.4535
2.4427480916030535,1.5725190839694656,-1.4045801526717556,-0.46484375,-0.046630859375,-0.139404296875,1.4551999999999998
2.427480916030534,1.6030534351145038,-1.4198473282442747,-0.460205078125,-0.046142578125,-0.148681640625,1.4568999999999999
2.366412213740458,1.6030534351145038,-1.251908396946565,-0.460205078125,-0.04296875,-0.1513671875,1.4586
2.2900763358778624,1.5114503816793894,-1.3435114503816794,-0.46142578125,-0.048828125,-0.150146484375,1.4603
2.4122137404580153,1.9389312977099236,-1.5877862595419847,-0.464111328125,-0.049072265625,-0.1513671875,1.462
2.6412213740458017,1.816793893129771,-1.5725190839694656,-0.4619140625,-0.053955078125,-0.15673828125,1.4637
2.6564885496183206,1.8473282442748091,-1.8473282442748091,-0.464599609375,-0.0517578125,-0.157470703125,1.4653999999999998
2.8702290076335877,1.8931297709923665,-1.83206106870229,-0.463623046875,-0.047607421875,-0.159423828125,1.4670999999999998
3.2213740458015265,1.8473282442748091,-2.0,-0.46484375,-0.054931640625,-0.15869140625,1.4687999999999999
3.2061068702290076,1.9541984732824427,-2.198473282442748,-0.457763671875,-0.053466796875,-0.161376953125,1.4705
3.404580152671756,1.8625954198473282,-2.3206106870229006,-0.458984375,-0.051513671875,-0.158447265625,1.4722
3.6946564885496183,1.7099236641221374,-2.0763358778625953,-0.461181640625,-0.052001953125,-0.15380859375,1.4739
3.7404580152671754,2.122137404580153,-2.351145038167939,-0.461669921875,-0.05322265625,-0.15576171875,1.4756
3.969465648854962,1.9389312977099236,-2.427480916030534,-0.464599609375,-0.05126953125,-0.162109375,1.4772999999999998
3.816793893129771,1.8778625954198473,-2.519083969465649,-0.458984375,-0.050537109375,-0.147216796875,1.4789999999999999
4.091603053435114,1.8625954198473282,-2.595419847328244,-0.461669921875,-0.047607421875,-0.16748046875,1.4807
4.519083969465649,1.8015267175572518,-2.687022900763359,-0.460693359375,-0.052001953125,-0.155029296875,1.4824
4.5038167938931295,1.816793893129771,-2.519083969465649,-0.46435546875,-0.05078125,-0.154052734375,1.4841
4.595419847328245,1.8625954198473282,-2.7480916030534353,-0.46240234375,-0.05224609375,-0.152099609375,1.4858
4.656488549618321,1.6946564885496183,-2.4122137404580153,-0.46533203125,-0.0537109375,-0.155029296875,1.4874999999999998
4.595419847328245,1.7404580152671756,-2.4885496183206106,-0.46435546875,-0.044677734375,-0.15185546875,1.4891999999999999
4.6106870229007635,1.7099236641221374,-2.549618320610687,-0.46826171875,-0.049072265625,-0.14697265625,1.4909
4.702290076335878,1.5877862595419847,-2.6106870229007635,-0.4658203125,-0.0458984375,-0.15234375,1.4926
4.931297709923665,1.6946564885496183,-2.33587786259542,-0.466552734375,-0.0458984375,-0.152587890625,1.4943
4.67175572519084,1.8473282442748091,-2.1374045801526718,-0.46533203125,-0.04443359375,-0.154541015625,1.496
4.534351145038168,1.816793893129771,-2.366412213740458,-0.468017578125,-0.0419921875,-0.147216796875,1.4976999999999998
4.488549618320611,1.6030534351145038,-2.0916030534351147,-0.4658203125,-0.037353515625,-0.151123046875,1.4993999999999998
4.458015267175573,1.83206106870229,-1.9694656488549618,-0.46484375,-0.03857421875,-0.14794921875,1.5010999999999999
4.473282442748092,1.6793893129770991,-1.8931297709923665,-0.467041015625,-0.040771484375,-0.1484375,1.5028
4.351145038167939,1.633587786259542,-1.83206106870229,-0.46435546875,-0.043701171875,-0.15234375,1.5045
4.320610687022901,1.6641221374045803,-1.83206106870229,-0.467041015625,-0.04150390625,-0.155029296875,1.5062
4.290076335877862,1.3893129770992367,-1.618320610687023,-0.46875,-0.039306640625,-0.146728515625,1.5079
3.984732824427481,1.5114503816793894,-1.618320610687023,-0.4658203125,-0.04150390625,-0.156005859375,1.5095999999999998
3.83206106870229,1.3435114503816794,-1.3129770992366412,-0.470703125,-0.0400390625,-0.1494140625,1.5112999999999999
3.480916030534351,1.4045801526717556,-1.3129770992366412,-0.466796875,-0.042236328125,-0.14599609375,1.513
3.3435114503816794,1.1908396946564885,-0.9770992366412213,-0.460205078125,-0.032958984375,-0.141357421875,1.5147
3.236641221374046,1.1145038167938932,-1.0381679389312977,-0.46240234375,-0.037841796875,-0.146728515625,1.5164
3.0076335877862594,0.9618320610687023,-0.8244274809160306,-0.459228515625,-0.0458984375,-0.151123046875,1.5181
3.068702290076336,0.9923664122137404,-0.8396946564885496,-0.462890625,-0.043701171875,-0.15380859375,1.5197999999999998
2.9923664122137406,0.9923664122137404,-0.4580152671755725,-0.462890625,-0.043701171875,-0.1494140625,1.5214999999999999
2.900763358778626,0.4732824427480916,-0.5038167938931297,-0.4599609375,-0.039306640625,-0.143798828125,1.5231999999999999
2.8702290076335877,0.5343511450381679,-0.2900763358778626,-0.46240234375,-0.0400390625,-0.1494140625,1.5249
2.854961832061069,0.2748091603053435,-0.1984732824427481,-0.4609375,-0.042236328125,-0.1484375,1.5266
2.763358778625954,0.04580152671755725,0.015267175572519083,-0.458251953125,-0.039794921875,-0.157470703125,1.5283
2.717557251908397,-0.04580152671755725,-0.030534351145038167,-0.45556640625,-0.041259765625,-0.144287109375,1.5299999999999998
2.5343511450381677,-0.33587786259541985,-0.2748091603053435,-0.45947265625,-0.037353515625,-0.146240234375,1.5316999999999998
2.6106870229007635,-0.549618320610687,-0.0916030534351145,-0.46142578125,-0.0419921875,-0.1484375,1.5333999999999999
2.931297709923664,-0.4732824427480916,-0.04580152671755725,-0.4638671875,-0.044921875,-0.143798828125,1.5351
2.7938931297709924,-0.5190839694656488,-0.183206106870229,-0.45556640625,-0.04296875,-0.13720703125,1.5368
2.9160305343511452,-0.549618320610687,-0.1984732824427481,-0.45654296875,-0.047607421875,-0.15966796875,1.5385
2.763358778625954,-0.5038167938931297,-0.15267175572519084,-0.45458984375,-0.048583984375,-0.14990234375,1.5402
2.9923664122137406,-0.44274809160305345,-0.13740458015267176,-0.457763671875,-0.0478515625,-0.1494140625,1.5418999999999998
2.854961832061069,-0.4580152671755725,-0.21374045801526717,-0.458740234375,-0.046142578125,-0.15380859375,1.5435999999999999
2.9160305343511452,-0.33587786259541985,-0.16793893129770993,-0.455322265625,-0.043701171875,-0.1474609375,1.5453
3.1755725190839694,-0.2595419847328244,-0.21374045801526717,-0.462890625,-0.05078125,-0.151611328125,1.547
3.2061068702290076,-0.3816793893129771,-0.3969465648854962,-0.4599609375,-0.049072265625,-0.14990234375,1.5487
3.053435114503817,-0.44274809160305345,-0.0916030534351145,-0.45947265625,-0.048583984375,-0.1484375,1.5504
3.068702290076336,-0.04580152671755725,-0.24427480916030533,-0.461181640625,-0.04345703125,-0.146728515625,1.5520999999999998
3.49618320610687,-0.061068702290076333,-0.4122137404580153,-0.45947265625,-0.04833984375,-0.154052734375,1.5537999999999998
3.450381679389313,0.0,-0.2900763358778626,-0.456298828125,-0.048095703125,-0.15185546875,1.5554999999999999
3.480916030534351,0.10687022900763359,-0.5801526717557252,-0.454345703125,-0.051513671875,-0.1513671875,1.5572
3.480916030534351,0.2595419847328244,-0.7480916030534351,-0.461181640625,-0.04150390625,-0.15380859375,1.5589
3.450381679389313,0.3816793893129771,-0.5801526717557252,-0.461669921875,-0.043212890625,-0.138916015625,1.5606
3.6793893129770994,0.5190839694656488,-0.6259541984732825,-0.45947265625,-0.0458984375,-0.1396484375,1.5623
3.786259541984733,0.6717557251908397,-0.8549618320610687,-0.45947265625,-0.05224609375,-0.1513671875,1.5639999999999998
4.076335877862595,0.6870229007633588,-0.8396946564885496,-0.460205078125,-0.048095703125,-0.154296875,1.5656999999999999
3.8931297709923665,0.6870229007633588,-0.9770992366412213,-0.461669921875,-0.048828125,-0.15087890625,1.5674
3.954198473282443,0.9770992366412213,-1.0229007633587786,-0.460693359375,-0.05029296875,-0.151611328125,1.5691
4.198473282442748,0.8702290076335878,-1.1145038167938932,-0.466064453125,-0.04541015625,-0.15234375,1.5708
4.305343511450381,1.083969465648855,-0.9923664122137404,-0.45751953125,-0.04443359375,-0.152099609375,1.5725
4.366412213740458,1.1297709923664123,-0.9923664122137404,-0.455322265625,-0.050048828125,-0.16064453125,1.5741999999999998
4.259541984732825,1.3129770992366412,-1.2061068702290076,-0.458740234375,-0.044189453125,-0.15625,1.5758999999999999
4.396946564885496,1.1450381679389312,-1.282442748091603,-0.459228515625,-0.05029296875,-0.165283203125,1.5776
4.152671755725191,1.083969465648855,-1.1297709923664123,-0.459716796875,-0.052734375,-0.16259765625,1.5793
4.244274809160306,1.2061068702290076,-1.2366412213740459,-0.4580078125,-0.0517578125,-0.165283203125,1.581
4.0458015267175576,1.0229007633587786,-1.1603053435114503,-0.462890625,-0.051025390625,-0.1650390625,1.5827
3.9083969465648853,0.8396946564885496,-1.282442748091603,-0.46044921875,-0.04443359375,-0.1513671875,1.5843999999999998
4.0458015267175576,0.8396946564885496,-1.3587786259541985,-0.4638671875,-0.046875,-0.154296875,1.5860999999999998
3.9083969465648853,0.6870229007633588,-1.3282442748091603,-0.462158203125,-0.047607421875,-0.153076171875,1.5877999999999999
3.633587786259542,0.7022900763358778,-1.4809160305343512,-0.462890625,-0.04931640625,-0.161376953125,1.5895
3.49618320610687,0.366412213740458,-1.5725190839694656,-0.460693359375,-0.05078125,-0.157470703125,1.5912
3.1603053435114505,0.3816793893129771,-1.5114503816793894,-0.46240234375,-0.050048828125,-0.157470703125,1.5929
3.0381679389312977,0.2748091603053435,-1.5572519083969465,-0.46875,-0.0439453125,-0.163330078125,1.5946
2.885496183206107,0.4122137404580153,-1.5267175572519085,-0.46337890625,-0.05029296875,-0.15673828125,1.5962999999999998
2.6259541984732824,0.3053435114503817,-1.6488549618320612,-0.463623046875,-0.044677734375,-0.15673828125,1.5979999999999999
2.427480916030534,0.32061068702290074,-1.7404580152671756,-0.46630859375,-0.051025390625,-0.160888671875,1.5997
2.183206106870229,0.6717557251908397,-1.6641221374045803,-0.46923828125,-0.050048828125,-0.14990234375,1.6014
1.9541984732824427,0.3969465648854962,-1.7557251908396947,-0.456787109375,-0.050537109375,-0.15283203125,1.6031
1.7709923664122138,0.5343511450381679,-1.786259541984733,-0.46630859375,-0.0498046875,-0.15283203125,1.6048
1.83206106870229,0.8396946564885496,-1.8473282442748091,-0.46044921875,-0.045654296875,-0.14892578125,1.6064999999999998
1.5419847328244274,0.9312977099236641,-1.786259541984733,-0.466796875,-0.047607421875,-0.152587890625,1.6081999999999999
1.2671755725190839,1.1908396946564885,-1.6641221374045803,-0.462158203125,-0.047607421875,-0.156494140625,1.6098999999999999
1.4961832061068703,0.8244274809160306,-1.8473282442748091,-0.4599609375,-0.055908203125,-0.1484375,1.6116
1.1603053435114503,1.0076335877862594,-2.030534351145038,-0.458251953125,-0.047607421875,-0.149169921875,1.6133
1.2671755725190839,1.0076335877862594,-1.8778625954198473,-0.463623046875,-0.052001953125,-0.148681640625,1.615
1.3740458015267176,0.6564885496183206,-2.030534351145038,-0.461669921875,-0.052978515625,-0.146728515625,1.6166999999999998
1.1603053435114503,0.5954198473282443,-2.1068702290076335,-0.45751953125,-0.051513671875,-0.149658203125,1.6183999999999998
1.4045801526717556,0.5648854961832062,-2.030534351145038,-0.45556640625,-0.0498046875,-0.144287109375,1.6200999999999999
1.2366412213740459,0.2748091603053435,-2.045801526717557,-0.455078125,-0.048095703125,-0.145751953125,1.6218
1.0076335877862594,0.366412213740458,-2.183206106870229,-0.458251953125,-0.052734375,-0.147216796875,1.6235
1.3740458015267176,0.2748091603053435,-2.16793893129771,-0.454833984375,-0.055908203125,-0.143798828125,1.6252
1.297709923664122,0.0,-2.0,-0.459716796875,-0.049560546875,-0.140380859375,1.6269
0.916030534351145,-0.030534351145038167,-2.045801526717557,-0.455322265625,-0.0498046875,-0.13818359375,1.6285999999999998
0.9007633587786259,-0.16793893129770993,-2.2290076335877864,-0.460205078125,-0.052734375,-0.138916015625,1.6302999999999999
1.1297709923664123,-0.3053435114503817,-2.183206106870229,-0.459228515625,-0.0498046875,-0.14990234375,1.632
1.0381679389312977,-0.24427480916030533,-2.0916030534351147,-0.46142578125,-0.0517578125,-0.144775390625,1.6337
1.0534351145038168,-0.2595419847328244,-2.030534351145038,-0.464599609375,-0.05126953125,-0.146484375,1.6354
0.9923664122137404,-0.3511450381679389,-2.3206106870229006,-0.45703125,-0.05029296875,-0.13671875,1.6371
0.9770992366412213,-0.3053435114503817,-2.2290076335877864,-0.46044921875,-0.049072265625,-0.1396484375,1.6387999999999998
0.6870229007633588,-0.183206106870229,-2.1374045801526718,-0.46240234375,-0.046875,-0.140869140625,1.6404999999999998
0.5801526717557252,-0.21374045801526717,-2.1374045801526718,-0.463623046875,-0.045166015625,-0.1552734375,1.6421999999999999
0.549618320610687,-0.16793893129770993,-2.16793893129771,-0.458984375,-0.0517578125,-0.15185546875,1.6439
0.6106870229007634,-0.13740458015267176,-1.9236641221374047,-0.462890625,-0.0517578125,-0.1474609375,1.6456
0.42748091603053434,0.12213740458015267,-2.030534351145038,-0.4609375,-0.048583984375,-0.14990234375,1.6473
0.366412213740458,0.16793893129770993,-2.015267175572519,-0.461181640625,-0.04638671875,-0.14990234375,1.6489999999999998
0.13740458015267176,0.0,-1.9541984732824427,-0.46240234375,-0.042236328125,-0.140869140625,1.6506999999999998
0.04580152671755725,0.04580152671755725,-1.7099236641221374,-0.460205078125,-0.042724609375,-0.1455078125,1.6523999999999999
-0.1984732824427481,0.015267175572519083,-1.8778625954198473,-0.463623046875,-0.046142578125,-0.148681640625,1.6541
0.015267175572519083,0.07633587786259542,-1.6793893129770991,-0.459716796875,-0.05029296875,-0.148193359375,1.6558
-0.44274809160305345,-0.015267175572519083,-1.9236641221374047,-0.462158203125,-0.051025390625,-0.148681640625,1.6575
-0.5038167938931297,-0.07633587786259542,-1.6030534351145038,-0.46435546875,-0.046630859375,-0.15478515625,1.6592
-0.48854961832061067,-0.10687022900763359,-1.7251908396946565,-0.4580078125,-0.0478515625,-0.142578125,1.6608999999999998
-0.7480916030534351,-0.07633587786259542,-1.6488549618320612,-0.465576171875,-0.0478515625,-0.152587890625,1.6625999999999999
-0.7175572519083969,-0.0916030534351145,-1.7709923664122138,-0.463623046875,-0.050048828125,-0.14990234375,1.6643
-0.8702290076335878,-0.21374045801526717,-1.450381679389313,-0.4580078125,-0.04833984375,-0.15087890625,1.666
-1.0229007633587786,-0.33587786259541985,-1.5572519083969465,-0.4580078125,-0.050048828125,-0.154296875,1.6677
-0.7633587786259542,-0.2748091603053435,-1.3587786259541985,-0.4599609375,-0.048583984375,-0.1552734375,1.6694
-0.6870229007633588,-0.2595419847328244,-1.6641221374045803,-0.455810546875,-0.0498046875,-0.1591796875,1.6710999999999998
-0.9465648854961832,-0.13740458015267176,-1.450381679389313,-0.464599609375,-0.055908203125,-0.152587890625,1.6727999999999998
-1.1450381679389312,-0.183206106870229,-1.5725190839694656,-0.464599609375,-0.054443359375,-0.15673828125,1.6744999999999999
-0.9923664122137404,0.015267175572519083,-1.4809160305343512,-0.452392578125,-0.05224609375,-0.157958984375,1.6762
-0.8396946564885496,-0.10687022900763359,-1.6030534351145038,-0.45703125,-0.047119140625,-0.156494140625,1.6779
-0.732824427480916,0.030534351145038167,-1.5725190839694656,-0.4619140625,-0.04736328125,-0.159912109375,1.6796
-0.5648854961832062,0.12213740458015267,-1.7251908396946565,-0.46044921875,-0.049072265625,-0.15625,1.6813
-0.3816793893129771,0.16793893129770993,-1.450381679389313,-0.46484375,-0.0498046875,-0.144775390625,1.6829999999999998
-0.7175572519083969,0.22900763358778625,-1.633587786259542,-0.4638671875,-0.043701171875,-0.159423828125,1.6846999999999999
-0.6412213740458015,0.183206106870229,-1.816793893129771,-0.460205078125,-0.048828125,-0.157470703125,1.6864
-0.4580152671755725,0.32061068702290074,-1.7557251908396947,-0.463623046875,-0.050537109375,-0.152587890625,1.6881
-0.2748091603053435,0.061068702290076333,-1.633587786259542,-0.456298828125,-0.04736328125,-0.1455078125,1.6898
-0.0916030534351145,0.030534351145038167,-1.8778625954198473,-0.458984375,-0.047119140625,-0.143310546875,1.6915
-0.3816793893129771,-0.061068702290076333,-1.816793893129771,-0.45654296875,-0.052734375,-0.15478515625,1.6931999999999998
-0.13740458015267176,-0.015267175572519083,-1.9236641221374047,-0.46142578125,-0.044921875,-0.1513671875,1.6948999999999999
-0.2748091603053435,-0.030534351145038167,-1.8473282442748091,-0.462890625,-0.046142578125,-0.156494140625,1.6965999999999999
-0.061068702290076333,0.0,-1.8625954198473282,-0.46435546875,-0.048828125,-0.149658203125,1.6983
-0.183206106870229,0.13740458015267176,-1.6946564885496183,-0.459716796875,-0.046142578125,-0.14111328125,1.7
-0.32061068702290074,-0.015267175572519083,-1.8015267175572518,-0.462890625,-0.045654296875,-0.14599609375,1.7017
-0.3816793893129771,0.0,-1.786259541984733,-0.46337890625,-0.052001953125,-0.14892578125,1.7033999999999998
-0.42748091603053434,0.0916030534351145,-1.8625954198473282,-0.45849609375,-0.048828125,-0.139404296875,1.7050999999999998
-0.6106870229007634,-0.12213740458015267,-1.4809160305343512,-0.46142578125,-0.04736328125,-0.153076171875,1.7067999999999999
-0.5038167938931297,0.16793893129770993,-1.816793893129771,-0.462158203125,-0.05029296875,-0.15234375,1.7085
-0.8549618320610687,-0.015267175572519083,-1.6946564885496183,-0.464111328125,-0.046630859375,-0.145263671875,1.7102
-0.8396946564885496,0.061068702290076333,-1.8015267175572518,-0.46044921875,-0.043701171875,-0.143798828125,1.7119
-0.6717557251908397,0.015267175572519083,-1.633587786259542,-0.46142578125,-0.05078125,-0.137451171875,1.7136
-0.6106870229007634,0.030534351145038167,-1.83206106870229,-0.459716796875,-0.04833984375,-0.14892578125,1.7152999999999998
-0.9465648854961832,-0.16793893129770993,-1.83206106870229,-0.464111328125,-0.044189453125,-0.1455078125,1.7169999999999999
-0.6870229007633588,0.030534351145038167,-1.7709923664122138,-0.46142578125,-0.04736328125,-0.142822265625,1.7187
-0.732824427480916,0.030534351145038167,-1.618320610687023,-0.46728515625,-0.043212890625,-0.15869140625,1.7204
-1.0381679389312977,0.07633587786259542,-1.984732824427481,-0.46435546875,-0.046142578125,-0.1572265625,1.7221
-0.8854961832061069,-0.061068702290076333,-1.9236641221374047,-0.466064453125,-0.04833984375,-0.155517578125,1.7238
-0.8702290076335878,0.13740458015267176,-1.8473282442748091,-0.4619140625,-0.045654296875,-0.153564453125,1.7254999999999998
-0.8244274809160306,0.2748091603053435,-1.7557251908396947,-0.459716796875,-0.04931640625,-0.1552734375,1.7271999999999998
-0.8549618320610687,0.10687022900763359,-1.83206106870229,-0.462646484375,-0.053955078125,-0.149658203125,1.7288999999999999
-1.0381679389312977,0.0916030534351145,-1.9389312977099236,-0.4638671875,-0.04833984375,-0.151123046875,1.7306
-1.0534351145038168,0.16793893129770993,-2.0763358778625953,-0.461669921875,-0.048828125,-0.145263671875,1.7323
-1.099236641221374,0.13740458015267176,-1.7099236641221374,-0.460693359375,-0.0498046875,-0.150634765625,1.734
-1.3435114503816794,0.061068702290076333,-1.8473282442748091,-0.458740234375,-0.05029296875,-0.146240234375,1.7356999999999998
-1.3435114503816794,-0.015267175572519083,-2.045801526717557,-0.46044921875,-0.052734375,-0.165283203125,1.7373999999999998
-1.5419847328244274,0.13740458015267176,-1.9236641221374047,-0.46533203125,-0.049072265625,-0.15380859375,1.7390999999999999
-1.7251908396946565,0.44274809160305345,-1.9083969465648856,-0.459716796875,-0.0576171875,-0.153076171875,1.7408
-1.8778625954198473,0.16793893129770993,-1.816793893129771,-0.462158203125,-0.045166015625,-0.146728515625,1.7425
-1.9083969465648856,0.16793893129770993,-1.816793893129771,-0.456787109375,-0.052734375,-0.155517578125,1.7442
-2.030534351145038,0.16793893129770993,-2.015267175572519,-0.462890625,-0.05615234375,-0.159912109375,1.7459
-2.2442748091603053,0.04580152671755725,-1.9083969465648856,-0.4638671875,-0.049072265625,-0.159912109375,1.7475999999999998
-2.4732824427480917,0.24427480916030533,-2.122137404580153,-0.464599609375,-0.04833984375,-0.150146484375,1.7492999999999999
-2.564885496183206,0.33587786259541985,-1.984732824427481,-0.46484375,-0.05126953125,-0.15625,1.751
-2.549618320610687,0.2900763358778626,-2.0610687022900764,-0.46728515625,-0.046630859375,-0.154052734375,1.7527
-2.8244274809160306,0.4580152671755725,-2.030534351145038,-0.467041015625,-0.047607421875,-0.15771484375,1.7544
-2.8091603053435112,0.5648854961832062,-2.0,-0.466064453125,-0.053466796875,-0.154296875,1.7561
-2.900763358778626,0.48854961832061067,-1.816793893129771,-0.462890625,-0.054443359375,-0.150390625,1.7577999999999998
-3.0076335877862594,0.42748091603053434,-2.030534351145038,-0.457275390625,-0.049560546875,-0.14697265625,1.7594999999999998
-2.732824427480916,0.6717557251908397,-2.0610687022900764,-0.46240234375,-0.04443359375,-0.14306640625,1.7611999999999999
-2.6106870229007635,0.6717557251908397,-1.9694656488549618,-0.468017578125,-0.044921875,-0.1474609375,1.7629
-2.687022900763359,0.5038167938931297,-1.8625954198473282,-0.465576171875,-0.048095703125,-0.143310546875,1.7646
-2.687022900763359,0.3053435114503817,-2.045801526717557,-0.46044921875,-0.04931640625,-0.146240234375,1.7663
-2.3969465648854964,0.4122137404580153,-1.8778625954198473,-0.4560546875,-0.043212890625,-0.1591796875,1.7679999999999998
-2.351145038167939,0.549618320610687,-1.9694656488549618,-0.455810546875,-0.0458984375,-0.154541015625,1.7696999999999998
-2.564885496183206,0.42748091603053434,-2.015267175572519,-0.4619140625,-0.052490234375,-0.150146484375,1.7713999999999999
-2.3969465648854964,0.5801526717557252,-1.8931297709923665,-0.459716796875,-0.0419921875,-0.151123046875,1.7731
-2.122137404580153,0.549618320610687,-1.9236641221374047,-0.4619140625,-0.047607421875,-0.14990234375,1.7748
-1.816793893129771,0.12213740458015267,-1.8931297709923665,-0.46240234375,-0.045654296875,-0.158935546875,1.7765
-1.4809160305343512,0.4580152671755725,-1.786259541984733,-0.462890625,-0.043212890625,-0.152587890625,1.7782
-1.984732824427481,0.3053435114503817,-1.83206106870229,-0.4677734375,-0.041015625,-0.154296875,1.7798999999999998
-1.816793893129771,0.3053435114503817,-1.83206106870229,-0.462158203125,-0.04150390625,-0.153076171875,1.7815999999999999
-1.4351145038167938,0.2900763358778626,-1.7404580152671756,-0.462158203125,-0.044921875,-0.15625,1.7832999999999999
-1.7251908396946565,0.3816793893129771,-1.7709923664122138,-0.460693359375,-0.0439453125,-0.148681640625,1.785
-1.3587786259541985,0.5343511450381679,-1.8625954198473282,-0.463134765625,-0.0419921875,-0.147216796875,1.7867
-1.3587786259541985,0.2748091603053435,-1.6793893129770991,-0.463134765625,-0.04150390625,-0.155029296875,1.7884
-1.4809160305343512,0.366412213740458,-1.6488549618320612,-0.45654296875,-0.0390625,-0.1484375,1.7900999999999998
-1.1297709923664123,0.5954198473282443,-1.4198473282442747,-0.458740234375,-0.04052734375,-0.151123046875,1.7917999999999998
-0.9770992366412213,0.3511450381679389,-1.6488549618320612,-0.46337890625,-0.04052734375,-0.157958984375,1.7934999999999999
-1.083969465648855,0.2595419847328244,-1.4198473282442747,-0.459228515625,-0.038818359375,-0.142578125,1.7952
-0.8702290076335878,0.3816793893129771,-1.2671755725190839,-0.458984375,-0.039794921875,-0.149658203125,1.7969
