gyrox1,gyroy1,gyroz1,accelx1,accely1,accelz1,Time
1.2213740458015268,1.5725190839694656,-1.3740458015267176,-0.349853515625,0.089599609375,-0.422607421875,0.0
1.083969465648855,1.4961832061068703,-1.4809160305343512,-0.35107421875,0.08447265625,-0.42529296875,0.0017
1.1297709923664123,1.5114503816793894,-1.3129770992366412,-0.34814453125,0.0771484375,-0.4130859375,0.0034
1.2213740458015268,1.6030534351145038,-1.3129770992366412,-0.351318359375,0.07861328125,-0.4169921875,0.0050999999999999995
1.1297709923664123,1.5877862595419847,-1.3587786259541985,-0.348876953125,0.081298828125,-0.4150390625,0.0068
1.3282442748091603,1.618320610687023,-1.3282442748091603,-0.349365234375,0.083984375,-0.417236328125,0.008499999999999999
1.3129770992366412,1.6641221374045803,-1.2366412213740459,-0.352783203125,0.08154296875,-0.4130859375,0.010199999999999999
1.251908396946565,1.8931297709923665,-1.450381679389313,-0.35302734375,0.07861328125,-0.41455078125,0.011899999999999999
1.297709923664122,1.7557251908396947,-1.3282442748091603,-0.353515625,0.0810546875,-0.417236328125,0.0136
1.282442748091603,1.7404580152671756,-1.251908396946565,-0.34521484375,0.081298828125,-0.416259765625,0.0153
1.3587786259541985,1.7251908396946565,-1.3587786259541985,-0.353271484375,0.078857421875,-0.41455078125,0.016999999999999998
1.450381679389313,1.8778625954198473,-1.450381679389313,-0.352783203125,0.083740234375,-0.418212890625,0.018699999999999998
1.465648854961832,1.816793893129771,-1.2366412213740459,-0.355712890625,0.08203125,-0.421142578125,0.020399999999999998
1.465648854961832,1.786259541984733,-1.4961832061068703,-0.35009765625,0.08349609375,-0.41064453125,0.022099999999999998
1.450381679389313,1.8778625954198473,-1.282442748091603,-0.349365234375,0.0830078125,-0.418701171875,0.023799999999999998
1.5114503816793894,1.8473282442748091,-1.251908396946565,-0.34765625,0.08154296875,-0.416748046875,0.0255
1.5267175572519085,1.7251908396946565,-1.3893129770992367,-0.355712890625,0.0771484375,-0.418701171875,0.0272
1.4045801526717556,1.7709923664122138,-1.633587786259542,-0.35595703125,0.08203125,-0.4140625,0.0289
1.465648854961832,1.9083969465648856,-1.4045801526717556,-0.35400390625,0.08349609375,-0.41943359375,0.0306
1.633587786259542,1.8473282442748091,-1.297709923664122,-0.349365234375,0.079833984375,-0.4130859375,0.032299999999999995
1.5419847328244274,1.83206106870229,-1.297709923664122,-0.351318359375,0.079345703125,-0.42041015625,0.033999999999999996
1.83206106870229,1.9083969465648856,-1.4045801526717556,-0.34912109375,0.08203125,-0.415771484375,0.035699999999999996
1.3893129770992367,1.7251908396946565,-1.2061068702290076,-0.349609375,0.084716796875,-0.421142578125,0.037399999999999996
1.2061068702290076,1.786259541984733,-1.3893129770992367,-0.35302734375,0.083740234375,-0.41650390625,0.039099999999999996
1.4045801526717556,1.8625954198473282,-1.1908396946564885,-0.349853515625,0.08544921875,-0.417236328125,0.040799999999999996
1.4961832061068703,1.8625954198473282,-1.450381679389313,-0.345947265625,0.078125,-0.415283203125,0.042499999999999996
1.3893129770992367,1.7557251908396947,-1.2671755725190839,-0.350341796875,0.080078125,-0.413818359375,0.044199999999999996
1.5572519083969465,1.9083969465648856,-1.3893129770992367,-0.349365234375,0.08935546875,-0.40966796875,0.045899999999999996
1.5419847328244274,1.7709923664122138,-1.2366412213740459,-0.356201171875,0.07958984375,-0.416259765625,0.047599999999999996
1.3282442748091603,1.7251908396946565,-1.251908396946565,-0.353271484375,0.0771484375,-0.4326171875,0.0493
1.282442748091603,1.6793893129770991,-1.3129770992366412,-0.349853515625,0.0771484375,-0.434814453125,0.051
1.5114503816793894,1.83206106870229,-1.3893129770992367,-0.3525390625,0.07763671875,-0.411376953125,0.0527
1.1908396946564885,1.7557251908396947,-1.3587786259541985,-0.346923828125,0.076171875,-0.42236328125,0.0544
1.282442748091603,1.8778625954198473,-1.1145038167938932,-0.345703125,0.0771484375,-0.42236328125,0.0561
1.4198473282442747,1.816793893129771,-1.1908396946564885,-0.352783203125,0.0849609375,-0.415771484375,0.0578
1.3129770992366412,1.8473282442748091,-1.099236641221374,-0.35498046875,0.0771484375,-0.41650390625,0.0595
1.5114503816793894,1.7099236641221374,-1.1145038167938932,-0.3583984375,0.076416015625,-0.4189453125,0.0612
1.4351145038167938,1.6641221374045803,-1.0381679389312977,-0.35302734375,0.08447265625,-0.4228515625,0.0629
1.2671755725190839,1.6946564885496183,-1.0534351145038168,-0.35498046875,0.08349609375,-0.4248046875,0.06459999999999999
1.3282442748091603,1.7557251908396947,-1.1908396946564885,-0.349365234375,0.077392578125,-0.42724609375,0.0663
1.282442748091603,1.6793893129770991,-0.9923664122137404,-0.355224609375,0.080810546875,-0.42919921875,0.06799999999999999
1.3282442748091603,1.7099236641221374,-0.9312977099236641,-0.355224609375,0.079345703125,-0.415283203125,0.0697
1.465648854961832,1.6641221374045803,-0.9465648854961832,-0.355224609375,0.081787109375,-0.416259765625,0.07139999999999999
1.3129770992366412,1.6488549618320612,-0.9923664122137404,-0.35400390625,0.08251953125,-0.41650390625,0.0731
1.083969465648855,1.7557251908396947,-1.0076335877862594,-0.352783203125,0.0830078125,-0.41845703125,0.07479999999999999
1.3587786259541985,1.7404580152671756,-1.1297709923664123,-0.3564453125,0.08154296875,-0.419921875,0.0765
1.4351145038167938,1.9083969465648856,-0.9923664122137404,-0.35205078125,0.080810546875,-0.426025390625,0.07819999999999999
1.3587786259541985,1.9236641221374047,-0.9770992366412213,-0.353271484375,0.08349609375,-0.419189453125,0.0799
1.1297709923664123,1.7251908396946565,-1.0076335877862594,-0.3486328125,0.083251953125,-0.422119140625,0.08159999999999999
1.2671755725190839,1.786259541984733,-1.1603053435114503,-0.3525390625,0.080322265625,-0.425048828125,0.0833
1.2213740458015268,1.7404580152671756,-1.1603053435114503,-0.34765625,0.085693359375,-0.424072265625,0.08499999999999999
1.1603053435114503,1.6488549618320612,-0.9923664122137404,-0.34765625,0.085693359375,-0.411376953125,0.0867
1.3282442748091603,1.6946564885496183,-0.9770992366412213,-0.352294921875,0.08056640625,-0.418701171875,0.08839999999999999
1.1908396946564885,1.633587786259542,-0.9618320610687023,-0.35205078125,0.0830078125,-0.4150390625,0.0901
1.297709923664122,1.6793893129770991,-1.099236641221374,-0.349853515625,0.080078125,-0.4189453125,0.09179999999999999
1.2213740458015268,1.7251908396946565,-1.0534351145038168,-0.344482421875,0.072265625,-0.413818359375,0.0935
1.2061068702290076,1.633587786259542,-1.0076335877862594,-0.345703125,0.07666015625,-0.41845703125,0.09519999999999999
1.1603053435114503,1.6946564885496183,-1.083969465648855,-0.35009765625,0.077880859375,-0.419677734375,0.0969
1.1603053435114503,1.6946564885496183,-1.1908396946564885,-0.345458984375,0.080078125,-0.424560546875,0.0986
1.2061068702290076,1.7557251908396947,-1.0381679389312977,-0.346923828125,0.081298828125,-0.423095703125,0.1003
1.2061068702290076,1.6793893129770991,-1.083969465648855,-0.346923828125,0.0791015625,-0.4189453125,0.102
1.0076335877862594,1.6641221374045803,-1.0076335877862594,-0.34375,0.08154296875,-0.41796875,0.1037
0.8854961832061069,1.5114503816793894,-1.1297709923664123,-0.348388671875,0.08154296875,-0.41845703125,0.1054
1.0076335877862594,1.4809160305343512,-1.1297709923664123,-0.354248046875,0.080078125,-0.41552734375,0.1071
0.9770992366412213,1.297709923664122,-1.0687022900763359,-0.3486328125,0.08447265625,-0.41796875,0.1088
1.0229007633587786,1.2366412213740459,-1.1297709923664123,-0.353271484375,0.084716796875,-0.420166015625,0.11049999999999999
1.0229007633587786,1.1755725190839694,-1.1297709923664123,-0.34912109375,0.08154296875,-0.42529296875,0.1122
0.9465648854961832,1.0229007633587786,-1.1297709923664123,-0.350830078125,0.08203125,-0.424072265625,0.11389999999999999
0.8702290076335878,1.0229007633587786,-1.2213740458015268,-0.349609375,0.081787109375,-0.423583984375,0.1156
1.083969465648855,1.0687022900763359,-1.3587786259541985,-0.350341796875,0.08349609375,-0.4169921875,0.11729999999999999
1.1603053435114503,1.0229007633587786,-1.3587786259541985,-0.3544921875,0.083984375,-0.422119140625,0.119
1.0687022900763359,1.297709923664122,-1.1450381679389312,-0.35986328125,0.0810546875,-0.42529296875,0.12069999999999999
1.1755725190839694,1.251908396946565,-1.251908396946565,-0.354248046875,0.08154296875,-0.4208984375,0.1224
1.1297709923664123,1.2213740458015268,-1.3435114503816794,-0.357421875,0.0791015625,-0.424560546875,0.12409999999999999
1.0534351145038168,1.297709923664122,-1.4198473282442747,-0.35107421875,0.0869140625,-0.4208984375,0.1258
1.1145038167938932,1.4961832061068703,-1.3129770992366412,-0.35009765625,0.08203125,-0.423095703125,0.1275
1.2213740458015268,1.6030534351145038,-1.4045801526717556,-0.345703125,0.07958984375,-0.421142578125,0.12919999999999998
1.099236641221374,1.7557251908396947,-1.4045801526717556,-0.3544921875,0.08740234375,-0.416748046875,0.1309
1.083969465648855,1.9083969465648856,-1.4809160305343512,-0.3515625,0.083984375,-0.422119140625,0.1326
1.2213740458015268,1.786259541984733,-1.5725190839694656,-0.352783203125,0.083251953125,-0.423583984375,0.1343
1.1145038167938932,1.9541984732824427,-1.5267175572519085,-0.354736328125,0.08642578125,-0.422119140625,0.13599999999999998
1.3435114503816794,1.984732824427481,-1.2671755725190839,-0.351806640625,0.08349609375,-0.426025390625,0.1377
1.2061068702290076,2.1068702290076335,-1.5877862595419847,-0.35205078125,0.07763671875,-0.430419921875,0.1394
1.297709923664122,2.198473282442748,-1.7709923664122138,-0.350341796875,0.079833984375,-0.426513671875,0.1411
1.282442748091603,2.0,-1.6946564885496183,-0.350341796875,0.080322265625,-0.418701171875,0.14279999999999998
1.1603053435114503,1.9694656488549618,-1.6641221374045803,-0.3515625,0.08447265625,-0.42236328125,0.1445
1.5267175572519085,2.015267175572519,-1.7709923664122138,-0.35009765625,0.085205078125,-0.41650390625,0.1462
1.5725190839694656,1.8931297709923665,-1.9083969465648856,-0.34619140625,0.086181640625,-0.423583984375,0.1479
1.5572519083969465,1.8473282442748091,-1.9694656488549618,-0.34912109375,0.079833984375,-0.417236328125,0.14959999999999998
1.4961832061068703,1.6641221374045803,-1.7557251908396947,-0.345703125,0.07861328125,-0.41748046875,0.1513
1.633587786259542,1.5725190839694656,-2.122137404580153,-0.345947265625,0.09033203125,-0.419189453125,0.153
1.5877862595419847,1.5419847328244274,-1.9389312977099236,-0.34814453125,0.081787109375,-0.419677734375,0.1547
1.618320610687023,1.7251908396946565,-2.0,-0.351318359375,0.082275390625,-0.420166015625,0.15639999999999998
1.7557251908396947,1.465648854961832,-2.030534351145038,-0.3505859375,0.08544921875,-0.416015625,0.1581
1.7251908396946565,1.465648854961832,-2.0916030534351147,-0.35107421875,0.082275390625,-0.416015625,0.1598
1.4809160305343512,1.450381679389313,-2.0763358778625953,-0.3544921875,0.078125,-0.413818359375,0.1615
1.786259541984733,1.297709923664122,-2.015267175572519,-0.353759765625,0.076904296875,-0.412109375,0.16319999999999998
1.6488549618320612,1.2213740458015268,-1.9541984732824427,-0.349609375,0.07861328125,-0.42578125,0.1649
1.6030534351145038,1.2061068702290076,-2.030534351145038,-0.350830078125,0.078857421875,-0.421142578125,0.1666
1.5267175572519085,1.1603053435114503,-2.0763358778625953,-0.34912109375,0.082763671875,-0.4228515625,0.16829999999999998
1.6488549618320612,1.297709923664122,-2.015267175572519,-0.353515625,0.083740234375,-0.416259765625,0.16999999999999998
1.5267175572519085,1.1450381679389312,-1.786259541984733,-0.355712890625,0.0791015625,-0.42138671875,0.1717
1.4198473282442747,1.1297709923664123,-1.9541984732824427,-0.35107421875,0.083251953125,-0.417724609375,0.1734
1.4198473282442747,1.099236641221374,-1.83206106870229,-0.352783203125,0.0771484375,-0.428955078125,0.17509999999999998
1.5725190839694656,1.099236641221374,-2.0,-0.349365234375,0.080322265625,-0.412841796875,0.17679999999999998
1.3893129770992367,1.1145038167938932,-1.6793893129770991,-0.347900390625,0.0771484375,-0.416259765625,0.1785
1.1755725190839694,1.1450381679389312,-1.7709923664122138,-0.34912109375,0.083251953125,-0.42041015625,0.1802
1.3129770992366412,0.9618320610687023,-1.5419847328244274,-0.351806640625,0.072021484375,-0.424072265625,0.18189999999999998
1.0534351145038168,0.9618320610687023,-1.7709923664122138,-0.35302734375,0.081787109375,-0.410888671875,0.18359999999999999
1.0229007633587786,1.0229007633587786,-1.6946564885496183,-0.348876953125,0.0810546875,-0.416259765625,0.1853
0.9312977099236641,1.0229007633587786,-1.7404580152671756,-0.35302734375,0.0830078125,-0.423095703125,0.187
1.1297709923664123,0.916030534351145,-1.618320610687023,-0.354736328125,0.080810546875,-0.42529296875,0.18869999999999998
1.0534351145038168,0.9312977099236641,-1.6488549618320612,-0.353271484375,0.078125,-0.42724609375,0.19039999999999999
1.1755725190839694,0.9618320610687023,-1.4961832061068703,-0.349853515625,0.078369140625,-0.418212890625,0.1921
1.083969465648855,0.916030534351145,-1.5572519083969465,-0.3544921875,0.08251953125,-0.42138671875,0.1938
1.083969465648855,1.0076335877862594,-1.297709923664122,-0.349609375,0.079833984375,-0.413818359375,0.19549999999999998
1.0534351145038168,0.9312977099236641,-1.4961832061068703,-0.346923828125,0.08203125,-0.412841796875,0.1972
0.9465648854961832,1.0381679389312977,-1.3587786259541985,-0.35009765625,0.08203125,-0.423828125,0.1989
1.099236641221374,0.9465648854961832,-1.4045801526717556,-0.349609375,0.080322265625,-0.415771484375,0.2006
1.1450381679389312,0.9312977099236641,-1.4198473282442747,-0.346923828125,0.08447265625,-0.41259765625,0.20229999999999998
1.083969465648855,0.7633587786259542,-1.6030534351145038,-0.35107421875,0.080078125,-0.41748046875,0.204
0.8091603053435115,0.9618320610687023,-1.282442748091603,-0.357177734375,0.07958984375,-0.424560546875,0.2057
0.9770992366412213,0.8244274809160306,-1.465648854961832,-0.3505859375,0.086181640625,-0.41748046875,0.2074
1.3129770992366412,0.7938931297709924,-1.4198473282442747,-0.355712890625,0.0751953125,-0.418212890625,0.20909999999999998
0.9465648854961832,0.9007633587786259,-1.465648854961832,-0.3466796875,0.077880859375,-0.423828125,0.2108
1.0076335877862594,0.8854961832061069,-1.4351145038167938,-0.34521484375,0.076171875,-0.422607421875,0.2125
1.0076335877862594,0.7022900763358778,-1.450381679389313,-0.3447265625,0.078369140625,-0.415283203125,0.2142
1.0687022900763359,0.5801526717557252,-1.3893129770992367,-0.35107421875,0.081787109375,-0.41943359375,0.21589999999999998
1.1145038167938932,0.6106870229007634,-1.4045801526717556,-0.349365234375,0.0771484375,-0.421142578125,0.2176
0.8854961832061069,0.5343511450381679,-1.3282442748091603,-0.34765625,0.082763671875,-0.429443359375,0.2193
1.1145038167938932,0.7633587786259542,-1.5877862595419847,-0.34765625,0.081787109375,-0.42333984375,0.22099999999999997
1.297709923664122,0.7480916030534351,-1.3129770992366412,-0.350341796875,0.076904296875,-0.412353515625,0.22269999999999998
1.1145038167938932,0.7022900763358778,-1.282442748091603,-0.3466796875,0.079833984375,-0.415283203125,0.2244
1.1297709923664123,0.6564885496183206,-1.450381679389313,-0.3515625,0.0810546875,-0.417236328125,0.2261
1.1297709923664123,0.7175572519083969,-1.2213740458015268,-0.351806640625,0.07958984375,-0.41943359375,0.22779999999999997
1.1755725190839694,0.8091603053435115,-1.083969465648855,-0.349609375,0.08154296875,-0.413818359375,0.22949999999999998
1.1450381679389312,0.5648854961832062,-1.2671755725190839,-0.352783203125,0.08251953125,-0.41796875,0.2312
1.0687022900763359,0.7633587786259542,-1.3435114503816794,-0.353759765625,0.083740234375,-0.42041015625,0.2329
0.8549618320610687,0.7938931297709924,-1.282442748091603,-0.35107421875,0.080078125,-0.423828125,0.23459999999999998
1.0534351145038168,0.9465648854961832,-1.1297709923664123,-0.350830078125,0.080810546875,-0.419921875,0.23629999999999998
0.8549618320610687,0.8091603053435115,-1.099236641221374,-0.352294921875,0.0791015625,-0.419189453125,0.238
1.0381679389312977,0.732824427480916,-1.1450381679389312,-0.349365234375,0.07861328125,-0.41552734375,0.2397
1.0687022900763359,1.1603053435114503,-1.2213740458015268,-0.350830078125,0.078369140625,-0.417236328125,0.24139999999999998
0.9618320610687023,1.0381679389312977,-1.1145038167938932,-0.34716796875,0.08203125,-0.417236328125,0.24309999999999998
0.8702290076335878,1.0076335877862594,-1.1145038167938932,-0.3515625,0.083251953125,-0.417236328125,0.2448
0.9618320610687023,1.1297709923664123,-1.0076335877862594,-0.35205078125,0.08203125,-0.414306640625,0.2465
0.9770992366412213,1.2671755725190839,-1.1908396946564885,-0.352783203125,0.0791015625,-0.416015625,0.24819999999999998
0.9312977099236641,1.465648854961832,-1.1297709923664123,-0.34912109375,0.08056640625,-0.428955078125,0.24989999999999998
0.6717557251908397,1.3893129770992367,-1.0687022900763359,-0.3515625,0.083251953125,-0.419921875,0.2516
0.7480916030534351,1.3435114503816794,-1.0534351145038168,-0.355712890625,0.081787109375,-0.41845703125,0.25329999999999997
0.7480916030534351,1.3435114503816794,-1.0687022900763359,-0.3515625,0.0810546875,-0.424072265625,0.255
0.6564885496183206,1.5114503816793894,-0.916030534351145,-0.35107421875,0.08203125,-0.4306640625,0.2567
0.732824427480916,1.6488549618320612,-0.8702290076335878,-0.351806640625,0.076904296875,-0.4228515625,0.25839999999999996
0.732824427480916,1.450381679389313,-0.9465648854961832,-0.354736328125,0.0830078125,-0.416259765625,0.2601
0.7633587786259542,1.633587786259542,-1.1297709923664123,-0.350341796875,0.079833984375,-0.4228515625,0.2618
0.6412213740458015,1.7099236641221374,-0.9312977099236641,-0.351318359375,0.0830078125,-0.421142578125,0.2635
0.4580152671755725,1.5419847328244274,-0.9770992366412213,-0.35205078125,0.08154296875,-0.423095703125,0.2652
0.6564885496183206,1.633587786259542,-0.9465648854961832,-0.35205078125,0.08154296875,-0.415771484375,0.26689999999999997
0.7175572519083969,1.9236641221374047,-1.0534351145038168,-0.34912109375,0.08251953125,-0.41943359375,0.2686
0.6870229007633588,1.9083969465648856,-0.9923664122137404,-0.35107421875,0.079345703125,-0.423828125,0.2703
0.6412213740458015,1.6641221374045803,-0.9465648854961832,-0.350830078125,0.07763671875,-0.419677734375,0.27199999999999996
0.6870229007633588,1.633587786259542,-1.2061068702290076,-0.3515625,0.07958984375,-0.425048828125,0.2737
0.5190839694656488,1.6641221374045803,-1.3435114503816794,-0.347412109375,0.081787109375,-0.411865234375,0.2754
0.7175572519083969,1.8625954198473282,-1.1450381679389312,-0.3515625,0.08056640625,-0.420166015625,0.27709999999999996
0.5648854961832062,1.816793893129771,-1.1603053435114503,-0.349609375,0.082763671875,-0.419677734375,0.2788
0.4732824427480916,1.7099236641221374,-1.1755725190839694,-0.352294921875,0.07666015625,-0.414794921875,0.28049999999999997
0.3969465648854962,1.8015267175572518,-1.1755725190839694,-0.357666015625,0.084716796875,-0.422119140625,0.2822
0.7175572519083969,1.7251908396946565,-1.2671755725190839,-0.3505859375,0.076904296875,-0.4248046875,0.2839
0.6564885496183206,1.633587786259542,-1.2671755725190839,-0.350830078125,0.080322265625,-0.42333984375,0.28559999999999997
0.44274809160305345,1.6946564885496183,-1.3129770992366412,-0.354248046875,0.0810546875,-0.423828125,0.2873
0.5801526717557252,1.6488549618320612,-1.3587786259541985,-0.356201171875,0.08154296875,-0.43017578125,0.289
0.5648854961832062,1.7099236641221374,-1.297709923664122,-0.35009765625,0.08349609375,-0.41357421875,0.29069999999999996
0.48854961832061067,1.6488549618320612,-1.3282442748091603,-0.352294921875,0.085205078125,-0.421142578125,0.2924
0.5343511450381679,1.786259541984733,-1.618320610687023,-0.35302734375,0.077392578125,-0.4267578125,0.2941
0.4732824427480916,1.9389312977099236,-1.3740458015267176,-0.349365234375,0.08544921875,-0.414306640625,0.2958
0.5801526717557252,1.6030534351145038,-1.618320610687023,-0.35595703125,0.085205078125,-0.42138671875,0.2975
0.3816793893129771,1.8625954198473282,-1.6030534351145038,-0.3515625,0.079833984375,-0.423583984375,0.29919999999999997
0.5038167938931297,2.030534351145038,-1.5267175572519085,-0.353515625,0.078857421875,-0.42138671875,0.3009
0.4580152671755725,1.816793893129771,-1.6030534351145038,-0.35888671875,0.076416015625,-0.41845703125,0.3026
0.5343511450381679,1.8015267175572518,-1.7709923664122138,-0.35595703125,0.0859375,-0.4169921875,0.30429999999999996
0.44274809160305345,1.8778625954198473,-1.6030534351145038,-0.358154296875,0.08740234375,-0.427734375,0.306
0.4732824427480916,2.1068702290076335,-1.6641221374045803,-0.35107421875,0.0859375,-0.419189453125,0.3077
0.6106870229007634,2.0610687022900764,-1.7404580152671756,-0.34912109375,0.08642578125,-0.41357421875,0.3094
0.6259541984732825,2.1374045801526718,-1.7557251908396947,-0.35107421875,0.07861328125,-0.421875,0.3111
0.5190839694656488,2.0916030534351147,-1.786259541984733,-0.35009765625,0.077880859375,-0.42431640625,0.31279999999999997
0.6564885496183206,2.1068702290076335,-1.5114503816793894,-0.3486328125,0.084228515625,-0.421142578125,0.3145
0.8091603053435115,1.9083969465648856,-1.6488549618320612,-0.3486328125,0.087890625,-0.422119140625,0.3162
0.732824427480916,2.0916030534351147,-1.8015267175572518,-0.350341796875,0.079345703125,-0.42041015625,0.31789999999999996
0.44274809160305345,1.8931297709923665,-1.7709923664122138,-0.35400390625,0.082763671875,-0.42236328125,0.3196
0.7022900763358778,1.9236641221374047,-1.7099236641221374,-0.353759765625,0.08251953125,-0.417236328125,0.3213
0.5648854961832062,2.0610687022900764,-1.6030534351145038,-0.346923828125,0.08447265625,-0.42578125,0.323
0.7175572519083969,1.6488549618320612,-1.6946564885496183,-0.35009765625,0.08447265625,-0.418701171875,0.3247
0.5801526717557252,1.7251908396946565,-1.7404580152671756,-0.350341796875,0.0859375,-0.419921875,0.32639999999999997
0.8244274809160306,1.8473282442748091,-1.6641221374045803,-0.34912109375,0.084228515625,-0.43212890625,0.3281
0.6106870229007634,1.633587786259542,-1.816793893129771,-0.346923828125,0.076904296875,-0.41845703125,0.3298
0.7786259541984732,1.465648854961832,-1.9083969465648856,-0.354736328125,0.0849609375,-0.425537109375,0.33149999999999996
0.549618320610687,1.5419847328244274,-1.83206106870229,-0.353271484375,0.082763671875,-0.419921875,0.3332
0.8396946564885496,1.6946564885496183,-1.8015267175572518,-0.3427734375,0.081787109375,-0.423095703125,0.3349
0.8244274809160306,1.6641221374045803,-1.7404580152671756,-0.34912109375,0.07861328125,-0.424560546875,0.33659999999999995
0.42748091603053434,1.7099236641221374,-1.7404580152671756,-0.349365234375,0.079833984375,-0.418212890625,0.3383
0.6259541984732825,1.6641221374045803,-1.786259541984733,-0.353515625,0.081298828125,-0.416015625,0.33999999999999997
0.8549618320610687,1.83206106870229,-1.8015267175572518,-0.348876953125,0.08154296875,-0.420166015625,0.3417
0.8854961832061069,1.786259541984733,-1.5267175572519085,-0.35498046875,0.080322265625,-0.42431640625,0.3434
0.9770992366412213,2.0,-1.6488549618320612,-0.351806640625,0.078125,-0.418212890625,0.34509999999999996
0.6106870229007634,1.8778625954198473,-1.6641221374045803,-0.353271484375,0.08154296875,-0.42822265625,0.3468
0.5648854961832062,1.8931297709923665,-1.6030534351145038,-0.35400390625,0.082763671875,-0.42919921875,0.3485
0.5343511450381679,2.015267175572519,-1.3435114503816794,-0.34716796875,0.08349609375,-0.423828125,0.35019999999999996
0.8702290076335878,2.030534351145038,-1.5877862595419847,-0.34619140625,0.08154296875,-0.42626953125,0.3519
0.7938931297709924,1.9083969465648856,-1.5419847328244274,-0.348388671875,0.082275390625,-0.423095703125,0.35359999999999997
0.5648854961832062,1.8778625954198473,-1.7251908396946565,-0.347900390625,0.087158203125,-0.4130859375,0.3553
0.8244274809160306,1.8015267175572518,-1.5419847328244274,-0.349365234375,0.084716796875,-0.423095703125,0.357
1.0229007633587786,1.786259541984733,-1.5572519083969465,-0.347900390625,0.07958984375,-0.423095703125,0.35869999999999996
0.9007633587786259,1.786259541984733,-1.6946564885496183,-0.351806640625,0.08203125,-0.424560546875,0.3604
0.9618320610687023,1.6030534351145038,-1.816793893129771,-0.351318359375,0.08203125,-0.413330078125,0.3621
1.0687022900763359,1.633587786259542,-1.633587786259542,-0.3515625,0.080810546875,-0.416259765625,0.36379999999999996
1.2366412213740459,1.465648854961832,-1.7404580152671756,-0.35009765625,0.078857421875,-0.419189453125,0.3655
1.0076335877862594,1.297709923664122,-1.6793893129770991,-0.344970703125,0.0810546875,-0.412109375,0.36719999999999997
1.1908396946564885,1.4198473282442747,-1.8931297709923665,-0.349609375,0.085693359375,-0.419677734375,0.3689
1.251908396946565,1.3435114503816794,-1.618320610687023,-0.350341796875,0.08056640625,-0.418701171875,0.3706
1.3587786259541985,1.3587786259541985,-1.8931297709923665,-0.352294921875,0.083984375,-0.414794921875,0.37229999999999996
1.6030534351145038,1.2213740458015268,-1.786259541984733,-0.34619140625,0.08447265625,-0.413818359375,0.374
1.3893129770992367,1.3740458015267176,-1.7404580152671756,-0.347900390625,0.084716796875,-0.4111328125,0.3757
1.5267175572519085,1.4351145038167938,-1.7099236641221374,-0.354248046875,0.08642578125,-0.41943359375,0.37739999999999996
1.6793893129770991,1.2061068702290076,-1.9541984732824427,-0.348388671875,0.083251953125,-0.423095703125,0.3791
1.8015267175572518,1.3740458015267176,-1.633587786259542,-0.34814453125,0.08642578125,-0.4169921875,0.38079999999999997
1.7709923664122138,1.3893129770992367,-1.7099236641221374,-0.35498046875,0.080810546875,-0.4248046875,0.38249999999999995
1.5877862595419847,1.3587786259541985,-1.816793893129771,-0.351318359375,0.084228515625,-0.418701171875,0.3842
1.633587786259542,1.4045801526717556,-1.8931297709923665,-0.351806640625,0.08203125,-0.4140625,0.38589999999999997
1.8625954198473282,1.4045801526717556,-1.6030534351145038,-0.3486328125,0.08154296875,-0.419921875,0.3876
1.8778625954198473,1.3435114503816794,-1.5877862595419847,-0.34765625,0.0771484375,-0.42333984375,0.3893
1.6946564885496183,1.282442748091603,-1.5267175572519085,-0.347412109375,0.07861328125,-0.426513671875,0.39099999999999996
1.83206106870229,1.2213740458015268,-1.6946564885496183,-0.3466796875,0.080810546875,-0.42236328125,0.3927
1.7557251908396947,1.0687022900763359,-1.450381679389313,-0.3525390625,0.08154296875,-0.416015625,0.3944
1.7251908396946565,1.2366412213740459,-1.3893129770992367,-0.348388671875,0.07958984375,-0.421630859375,0.39609999999999995
1.83206106870229,1.0381679389312977,-1.282442748091603,-0.343994140625,0.081298828125,-0.420166015625,0.3978
1.5725190839694656,0.9007633587786259,-1.4809160305343512,-0.34716796875,0.07861328125,-0.421630859375,0.39949999999999997
1.5419847328244274,0.9007633587786259,-1.3282442748091603,-0.34619140625,0.08203125,-0.427978515625,0.4012
1.5877862595419847,0.8549618320610687,-1.3587786259541985,-0.35009765625,0.08056640625,-0.42529296875,0.4029
1.633587786259542,0.8549618320610687,-1.099236641221374,-0.3515625,0.078125,-0.4306640625,0.40459999999999996
1.4809160305343512,1.0229007633587786,-1.3740458015267176,-0.353271484375,0.075927734375,-0.421875,0.4063
1.4198473282442747,1.0076335877862594,-1.3129770992366412,-0.352783203125,0.084228515625,-0.419921875,0.408
1.633587786259542,1.0076335877862594,-1.1908396946564885,-0.34765625,0.08056640625,-0.42041015625,0.40969999999999995
1.465648854961832,0.8702290076335878,-1.1297709923664123,-0.345703125,0.07861328125,-0.42333984375,0.4114
1.4045801526717556,0.9923664122137404,-1.1297709923664123,-0.3525390625,0.081298828125,-0.4150390625,0.41309999999999997
1.3587786259541985,1.1755725190839694,-1.083969465648855,-0.35498046875,0.079833984375,-0.422119140625,0.4148
1.450381679389313,1.1603053435114503,-1.0534351145038168,-0.351318359375,0.07666015625,-0.421630859375,0.4165
1.5725190839694656,1.0534351145038168,-1.0534351145038168,-0.350830078125,0.082763671875,-0.419189453125,0.41819999999999996
1.3282442748091603,1.083969465648855,-1.1297709923664123,-0.3515625,0.077880859375,-0.42333984375,0.4199
1.282442748091603,1.1603053435114503,-1.0687022900763359,-0.35107421875,0.082275390625,-0.415283203125,0.4216
1.3740458015267176,1.2061068702290076,-0.9770992366412213,-0.352783203125,0.0849609375,-0.4248046875,0.42329999999999995
1.3435114503816794,1.2061068702290076,-0.8549618320610687,-0.352783203125,0.079833984375,-0.4169921875,0.425
1.2671755725190839,1.2213740458015268,-0.8396946564885496,-0.349365234375,0.08251953125,-0.415771484375,0.42669999999999997
1.450381679389313,1.3129770992366412,-0.9465648854961832,-0.346435546875,0.0791015625,-0.426513671875,0.4284
1.282442748091603,1.1603053435114503,-1.1450381679389312,-0.34716796875,0.084228515625,-0.424560546875,0.4301
1.4045801526717556,1.1603053435114503,-0.8396946564885496,-0.348388671875,0.08251953125,-0.422119140625,0.43179999999999996
1.3435114503816794,1.297709923664122,-0.8702290076335878,-0.359375,0.076904296875,-0.414306640625,0.4335
1.4351145038167938,1.1755725190839694,-0.9923664122137404,-0.350341796875,0.08154296875,-0.42041015625,0.4352
1.5114503816793894,1.1145038167938932,-0.9770992366412213,-0.349365234375,0.077392578125,-0.427001953125,0.43689999999999996
1.2213740458015268,1.083969465648855,-0.8091603053435115,-0.3544921875,0.076904296875,-0.4189453125,0.4386
1.1908396946564885,1.1755725190839694,-0.8396946564885496,-0.3544921875,0.084716796875,-0.418701171875,0.44029999999999997
1.4198473282442747,1.083969465648855,-0.8702290076335878,-0.350830078125,0.081787109375,-0.417724609375,0.44199999999999995
1.618320610687023,0.9770992366412213,-0.9618320610687023,-0.348388671875,0.07861328125,-0.42431640625,0.4437
1.1755725190839694,1.0229007633587786,-0.9618320610687023,-0.34716796875,0.0810546875,-0.4189453125,0.44539999999999996
1.297709923664122,1.2213740458015268,-1.1450381679389312,-0.34765625,0.083251953125,-0.424560546875,0.4471
1.1297709923664123,1.1450381679389312,-1.1755725190839694,-0.356201171875,0.084228515625,-0.42431640625,0.4488
1.2061068702290076,0.9770992366412213,-1.0534351145038168,-0.350830078125,0.081298828125,-0.417724609375,0.45049999999999996
1.1603053435114503,1.1450381679389312,-1.0534351145038168,-0.35400390625,0.08447265625,-0.41943359375,0.4522
1.3893129770992367,0.9312977099236641,-0.9770992366412213,-0.351318359375,0.082275390625,-0.42041015625,0.45389999999999997
1.297709923664122,1.2061068702290076,-1.1755725190839694,-0.355224609375,0.08203125,-0.42236328125,0.45559999999999995
1.1603053435114503,1.282442748091603,-1.2061068702290076,-0.352783203125,0.08251953125,-0.42529296875,0.4573
1.083969465648855,1.083969465648855,-1.1755725190839694,-0.350341796875,0.080322265625,-0.425537109375,0.45899999999999996
1.2213740458015268,1.0534351145038168,-1.2213740458015268,-0.353515625,0.079833984375,-0.421142578125,0.4607
1.1297709923664123,1.1908396946564885,-1.1908396946564885,-0.354248046875,0.084228515625,-0.4267578125,0.4624
1.251908396946565,1.1755725190839694,-1.251908396946565,-0.3515625,0.081298828125,-0.421142578125,0.46409999999999996
1.2061068702290076,1.2671755725190839,-1.282442748091603,-0.3505859375,0.083251953125,-0.4306640625,0.4658
1.083969465648855,1.251908396946565,-1.1450381679389312,-0.354736328125,0.0810546875,-0.414306640625,0.46749999999999997
0.9923664122137404,1.3282442748091603,-1.1908396946564885,-0.35302734375,0.085205078125,-0.422607421875,0.46919999999999995
1.0687022900763359,1.282442748091603,-1.251908396946565,-0.347412109375,0.0810546875,-0.42041015625,0.4709
1.0229007633587786,1.1908396946564885,-1.3282442748091603,-0.3525390625,0.080810546875,-0.412841796875,0.47259999999999996
1.0534351145038168,1.251908396946565,-1.2671755725190839,-0.349853515625,0.083740234375,-0.42578125,0.4743
1.099236641221374,1.2061068702290076,-1.3587786259541985,-0.350341796875,0.08203125,-0.43115234375,0.476
1.0076335877862594,1.1908396946564885,-1.0687022900763359,-0.350830078125,0.0791015625,-0.421875,0.47769999999999996
1.0229007633587786,1.3893129770992367,-1.6030534351145038,-0.35009765625,0.082275390625,-0.421142578125,0.4794
1.251908396946565,1.1297709923664123,-1.465648854961832,-0.35009765625,0.080322265625,-0.42041015625,0.48109999999999997
0.6412213740458015,1.099236641221374,-1.5114503816793894,-0.347900390625,0.082763671875,-0.42138671875,0.48279999999999995
0.9618320610687023,1.1297709923664123,-1.3587786259541985,-0.354248046875,0.081787109375,-0.420166015625,0.4845
1.0687022900763359,1.0687022900763359,-1.5267175572519085,-0.345703125,0.07958984375,-0.41845703125,0.48619999999999997
0.8854961832061069,1.1297709923664123,-1.618320610687023,-0.351318359375,0.0771484375,-0.42822265625,0.4879
0.8244274809160306,1.251908396946565,-1.6946564885496183,-0.353759765625,0.084228515625,-0.423828125,0.4896
0.9923664122137404,1.1755725190839694,-1.4961832061068703,-0.3505859375,0.082275390625,-0.417236328125,0.49129999999999996
0.916030534351145,1.083969465648855,-1.6488549618320612,-0.349853515625,0.08544921875,-0.4130859375,0.493
0.9923664122137404,1.3282442748091603,-1.4961832061068703,-0.35107421875,0.083740234375,-0.420654296875,0.4947
0.8702290076335878,1.1145038167938932,-1.7251908396946565,-0.347412109375,0.080078125,-0.42529296875,0.49639999999999995
0.8702290076335878,1.1145038167938932,-1.7404580152671756,-0.3466796875,0.0791015625,-0.427734375,0.4981
0.8396946564885496,1.2213740458015268,-1.8473282442748091,-0.353759765625,0.079345703125,-0.42041015625,0.49979999999999997
0.732824427480916,1.3893129770992367,-1.5572519083969465,-0.350341796875,0.082763671875,-0.42333984375,0.5015
0.8091603053435115,1.465648854961832,-1.5267175572519085,-0.346435546875,0.080322265625,-0.424072265625,0.5032
0.6564885496183206,1.3435114503816794,-1.6641221374045803,-0.34912109375,0.079833984375,-0.41552734375,0.5049
0.5801526717557252,1.251908396946565,-1.8931297709923665,-0.357421875,0.084228515625,-0.42041015625,0.5065999999999999
0.6106870229007634,1.282442748091603,-1.7251908396946565,-0.353271484375,0.08447265625,-0.4228515625,0.5083
0.7175572519083969,1.3740458015267176,-1.8473282442748091,-0.350830078125,0.08154296875,-0.41796875,0.51
0.6564885496183206,1.3282442748091603,-1.8473282442748091,-0.352783203125,0.0810546875,-0.420654296875,0.5116999999999999
0.4732824427480916,1.282442748091603,-1.6793893129770991,-0.35009765625,0.083740234375,-0.41845703125,0.5134
0.7022900763358778,1.2366412213740459,-1.5725190839694656,-0.3525390625,0.083251953125,-0.419189453125,0.5151
0.4580152671755725,1.3129770992366412,-1.9083969465648856,-0.35302734375,0.086181640625,-0.419189453125,0.5167999999999999
0.5954198473282443,1.297709923664122,-1.9694656488549618,-0.343017578125,0.079833984375,-0.4130859375,0.5185
0.5801526717557252,1.297709923664122,-1.9083969465648856,-0.34912109375,0.081787109375,-0.412353515625,0.5202
0.5343511450381679,1.2671755725190839,-1.7557251908396947,-0.354736328125,0.08544921875,-0.418701171875,0.5218999999999999
0.5343511450381679,1.0534351145038168,-1.8778625954198473,-0.35498046875,0.0859375,-0.41796875,0.5236
0.6259541984732825,1.282442748091603,-1.83206106870229,-0.352783203125,0.08544921875,-0.419921875,0.5253
0.5190839694656488,1.3740458015267176,-1.8778625954198473,-0.353271484375,0.08740234375,-0.42431640625,0.527
0.5954198473282443,1.3282442748091603,-1.8015267175572518,-0.349853515625,0.08544921875,-0.422607421875,0.5287
0.44274809160305345,1.1755725190839694,-1.7099236641221374,-0.3525390625,0.084228515625,-0.422119140625,0.5304
0.7633587786259542,1.2366412213740459,-1.7099236641221374,-0.352294921875,0.07421875,-0.42138671875,0.5321
0.6412213740458015,1.450381679389313,-1.83206106870229,-0.348388671875,0.08154296875,-0.42041015625,0.5337999999999999
0.7938931297709924,1.297709923664122,-1.7099236641221374,-0.35546875,0.082275390625,-0.418701171875,0.5355
0.5954198473282443,1.3129770992366412,-1.8625954198473282,-0.34912109375,0.080322265625,-0.425048828125,0.5372
0.5343511450381679,1.297709923664122,-1.7404580152671756,-0.353759765625,0.081787109375,-0.420654296875,0.5388999999999999
0.7175572519083969,1.282442748091603,-1.6030534351145038,-0.3525390625,0.081298828125,-0.42578125,0.5406
0.6106870229007634,1.282442748091603,-1.8015267175572518,-0.349365234375,0.0849609375,-0.42529296875,0.5423
0.9465648854961832,1.3129770992366412,-1.8931297709923665,-0.349609375,0.08203125,-0.4189453125,0.5439999999999999
0.7175572519083969,1.282442748091603,-1.83206106870229,-0.349365234375,0.079345703125,-0.42236328125,0.5457
0.6717557251908397,1.3129770992366412,-1.6641221374045803,-0.352783203125,0.0810546875,-0.4140625,0.5474
0.7786259541984732,1.3587786259541985,-1.816793893129771,-0.352294921875,0.085205078125,-0.41845703125,0.5490999999999999
0.5801526717557252,1.450381679389313,-1.786259541984733,-0.356689453125,0.080810546875,-0.412841796875,0.5508
0.7633587786259542,1.465648854961832,-1.786259541984733,-0.354736328125,0.080322265625,-0.416259765625,0.5525
0.916030534351145,1.3893129770992367,-1.786259541984733,-0.35107421875,0.0771484375,-0.423095703125,0.5541999999999999
0.6412213740458015,1.3282442748091603,-1.5725190839694656,-0.35009765625,0.080078125,-0.423828125,0.5559
0.6717557251908397,1.4045801526717556,-1.8473282442748091,-0.349609375,0.08251953125,-0.413818359375,0.5576
0.7022900763358778,1.450381679389313,-1.8625954198473282,-0.358154296875,0.079345703125,-0.41796875,0.5593
0.9465648854961832,1.3587786259541985,-1.7099236641221374,-0.34912109375,0.08251953125,-0.419189453125,0.5609999999999999
0.7786259541984732,1.3282442748091603,-1.8625954198473282,-0.351806640625,0.076904296875,-0.41455078125,0.5627
1.1603053435114503,1.3740458015267176,-1.83206106870229,-0.35302734375,0.085205078125,-0.41748046875,0.5644
1.0381679389312977,1.4198473282442747,-1.7251908396946565,-0.353515625,0.08642578125,-0.427001953125,0.5660999999999999
0.8702290076335878,1.3435114503816794,-1.5877862595419847,-0.35107421875,0.078857421875,-0.410400390625,0.5678
0.9007633587786259,1.465648854961832,-1.6030534351145038,-0.353515625,0.076416015625,-0.425537109375,0.5695
0.9312977099236641,1.3587786259541985,-1.7099236641221374,-0.349365234375,0.086669921875,-0.42431640625,0.5711999999999999
1.0229007633587786,1.251908396946565,-1.6030534351145038,-0.35302734375,0.0791015625,-0.422607421875,0.5729
1.1603053435114503,1.3435114503816794,-1.618320610687023,-0.35595703125,0.0830078125,-0.4150390625,0.5746
1.3740458015267176,1.3282442748091603,-1.5419847328244274,-0.353271484375,0.083251953125,-0.41552734375,0.5762999999999999
0.9618320610687023,1.1145038167938932,-1.5419847328244274,-0.3466796875,0.075439453125,-0.417236328125,0.578
0.8854961832061069,1.3740458015267176,-1.450381679389313,-0.349853515625,0.0810546875,-0.41796875,0.5797
0.9923664122137404,1.3740458015267176,-1.6793893129770991,-0.3486328125,0.081298828125,-0.41455078125,0.5813999999999999
1.099236641221374,1.3282442748091603,-1.465648854961832,-0.35107421875,0.083251953125,-0.420654296875,0.5831
1.0229007633587786,1.4045801526717556,-1.5419847328244274,-0.350830078125,0.084228515625,-0.4248046875,0.5848
1.3129770992366412,1.1755725190839694,-1.297709923664122,-0.35107421875,0.08837890625,-0.416015625,0.5865
1.3129770992366412,1.2671755725190839,-1.5419847328244274,-0.35205078125,0.08349609375,-0.422119140625,0.5882
1.4198473282442747,1.1603053435114503,-1.3435114503816794,-0.353271484375,0.081298828125,-0.422119140625,0.5899
1.099236641221374,1.1755725190839694,-1.3282442748091603,-0.3447265625,0.08642578125,-0.419677734375,0.5916
1.251908396946565,1.0381679389312977,-1.450381679389313,-0.348876953125,0.079833984375,-0.42138671875,0.5932999999999999
1.2671755725190839,1.083969465648855,-1.3740458015267176,-0.34814453125,0.075439453125,-0.41748046875,0.595
1.1908396946564885,1.251908396946565,-1.3740458015267176,-0.353271484375,0.08349609375,-0.416015625,0.5967
1.3435114503816794,1.0076335877862594,-1.3435114503816794,-0.34814453125,0.07763671875,-0.424072265625,0.5983999999999999
1.4045801526717556,1.0687022900763359,-1.4045801526717556,-0.353515625,0.07861328125,-0.427490234375,0.6001
1.3893129770992367,1.1297709923664123,-1.6030534351145038,-0.34814453125,0.081298828125,-0.417724609375,0.6018
1.5114503816793894,1.0687022900763359,-1.2366412213740459,-0.347412109375,0.08447265625,-0.41162109375,0.6034999999999999
1.6488549618320612,1.0076335877862594,-1.3282442748091603,-0.3525390625,0.076904296875,-0.416748046875,0.6052
1.4045801526717556,1.1450381679389312,-1.2671755725190839,-0.35009765625,0.083251953125,-0.42431640625,0.6069
1.5419847328244274,0.9465648854961832,-1.3893129770992367,-0.349853515625,0.079345703125,-0.417236328125,0.6085999999999999
1.6946564885496183,1.1450381679389312,-1.3740458015267176,-0.349853515625,0.077392578125,-0.419677734375,0.6103
1.5114503816793894,1.0687022900763359,-1.3129770992366412,-0.354248046875,0.081787109375,-0.418701171875,0.612
1.5877862595419847,1.1450381679389312,-1.4198473282442747,-0.3486328125,0.07568359375,-0.4248046875,0.6136999999999999
1.4961832061068703,1.0534351145038168,-1.3893129770992367,-0.35107421875,0.07568359375,-0.423828125,0.6154
1.4045801526717556,1.0687022900763359,-1.4045801526717556,-0.347900390625,0.084228515625,-0.423583984375,0.6171
1.6030534351145038,1.0381679389312977,-1.4351145038167938,-0.34814453125,0.077880859375,-0.419677734375,0.6188
1.5572519083969465,0.8091603053435115,-1.4045801526717556,-0.35205078125,0.07421875,-0.4228515625,0.6204999999999999
1.465648854961832,0.8244274809160306,-1.282442748091603,-0.3515625,0.085205078125,-0.418701171875,0.6222
1.3893129770992367,0.916030534351145,-1.2213740458015268,-0.34814453125,0.082275390625,-0.4140625,0.6239
1.450381679389313,0.7786259541984732,-1.3282442748091603,-0.351806640625,0.076416015625,-0.4169921875,0.6255999999999999
1.297709923664122,0.8549618320610687,-1.282442748091603,-0.356201171875,0.0810546875,-0.41650390625,0.6273
1.5572519083969465,0.7938931297709924,-1.2061068702290076,-0.354248046875,0.0830078125,-0.42041015625,0.629
1.4809160305343512,0.6870229007633588,-1.0687022900763359,-0.348388671875,0.07763671875,-0.41796875,0.6306999999999999
1.2366412213740459,0.7633587786259542,-1.2061068702290076,-0.35009765625,0.082275390625,-0.421630859375,0.6324
1.3740458015267176,0.8091603053435115,-1.251908396946565,-0.3505859375,0.0849609375,-0.422119140625,0.6341
1.465648854961832,0.7480916030534351,-1.1755725190839694,-0.35205078125,0.0830078125,-0.427978515625,0.6357999999999999
1.2061068702290076,0.732824427480916,-1.2671755725190839,-0.355224609375,0.0849609375,-0.42236328125,0.6375
1.2671755725190839,0.7480916030534351,-1.1755725190839694,-0.3505859375,0.081298828125,-0.4150390625,0.6392
1.1908396946564885,0.8702290076335878,-1.1297709923664123,-0.35205078125,0.078369140625,-0.41943359375,0.6408999999999999
1.4809160305343512,0.8091603053435115,-1.1908396946564885,-0.352294921875,0.07958984375,-0.41748046875,0.6426
1.4045801526717556,0.6564885496183206,-1.099236641221374,-0.35107421875,0.07421875,-0.417236328125,0.6443
1.1450381679389312,0.8396946564885496,-1.1755725190839694,-0.351806640625,0.08154296875,-0.4150390625,0.646
1.1145038167938932,1.0381679389312977,-1.099236641221374,-0.349609375,0.078857421875,-0.4189453125,0.6476999999999999
1.1908396946564885,0.8091603053435115,-1.1603053435114503,-0.3525390625,0.080078125,-0.413818359375,0.6494
1.099236641221374,0.8091603053435115,-1.1145038167938932,-0.3486328125,0.07861328125,-0.4248046875,0.6511
0.8702290076335878,0.8244274809160306,-1.099236641221374,-0.349609375,0.080810546875,-0.410400390625,0.6527999999999999
0.9770992366412213,0.9312977099236641,-1.083969465648855,-0.350830078125,0.08154296875,-0.4208984375,0.6545
1.0534351145038168,0.9007633587786259,-1.0076335877862594,-0.35107421875,0.079345703125,-0.426025390625,0.6562
0.7938931297709924,1.0229007633587786,-1.0687022900763359,-0.35595703125,0.078857421875,-0.426513671875,0.6578999999999999
0.9312977099236641,0.8702290076335878,-1.1908396946564885,-0.3544921875,0.078369140625,-0.427978515625,0.6596
0.6564885496183206,0.8244274809160306,-1.083969465648855,-0.354248046875,0.080322265625,-0.419921875,0.6613
0.9007633587786259,0.8549618320610687,-1.0076335877862594,-0.355712890625,0.084716796875,-0.42822265625,0.6629999999999999
0.7175572519083969,1.0229007633587786,-1.1297709923664123,-0.350830078125,0.085205078125,-0.421142578125,0.6647
0.7022900763358778,1.0687022900763359,-0.8549618320610687,-0.358642578125,0.080810546875,-0.413330078125,0.6664
0.8396946564885496,1.083969465648855,-1.1603053435114503,-0.35205078125,0.0830078125,-0.42333984375,0.6680999999999999
0.732824427480916,1.1755725190839694,-1.099236641221374,-0.354248046875,0.078369140625,-0.424560546875,0.6698
0.6412213740458015,0.9770992366412213,-1.0229007633587786,-0.357666015625,0.080078125,-0.420166015625,0.6715
0.7786259541984732,1.1603053435114503,-0.9312977099236641,-0.35302734375,0.085693359375,-0.4208984375,0.6731999999999999
0.6564885496183206,1.1908396946564885,-1.1755725190839694,-0.3544921875,0.080078125,-0.425537109375,0.6748999999999999
0.7175572519083969,1.099236641221374,-1.3740458015267176,-0.350830078125,0.081298828125,-0.4140625,0.6766
0.7786259541984732,1.0534351145038168,-1.2213740458015268,-0.352294921875,0.085693359375,-0.416259765625,0.6783
0.549618320610687,1.1145038167938932,-0.9923664122137404,-0.35107421875,0.083984375,-0.41943359375,0.6799999999999999
0.5954198473282443,1.1603053435114503,-1.450381679389313,-0.35107421875,0.083251953125,-0.4150390625,0.6817
0.5801526717557252,1.1297709923664123,-1.3587786259541985,-0.351318359375,0.083251953125,-0.42236328125,0.6834
0.5954198473282443,1.1145038167938932,-1.282442748091603,-0.35205078125,0.080810546875,-0.410888671875,0.6850999999999999
0.5648854961832062,1.1145038167938932,-1.2366412213740459,-0.3525390625,0.080322265625,-0.417724609375,0.6868
0.5801526717557252,1.297709923664122,-1.5877862595419847,-0.349365234375,0.082763671875,-0.418212890625,0.6885
0.5954198473282443,1.3893129770992367,-1.6641221374045803,-0.3515625,0.08251953125,-0.42578125,0.6901999999999999
0.732824427480916,1.282442748091603,-1.5267175572519085,-0.349609375,0.078369140625,-0.420166015625,0.6919
0.5648854961832062,1.3435114503816794,-1.3740458015267176,-0.348388671875,0.073486328125,-0.42236328125,0.6936
0.6717557251908397,1.3129770992366412,-1.5419847328244274,-0.34765625,0.08447265625,-0.4208984375,0.6952999999999999
0.6259541984732825,1.1908396946564885,-1.4045801526717556,-0.35107421875,0.080810546875,-0.42529296875,0.697
0.4122137404580153,1.2213740458015268,-1.6030534351145038,-0.349609375,0.082275390625,-0.416015625,0.6987
0.4122137404580153,1.1908396946564885,-1.6030534351145038,-0.34619140625,0.080078125,-0.41845703125,0.7003999999999999
0.21374045801526717,1.1450381679389312,-1.6946564885496183,-0.34765625,0.077392578125,-0.418701171875,0.7021
0.2900763358778626,1.0076335877862594,-1.7404580152671756,-0.346435546875,0.078857421875,-0.4228515625,0.7038
0.3511450381679389,0.8854961832061069,-1.786259541984733,-0.351806640625,0.08056640625,-0.4208984375,0.7055
0.0916030534351145,0.916030534351145,-1.6030534351145038,-0.34912109375,0.079345703125,-0.423583984375,0.7071999999999999
0.2748091603053435,0.6870229007633588,-1.5572519083969465,-0.349609375,0.083251953125,-0.42431640625,0.7089
0.32061068702290074,0.7480916030534351,-1.633587786259542,-0.35107421875,0.085205078125,-0.428955078125,0.7106
0.183206106870229,0.8244274809160306,-1.786259541984733,-0.346923828125,0.0859375,-0.422607421875,0.7122999999999999
0.2748091603053435,0.6717557251908397,-1.7099236641221374,-0.349853515625,0.083984375,-0.42529296875,0.714
0.183206106870229,0.9007633587786259,-1.8931297709923665,-0.35400390625,0.0810546875,-0.429443359375,0.7157
0.21374045801526717,0.8549618320610687,-1.6030534351145038,-0.353515625,0.08544921875,-0.4169921875,0.7173999999999999
0.0916030534351145,0.8396946564885496,-1.786259541984733,-0.35205078125,0.08056640625,-0.41845703125,0.7191
0.44274809160305345,0.8702290076335878,-1.633587786259542,-0.353759765625,0.08203125,-0.42626953125,0.7208
0.4732824427480916,1.1755725190839694,-2.0610687022900764,-0.353515625,0.08203125,-0.427978515625,0.7224999999999999
0.5038167938931297,1.0229007633587786,-1.8778625954198473,-0.3564453125,0.08544921875,-0.423828125,0.7242
0.5038167938931297,1.083969465648855,-2.015267175572519,-0.353759765625,0.08935546875,-0.421630859375,0.7259
0.3053435114503817,1.3893129770992367,-1.984732824427481,-0.349609375,0.0869140625,-0.417236328125,0.7275999999999999
0.5190839694656488,1.450381679389313,-2.0763358778625953,-0.350830078125,0.09033203125,-0.4287109375,0.7293
0.5801526717557252,1.4809160305343512,-2.0610687022900764,-0.353515625,0.086181640625,-0.42724609375,0.731
0.6717557251908397,1.3893129770992367,-2.351145038167939,-0.354248046875,0.0849609375,-0.421875,0.7326999999999999
0.7786259541984732,1.5725190839694656,-2.183206106870229,-0.349365234375,0.083251953125,-0.422607421875,0.7343999999999999
0.7786259541984732,1.5114503816793894,-2.2748091603053435,-0.3525390625,0.088134765625,-0.41650390625,0.7361
0.8854961832061069,1.5725190839694656,-2.1374045801526718,-0.352294921875,0.08349609375,-0.42529296875,0.7378
0.8244274809160306,1.4045801526717556,-2.3969465648854964,-0.348876953125,0.088134765625,-0.41259765625,0.7394999999999999
1.1297709923664123,1.3587786259541985,-2.351145038167939,-0.348876953125,0.08349609375,-0.416748046875,0.7412
1.099236641221374,1.465648854961832,-2.6106870229007635,-0.3466796875,0.087158203125,-0.41552734375,0.7429
1.3129770992366412,1.3435114503816794,-2.4885496183206106,-0.34814453125,0.0859375,-0.41796875,0.7445999999999999
0.9770992366412213,1.297709923664122,-2.763358778625954,-0.348876953125,0.081787109375,-0.41943359375,0.7463
1.2061068702290076,1.251908396946565,-2.549618320610687,-0.353515625,0.08447265625,-0.420654296875,0.748
1.2061068702290076,1.1755725190839694,-2.6106870229007635,-0.352783203125,0.0859375,-0.4189453125,0.7496999999999999
1.2671755725190839,1.0687022900763359,-2.595419847328244,-0.34130859375,0.0859375,-0.4208984375,0.7514
1.1755725190839694,1.0687022900763359,-2.8396946564885495,-0.35400390625,0.080810546875,-0.41943359375,0.7531
1.297709923664122,1.251908396946565,-2.564885496183206,-0.35009765625,0.084716796875,-0.424072265625,0.7547999999999999
1.3435114503816794,1.1297709923664123,-2.50381679389313,-0.349853515625,0.0859375,-0.42529296875,0.7565
1.3282442748091603,1.0076335877862594,-2.4580152671755724,-0.352294921875,0.083740234375,-0.420166015625,0.7582
1.3435114503816794,0.8244274809160306,-2.519083969465649,-0.353271484375,0.07958984375,-0.4228515625,0.7598999999999999
1.5877862595419847,0.9618320610687023,-2.351145038167939,-0.349609375,0.079345703125,-0.418701171875,0.7615999999999999
1.3893129770992367,1.0687022900763359,-2.381679389312977,-0.350341796875,0.08251953125,-0.413330078125,0.7633
1.3893129770992367,1.1450381679389312,-2.3053435114503817,-0.34716796875,0.080322265625,-0.417236328125,0.7649999999999999
1.3435114503816794,0.9007633587786259,-2.3206106870229006,-0.349365234375,0.080810546875,-0.42529296875,0.7666999999999999
1.1908396946564885,0.7633587786259542,-2.198473282442748,-0.353515625,0.083984375,-0.41845703125,0.7684
1.3129770992366412,0.8244274809160306,-2.0763358778625953,-0.352294921875,0.076904296875,-0.423583984375,0.7701
1.251908396946565,0.7633587786259542,-2.030534351145038,-0.353271484375,0.080810546875,-0.423095703125,0.7717999999999999
0.9312977099236641,0.7175572519083969,-2.0916030534351147,-0.352783203125,0.071533203125,-0.415283203125,0.7735
1.0229007633587786,0.7938931297709924,-1.786259541984733,-0.354736328125,0.08056640625,-0.41455078125,0.7752
1.1908396946564885,0.732824427480916,-1.786259541984733,-0.349853515625,0.08349609375,-0.4189453125,0.7768999999999999
1.1755725190839694,0.7022900763358778,-1.8778625954198473,-0.353759765625,0.08251953125,-0.42236328125,0.7786
0.9618320610687023,0.7633587786259542,-1.7099236641221374,-0.353759765625,0.08056640625,-0.420654296875,0.7803
0.9312977099236641,0.8549618320610687,-1.6030534351145038,-0.352783203125,0.0751953125,-0.419677734375,0.7819999999999999
1.0687022900763359,0.7938931297709924,-1.5725190839694656,-0.351318359375,0.076171875,-0.415771484375,0.7837
1.0687022900763359,0.9007633587786259,-1.5114503816793894,-0.3583984375,0.07421875,-0.424560546875,0.7854
0.8702290076335878,0.7480916030534351,-1.4351145038167938,-0.351806640625,0.07763671875,-0.42431640625,0.7870999999999999
0.7938931297709924,0.8702290076335878,-1.5419847328244274,-0.354248046875,0.0791015625,-0.41943359375,0.7888
0.9312977099236641,0.7633587786259542,-1.3129770992366412,-0.35498046875,0.08203125,-0.427734375,0.7905
1.0229007633587786,0.8854961832061069,-1.4045801526717556,-0.34912109375,0.080322265625,-0.42138671875,0.7921999999999999
0.8549618320610687,0.7022900763358778,-1.3129770992366412,-0.348388671875,0.0830078125,-0.42041015625,0.7938999999999999
0.8244274809160306,0.8549618320610687,-1.083969465648855,-0.353271484375,0.0791015625,-0.421142578125,0.7956
0.8396946564885496,0.8091603053435115,-1.5419847328244274,-0.357666015625,0.08154296875,-0.41943359375,0.7973
0.8396946564885496,0.7480916030534351,-1.2061068702290076,-0.354248046875,0.0849609375,-0.420654296875,0.7989999999999999
0.8854961832061069,0.6564885496183206,-1.0229007633587786,-0.35498046875,0.080810546875,-0.41796875,0.8007
1.0076335877862594,0.549618320610687,-1.099236641221374,-0.35009765625,0.07861328125,-0.42138671875,0.8024
0.9923664122137404,0.5954198473282443,-1.0687022900763359,-0.348876953125,0.07958984375,-0.419677734375,0.8040999999999999
0.9618320610687023,0.33587786259541985,-1.0534351145038168,-0.351318359375,0.081298828125,-0.4208984375,0.8058
0.8854961832061069,0.48854961832061067,-1.0687022900763359,-0.35205078125,0.085693359375,-0.413818359375,0.8075
0.7480916030534351,0.549618320610687,-1.2366412213740459,-0.353271484375,0.079833984375,-0.4140625,0.8091999999999999
0.7633587786259542,0.3816793893129771,-1.2061068702290076,-0.353271484375,0.075927734375,-0.418212890625,0.8109
0.9770992366412213,0.12213740458015267,-1.1450381679389312,-0.349609375,0.079833984375,-0.42822265625,0.8126
0.9312977099236641,0.366412213740458,-1.1297709923664123,-0.34375,0.07666015625,-0.424560546875,0.8142999999999999
1.0381679389312977,0.4580152671755725,-1.2366412213740459,-0.34423828125,0.08349609375,-0.41455078125,0.816
0.9923664122137404,0.13740458015267176,-1.0534351145038168,-0.34521484375,0.079345703125,-0.421875,0.8177
1.083969465648855,0.366412213740458,-0.9770992366412213,-0.355712890625,0.076171875,-0.413330078125,0.8193999999999999
0.9618320610687023,0.2748091603053435,-1.083969465648855,-0.348388671875,0.07568359375,-0.41552734375,0.8210999999999999
0.9770992366412213,0.1984732824427481,-1.1145038167938932,-0.351318359375,0.078369140625,-0.4150390625,0.8228
0.9465648854961832,0.2595419847328244,-1.2671755725190839,-0.3525390625,0.07861328125,-0.417236328125,0.8244999999999999
1.0229007633587786,0.2595419847328244,-1.282442748091603,-0.35302734375,0.0830078125,-0.417236328125,0.8261999999999999
0.9312977099236641,0.2748091603053435,-1.0534351145038168,-0.355712890625,0.082763671875,-0.42041015625,0.8279
0.7480916030534351,0.3511450381679389,-1.2213740458015268,-0.356689453125,0.08056640625,-0.418701171875,0.8296
0.8854961832061069,0.48854961832061067,-1.0076335877862594,-0.35302734375,0.08154296875,-0.423828125,0.8312999999999999
0.8396946564885496,0.44274809160305345,-1.0381679389312977,-0.347900390625,0.083251953125,-0.416259765625,0.833
0.8549618320610687,0.33587786259541985,-1.1450381679389312,-0.3564453125,0.07763671875,-0.416259765625,0.8347
0.916030534351145,0.5954198473282443,-1.1450381679389312,-0.352294921875,0.077392578125,-0.42626953125,0.8363999999999999
0.5954198473282443,0.6717557251908397,-0.9618320610687023,-0.35595703125,0.078369140625,-0.43017578125,0.8381
0.6412213740458015,0.732824427480916,-0.8702290076335878,-0.353515625,0.076416015625,-0.420166015625,0.8398
0.7633587786259542,0.8549618320610687,-1.1297709923664123,-0.3515625,0.078857421875,-0.42041015625,0.8414999999999999
0.6106870229007634,0.9312977099236641,-1.2671755725190839,-0.35205078125,0.07763671875,-0.42041015625,0.8432
0.5343511450381679,1.0534351145038168,-0.9923664122137404,-0.355224609375,0.079833984375,-0.427001953125,0.8449
0.4122137404580153,1.0381679389312977,-1.2213740458015268,-0.356201171875,0.073974609375,-0.4140625,0.8465999999999999
0.5038167938931297,1.2213740458015268,-0.9618320610687023,-0.353759765625,0.077880859375,-0.421630859375,0.8482999999999999
0.5343511450381679,1.0687022900763359,-1.3282442748091603,-0.352783203125,0.078125,-0.413330078125,0.85
0.13740458015267176,1.1908396946564885,-1.1145038167938932,-0.349609375,0.078125,-0.416015625,0.8516999999999999
0.2900763358778626,1.3435114503816794,-1.1908396946564885,-0.3505859375,0.078125,-0.423095703125,0.8533999999999999
0.3511450381679389,1.297709923664122,-1.1297709923664123,-0.3515625,0.07861328125,-0.4169921875,0.8551
0.2748091603053435,1.282442748091603,-1.2671755725190839,-0.34619140625,0.08154296875,-0.41455078125,0.8568
0.3053435114503817,1.3587786259541985,-1.3740458015267176,-0.35302734375,0.078857421875,-0.419189453125,0.8584999999999999
0.0916030534351145,1.4198473282442747,-1.2366412213740459,-0.354736328125,0.076416015625,-0.41796875,0.8602
0.10687022900763359,1.6030534351145038,-1.2213740458015268,-0.3466796875,0.07958984375,-0.421142578125,0.8619
0.10687022900763359,1.5572519083969465,-1.465648854961832,-0.352783203125,0.08154296875,-0.416259765625,0.8635999999999999
0.13740458015267176,1.5114503816793894,-1.2671755725190839,-0.35400390625,0.079345703125,-0.416259765625,0.8653
0.183206106870229,1.5419847328244274,-1.6946564885496183,-0.35302734375,0.079833984375,-0.422607421875,0.867
0.24427480916030533,1.465648854961832,-1.297709923664122,-0.35693359375,0.08154296875,-0.420654296875,0.8686999999999999
-0.183206106870229,1.6793893129770991,-1.5572519083969465,-0.35400390625,0.083740234375,-0.422119140625,0.8704
-0.015267175572519083,1.6641221374045803,-1.618320610687023,-0.35791015625,0.085205078125,-0.424072265625,0.8721
-0.13740458015267176,1.7709923664122138,-1.83206106870229,-0.3564453125,0.0830078125,-0.42626953125,0.8737999999999999
0.0,1.4961832061068703,-1.4809160305343512,-0.351806640625,0.08203125,-0.4228515625,0.8755
0.21374045801526717,1.5419847328244274,-1.9389312977099236,-0.349365234375,0.08203125,-0.421875,0.8772
0.015267175572519083,1.8778625954198473,-1.8015267175572518,-0.352783203125,0.08251953125,-0.420654296875,0.8788999999999999
-0.10687022900763359,1.6946564885496183,-1.83206106870229,-0.35498046875,0.08056640625,-0.412109375,0.8805999999999999
-0.32061068702290074,1.6641221374045803,-1.786259541984733,-0.35498046875,0.082763671875,-0.42041015625,0.8823
-0.15267175572519084,1.6946564885496183,-2.030534351145038,-0.357666015625,0.087158203125,-0.417236328125,0.8839999999999999
-0.183206106870229,1.7099236641221374,-1.9541984732824427,-0.353515625,0.078369140625,-0.424072265625,0.8856999999999999
-0.12213740458015267,1.6793893129770991,-1.984732824427481,-0.351318359375,0.084228515625,-0.42578125,0.8874
-0.030534351145038167,1.6946564885496183,-2.015267175572519,-0.353271484375,0.081787109375,-0.426025390625,0.8891
-0.0916030534351145,1.7251908396946565,-2.0916030534351147,-0.351318359375,0.08251953125,-0.422607421875,0.8907999999999999
-0.3053435114503817,1.6793893129770991,-2.0916030534351147,-0.35400390625,0.083251953125,-0.42041015625,0.8925
-0.13740458015267176,1.8015267175572518,-2.045801526717557,-0.356201171875,0.087646484375,-0.423583984375,0.8942
-0.183206106870229,1.5267175572519085,-2.2595419847328246,-0.35498046875,0.085205078125,-0.42529296875,0.8958999999999999
-0.13740458015267176,1.7557251908396947,-2.3053435114503817,-0.357177734375,0.088623046875,-0.418212890625,0.8976
-0.22900763358778625,1.786259541984733,-2.3206106870229006,-0.3525390625,0.085205078125,-0.41552734375,0.8993
0.07633587786259542,1.816793893129771,-2.3053435114503817,-0.355712890625,0.08740234375,-0.417724609375,0.9009999999999999
-0.0916030534351145,1.7709923664122138,-2.0916030534351147,-0.349609375,0.08349609375,-0.4208984375,0.9027
-0.24427480916030533,1.7709923664122138,-2.351145038167939,-0.348388671875,0.08349609375,-0.41796875,0.9044
0.1984732824427481,1.8473282442748091,-2.366412213740458,-0.35400390625,0.0849609375,-0.4248046875,0.9060999999999999
0.07633587786259542,1.984732824427481,-2.427480916030534,-0.35009765625,0.08251953125,-0.42138671875,0.9077999999999999
0.015267175572519083,1.8015267175572518,-2.4885496183206106,-0.351318359375,0.0859375,-0.416015625,0.9095
0.0916030534351145,1.816793893129771,-2.4885496183206106,-0.349365234375,0.085205078125,-0.41943359375,0.9111999999999999
0.2748091603053435,1.8625954198473282,-2.4580152671755724,-0.351318359375,0.080810546875,-0.413330078125,0.9128999999999999
0.15267175572519084,1.7404580152671756,-2.595419847328244,-0.351318359375,0.085205078125,-0.417724609375,0.9146
0.16793893129770993,1.8015267175572518,-2.4427480916030535,-0.352294921875,0.076904296875,-0.410888671875,0.9163
0.3053435114503817,1.6946564885496183,-2.381679389312977,-0.347412109375,0.08251953125,-0.41943359375,0.9179999999999999
0.3511450381679389,1.465648854961832,-2.549618320610687,-0.354736328125,0.07763671875,-0.421630859375,0.9197
0.42748091603053434,1.5114503816793894,-2.595419847328244,-0.352783203125,0.082763671875,-0.422607421875,0.9214
0.5343511450381679,1.450381679389313,-2.2900763358778624,-0.353759765625,0.0869140625,-0.42626953125,0.9230999999999999
0.48854961832061067,1.450381679389313,-2.427480916030534,-0.354248046875,0.083740234375,-0.4169921875,0.9248
0.366412213740458,1.465648854961832,-2.2900763358778624,-0.35107421875,0.080810546875,-0.421142578125,0.9265
0.366412213740458,1.4961832061068703,-2.33587786259542,-0.3525390625,0.085693359375,-0.417724609375,0.9281999999999999
0.6106870229007634,1.6946564885496183,-2.381679389312977,-0.3525390625,0.08154296875,-0.41943359375,0.9299
0.6412213740458015,1.816793893129771,-2.4885496183206106,-0.350830078125,0.084228515625,-0.419189453125,0.9316
0.6717557251908397,1.6488549618320612,-2.3969465648854964,-0.35400390625,0.079833984375,-0.42041015625,0.9332999999999999
0.7938931297709924,1.8778625954198473,-2.351145038167939,-0.3515625,0.080322265625,-0.409912109375,0.9349999999999999
0.8091603053435115,2.1374045801526718,-2.183206106870229,-0.350341796875,0.087890625,-0.4091796875,0.9367
0.7480916030534351,1.9083969465648856,-2.2290076335877864,-0.351318359375,0.08740234375,-0.419921875,0.9383999999999999
0.7175572519083969,1.8473282442748091,-2.0916030534351147,-0.353515625,0.08642578125,-0.42919921875,0.9400999999999999
0.9770992366412213,2.0,-2.2290076335877864,-0.353271484375,0.08056640625,-0.41943359375,0.9418
0.8702290076335878,2.1068702290076335,-2.1526717557251906,-0.35107421875,0.086669921875,-0.41845703125,0.9434999999999999
1.0229007633587786,2.122137404580153,-2.213740458015267,-0.3525390625,0.085693359375,-0.419677734375,0.9451999999999999
0.732824427480916,2.0763358778625953,-1.9389312977099236,-0.353515625,0.0830078125,-0.4169921875,0.9469
0.6564885496183206,2.0,-2.16793893129771,-0.348876953125,0.08642578125,-0.422119140625,0.9486
1.0229007633587786,2.030534351145038,-2.122137404580153,-0.349365234375,0.087890625,-0.417724609375,0.9502999999999999
1.0229007633587786,2.2290076335877864,-2.1068702290076335,-0.349853515625,0.083740234375,-0.4189453125,0.952
1.0229007633587786,2.0763358778625953,-1.984732824427481,-0.346435546875,0.080078125,-0.411865234375,0.9537
1.2213740458015268,2.122137404580153,-1.984732824427481,-0.346923828125,0.08056640625,-0.42138671875,0.9553999999999999
1.5267175572519085,1.9389312977099236,-1.83206106870229,-0.350341796875,0.081787109375,-0.416748046875,0.9571
1.465648854961832,1.9694656488549618,-1.8931297709923665,-0.350341796875,0.088623046875,-0.423583984375,0.9588
1.4045801526717556,1.9541984732824427,-2.0,-0.351806640625,0.08349609375,-0.410888671875,0.9604999999999999
1.83206106870229,1.9389312977099236,-1.9694656488549618,-0.345703125,0.081298828125,-0.410400390625,0.9621999999999999
1.633587786259542,2.0610687022900764,-1.6946564885496183,-0.35205078125,0.086181640625,-0.4169921875,0.9639
1.5725190839694656,1.9694656488549618,-1.9541984732824427,-0.351318359375,0.08154296875,-0.4208984375,0.9655999999999999
1.633587786259542,1.9236641221374047,-1.9541984732824427,-0.34912109375,0.08056640625,-0.423095703125,0.9672999999999999
1.984732824427481,2.030534351145038,-2.0,-0.353759765625,0.08447265625,-0.42626953125,0.969
1.8015267175572518,1.8625954198473282,-1.8473282442748091,-0.3515625,0.086181640625,-0.421875,0.9706999999999999
1.7709923664122138,1.816793893129771,-1.9083969465648856,-0.3505859375,0.08544921875,-0.427978515625,0.9723999999999999
1.8931297709923665,1.8473282442748091,-1.7099236641221374,-0.3515625,0.083740234375,-0.423095703125,0.9741
1.8931297709923665,1.83206106870229,-1.5725190839694656,-0.348876953125,0.0849609375,-0.418701171875,0.9758
2.1526717557251906,1.8625954198473282,-1.786259541984733,-0.3515625,0.082763671875,-0.42822265625,0.9774999999999999
2.0,1.6946564885496183,-1.5725190839694656,-0.354248046875,0.079833984375,-0.42529296875,0.9792
1.786259541984733,1.9389312977099236,-1.3740458015267176,-0.349365234375,0.08154296875,-0.427734375,0.9809
2.045801526717557,1.7404580152671756,-1.5572519083969465,-0.345458984375,0.08251953125,-0.41796875,0.9825999999999999
2.015267175572519,1.7099236641221374,-1.4351145038167938,-0.35107421875,0.077880859375,-0.414794921875,0.9843
2.122137404580153,1.6946564885496183,-1.2213740458015268,-0.346435546875,0.077392578125,-0.426513671875,0.986
1.7251908396946565,1.5267175572519085,-1.3740458015267176,-0.349853515625,0.079833984375,-0.421630859375,0.9876999999999999
1.8625954198473282,1.5877862595419847,-1.297709923664122,-0.354248046875,0.0791015625,-0.422607421875,0.9894
2.0763358778625953,1.297709923664122,-1.2213740458015268,-0.349365234375,0.07958984375,-0.420166015625,0.9911
1.9083969465648856,1.4961832061068703,-1.1603053435114503,-0.35546875,0.079833984375,-0.421142578125,0.9927999999999999
1.8931297709923665,1.4198473282442747,-1.1755725190839694,-0.352294921875,0.078125,-0.42822265625,0.9944999999999999
1.7709923664122138,1.3129770992366412,-1.1297709923664123,-0.352783203125,0.076904296875,-0.4150390625,0.9962
1.7557251908396947,1.3740458015267176,-1.0229007633587786,-0.3486328125,0.077392578125,-0.42236328125,0.9978999999999999
1.7404580152671756,1.251908396946565,-1.0534351145038168,-0.356689453125,0.079345703125,-0.4248046875,0.9995999999999999
1.8473282442748091,1.1908396946564885,-1.1450381679389312,-0.35107421875,0.08056640625,-0.429443359375,1.0012999999999999
1.8625954198473282,1.3282442748091603,-0.9770992366412213,-0.352294921875,0.07861328125,-0.4208984375,1.003
1.786259541984733,1.3740458015267176,-0.916030534351145,-0.351806640625,0.07763671875,-0.419921875,1.0047
1.9541984732824427,1.4045801526717556,-0.9465648854961832,-0.353759765625,0.072998046875,-0.41552734375,1.0064
1.9236641221374047,1.3282442748091603,-1.0076335877862594,-0.354248046875,0.079345703125,-0.427978515625,1.0081
1.633587786259542,1.4351145038167938,-0.8549618320610687,-0.35302734375,0.08056640625,-0.419921875,1.0098
1.5725190839694656,1.5572519083969465,-0.7938931297709924,-0.352783203125,0.077880859375,-0.419921875,1.0114999999999998
1.4809160305343512,1.5267175572519085,-0.6717557251908397,-0.35205078125,0.086181640625,-0.4189453125,1.0131999999999999
1.5267175572519085,1.3893129770992367,-0.7022900763358778,-0.34912109375,0.08154296875,-0.427001953125,1.0149
1.6641221374045803,1.3893129770992367,-0.6870229007633588,-0.356201171875,0.076171875,-0.420166015625,1.0166
1.7251908396946565,1.3435114503816794,-0.732824427480916,-0.349853515625,0.078369140625,-0.421630859375,1.0183
1.3435114503816794,1.3740458015267176,-0.6717557251908397,-0.353271484375,0.079833984375,-0.423583984375,1.02
1.5419847328244274,1.5572519083969465,-0.6870229007633588,-0.3486328125,0.078857421875,-0.431884765625,1.0217
1.3587786259541985,1.3129770992366412,-0.5954198473282443,-0.349609375,0.078857421875,-0.419921875,1.0233999999999999
1.3740458015267176,1.3435114503816794,-0.6259541984732825,-0.345458984375,0.0810546875,-0.41455078125,1.0251
1.4351145038167938,1.1908396946564885,-0.5954198473282443,-0.348876953125,0.074951171875,-0.415771484375,1.0268
1.2366412213740459,1.2061068702290076,-0.7633587786259542,-0.351318359375,0.07763671875,-0.42626953125,1.0285
1.282442748091603,1.1755725190839694,-0.7938931297709924,-0.3515625,0.07666015625,-0.4228515625,1.0302
1.5725190839694656,1.297709923664122,-0.6259541984732825,-0.343994140625,0.08154296875,-0.41552734375,1.0319
1.3740458015267176,1.2061068702290076,-0.7938931297709924,-0.3486328125,0.080322265625,-0.420166015625,1.0335999999999999
1.2671755725190839,1.2366412213740459,-0.7786259541984732,-0.350830078125,0.072021484375,-0.42333984375,1.0352999999999999
1.450381679389313,1.083969465648855,-0.7633587786259542,-0.345703125,0.079833984375,-0.431396484375,1.037
1.3587786259541985,1.1145038167938932,-0.8091603053435115,-0.3525390625,0.081298828125,-0.425537109375,1.0387
1.4045801526717556,1.1755725190839694,-0.7175572519083969,-0.353271484375,0.084228515625,-0.4208984375,1.0404
1.0534351145038168,1.2366412213740459,-0.9770992366412213,-0.350830078125,0.08203125,-0.421875,1.0421
1.2061068702290076,1.099236641221374,-0.8854961832061069,-0.35009765625,0.074951171875,-0.4140625,1.0437999999999998
1.282442748091603,1.0076335877862594,-0.9618320610687023,-0.3505859375,0.078857421875,-0.416259765625,1.0454999999999999
1.1450381679389312,1.1145038167938932,-1.1297709923664123,-0.34912109375,0.080810546875,-0.422607421875,1.0472
1.0381679389312977,1.0381679389312977,-1.1755725190839694,-0.349365234375,0.081787109375,-0.422607421875,1.0489
1.1450381679389312,1.099236641221374,-0.9618320610687023,-0.352294921875,0.07763671875,-0.413818359375,1.0506
1.251908396946565,1.1450381679389312,-1.2061068702290076,-0.35107421875,0.078125,-0.4189453125,1.0523
1.1450381679389312,1.2671755725190839,-1.0534351145038168,-0.34912109375,0.0751953125,-0.418212890625,1.054
1.083969465648855,1.4198473282442747,-0.8854961832061069,-0.349609375,0.083984375,-0.4150390625,1.0556999999999999
1.1908396946564885,1.1450381679389312,-1.1297709923664123,-0.34814453125,0.0810546875,-0.406494140625,1.0574
1.0229007633587786,1.2671755725190839,-1.3893129770992367,-0.353759765625,0.079345703125,-0.42138671875,1.0591
0.9618320610687023,1.251908396946565,-0.9312977099236641,-0.357421875,0.07763671875,-0.4189453125,1.0608
0.9923664122137404,1.1603053435114503,-1.1450381679389312,-0.355712890625,0.0751953125,-0.417236328125,1.0625
0.8549618320610687,1.3435114503816794,-1.1908396946564885,-0.346923828125,0.08251953125,-0.423095703125,1.0642
0.8549618320610687,1.3129770992366412,-1.3893129770992367,-0.3466796875,0.08056640625,-0.4130859375,1.0658999999999998
0.9312977099236641,1.2366412213740459,-1.1450381679389312,-0.354736328125,0.0771484375,-0.423828125,1.0675999999999999
0.8396946564885496,1.251908396946565,-1.3129770992366412,-0.35546875,0.076416015625,-0.419677734375,1.0693
0.7480916030534351,1.2366412213740459,-1.2671755725190839,-0.348388671875,0.079345703125,-0.413818359375,1.071
0.7175572519083969,1.4045801526717556,-1.3282442748091603,-0.351318359375,0.0810546875,-0.416259765625,1.0727
0.8091603053435115,1.4045801526717556,-1.2366412213740459,-0.345947265625,0.07861328125,-0.410888671875,1.0744
0.8244274809160306,1.2213740458015268,-1.3740458015267176,-0.344970703125,0.078857421875,-0.42041015625,1.0760999999999998
0.8396946564885496,1.297709923664122,-1.3740458015267176,-0.349853515625,0.08203125,-0.423828125,1.0777999999999999
0.8091603053435115,1.4045801526717556,-1.450381679389313,-0.353271484375,0.0830078125,-0.423095703125,1.0795
0.7175572519083969,1.3282442748091603,-1.3893129770992367,-0.346435546875,0.08544921875,-0.4130859375,1.0812
0.6717557251908397,1.282442748091603,-1.5267175572519085,-0.35302734375,0.07666015625,-0.423828125,1.0829
0.7786259541984732,1.450381679389313,-1.450381679389313,-0.347900390625,0.076904296875,-0.4169921875,1.0846
0.8244274809160306,1.3893129770992367,-1.5419847328244274,-0.3505859375,0.078369140625,-0.418212890625,1.0863
0.5190839694656488,1.2366412213740459,-1.5877862595419847,-0.3466796875,0.0791015625,-0.41162109375,1.0879999999999999
0.5954198473282443,1.3282442748091603,-1.6030534351145038,-0.34716796875,0.08251953125,-0.423095703125,1.0897
0.5648854961832062,1.4198473282442747,-1.5725190839694656,-0.35498046875,0.08203125,-0.4140625,1.0914
0.6717557251908397,1.4961832061068703,-1.7709923664122138,-0.3564453125,0.0859375,-0.41552734375,1.0931
0.6717557251908397,1.3129770992366412,-1.5725190839694656,-0.350341796875,0.07861328125,-0.421630859375,1.0948
0.6717557251908397,1.5572519083969465,-1.7404580152671756,-0.353515625,0.082275390625,-0.417724609375,1.0965
0.6106870229007634,1.465648854961832,-1.7557251908396947,-0.35205078125,0.080078125,-0.42138671875,1.0981999999999998
0.7022900763358778,1.450381679389313,-1.6488549618320612,-0.34912109375,0.0771484375,-0.419189453125,1.0998999999999999
0.7633587786259542,1.5877862595419847,-1.5114503816793894,-0.353271484375,0.083251953125,-0.42041015625,1.1016
0.7633587786259542,1.4045801526717556,-1.7251908396946565,-0.352783203125,0.079345703125,-0.42236328125,1.1033
0.7480916030534351,1.5114503816793894,-1.7251908396946565,-0.352783203125,0.08056640625,-0.424072265625,1.105
0.6564885496183206,1.3435114503816794,-1.633587786259542,-0.347412109375,0.08251953125,-0.42041015625,1.1067
0.6412213740458015,1.5114503816793894,-1.5419847328244274,-0.35595703125,0.081298828125,-0.415283203125,1.1083999999999998
0.5801526717557252,1.7709923664122138,-1.618320610687023,-0.3544921875,0.08056640625,-0.423095703125,1.1100999999999999
0.7480916030534351,1.4198473282442747,-1.6641221374045803,-0.34716796875,0.081787109375,-0.42529296875,1.1118
0.7938931297709924,1.465648854961832,-1.7709923664122138,-0.346435546875,0.079833984375,-0.40966796875,1.1135
0.6870229007633588,1.5114503816793894,-1.6030534351145038,-0.351318359375,0.08447265625,-0.416748046875,1.1152
0.7022900763358778,1.5114503816793894,-1.8015267175572518,-0.3505859375,0.08349609375,-0.421630859375,1.1169
0.8549618320610687,1.5419847328244274,-1.6946564885496183,-0.34912109375,0.082275390625,-0.421875,1.1186
0.8396946564885496,1.5419847328244274,-1.5267175572519085,-0.350830078125,0.08447265625,-0.412353515625,1.1202999999999999
0.7022900763358778,1.5877862595419847,-1.6488549618320612,-0.35546875,0.0791015625,-0.415771484375,1.1219999999999999
0.8091603053435115,1.7557251908396947,-1.7251908396946565,-0.349853515625,0.081787109375,-0.423095703125,1.1237
0.8244274809160306,1.6641221374045803,-1.5419847328244274,-0.349365234375,0.080810546875,-0.41943359375,1.1254
0.8091603053435115,1.6641221374045803,-1.618320610687023,-0.345703125,0.075439453125,-0.41943359375,1.1271
0.7480916030534351,1.4809160305343512,-1.5725190839694656,-0.35107421875,0.081787109375,-0.415771484375,1.1288
1.0229007633587786,1.7709923664122138,-1.5114503816793894,-0.35205078125,0.078125,-0.4248046875,1.1304999999999998
0.916030534351145,1.633587786259542,-1.7099236641221374,-0.355224609375,0.0830078125,-0.419677734375,1.1321999999999999
0.9618320610687023,1.6030534351145038,-1.618320610687023,-0.350341796875,0.07958984375,-0.420166015625,1.1339
0.916030534351145,1.450381679389313,-1.6030534351145038,-0.351806640625,0.077880859375,-0.421142578125,1.1356
0.7938931297709924,1.465648854961832,-1.6946564885496183,-0.350830078125,0.082275390625,-0.419189453125,1.1373
1.1297709923664123,1.6030534351145038,-1.633587786259542,-0.3505859375,0.0810546875,-0.41357421875,1.139
0.8549618320610687,1.5725190839694656,-1.7099236641221374,-0.35107421875,0.08642578125,-0.41455078125,1.1407
0.8396946564885496,1.6030534351145038,-1.5725190839694656,-0.3515625,0.08740234375,-0.421630859375,1.1423999999999999
1.0076335877862594,1.4961832061068703,-1.6030534351145038,-0.349609375,0.08203125,-0.41650390625,1.1441
1.0076335877862594,1.618320610687023,-1.5725190839694656,-0.347412109375,0.0771484375,-0.427734375,1.1458
0.8244274809160306,1.786259541984733,-1.6030534351145038,-0.34814453125,0.083251953125,-0.423583984375,1.1475
0.8549618320610687,1.7557251908396947,-1.4198473282442747,-0.3515625,0.0791015625,-0.41552734375,1.1492
0.8854961832061069,1.6488549618320612,-1.297709923664122,-0.3486328125,0.081298828125,-0.420166015625,1.1509
0.7633587786259542,1.5114503816793894,-1.5877862595419847,-0.350830078125,0.078125,-0.426025390625,1.1525999999999998
0.916030534351145,1.4809160305343512,-1.4198473282442747,-0.35107421875,0.084228515625,-0.421875,1.1542999999999999
0.8396946564885496,1.5877862595419847,-1.3435114503816794,-0.354248046875,0.08203125,-0.422607421875,1.156
1.0381679389312977,1.4961832061068703,-1.3740458015267176,-0.352294921875,0.0830078125,-0.421630859375,1.1577
0.8854961832061069,1.5725190839694656,-1.465648854961832,-0.349609375,0.08349609375,-0.421630859375,1.1594
1.083969465648855,1.3740458015267176,-1.4198473282442747,-0.349365234375,0.079833984375,-0.4208984375,1.1611
1.0229007633587786,1.3893129770992367,-1.3893129770992367,-0.353271484375,0.0810546875,-0.427001953125,1.1627999999999998
1.2061068702290076,1.4198473282442747,-1.3587786259541985,-0.3505859375,0.082763671875,-0.424560546875,1.1644999999999999
1.1450381679389312,1.297709923664122,-1.5877862595419847,-0.349853515625,0.082763671875,-0.4228515625,1.1662
1.1755725190839694,1.3740458015267176,-1.3893129770992367,-0.351806640625,0.077880859375,-0.426025390625,1.1679
1.3282442748091603,1.5419847328244274,-1.450381679389313,-0.3544921875,0.082763671875,-0.421142578125,1.1696
1.1755725190839694,1.4809160305343512,-1.251908396946565,-0.3505859375,0.083740234375,-0.424560546875,1.1713
0.9770992366412213,1.3435114503816794,-1.3129770992366412,-0.350830078125,0.0810546875,-0.4228515625,1.173
1.099236641221374,1.3587786259541985,-1.5267175572519085,-0.352783203125,0.080322265625,-0.42041015625,1.1746999999999999
1.3435114503816794,1.465648854961832,-1.4198473282442747,-0.360107421875,0.079345703125,-0.411376953125,1.1764
1.1297709923664123,1.4961832061068703,-1.2671755725190839,-0.348876953125,0.08642578125,-0.417236328125,1.1781
1.1755725190839694,1.5114503816793894,-1.0229007633587786,-0.350341796875,0.08447265625,-0.420166015625,1.1798
1.2366412213740459,1.5725190839694656,-1.083969465648855,-0.355224609375,0.080810546875,-0.4208984375,1.1815
1.1297709923664123,1.5877862595419847,-0.9770992366412213,-0.347412109375,0.0810546875,-0.4208984375,1.1832
1.251908396946565,1.618320610687023,-1.1755725190839694,-0.34716796875,0.075439453125,-0.424072265625,1.1848999999999998
1.2213740458015268,1.7251908396946565,-1.0534351145038168,-0.350830078125,0.084228515625,-0.426513671875,1.1865999999999999
1.1297709923664123,1.465648854961832,-0.9923664122137404,-0.35205078125,0.082275390625,-0.41943359375,1.1883
1.1755725190839694,1.5114503816793894,-1.0534351145038168,-0.349609375,0.08056640625,-0.41259765625,1.19
1.2061068702290076,1.5114503816793894,-1.1297709923664123,-0.346435546875,0.07958984375,-0.41943359375,1.1917
1.2366412213740459,1.4809160305343512,-1.099236641221374,-0.35107421875,0.077392578125,-0.417236328125,1.1934
1.1603053435114503,1.3435114503816794,-0.9770992366412213,-0.3505859375,0.08056640625,-0.41943359375,1.1950999999999998
1.3129770992366412,1.5267175572519085,-1.1450381679389312,-0.35009765625,0.079345703125,-0.421875,1.1967999999999999
1.1755725190839694,1.3587786259541985,-0.9465648854961832,-0.34423828125,0.082275390625,-0.422607421875,1.1985
1.251908396946565,1.3435114503816794,-1.2213740458015268,-0.349853515625,0.08642578125,-0.421630859375,1.2002
1.3282442748091603,1.3587786259541985,-1.0229007633587786,-0.35009765625,0.08203125,-0.41943359375,1.2019
1.3893129770992367,1.282442748091603,-0.9923664122137404,-0.344970703125,0.084716796875,-0.420166015625,1.2036
1.5114503816793894,1.3893129770992367,-1.0076335877862594,-0.345458984375,0.08203125,-0.42138671875,1.2053
1.3435114503816794,1.4351145038167938,-1.0534351145038168,-0.351806640625,0.07763671875,-0.41796875,1.2069999999999999
1.297709923664122,1.2366412213740459,-1.0534351145038168,-0.349609375,0.08203125,-0.423583984375,1.2086999999999999
1.297709923664122,1.3129770992366412,-0.9312977099236641,-0.353515625,0.083251953125,-0.417236328125,1.2104
1.1908396946564885,1.3587786259541985,-1.1297709923664123,-0.3515625,0.083984375,-0.421630859375,1.2121
1.2366412213740459,1.3587786259541985,-1.1450381679389312,-0.348388671875,0.086669921875,-0.41845703125,1.2138
1.3282442748091603,1.4045801526717556,-1.0076335877862594,-0.35205078125,0.079345703125,-0.41650390625,1.2155
1.4198473282442747,1.3282442748091603,-1.2213740458015268,-0.354736328125,0.07568359375,-0.42529296875,1.2171999999999998
1.4198473282442747,1.1450381679389312,-1.1450381679389312,-0.345947265625,0.0791015625,-0.42626953125,1.2188999999999999
1.3129770992366412,1.2671755725190839,-1.0076335877862594,-0.347900390625,0.086181640625,-0.4150390625,1.2206
1.297709923664122,1.1755725190839694,-0.7938931297709924,-0.350830078125,0.076904296875,-0.4267578125,1.2223
1.450381679389313,1.1755725190839694,-1.0381679389312977,-0.347900390625,0.083251953125,-0.423095703125,1.224
1.465648854961832,1.2671755725190839,-0.9770992366412213,-0.350830078125,0.079345703125,-0.42578125,1.2257
1.2213740458015268,1.2366412213740459,-0.8549618320610687,-0.35107421875,0.08056640625,-0.423828125,1.2273999999999998
1.282442748091603,1.1755725190839694,-0.9465648854961832,-0.350341796875,0.078369140625,-0.4208984375,1.2290999999999999
1.1908396946564885,1.0534351145038168,-1.083969465648855,-0.34619140625,0.08251953125,-0.426025390625,1.2308
1.251908396946565,1.3435114503816794,-0.916030534351145,-0.351806640625,0.0830078125,-0.42919921875,1.2325
1.099236641221374,1.251908396946565,-0.916030534351145,-0.3486328125,0.080322265625,-0.416259765625,1.2342
1.2061068702290076,1.2671755725190839,-0.8244274809160306,-0.351806640625,0.084228515625,-0.41455078125,1.2359
1.1603053435114503,1.1755725190839694,-0.9465648854961832,-0.35302734375,0.08154296875,-0.418212890625,1.2376
1.3435114503816794,1.1603053435114503,-0.7938931297709924,-0.35009765625,0.0751953125,-0.4169921875,1.2392999999999998
1.1450381679389312,1.2671755725190839,-0.9007633587786259,-0.3505859375,0.07568359375,-0.4228515625,1.2409999999999999
1.2061068702290076,1.282442748091603,-0.7633587786259542,-0.345947265625,0.074951171875,-0.42578125,1.2427
1.1908396946564885,1.3282442748091603,-0.9312977099236641,-0.34814453125,0.080322265625,-0.423583984375,1.2444
0.9465648854961832,1.282442748091603,-0.8091603053435115,-0.35107421875,0.083984375,-0.4267578125,1.2461
1.1145038167938932,1.282442748091603,-0.8396946564885496,-0.34765625,0.084716796875,-0.42578125,1.2478
1.1603053435114503,1.1450381679389312,-0.8244274809160306,-0.349609375,0.08203125,-0.413330078125,1.2494999999999998
0.8549618320610687,1.3282442748091603,-0.9007633587786259,-0.357666015625,0.085693359375,-0.421142578125,1.2511999999999999
1.0229007633587786,1.3740458015267176,-0.8702290076335878,-0.352783203125,0.0859375,-0.42138671875,1.2529
0.9770992366412213,1.251908396946565,-0.7786259541984732,-0.35400390625,0.0791015625,-0.419921875,1.2546
0.916030534351145,1.3893129770992367,-0.8396946564885496,-0.354248046875,0.0791015625,-0.41357421875,1.2563
1.2061068702290076,1.3587786259541985,-0.7938931297709924,-0.3505859375,0.08203125,-0.419189453125,1.258
0.9618320610687023,1.2671755725190839,-0.6870229007633588,-0.3544921875,0.087890625,-0.417724609375,1.2596999999999998
0.8854961832061069,1.3740458015267176,-0.7938931297709924,-0.349365234375,0.08544921875,-0.416748046875,1.2613999999999999
0.8549618320610687,1.3893129770992367,-0.7633587786259542,-0.350830078125,0.0791015625,-0.418212890625,1.2631
0.9312977099236641,1.5572519083969465,-0.8244274809160306,-0.35205078125,0.080810546875,-0.420654296875,1.2648
0.7633587786259542,1.4198473282442747,-0.6412213740458015,-0.34912109375,0.08154296875,-0.415771484375,1.2665
0.9465648854961832,1.3282442748091603,-0.6717557251908397,-0.350830078125,0.08251953125,-0.4267578125,1.2682
1.0687022900763359,1.2366412213740459,-0.7938931297709924,-0.350830078125,0.083740234375,-0.422607421875,1.2699
0.9770992366412213,1.0381679389312977,-0.9618320610687023,-0.345458984375,0.087158203125,-0.421630859375,1.2715999999999998
0.9312977099236641,1.0229007633587786,-0.9312977099236641,-0.347412109375,0.089111328125,-0.424072265625,1.2732999999999999
0.9312977099236641,1.0534351145038168,-1.0534351145038168,-0.35107421875,0.08349609375,-0.42822265625,1.275
1.0076335877862594,0.9770992366412213,-1.1297709923664123,-0.350830078125,0.07861328125,-0.41748046875,1.2767
0.9007633587786259,1.0229007633587786,-1.1450381679389312,-0.34619140625,0.087646484375,-0.4130859375,1.2784
1.0687022900763359,0.8091603053435115,-1.1145038167938932,-0.343994140625,0.0849609375,-0.415771484375,1.2801
1.1755725190839694,0.9007633587786259,-1.251908396946565,-0.346923828125,0.083984375,-0.41552734375,1.2817999999999998
1.1297709923664123,0.9465648854961832,-1.1145038167938932,-0.347900390625,0.08203125,-0.415771484375,1.2834999999999999
1.2366412213740459,0.9618320610687023,-1.297709923664122,-0.350341796875,0.0859375,-0.423095703125,1.2852
1.1450381679389312,1.0381679389312977,-1.1603053435114503,-0.345458984375,0.084228515625,-0.421630859375,1.2869
1.1145038167938932,1.0534351145038168,-1.2213740458015268,-0.35205078125,0.077880859375,-0.419921875,1.2886
1.099236641221374,1.0381679389312977,-1.4198473282442747,-0.3486328125,0.079833984375,-0.420166015625,1.2903
1.1755725190839694,0.8702290076335878,-1.4351145038167938,-0.345703125,0.076904296875,-0.419921875,1.292
0.9618320610687023,0.916030534351145,-1.251908396946565,-0.345703125,0.083740234375,-0.419921875,1.2936999999999999
1.1450381679389312,0.7480916030534351,-1.2366412213740459,-0.347900390625,0.084716796875,-0.414306640625,1.2953999999999999
1.1450381679389312,0.5648854961832062,-1.3893129770992367,-0.353271484375,0.08056640625,-0.415283203125,1.2971
1.1908396946564885,0.48854961832061067,-1.3129770992366412,-0.352294921875,0.080810546875,-0.423095703125,1.2988
0.9465648854961832,0.5343511450381679,-1.1755725190839694,-0.347412109375,0.0869140625,-0.416015625,1.3005
1.0534351145038168,0.3816793893129771,-1.5114503816793894,-0.35302734375,0.086669921875,-0.419921875,1.3022
1.099236641221374,0.6564885496183206,-1.450381679389313,-0.35302734375,0.086181640625,-0.4169921875,1.3038999999999998
1.0229007633587786,0.4732824427480916,-1.4961832061068703,-0.35107421875,0.088623046875,-0.41943359375,1.3055999999999999
1.3587786259541985,0.3969465648854962,-1.5725190839694656,-0.350830078125,0.084228515625,-0.419677734375,1.3073
1.2366412213740459,0.4732824427480916,-1.633587786259542,-0.349365234375,0.09130859375,-0.430419921875,1.309
1.2366412213740459,0.6106870229007634,-1.633587786259542,-0.3515625,0.08740234375,-0.42724609375,1.3107
1.4351145038167938,0.4732824427480916,-1.6030534351145038,-0.353759765625,0.08642578125,-0.42236328125,1.3124
1.4045801526717556,0.3816793893129771,-1.5114503816793894,-0.3525390625,0.08544921875,-0.41943359375,1.3140999999999998
1.6793893129770991,0.6717557251908397,-1.6946564885496183,-0.35693359375,0.081298828125,-0.430419921875,1.3157999999999999
1.5725190839694656,0.6717557251908397,-1.4961832061068703,-0.3544921875,0.083740234375,-0.4189453125,1.3175
1.3893129770992367,0.8702290076335878,-1.6488549618320612,-0.355712890625,0.087158203125,-0.4208984375,1.3192
1.618320610687023,1.0229007633587786,-1.5267175572519085,-0.3544921875,0.08251953125,-0.419921875,1.3209
1.7709923664122138,0.8244274809160306,-1.7557251908396947,-0.35595703125,0.0869140625,-0.42431640625,1.3226
1.633587786259542,0.8702290076335878,-1.83206106870229,-0.351806640625,0.0908203125,-0.418212890625,1.3243
1.4809160305343512,1.251908396946565,-1.8931297709923665,-0.35595703125,0.084228515625,-0.42138671875,1.3259999999999998
1.618320610687023,1.1297709923664123,-1.8015267175572518,-0.3466796875,0.08935546875,-0.429443359375,1.3276999999999999
1.83206106870229,1.083969465648855,-1.6030534351145038,-0.352294921875,0.09228515625,-0.426513671875,1.3294
1.786259541984733,1.1145038167938932,-1.6946564885496183,-0.351318359375,0.088623046875,-0.425048828125,1.3311
1.7251908396946565,1.1450381679389312,-1.7099236641221374,-0.349609375,0.085205078125,-0.421875,1.3328
1.9389312977099236,1.0687022900763359,-1.8015267175572518,-0.3505859375,0.090576171875,-0.425048828125,1.3345
2.0,1.0076335877862594,-1.9389312977099236,-0.3515625,0.08935546875,-0.42236328125,1.3361999999999998
2.015267175572519,1.0534351145038168,-1.9389312977099236,-0.35009765625,0.08837890625,-0.41845703125,1.3378999999999999
2.0916030534351147,1.0229007633587786,-1.9083969465648856,-0.3486328125,0.0859375,-0.42138671875,1.3396
1.9389312977099236,0.9618320610687023,-2.030534351145038,-0.346435546875,0.085205078125,-0.416259765625,1.3413
1.984732824427481,0.9465648854961832,-1.9236641221374047,-0.348388671875,0.080322265625,-0.415283203125,1.343
2.2595419847328246,0.916030534351145,-2.0610687022900764,-0.35009765625,0.089599609375,-0.416259765625,1.3447
2.213740458015267,0.9007633587786259,-2.1374045801526718,-0.350341796875,0.088623046875,-0.416748046875,1.3463999999999998
2.3053435114503817,0.9770992366412213,-1.9541984732824427,-0.3486328125,0.085693359375,-0.423828125,1.3480999999999999
2.1068702290076335,0.9007633587786259,-2.1068702290076335,-0.345947265625,0.08154296875,-0.418212890625,1.3497999999999999
2.213740458015267,0.8702290076335878,-2.1068702290076335,-0.352783203125,0.07763671875,-0.4208984375,1.3515
2.427480916030534,1.0381679389312977,-1.8778625954198473,-0.349365234375,0.079833984375,-0.422119140625,1.3532
2.4885496183206106,0.7786259541984732,-1.816793893129771,-0.353271484375,0.083740234375,-0.426513671875,1.3549
2.427480916030534,0.9007633587786259,-1.8015267175572518,-0.35107421875,0.082275390625,-0.42529296875,1.3566
2.3206106870229006,1.0076335877862594,-1.8778625954198473,-0.349853515625,0.0869140625,-0.4287109375,1.3582999999999998
2.381679389312977,0.9312977099236641,-1.6793893129770991,-0.35400390625,0.0869140625,-0.416748046875,1.3599999999999999
2.3053435114503817,0.8702290076335878,-1.9236641221374047,-0.35205078125,0.0810546875,-0.425537109375,1.3617
2.213740458015267,0.9923664122137404,-1.5572519083969465,-0.3466796875,0.080322265625,-0.417236328125,1.3634
2.045801526717557,0.7938931297709924,-1.5419847328244274,-0.35107421875,0.0771484375,-0.422119140625,1.3651
2.2290076335877864,0.7938931297709924,-1.5725190839694656,-0.35546875,0.07763671875,-0.427978515625,1.3668
2.198473282442748,0.9923664122137404,-1.7099236641221374,-0.345947265625,0.0791015625,-0.420166015625,1.3684999999999998
2.1526717557251906,1.1145038167938932,-1.4198473282442747,-0.348876953125,0.080322265625,-0.423583984375,1.3701999999999999
1.8473282442748091,1.2061068702290076,-1.3282442748091603,-0.35205078125,0.0751953125,-0.423583984375,1.3719
2.0,1.1908396946564885,-1.2213740458015268,-0.3515625,0.081787109375,-0.424560546875,1.3736
2.16793893129771,1.1450381679389312,-1.3129770992366412,-0.350830078125,0.07861328125,-0.421875,1.3753
1.9236641221374047,1.1450381679389312,-1.2671755725190839,-0.3525390625,0.08203125,-0.423095703125,1.377
1.7709923664122138,1.099236641221374,-1.1603053435114503,-0.35302734375,0.080078125,-0.421142578125,1.3786999999999998
1.83206106870229,1.0534351145038168,-0.9618320610687023,-0.3525390625,0.08251953125,-0.424072265625,1.3803999999999998
1.8625954198473282,1.0687022900763359,-1.0687022900763359,-0.350830078125,0.085205078125,-0.41552734375,1.3820999999999999
1.8778625954198473,1.0229007633587786,-0.7480916030534351,-0.35107421875,0.076171875,-0.419921875,1.3838
1.7251908396946565,0.8854961832061069,-0.7480916030534351,-0.351318359375,0.0810546875,-0.417724609375,1.3855
1.5725190839694656,0.9312977099236641,-0.6717557251908397,-0.351318359375,0.077392578125,-0.422607421875,1.3872
1.816793893129771,0.9465648854961832,-0.7938931297709924,-0.35205078125,0.077392578125,-0.419677734375,1.3889
1.5572519083969465,0.9618320610687023,-0.8244274809160306,-0.352294921875,0.07763671875,-0.416015625,1.3905999999999998
1.816793893129771,0.8549618320610687,-0.8854961832061069,-0.3486328125,0.08056640625,-0.4208984375,1.3922999999999999
1.816793893129771,0.8396946564885496,-0.6412213740458015,-0.3486328125,0.08203125,-0.4189453125,1.394
1.5572519083969465,0.9312977099236641,-0.7938931297709924,-0.350830078125,0.078125,-0.417236328125,1.3957
1.786259541984733,0.7480916030534351,-0.5954198473282443,-0.351318359375,0.078125,-0.416259765625,1.3974
1.6641221374045803,0.916030534351145,-0.7480916030534351,-0.350830078125,0.082763671875,-0.412353515625,1.3991
1.3893129770992367,0.8549618320610687,-0.7022900763358778,-0.34326171875,0.08642578125,-0.413818359375,1.4007999999999998
1.6946564885496183,0.6106870229007634,-0.8396946564885496,-0.34130859375,0.083984375,-0.4228515625,1.4024999999999999
1.8778625954198473,0.549618320610687,-0.549618320610687,-0.346923828125,0.08251953125,-0.418701171875,1.4042
1.5725190839694656,0.549618320610687,-0.7938931297709924,-0.348388671875,0.078857421875,-0.41552734375,1.4059
1.5114503816793894,0.5038167938931297,-0.6870229007633588,-0.34912109375,0.07861328125,-0.414794921875,1.4076
1.7557251908396947,0.48854961832061067,-0.732824427480916,-0.349365234375,0.0810546875,-0.4228515625,1.4093
1.786259541984733,0.32061068702290074,-0.8396946564885496,-0.347412109375,0.080078125,-0.4130859375,1.411
1.7099236641221374,0.3816793893129771,-1.0534351145038168,-0.346923828125,0.08251953125,-0.4208984375,1.4126999999999998
1.6030534351145038,0.3969465648854962,-0.9312977099236641,-0.342529296875,0.082275390625,-0.422119140625,1.4143999999999999
1.7251908396946565,0.24427480916030533,-0.9618320610687023,-0.353515625,0.07470703125,-0.422119140625,1.4161
1.7557251908396947,0.2595419847328244,-0.8396946564885496,-0.34814453125,0.076416015625,-0.4150390625,1.4178
1.7709923664122138,0.2595419847328244,-1.1297709923664123,-0.350830078125,0.07861328125,-0.413818359375,1.4195
1.465648854961832,0.2595419847328244,-0.9465648854961832,-0.351318359375,0.079833984375,-0.41796875,1.4212
1.7251908396946565,0.24427480916030533,-1.2061068702290076,-0.346923828125,0.07568359375,-0.4228515625,1.4228999999999998
1.8015267175572518,0.061068702290076333,-1.083969465648855,-0.355224609375,0.081298828125,-0.41845703125,1.4245999999999999
1.6641221374045803,0.183206106870229,-1.1908396946564885,-0.349853515625,0.078369140625,-0.42431640625,1.4263
1.5572519083969465,0.5343511450381679,-0.9618320610687023,-0.34814453125,0.072509765625,-0.4189453125,1.428
1.6030534351145038,0.42748091603053434,-1.0229007633587786,-0.3515625,0.079833984375,-0.419677734375,1.4297
1.3893129770992367,0.366412213740458,-0.9923664122137404,-0.35107421875,0.081298828125,-0.419921875,1.4314
1.6946564885496183,0.4580152671755725,-1.083969465648855,-0.34765625,0.080322265625,-0.417724609375,1.4330999999999998
1.6488549618320612,0.48854961832061067,-1.0381679389312977,-0.353759765625,0.079833984375,-0.412841796875,1.4347999999999999
1.4961832061068703,0.5648854961832062,-1.251908396946565,-0.346923828125,0.08154296875,-0.4130859375,1.4364999999999999
1.3129770992366412,0.5648854961832062,-1.0687022900763359,-0.35107421875,0.07958984375,-0.419921875,1.4382
1.2671755725190839,0.6259541984732825,-1.099236641221374,-0.34912109375,0.080322265625,-0.418212890625,1.4399
1.4198473282442747,0.7022900763358778,-1.1450381679389312,-0.3466796875,0.078125,-0.417724609375,1.4416
1.5877862595419847,0.6259541984732825,-1.1755725190839694,-0.3544921875,0.080078125,-0.422119140625,1.4433
1.2366412213740459,0.8702290076335878,-1.2366412213740459,-0.355712890625,0.075439453125,-0.42138671875,1.4449999999999998
1.1450381679389312,0.8396946564885496,-1.3740458015267176,-0.3505859375,0.076416015625,-0.42578125,1.4466999999999999
1.0381679389312977,0.7786259541984732,-1.1755725190839694,-0.354248046875,0.078857421875,-0.425048828125,1.4484
1.2213740458015268,0.9618320610687023,-1.2061068702290076,-0.349853515625,0.074951171875,-0.421630859375,1.4501
1.282442748091603,0.9770992366412213,-1.2061068702290076,-0.35205078125,0.080322265625,-0.41650390625,1.4518
1.1603053435114503,0.9007633587786259,-1.3740458015267176,-0.359375,0.07666015625,-0.420166015625,1.4535
1.2671755725190839,1.0381679389312977,-1.1450381679389312,-0.344970703125,0.0791015625,-0.421630859375,1.4551999999999998
0.9007633587786259,1.0687022900763359,-1.3435114503816794,-0.3515625,0.0810546875,-0.42431640625,1.4568999999999999
0.9465648854961832,1.282442748091603,-1.282442748091603,-0.353271484375,0.078369140625,-0.421875,1.4586
0.9618320610687023,1.1755725190839694,-1.3129770992366412,-0.356689453125,0.07861328125,-0.416259765625,1.4603
0.8549618320610687,1.0229007633587786,-1.450381679389313,-0.34912109375,0.08056640625,-0.419677734375,1.462
0.8549618320610687,1.1297709923664123,-1.3282442748091603,-0.34765625,0.07568359375,-0.426025390625,1.4637
0.7938931297709924,0.916030534351145,-1.2671755725190839,-0.345703125,0.078857421875,-0.4267578125,1.4653999999999998
0.7786259541984732,0.9312977099236641,-1.3282442748091603,-0.347412109375,0.0791015625,-0.4208984375,1.4670999999999998
0.7480916030534351,1.2366412213740459,-1.1908396946564885,-0.353759765625,0.084716796875,-0.417236328125,1.4687999999999999
0.6259541984732825,1.3129770992366412,-1.5114503816793894,-0.352783203125,0.083984375,-0.425537109375,1.4705
0.7633587786259542,1.1450381679389312,-1.3282442748091603,-0.35009765625,0.0859375,-0.416748046875,1.4722
0.6259541984732825,1.251908396946565,-1.465648854961832,-0.352783203125,0.0859375,-0.42333984375,1.4739
0.7175572519083969,1.3740458015267176,-1.5419847328244274,-0.353759765625,0.083251953125,-0.42431640625,1.4756
0.6106870229007634,1.3282442748091603,-1.6641221374045803,-0.352294921875,0.084228515625,-0.420654296875,1.4772999999999998
0.4732824427480916,1.3587786259541985,-1.6946564885496183,-0.352294921875,0.081298828125,-0.421142578125,1.4789999999999999
0.6870229007633588,1.1450381679389312,-1.5267175572519085,-0.345947265625,0.08642578125,-0.416259765625,1.4807
0.5801526717557252,1.3587786259541985,-1.7709923664122138,-0.351806640625,0.0810546875,-0.419189453125,1.4824
0.48854961832061067,1.297709923664122,-1.7099236641221374,-0.352783203125,0.08251953125,-0.416259765625,1.4841
0.44274809160305345,1.282442748091603,-1.5114503816793894,-0.352294921875,0.077880859375,-0.42236328125,1.4858
0.42748091603053434,1.282442748091603,-1.7251908396946565,-0.3564453125,0.08056640625,-0.423828125,1.4874999999999998
0.4732824427480916,1.3282442748091603,-1.6793893129770991,-0.354248046875,0.08447265625,-0.42431640625,1.4891999999999999
0.48854961832061067,1.1908396946564885,-1.6946564885496183,-0.3544921875,0.08056640625,-0.413330078125,1.4909
0.5954198473282443,1.251908396946565,-1.8015267175572518,-0.3466796875,0.08251953125,-0.42041015625,1.4926
0.44274809160305345,1.3587786259541985,-1.7557251908396947,-0.3515625,0.076904296875,-0.425537109375,1.4943
0.3816793893129771,1.3129770992366412,-1.7251908396946565,-0.352294921875,0.080322265625,-0.421142578125,1.496
0.5954198473282443,1.3587786259541985,-1.8778625954198473,-0.34814453125,0.080078125,-0.42431640625,1.4976999999999998
0.6259541984732825,1.2671755725190839,-1.8931297709923665,-0.347900390625,0.082275390625,-0.4306640625,1.4993999999999998
0.3969465648854962,1.5267175572519085,-1.8473282442748091,-0.34521484375,0.08251953125,-0.41748046875,1.5010999999999999
0.5190839694656488,1.3740458015267176,-1.8625954198473282,-0.342529296875,0.08154296875,-0.418212890625,1.5028
0.7633587786259542,1.3282442748091603,-1.8625954198473282,-0.348388671875,0.078857421875,-0.423583984375,1.5045
0.6564885496183206,1.3129770992366412,-1.9236641221374047,-0.34619140625,0.082763671875,-0.4130859375,1.5062
0.366412213740458,1.2366412213740459,-1.9389312977099236,-0.347900390625,0.08447265625,-0.419921875,1.5079
0.6717557251908397,1.1755725190839694,-1.786259541984733,-0.34814453125,0.080078125,-0.422607421875,1.5095999999999998
0.8244274809160306,1.1450381679389312,-2.0,-0.349853515625,0.0810546875,-0.423095703125,1.5112999999999999
0.5343511450381679,1.0687022900763359,-1.7709923664122138,-0.34423828125,0.0810546875,-0.41650390625,1.513
0.7175572519083969,1.099236641221374,-1.8015267175572518,-0.346923828125,0.08154296875,-0.4208984375,1.5147
0.6106870229007634,0.9618320610687023,-1.8931297709923665,-0.346923828125,0.083984375,-0.419921875,1.5164
0.5954198473282443,1.0076335877862594,-1.7557251908396947,-0.349609375,0.082763671875,-0.430908203125,1.5181
0.5038167938931297,0.8244274809160306,-1.7709923664122138,-0.35107421875,0.087646484375,-0.429931640625,1.5197999999999998
0.5648854961832062,0.8396946564885496,-1.9389312977099236,-0.35400390625,0.079345703125,-0.427490234375,1.5214999999999999
0.6717557251908397,1.1755725190839694,-1.816793893129771,-0.35107421875,0.08154296875,-0.42724609375,1.5231999999999999
0.6717557251908397,1.0534351145038168,-1.8473282442748091,-0.355712890625,0.082763671875,-0.430419921875,1.5249
0.5343511450381679,0.8854961832061069,-1.9541984732824427,-0.353515625,0.08349609375,-0.4208984375,1.5266
0.5801526717557252,0.9618320610687023,-1.8625954198473282,-0.3515625,0.08447265625,-0.4208984375,1.5283
1.0381679389312977,1.083969465648855,-1.8931297709923665,-0.352294921875,0.076904296875,-0.418212890625,1.5299999999999998
0.9312977099236641,1.083969465648855,-1.7557251908396947,-0.35107421875,0.080810546875,-0.418212890625,1.5316999999999998
0.5190839694656488,1.2671755725190839,-1.7557251908396947,-0.3466796875,0.08447265625,-0.413330078125,1.5333999999999999
0.9465648854961832,1.2061068702290076,-1.5725190839694656,-0.34716796875,0.08935546875,-0.424560546875,1.5351
0.8549618320610687,1.282442748091603,-1.633587786259542,-0.35107421875,0.0859375,-0.41943359375,1.5368
0.5801526717557252,1.450381679389313,-1.6793893129770991,-0.35107421875,0.078369140625,-0.415771484375,1.5385
0.6717557251908397,1.3435114503816794,-1.618320610687023,-0.35107421875,0.088134765625,-0.4287109375,1.5402
0.9007633587786259,1.3129770992366412,-1.9083969465648856,-0.35693359375,0.0859375,-0.42431640625,1.5418999999999998
1.083969465648855,1.1450381679389312,-1.8625954198473282,-0.34814453125,0.084228515625,-0.41064453125,1.5435999999999999
0.916030534351145,1.2061068702290076,-1.7557251908396947,-0.348388671875,0.08447265625,-0.425048828125,1.5453
0.9770992366412213,1.2366412213740459,-1.7099236641221374,-0.3486328125,0.082275390625,-0.41748046875,1.547
1.2061068702290076,1.0687022900763359,-1.7099236641221374,-0.347900390625,0.0791015625,-0.416259765625,1.5487
1.099236641221374,0.9618320610687023,-1.6641221374045803,-0.347900390625,0.08544921875,-0.4189453125,1.5504
1.5114503816793894,1.083969465648855,-1.6488549618320612,-0.353515625,0.085205078125,-0.420654296875,1.5520999999999998
1.5114503816793894,1.1755725190839694,-1.984732824427481,-0.3603515625,0.08544921875,-0.4150390625,1.5537999999999998
1.4351145038167938,1.1297709923664123,-1.7404580152671756,-0.349853515625,0.080078125,-0.417236328125,1.5554999999999999
1.4198473282442747,1.0229007633587786,-1.9389312977099236,-0.349609375,0.0830078125,-0.4130859375,1.5572
1.5114503816793894,1.2061068702290076,-1.83206106870229,-0.34716796875,0.085205078125,-0.416748046875,1.5589
1.4961832061068703,1.1297709923664123,-1.8625954198473282,-0.34814453125,0.084228515625,-0.41650390625,1.5606
1.6488549618320612,1.0687022900763359,-1.8015267175572518,-0.353271484375,0.0791015625,-0.423583984375,1.5623
1.786259541984733,0.9770992366412213,-1.633587786259542,-0.34814453125,0.081787109375,-0.425048828125,1.5639999999999998
1.816793893129771,0.916030534351145,-1.7404580152671756,-0.352294921875,0.0830078125,-0.421875,1.5656999999999999
1.6641221374045803,1.2366412213740459,-1.9083969465648856,-0.343505859375,0.0771484375,-0.41455078125,1.5674
1.633587786259542,0.9618320610687023,-1.6030534351145038,-0.347412109375,0.08056640625,-0.426513671875,1.5691
1.7099236641221374,0.9312977099236641,-1.4045801526717556,-0.351806640625,0.077880859375,-0.423095703125,1.5708
1.618320610687023,0.9312977099236641,-1.4351145038167938,-0.345703125,0.083740234375,-0.42578125,1.5725
1.633587786259542,0.8549618320610687,-1.6488549618320612,-0.34521484375,0.08349609375,-0.417724609375,1.5741999999999998
1.7709923664122138,0.8549618320610687,-1.251908396946565,-0.348388671875,0.0830078125,-0.421142578125,1.5758999999999999
1.786259541984733,0.9465648854961832,-1.2671755725190839,-0.355224609375,0.078125,-0.419921875,1.5776
1.5572519083969465,0.8091603053435115,-1.1755725190839694,-0.349853515625,0.0810546875,-0.422119140625,1.5793
1.7251908396946565,0.7022900763358778,-1.4045801526717556,-0.353515625,0.07958984375,-0.421630859375,1.581
1.5267175572519085,0.6870229007633588,-1.251908396946565,-0.346435546875,0.078857421875,-0.417724609375,1.5827
1.5267175572519085,0.42748091603053434,-1.1297709923664123,-0.35302734375,0.08203125,-0.417724609375,1.5843999999999998
1.4809160305343512,0.366412213740458,-0.9770992366412213,-0.349365234375,0.0791015625,-0.4169921875,1.5860999999999998
1.7099236641221374,0.2748091603053435,-1.1755725190839694,-0.353515625,0.08154296875,-0.42041015625,1.5877999999999999
1.6946564885496183,0.32061068702290074,-0.916030534351145,-0.348876953125,0.079833984375,-0.424072265625,1.5895
1.5877862595419847,0.16793893129770993,-1.0687022900763359,-0.346923828125,0.08251953125,-0.41650390625,1.5912
1.6030534351145038,0.3053435114503817,-1.0687022900763359,-0.353515625,0.082763671875,-0.42578125,1.5929
1.465648854961832,0.48854961832061067,-1.0229007633587786,-0.3525390625,0.081787109375,-0.4287109375,1.5946
1.5419847328244274,0.2748091603053435,-0.9770992366412213,-0.353759765625,0.079833984375,-0.420166015625,1.5962999999999998
1.450381679389313,0.3511450381679389,-1.083969465648855,-0.35107421875,0.079833984375,-0.423095703125,1.5979999999999999
1.5572519083969465,0.4122137404580153,-0.7633587786259542,-0.35302734375,0.078369140625,-0.421630859375,1.5997
1.5267175572519085,0.3816793893129771,-0.732824427480916,-0.35546875,0.078857421875,-0.426513671875,1.6014
1.450381679389313,0.5038167938931297,-0.8244274809160306,-0.3564453125,0.080322265625,-0.423095703125,1.6031
1.6793893129770991,0.5648854961832062,-0.9770992366412213,-0.34814453125,0.08251953125,-0.429443359375,1.6048
1.4198473282442747,0.5648854961832062,-0.7938931297709924,-0.3564453125,0.08203125,-0.42431640625,1.6064999999999998
1.6030534351145038,0.5038167938931297,-0.916030534351145,-0.356201171875,0.084228515625,-0.42041015625,1.6081999999999999
1.6946564885496183,0.6717557251908397,-0.6870229007633588,-0.35400390625,0.081787109375,-0.42919921875,1.6098999999999999
1.618320610687023,0.8091603053435115,-0.6717557251908397,-0.351318359375,0.078369140625,-0.413818359375,1.6116
1.5877862595419847,0.8244274809160306,-0.7786259541984732,-0.353271484375,0.077880859375,-0.4208984375,1.6133
1.6641221374045803,0.5954198473282443,-0.9312977099236641,-0.353759765625,0.081298828125,-0.414794921875,1.615
1.6030534351145038,0.6106870229007634,-0.7633587786259542,-0.35498046875,0.077392578125,-0.423583984375,1.6166999999999998
1.6793893129770991,0.6870229007633588,-0.9618320610687023,-0.3505859375,0.084716796875,-0.417724609375,1.6183999999999998
1.7557251908396947,0.48854961832061067,-0.8854961832061069,-0.349365234375,0.083740234375,-0.419189453125,1.6200999999999999
1.633587786259542,0.4580152671755725,-0.9770992366412213,-0.3515625,0.07763671875,-0.42578125,1.6218
1.8015267175572518,0.5038167938931297,-0.7022900763358778,-0.353515625,0.078125,-0.419677734375,1.6235
1.8778625954198473,0.24427480916030533,-0.8854961832061069,-0.355712890625,0.080078125,-0.421630859375,1.6252
1.7251908396946565,0.4580152671755725,-0.8244274809160306,-0.35595703125,0.081298828125,-0.422607421875,1.6269
1.7251908396946565,0.4732824427480916,-0.916030534351145,-0.353271484375,0.08056640625,-0.420654296875,1.6285999999999998
1.6946564885496183,0.48854961832061067,-0.8854961832061069,-0.3515625,0.082763671875,-0.4169921875,1.6302999999999999
1.8015267175572518,0.32061068702290074,-0.8549618320610687,-0.349609375,0.082763671875,-0.414794921875,1.632
1.7557251908396947,0.42748091603053434,-0.7786259541984732,-0.351806640625,0.07861328125,-0.411376953125,1.6337
1.6946564885496183,0.33587786259541985,-0.9923664122137404,-0.351318359375,0.083984375,-0.419677734375,1.6354
1.9694656488549618,0.3969465648854962,-1.0076335877862594,-0.3525390625,0.076904296875,-0.421142578125,1.6371
1.5572519083969465,0.6564885496183206,-1.0381679389312977,-0.35546875,0.081298828125,-0.418701171875,1.6387999999999998
1.7251908396946565,0.549618320610687,-0.7786259541984732,-0.348388671875,0.085693359375,-0.41455078125,1.6404999999999998
1.8931297709923665,0.7022900763358778,-1.1145038167938932,-0.353271484375,0.0859375,-0.416015625,1.6421999999999999
1.5114503816793894,0.5801526717557252,-0.9923664122137404,-0.350341796875,0.07958984375,-0.4169921875,1.6439
1.7251908396946565,0.7022900763358778,-0.9923664122137404,-0.349853515625,0.08203125,-0.418701171875,1.6456
1.7404580152671756,0.7938931297709924,-0.9618320610687023,-0.35400390625,0.076904296875,-0.422119140625,1.6473
1.7404580152671756,0.7786259541984732,-1.1908396946564885,-0.35546875,0.080322265625,-0.42236328125,1.6489999999999998
1.5572519083969465,0.6106870229007634,-1.1297709923664123,-0.350830078125,0.075439453125,-0.417236328125,1.6506999999999998
1.5572519083969465,0.7175572519083969,-1.1297709923664123,-0.351806640625,0.0830078125,-0.41357421875,1.6523999999999999
1.8778625954198473,0.7786259541984732,-1.2366412213740459,-0.352783203125,0.084716796875,-0.417724609375,1.6541
1.5725190839694656,0.6106870229007634,-1.083969465648855,-0.355224609375,0.083740234375,-0.42138671875,1.6558
1.5725190839694656,0.7786259541984732,-1.2213740458015268,-0.345458984375,0.08154296875,-0.411865234375,1.6575
1.6030534351145038,0.9618320610687023,-1.1297709923664123,-0.342529296875,0.080078125,-0.415771484375,1.6592
1.4809160305343512,0.9618320610687023,-1.1145038167938932,-0.349853515625,0.083984375,-0.415283203125,1.6608999999999998
1.5114503816793894,0.7175572519083969,-1.1603053435114503,-0.352783203125,0.08251953125,-0.41796875,1.6625999999999999
1.450381679389313,0.8549618320610687,-1.2061068702290076,-0.35302734375,0.082275390625,-0.412353515625,1.6643
1.465648854961832,0.8091603053435115,-1.099236641221374,-0.353515625,0.08447265625,-0.417236328125,1.666
1.4351145038167938,0.8091603053435115,-1.2213740458015268,-0.350830078125,0.0849609375,-0.427734375,1.6677
1.2671755725190839,1.0076335877862594,-1.3435114503816794,-0.355712890625,0.081787109375,-0.422119140625,1.6694
1.3740458015267176,0.9312977099236641,-1.297709923664122,-0.352783203125,0.079345703125,-0.4189453125,1.6710999999999998
1.297709923664122,0.9618320610687023,-1.3129770992366412,-0.34765625,0.077392578125,-0.41015625,1.6727999999999998
1.297709923664122,0.9770992366412213,-1.1908396946564885,-0.350341796875,0.07958984375,-0.4228515625,1.6744999999999999
1.2671755725190839,1.1450381679389312,-1.4045801526717556,-0.354736328125,0.0791015625,-0.430419921875,1.6762
1.297709923664122,1.1603053435114503,-1.2061068702290076,-0.3544921875,0.081787109375,-0.41650390625,1.6779
1.1908396946564885,1.1450381679389312,-1.4351145038167938,-0.356201171875,0.0751953125,-0.423095703125,1.6796
1.1603053435114503,1.2366412213740459,-1.3129770992366412,-0.35009765625,0.080322265625,-0.42236328125,1.6813
1.282442748091603,1.465648854961832,-1.4351145038167938,-0.352783203125,0.07958984375,-0.4189453125,1.6829999999999998
1.4045801526717556,1.3740458015267176,-1.4198473282442747,-0.352783203125,0.08251953125,-0.4150390625,1.6846999999999999
1.3282442748091603,1.282442748091603,-1.1755725190839694,-0.354736328125,0.08349609375,-0.41650390625,1.6864
1.251908396946565,1.465648854961832,-1.3129770992366412,-0.347900390625,0.083251953125,-0.41845703125,1.6881
1.2671755725190839,1.3282442748091603,-1.2061068702290076,-0.346923828125,0.078857421875,-0.424072265625,1.6898
1.1145038167938932,1.3587786259541985,-1.4961832061068703,-0.350830078125,0.0791015625,-0.41796875,1.6915
1.3129770992366412,1.3129770992366412,-1.618320610687023,-0.351806640625,0.07763671875,-0.4150390625,1.6931999999999998
1.1297709923664123,1.4198473282442747,-1.5267175572519085,-0.34765625,0.087890625,-0.41796875,1.6948999999999999
1.1145038167938932,1.465648854961832,-1.5267175572519085,-0.349853515625,0.08154296875,-0.417724609375,1.6965999999999999
1.1297709923664123,1.3740458015267176,-1.6488549618320612,-0.35009765625,0.08251953125,-0.423095703125,1.6983
1.2213740458015268,1.3893129770992367,-1.8473282442748091,-0.351806640625,0.080810546875,-0.419921875,1.7
1.2671755725190839,1.2671755725190839,-1.6488549618320612,-0.3486328125,0.08154296875,-0.40673828125,1.7017
1.2213740458015268,1.4045801526717556,-1.7099236641221374,-0.35205078125,0.082275390625,-0.4189453125,1.7033999999999998
1.1603053435114503,1.251908396946565,-1.633587786259542,-0.34814453125,0.0771484375,-0.415283203125,1.7050999999999998
1.2213740458015268,1.2671755725190839,-1.6946564885496183,-0.34912109375,0.0810546875,-0.411865234375,1.7067999999999999
1.1297709923664123,1.2671755725190839,-1.816793893129771,-0.349853515625,0.081787109375,-0.422119140625,1.7085
1.251908396946565,1.4351145038167938,-1.816793893129771,-0.35595703125,0.0771484375,-0.4140625,1.7102
1.3587786259541985,1.3129770992366412,-1.9389312977099236,-0.3564453125,0.086669921875,-0.4140625,1.7119
1.1755725190839694,1.2061068702290076,-1.7099236641221374,-0.355712890625,0.081787109375,-0.415283203125,1.7136
1.4198473282442747,1.4961832061068703,-1.7709923664122138,-0.35693359375,0.083740234375,-0.417724609375,1.7152999999999998
1.3435114503816794,1.251908396946565,-1.7557251908396947,-0.3505859375,0.0810546875,-0.417236328125,1.7169999999999999
1.297709923664122,1.4045801526717556,-1.83206106870229,-0.352783203125,0.081787109375,-0.42236328125,1.7187
1.2366412213740459,1.3740458015267176,-1.9694656488549618,-0.35400390625,0.079345703125,-0.420166015625,1.7204
1.3893129770992367,1.282442748091603,-2.015267175572519,-0.355224609375,0.079345703125,-0.41455078125,1.7221
1.4961832061068703,1.297709923664122,-2.0763358778625953,-0.357177734375,0.085693359375,-0.4208984375,1.7238
1.1603053435114503,1.3587786259541985,-2.015267175572519,-0.349853515625,0.08203125,-0.423828125,1.7254999999999998
1.3893129770992367,1.450381679389313,-1.816793893129771,-0.34814453125,0.079345703125,-0.421630859375,1.7271999999999998
1.251908396946565,1.251908396946565,-1.9389312977099236,-0.350830078125,0.080810546875,-0.41796875,1.7288999999999999
1.4351145038167938,1.3587786259541985,-1.984732824427481,-0.350341796875,0.08154296875,-0.41845703125,1.7306
1.251908396946565,1.282442748091603,-1.8931297709923665,-0.352783203125,0.08154296875,-0.421142578125,1.7323
1.3435114503816794,1.251908396946565,-1.7709923664122138,-0.35302734375,0.078369140625,-0.4169921875,1.734
1.282442748091603,1.2366412213740459,-1.8473282442748091,-0.351806640625,0.079833984375,-0.418212890625,1.7356999999999998
1.282442748091603,1.4198473282442747,-1.7557251908396947,-0.353759765625,0.079833984375,-0.42041015625,1.7373999999999998
1.297709923664122,1.282442748091603,-1.6946564885496183,-0.354248046875,0.080322265625,-0.419921875,1.7390999999999999
1.282442748091603,1.251908396946565,-1.8625954198473282,-0.350341796875,0.083251953125,-0.420166015625,1.7408
1.1908396946564885,1.1297709923664123,-1.7251908396946565,-0.350830078125,0.080322265625,-0.421875,1.7425
1.2671755725190839,1.1755725190839694,-1.6641221374045803,-0.3486328125,0.08056640625,-0.414306640625,1.7442
1.3129770992366412,1.1297709923664123,-1.7404580152671756,-0.35498046875,0.079833984375,-0.4130859375,1.7459
1.2671755725190839,1.2671755725190839,-1.6030534351145038,-0.351806640625,0.074462890625,-0.4130859375,1.7475999999999998
1.3740458015267176,1.1145038167938932,-1.7404580152671756,-0.353759765625,0.07373046875,-0.413330078125,1.7492999999999999
1.3282442748091603,0.9770992366412213,-1.4809160305343512,-0.3515625,0.08154296875,-0.411865234375,1.751
1.1450381679389312,1.1297709923664123,-1.8778625954198473,-0.352294921875,0.080322265625,-0.416748046875,1.7527
1.1603053435114503,1.1145038167938932,-1.7404580152671756,-0.3525390625,0.07861328125,-0.41552734375,1.7544
1.2366412213740459,1.1145038167938932,-1.6488549618320612,-0.349609375,0.075927734375,-0.42138671875,1.7561
1.3129770992366412,1.3282442748091603,-1.5877862595419847,-0.3525390625,0.080078125,-0.415771484375,1.7577999999999998
1.297709923664122,1.2366412213740459,-1.6030534351145038,-0.351806640625,0.07421875,-0.41943359375,1.7594999999999998
1.083969465648855,1.2671755725190839,-1.3282442748091603,-0.351318359375,0.078857421875,-0.42578125,1.7611999999999999
1.3740458015267176,1.099236641221374,-1.5877862595419847,-0.35595703125,0.081298828125,-0.41455078125,1.7629
1.465648854961832,1.0687022900763359,-1.5267175572519085,-0.3544921875,0.077880859375,-0.41796875,1.7646
1.4045801526717556,1.099236641221374,-1.6030534351145038,-0.35498046875,0.08251953125,-0.422119140625,1.7663
1.4045801526717556,1.297709923664122,-1.6030534351145038,-0.357666015625,0.07666015625,-0.416259765625,1.7679999999999998
1.5572519083969465,1.3129770992366412,-1.6030534351145038,-0.345703125,0.08203125,-0.419921875,1.7696999999999998
1.4198473282442747,1.1755725190839694,-1.3893129770992367,-0.353271484375,0.08056640625,-0.420166015625,1.7713999999999999
1.2366412213740459,1.0687022900763359,-1.5267175572519085,-0.35400390625,0.083740234375,-0.422607421875,1.7731
1.4961832061068703,1.2366412213740459,-1.3587786259541985,-0.349853515625,0.080810546875,-0.421875,1.7748
1.5877862595419847,1.3435114503816794,-1.5419847328244274,-0.35205078125,0.083984375,-0.41455078125,1.7765
1.4809160305343512,1.1603053435114503,-1.282442748091603,-0.3515625,0.080078125,-0.407470703125,1.7782
1.633587786259542,1.1297709923664123,-1.3129770992366412,-0.34912109375,0.0791015625,-0.419677734375,1.7798999999999998
1.465648854961832,1.1603053435114503,-1.4351145038167938,-0.354248046875,0.076904296875,-0.413330078125,1.7815999999999999
1.465648854961832,1.297709923664122,-1.2213740458015268,-0.3525390625,0.0830078125,-0.41259765625,1.7832999999999999
1.5725190839694656,1.3435114503816794,-1.1450381679389312,-0.3525390625,0.08056640625,-0.42626953125,1.785
1.5267175572519085,1.083969465648855,-1.5725190839694656,-0.35205078125,0.0791015625,-0.41455078125,1.7867
1.4045801526717556,1.3740458015267176,-1.251908396946565,-0.34716796875,0.0751953125,-0.41845703125,1.7884
1.4045801526717556,1.3587786259541985,-1.3129770992366412,-0.35693359375,0.078857421875,-0.41650390625,1.7900999999999998
1.5419847328244274,1.5267175572519085,-1.3435114503816794,-0.35693359375,0.083251953125,-0.41552734375,1.7917999999999998
1.450381679389313,1.3587786259541985,-1.3282442748091603,-0.351318359375,0.076904296875,-0.416748046875,1.7934999999999999
1.465648854961832,1.4045801526717556,-1.251908396946565,-0.34521484375,0.0810546875,-0.420166015625,1.7952
1.6641221374045803,1.5419847328244274,-0.9923664122137404,-0.352294921875,0.0771484375,-0.41650390625,1.7969
1.2671755725190839,1.3740458015267176,-1.0229007633587786,-0.35205078125,0.079833984375,-0.4208984375,1.7986
1.5419847328244274,1.297709923664122,-1.1450381679389312,-0.35205078125,0.0771484375,-0.40869140625,1.8002999999999998
1.4351145038167938,1.5419847328244274,-1.1755725190839694,-0.3525390625,0.0751953125,-0.42578125,1.8019999999999998
1.1297709923664123,1.5267175572519085,-1.0229007633587786,-0.354736328125,0.081298828125,-0.43212890625,1.8036999999999999
