gyrox1,gyroy1,gyroz1,accelx1,accely1,accelz1,Time
2.7480916030534353,1.282442748091603,-1.8625954198473282,-0.433349609375,0.001220703125,-0.29296875,0.0
2.7022900763358777,0.9465648854961832,-1.7709923664122138,-0.4345703125,0.001220703125,-0.28857421875,0.0017
2.5801526717557253,1.0381679389312977,-1.6030534351145038,-0.434814453125,0.003662109375,-0.291748046875,0.0034
2.4885496183206106,1.0076335877862594,-1.4809160305343512,-0.439208984375,0.001953125,-0.293701171875,0.0050999999999999995
2.3206106870229006,0.8549618320610687,-1.4198473282442747,-0.43310546875,0.00146484375,-0.29248046875,0.0068
2.519083969465649,0.8702290076335878,-1.2671755725190839,-0.435546875,0.003662109375,-0.2900390625,0.008499999999999999
2.4427480916030535,1.0076335877862594,-1.3282442748091603,-0.43310546875,0.00341796875,-0.29345703125,0.010199999999999999
2.519083969465649,1.0534351145038168,-1.3282442748091603,-0.43408203125,0.001708984375,-0.288330078125,0.011899999999999999
2.549618320610687,0.9007633587786259,-1.4198473282442747,-0.43408203125,0.002685546875,-0.28515625,0.0136
2.5343511450381677,0.8244274809160306,-1.282442748091603,-0.437744140625,0.005126953125,-0.284912109375,0.0153
2.122137404580153,0.916030534351145,-1.3587786259541985,-0.43115234375,0.001708984375,-0.282958984375,0.016999999999999998
2.33587786259542,0.9923664122137404,-1.465648854961832,-0.434814453125,0.003173828125,-0.28662109375,0.018699999999999998
2.381679389312977,0.9618320610687023,-1.3282442748091603,-0.433349609375,0.000244140625,-0.291259765625,0.020399999999999998
2.3969465648854964,0.9618320610687023,-1.2671755725190839,-0.4375,0.0048828125,-0.286376953125,0.022099999999999998
2.1068702290076335,0.916030534351145,-1.4809160305343512,-0.4306640625,-0.003662109375,-0.280029296875,0.023799999999999998
2.0763358778625953,0.9007633587786259,-1.297709923664122,-0.43505859375,0.003662109375,-0.283203125,0.0255
2.2900763358778624,0.9618320610687023,-1.4045801526717556,-0.43310546875,0.001708984375,-0.2744140625,0.0272
2.2595419847328246,0.9618320610687023,-1.5572519083969465,-0.435302734375,-0.000244140625,-0.282958984375,0.0289
2.2748091603053435,1.1145038167938932,-1.4809160305343512,-0.433837890625,0.00048828125,-0.28515625,0.0306
2.2595419847328246,0.8854961832061069,-1.3587786259541985,-0.427734375,0.005126953125,-0.278076171875,0.032299999999999995
2.2290076335877864,0.9007633587786259,-1.3282442748091603,-0.435791015625,0.004638671875,-0.2734375,0.033999999999999996
2.0916030534351147,0.9007633587786259,-1.2213740458015268,-0.433349609375,0.00439453125,-0.282470703125,0.035699999999999996
2.2595419847328246,0.8854961832061069,-1.465648854961832,-0.436767578125,0.009521484375,-0.289306640625,0.037399999999999996
2.2900763358778624,0.9312977099236641,-1.251908396946565,-0.436767578125,0.0048828125,-0.284912109375,0.039099999999999996
2.366412213740458,0.8854961832061069,-1.282442748091603,-0.43310546875,0.006103515625,-0.288818359375,0.040799999999999996
2.3053435114503817,0.7786259541984732,-1.3587786259541985,-0.4306640625,0.004150390625,-0.284912109375,0.042499999999999996
2.2595419847328246,0.8091603053435115,-1.4351145038167938,-0.432373046875,0.00244140625,-0.2900390625,0.044199999999999996
2.3053435114503817,0.6870229007633588,-1.450381679389313,-0.42919921875,0.005615234375,-0.283935546875,0.045899999999999996
2.427480916030534,0.7175572519083969,-1.4351145038167938,-0.43212890625,0.01171875,-0.281494140625,0.047599999999999996
2.1374045801526718,0.7938931297709924,-1.3740458015267176,-0.43408203125,0.00439453125,-0.28759765625,0.0493
2.4580152671755724,0.7175572519083969,-1.633587786259542,-0.43603515625,0.00341796875,-0.287109375,0.051
2.2748091603053435,0.6412213740458015,-1.297709923664122,-0.43408203125,0.001220703125,-0.282958984375,0.0527
2.2595419847328246,0.7633587786259542,-1.5877862595419847,-0.43212890625,0.00244140625,-0.283935546875,0.0544
2.3053435114503817,0.5801526717557252,-1.4351145038167938,-0.434326171875,0.0,-0.28173828125,0.0561
2.3206106870229006,0.6106870229007634,-1.5725190839694656,-0.432373046875,0.00634765625,-0.276611328125,0.0578
2.2595419847328246,0.6106870229007634,-1.450381679389313,-0.4345703125,0.000244140625,-0.281005859375,0.0595
2.33587786259542,0.6870229007633588,-1.4961832061068703,-0.435302734375,0.00146484375,-0.28369140625,0.0612
2.2442748091603053,0.7938931297709924,-1.4351145038167938,-0.431396484375,0.001220703125,-0.28955078125,0.0629
2.2900763358778624,0.8396946564885496,-1.633587786259542,-0.437255859375,0.00048828125,-0.2822265625,0.06459999999999999
2.33587786259542,0.6564885496183206,-1.4961832061068703,-0.4326171875,0.007080078125,-0.28662109375,0.0663
2.2900763358778624,0.7022900763358778,-1.633587786259542,-0.433349609375,0.001220703125,-0.286865234375,0.06799999999999999
2.2442748091603053,0.6870229007633588,-1.633587786259542,-0.4345703125,-0.000244140625,-0.28125,0.0697
2.3053435114503817,0.5954198473282443,-1.6641221374045803,-0.43603515625,0.0,-0.28466796875,0.07139999999999999
2.0916030534351147,0.7786259541984732,-1.5114503816793894,-0.4345703125,0.001953125,-0.287353515625,0.0731
2.198473282442748,0.8854961832061069,-1.4961832061068703,-0.437255859375,0.0,-0.278564453125,0.07479999999999999
2.2442748091603053,0.6412213740458015,-1.5877862595419847,-0.43701171875,0.00048828125,-0.28662109375,0.0765
2.1526717557251906,0.7786259541984732,-1.6793893129770991,-0.43115234375,0.00048828125,-0.288818359375,0.07819999999999999
2.16793893129771,0.7633587786259542,-1.4961832061068703,-0.435302734375,-0.00244140625,-0.287353515625,0.0799
2.030534351145038,0.7633587786259542,-1.8778625954198473,-0.431640625,-0.001953125,-0.28173828125,0.08159999999999999
2.0763358778625953,0.9312977099236641,-1.5267175572519085,-0.43017578125,0.00146484375,-0.29052734375,0.0833
2.045801526717557,0.7480916030534351,-1.5572519083969465,-0.435302734375,-0.00146484375,-0.28466796875,0.08499999999999999
1.984732824427481,0.7022900763358778,-1.4198473282442747,-0.4306640625,0.0009765625,-0.28857421875,0.0867
2.2748091603053435,0.6717557251908397,-1.5725190839694656,-0.432861328125,0.000732421875,-0.289794921875,0.08839999999999999
1.8778625954198473,0.6870229007633588,-1.4351145038167938,-0.434326171875,0.0048828125,-0.286865234375,0.0901
1.984732824427481,0.8091603053435115,-1.5114503816793894,-0.43798828125,0.001953125,-0.28125,0.09179999999999999
1.6641221374045803,0.6259541984732825,-1.3587786259541985,-0.435791015625,-0.002197265625,-0.281982421875,0.0935
1.8015267175572518,0.6106870229007634,-1.4961832061068703,-0.4365234375,0.00146484375,-0.28271484375,0.09519999999999999
1.9083969465648856,0.7175572519083969,-1.618320610687023,-0.4326171875,0.0029296875,-0.285400390625,0.0969
1.984732824427481,0.549618320610687,-1.4198473282442747,-0.435546875,0.00390625,-0.280029296875,0.0986
1.5572519083969465,0.8244274809160306,-1.1908396946564885,-0.431640625,0.0,-0.280029296875,0.1003
1.7557251908396947,0.732824427480916,-1.4351145038167938,-0.4375,-0.002197265625,-0.279541015625,0.102
1.8015267175572518,0.732824427480916,-1.2213740458015268,-0.437255859375,-0.004638671875,-0.282958984375,0.1037
1.618320610687023,0.732824427480916,-1.5267175572519085,-0.43408203125,0.00048828125,-0.2861328125,0.1054
1.5267175572519085,0.5648854961832062,-1.465648854961832,-0.437744140625,0.000244140625,-0.280029296875,0.1071
1.6488549618320612,0.6717557251908397,-1.4198473282442747,-0.432373046875,-0.001220703125,-0.282470703125,0.1088
1.5877862595419847,0.6870229007633588,-1.3740458015267176,-0.436279296875,0.0,-0.28564453125,0.11049999999999999
1.465648854961832,0.5801526717557252,-1.450381679389313,-0.4365234375,0.00439453125,-0.279541015625,0.1122
1.3740458015267176,0.6564885496183206,-1.3587786259541985,-0.43701171875,0.0009765625,-0.28369140625,0.11389999999999999
1.5725190839694656,0.6259541984732825,-1.3587786259541985,-0.436767578125,0.001953125,-0.280029296875,0.1156
1.5114503816793894,0.5954198473282443,-1.450381679389313,-0.43896484375,0.001220703125,-0.288330078125,0.11729999999999999
1.3587786259541985,0.6870229007633588,-1.4809160305343512,-0.43603515625,0.003173828125,-0.285400390625,0.119
1.5725190839694656,0.6412213740458015,-1.2671755725190839,-0.435546875,0.005126953125,-0.28857421875,0.12069999999999999
1.3435114503816794,0.5954198473282443,-1.5572519083969465,-0.43798828125,0.0029296875,-0.284912109375,0.1224
1.2671755725190839,0.5343511450381679,-1.3282442748091603,-0.4306640625,0.00048828125,-0.286865234375,0.12409999999999999
1.282442748091603,0.7633587786259542,-1.5572519083969465,-0.4326171875,0.00634765625,-0.281005859375,0.1258
1.4809160305343512,0.7786259541984732,-1.465648854961832,-0.435546875,0.003662109375,-0.288330078125,0.1275
1.3587786259541985,0.8091603053435115,-1.5267175572519085,-0.438720703125,0.002197265625,-0.284423828125,0.12919999999999998
1.4045801526717556,0.8702290076335878,-1.4045801526717556,-0.4384765625,0.004638671875,-0.281494140625,0.1309
1.2061068702290076,0.916030534351145,-1.5725190839694656,-0.4365234375,0.001708984375,-0.288818359375,0.1326
1.3129770992366412,0.732824427480916,-1.450381679389313,-0.439453125,-0.00146484375,-0.28076171875,0.1343
1.450381679389313,0.9312977099236641,-1.6488549618320612,-0.43115234375,0.0009765625,-0.286376953125,0.13599999999999998
1.2213740458015268,0.9770992366412213,-1.450381679389313,-0.43603515625,-0.00244140625,-0.284423828125,0.1377
1.251908396946565,0.916030534351145,-1.3435114503816794,-0.43701171875,0.0048828125,-0.292724609375,0.1394
1.3893129770992367,0.8854961832061069,-1.4809160305343512,-0.435546875,0.00439453125,-0.28662109375,0.1411
1.251908396946565,1.0076335877862594,-1.6641221374045803,-0.4384765625,0.002197265625,-0.28369140625,0.14279999999999998
1.2366412213740459,1.1908396946564885,-1.6030534351145038,-0.435302734375,0.002685546875,-0.278564453125,0.1445
1.282442748091603,1.2366412213740459,-1.5267175572519085,-0.440185546875,-0.001953125,-0.28564453125,0.1462
1.3893129770992367,1.2213740458015268,-1.5114503816793894,-0.434814453125,0.001953125,-0.2841796875,0.1479
1.2671755725190839,1.282442748091603,-1.4961832061068703,-0.43603515625,0.003173828125,-0.28759765625,0.14959999999999998
1.3129770992366412,1.0687022900763359,-1.4809160305343512,-0.435546875,0.005615234375,-0.2861328125,0.1513
1.251908396946565,1.282442748091603,-1.5877862595419847,-0.433837890625,-0.00048828125,-0.28662109375,0.153
1.297709923664122,1.1603053435114503,-1.4351145038167938,-0.433349609375,-0.002685546875,-0.282958984375,0.1547
0.9312977099236641,1.2366412213740459,-1.6793893129770991,-0.435791015625,-0.001708984375,-0.28857421875,0.15639999999999998
1.2671755725190839,1.3282442748091603,-1.5114503816793894,-0.4326171875,0.000732421875,-0.283447265625,0.1581
1.3893129770992367,1.4961832061068703,-1.7557251908396947,-0.43994140625,0.005126953125,-0.2822265625,0.1598
1.3129770992366412,1.2671755725190839,-1.6030534351145038,-0.439208984375,0.0048828125,-0.27734375,0.1615
1.0687022900763359,1.3129770992366412,-1.7099236641221374,-0.438720703125,0.001708984375,-0.281005859375,0.16319999999999998
1.3282442748091603,1.3282442748091603,-1.5267175572519085,-0.434814453125,0.005126953125,-0.282470703125,0.1649
1.1450381679389312,1.3435114503816794,-1.6946564885496183,-0.42919921875,0.00439453125,-0.27978515625,0.1666
1.2061068702290076,1.3129770992366412,-1.5114503816793894,-0.434326171875,0.000244140625,-0.289306640625,0.16829999999999998
1.2366412213740459,1.1145038167938932,-1.83206106870229,-0.434326171875,0.001708984375,-0.283203125,0.16999999999999998
1.3435114503816794,1.1755725190839694,-1.7557251908396947,-0.43359375,0.0029296875,-0.27734375,0.1717
1.2366412213740459,1.3740458015267176,-1.9236641221374047,-0.42919921875,0.006103515625,-0.276123046875,0.1734
1.282442748091603,1.2671755725190839,-1.5419847328244274,-0.43505859375,0.00341796875,-0.282470703125,0.17509999999999998
1.465648854961832,1.2366412213740459,-1.5114503816793894,-0.4326171875,0.002197265625,-0.282470703125,0.17679999999999998
1.3282442748091603,1.297709923664122,-1.7404580152671756,-0.43603515625,0.005126953125,-0.28515625,0.1785
1.3129770992366412,1.1755725190839694,-1.5572519083969465,-0.434814453125,0.004150390625,-0.291015625,0.1802
1.282442748091603,1.4045801526717556,-1.4809160305343512,-0.435302734375,0.005615234375,-0.2880859375,0.18189999999999998
1.3587786259541985,1.297709923664122,-1.7099236641221374,-0.4365234375,0.00244140625,-0.28662109375,0.18359999999999999
1.4809160305343512,1.3435114503816794,-1.5114503816793894,-0.438720703125,0.00390625,-0.273681640625,0.1853
1.1908396946564885,1.2061068702290076,-1.618320610687023,-0.43505859375,0.004638671875,-0.29248046875,0.187
1.3587786259541985,1.1145038167938932,-1.786259541984733,-0.431640625,0.006103515625,-0.281005859375,0.18869999999999998
1.465648854961832,1.2366412213740459,-1.6946564885496183,-0.435546875,0.00830078125,-0.2861328125,0.19039999999999999
1.4809160305343512,1.2061068702290076,-1.5419847328244274,-0.433837890625,0.004638671875,-0.291259765625,0.1921
1.5572519083969465,1.1603053435114503,-1.7709923664122138,-0.433837890625,0.007080078125,-0.292236328125,0.1938
1.2061068702290076,1.2671755725190839,-1.5877862595419847,-0.43603515625,0.000732421875,-0.2900390625,0.19549999999999998
1.6030534351145038,1.1297709923664123,-1.5419847328244274,-0.4365234375,0.00537109375,-0.28466796875,0.1972
1.3893129770992367,1.1603053435114503,-1.5725190839694656,-0.43310546875,0.001953125,-0.28759765625,0.1989
1.450381679389313,1.1755725190839694,-1.5877862595419847,-0.43359375,0.00146484375,-0.28173828125,0.2006
1.2213740458015268,1.0687022900763359,-1.5114503816793894,-0.435302734375,0.0048828125,-0.28271484375,0.20229999999999998
1.4961832061068703,1.1908396946564885,-1.6030534351145038,-0.43115234375,0.002685546875,-0.28857421875,0.204
1.7557251908396947,1.282442748091603,-1.6793893129770991,-0.433349609375,0.001220703125,-0.283447265625,0.2057
1.4961832061068703,1.1755725190839694,-1.3893129770992367,-0.432373046875,-0.001953125,-0.28076171875,0.2074
1.5114503816793894,1.2061068702290076,-1.465648854961832,-0.432373046875,0.004150390625,-0.291015625,0.20909999999999998
1.4961832061068703,1.083969465648855,-1.5572519083969465,-0.437255859375,0.004638671875,-0.284912109375,0.2108
1.7557251908396947,1.0229007633587786,-1.5267175572519085,-0.436767578125,-0.001708984375,-0.2861328125,0.2125
1.618320610687023,0.9770992366412213,-1.5114503816793894,-0.433349609375,0.0068359375,-0.285888671875,0.2142
1.5419847328244274,0.9770992366412213,-1.5267175572519085,-0.429931640625,0.00439453125,-0.2890625,0.21589999999999998
1.6641221374045803,0.9007633587786259,-1.5572519083969465,-0.43359375,0.0029296875,-0.278076171875,0.2176
1.5877862595419847,0.9007633587786259,-1.3282442748091603,-0.4384765625,-0.002685546875,-0.287109375,0.2193
1.4809160305343512,0.8244274809160306,-1.3740458015267176,-0.431640625,0.00341796875,-0.27880859375,0.22099999999999997
1.6641221374045803,0.8091603053435115,-1.282442748091603,-0.43359375,0.00439453125,-0.28662109375,0.22269999999999998
1.6793893129770991,0.8549618320610687,-1.282442748091603,-0.434326171875,0.002197265625,-0.287353515625,0.2244
1.618320610687023,0.9312977099236641,-1.1755725190839694,-0.43408203125,0.003662109375,-0.279541015625,0.2261
1.5725190839694656,0.916030534351145,-1.2671755725190839,-0.433837890625,0.003662109375,-0.284912109375,0.22779999999999997
1.6488549618320612,0.732824427480916,-1.3587786259541985,-0.436279296875,0.007080078125,-0.28759765625,0.22949999999999998
1.816793893129771,0.8702290076335878,-1.2671755725190839,-0.432373046875,0.00537109375,-0.284423828125,0.2312
1.6488549618320612,0.732824427480916,-1.3435114503816794,-0.432861328125,-0.001708984375,-0.2802734375,0.2329
1.5419847328244274,0.6870229007633588,-1.450381679389313,-0.437744140625,0.005859375,-0.277099609375,0.23459999999999998
1.816793893129771,0.8091603053435115,-1.2671755725190839,-0.433349609375,0.003662109375,-0.2900390625,0.23629999999999998
1.7251908396946565,0.7633587786259542,-1.1908396946564885,-0.43310546875,0.0009765625,-0.2900390625,0.238
1.83206106870229,0.8549618320610687,-1.282442748091603,-0.43505859375,0.00341796875,-0.285400390625,0.2397
2.0,0.7786259541984732,-1.3587786259541985,-0.4375,-0.00048828125,-0.287109375,0.24139999999999998
2.030534351145038,0.7022900763358778,-1.2366412213740459,-0.43701171875,-0.002685546875,-0.280029296875,0.24309999999999998
1.6946564885496183,0.7022900763358778,-1.3282442748091603,-0.43798828125,0.004150390625,-0.27587890625,0.2448
1.83206106870229,0.8549618320610687,-1.1908396946564885,-0.43798828125,0.00439453125,-0.284423828125,0.2465
1.8473282442748091,0.9465648854961832,-1.1297709923664123,-0.43505859375,0.001953125,-0.27978515625,0.24819999999999998
1.8778625954198473,0.6259541984732825,-1.1450381679389312,-0.442138671875,0.005126953125,-0.281494140625,0.24989999999999998
1.9083969465648856,0.6717557251908397,-1.0229007633587786,-0.43603515625,0.003173828125,-0.27587890625,0.2516
1.83206106870229,0.7480916030534351,-1.2671755725190839,-0.440185546875,0.004150390625,-0.278076171875,0.25329999999999997
1.8015267175572518,0.5954198473282443,-1.0076335877862594,-0.440673828125,0.000732421875,-0.28857421875,0.255
1.8931297709923665,0.732824427480916,-1.0381679389312977,-0.43017578125,0.00244140625,-0.27490234375,0.2567
1.786259541984733,0.5801526717557252,-1.1297709923664123,-0.43310546875,-0.000244140625,-0.278564453125,0.25839999999999996
1.7709923664122138,0.5954198473282443,-1.0229007633587786,-0.43359375,0.002197265625,-0.283203125,0.2601
1.8473282442748091,0.732824427480916,-0.8854961832061069,-0.436279296875,0.001220703125,-0.28662109375,0.2618
1.786259541984733,0.8091603053435115,-0.9465648854961832,-0.438720703125,0.001708984375,-0.289306640625,0.2635
1.8931297709923665,0.6412213740458015,-0.8244274809160306,-0.43408203125,0.001708984375,-0.27587890625,0.2652
1.6488549618320612,0.9465648854961832,-0.8702290076335878,-0.431884765625,0.003662109375,-0.2861328125,0.26689999999999997
1.3740458015267176,0.9923664122137404,-0.8702290076335878,-0.43505859375,0.00244140625,-0.28369140625,0.2686
1.5419847328244274,0.9312977099236641,-1.0076335877862594,-0.43359375,0.0029296875,-0.2890625,0.2703
1.465648854961832,1.1908396946564885,-0.7786259541984732,-0.436279296875,0.001953125,-0.289794921875,0.27199999999999996
1.2213740458015268,0.9770992366412213,-0.8396946564885496,-0.437744140625,0.0,-0.28466796875,0.2737
1.1755725190839694,1.0076335877862594,-0.8396946564885496,-0.432373046875,0.003173828125,-0.280029296875,0.2754
1.4045801526717556,1.2366412213740459,-0.9465648854961832,-0.4375,0.00146484375,-0.291259765625,0.27709999999999996
1.3435114503816794,1.1755725190839694,-0.8702290076335878,-0.438720703125,0.004638671875,-0.290771484375,0.2788
1.4351145038167938,1.0687022900763359,-0.8854961832061069,-0.439208984375,0.003173828125,-0.287841796875,0.28049999999999997
1.465648854961832,1.1450381679389312,-0.7480916030534351,-0.43408203125,0.00244140625,-0.281005859375,0.2822
1.4809160305343512,1.083969465648855,-0.916030534351145,-0.434326171875,0.005859375,-0.281005859375,0.2839
1.3587786259541985,1.1297709923664123,-0.8244274809160306,-0.435791015625,0.001220703125,-0.28369140625,0.28559999999999997
1.3587786259541985,1.0687022900763359,-0.916030534351145,-0.434326171875,-0.0009765625,-0.2890625,0.2873
1.3740458015267176,1.282442748091603,-0.9007633587786259,-0.432373046875,0.0029296875,-0.274658203125,0.289
1.282442748091603,1.251908396946565,-0.7938931297709924,-0.437744140625,0.0068359375,-0.285888671875,0.29069999999999996
1.5877862595419847,1.0687022900763359,-0.8244274809160306,-0.4365234375,0.00439453125,-0.290283203125,0.2924
1.3587786259541985,1.297709923664122,-0.9312977099236641,-0.437744140625,0.00048828125,-0.289306640625,0.2941
1.4045801526717556,1.2366412213740459,-0.8396946564885496,-0.4384765625,0.002685546875,-0.279296875,0.2958
1.0687022900763359,1.3435114503816794,-0.8396946564885496,-0.439208984375,0.005615234375,-0.284912109375,0.2975
1.2366412213740459,1.2671755725190839,-0.9007633587786259,-0.43994140625,0.006591796875,-0.285888671875,0.29919999999999997
1.6488549618320612,1.5267175572519085,-1.083969465648855,-0.44140625,0.0068359375,-0.2880859375,0.3009
1.2671755725190839,1.6793893129770991,-0.9465648854961832,-0.434814453125,0.00830078125,-0.28564453125,0.3026
1.3282442748091603,1.5725190839694656,-1.0381679389312977,-0.438720703125,0.0,-0.2822265625,0.30429999999999996
1.4198473282442747,1.8625954198473282,-0.9923664122137404,-0.43603515625,0.00634765625,-0.28466796875,0.306
1.2671755725190839,1.7557251908396947,-1.1450381679389312,-0.4375,0.00341796875,-0.290771484375,0.3077
1.282442748091603,1.8931297709923665,-1.0076335877862594,-0.438232421875,0.005615234375,-0.289794921875,0.3094
1.099236641221374,2.0763358778625953,-1.0381679389312977,-0.4423828125,0.0029296875,-0.29345703125,0.3111
1.099236641221374,1.8625954198473282,-1.1603053435114503,-0.43701171875,0.0,-0.284912109375,0.31279999999999997
1.1450381679389312,2.015267175572519,-1.2366412213740459,-0.4375,-0.001953125,-0.288818359375,0.3145
1.282442748091603,2.198473282442748,-1.2061068702290076,-0.43701171875,0.00439453125,-0.283447265625,0.3162
1.465648854961832,2.213740458015267,-1.3587786259541985,-0.436767578125,0.00439453125,-0.28173828125,0.31789999999999996
1.0229007633587786,2.2595419847328246,-1.3435114503816794,-0.43603515625,0.00732421875,-0.285888671875,0.3196
1.1908396946564885,2.015267175572519,-1.3587786259541985,-0.437255859375,0.0078125,-0.289794921875,0.3213
1.3740458015267176,2.1374045801526718,-1.4045801526717556,-0.43896484375,0.003173828125,-0.287109375,0.323
1.3129770992366412,2.030534351145038,-1.4809160305343512,-0.433837890625,0.0029296875,-0.280029296875,0.3247
1.2061068702290076,1.9541984732824427,-1.3740458015267176,-0.436279296875,0.005126953125,-0.2861328125,0.32639999999999997
1.3435114503816794,1.8931297709923665,-1.6641221374045803,-0.44091796875,0.007568359375,-0.289306640625,0.3281
1.2671755725190839,1.8778625954198473,-1.5419847328244274,-0.433349609375,0.004638671875,-0.280029296875,0.3298
1.3893129770992367,1.9541984732824427,-1.5725190839694656,-0.43359375,0.005615234375,-0.291748046875,0.33149999999999996
1.6488549618320612,1.8473282442748091,-1.5267175572519085,-0.434326171875,0.009033203125,-0.28759765625,0.3332
1.5725190839694656,1.6793893129770991,-1.786259541984733,-0.434326171875,0.00341796875,-0.283935546875,0.3349
1.7099236641221374,1.6030534351145038,-1.465648854961832,-0.43212890625,0.00732421875,-0.28173828125,0.33659999999999995
1.465648854961832,1.5725190839694656,-1.8015267175572518,-0.439208984375,0.0078125,-0.281005859375,0.3383
1.3587786259541985,1.7251908396946565,-1.5877862595419847,-0.4375,0.00048828125,-0.285888671875,0.33999999999999997
1.6488549618320612,1.83206106870229,-1.5419847328244274,-0.43505859375,0.00439453125,-0.2822265625,0.3417
1.5725190839694656,1.633587786259542,-1.4961832061068703,-0.436767578125,0.00390625,-0.28271484375,0.3434
1.7557251908396947,1.6946564885496183,-1.6793893129770991,-0.43310546875,0.006591796875,-0.278076171875,0.34509999999999996
1.6030534351145038,1.8931297709923665,-1.6488549618320612,-0.434814453125,0.00634765625,-0.286865234375,0.3468
1.8015267175572518,2.030534351145038,-1.7404580152671756,-0.437255859375,0.002685546875,-0.28515625,0.3485
1.786259541984733,2.015267175572519,-1.6641221374045803,-0.432373046875,0.00341796875,-0.291748046875,0.35019999999999996
1.3282442748091603,1.786259541984733,-1.5877862595419847,-0.434326171875,0.005615234375,-0.2861328125,0.3519
1.4961832061068703,1.9541984732824427,-1.7557251908396947,-0.433349609375,0.005615234375,-0.28955078125,0.35359999999999997
1.5419847328244274,2.0916030534351147,-1.786259541984733,-0.433837890625,0.003662109375,-0.29736328125,0.3553
1.5725190839694656,1.9541984732824427,-1.6641221374045803,-0.434814453125,0.004150390625,-0.288330078125,0.357
1.7099236641221374,1.9694656488549618,-1.7709923664122138,-0.429931640625,-0.000244140625,-0.2763671875,0.35869999999999996
1.3129770992366412,2.183206106870229,-1.5419847328244274,-0.437744140625,0.001953125,-0.284423828125,0.3604
1.3435114503816794,2.2900763358778624,-1.633587786259542,-0.437744140625,0.00244140625,-0.2880859375,0.3621
1.6641221374045803,2.351145038167939,-1.7251908396946565,-0.43017578125,0.006103515625,-0.285400390625,0.36379999999999996
1.633587786259542,2.2442748091603053,-1.5267175572519085,-0.443115234375,0.002685546875,-0.28662109375,0.3655
1.4809160305343512,2.381679389312977,-1.4045801526717556,-0.434326171875,-0.00146484375,-0.289306640625,0.36719999999999997
1.4045801526717556,2.33587786259542,-1.6641221374045803,-0.430908203125,0.00830078125,-0.284423828125,0.3689
1.5877862595419847,2.351145038167939,-1.4198473282442747,-0.432373046875,0.004638671875,-0.285888671875,0.3706
1.4351145038167938,2.045801526717557,-1.6641221374045803,-0.43701171875,0.0068359375,-0.28271484375,0.37229999999999996
1.6030534351145038,1.8931297709923665,-1.633587786259542,-0.431884765625,0.002685546875,-0.283447265625,0.374
1.5725190839694656,1.816793893129771,-1.8015267175572518,-0.4326171875,0.0,-0.284423828125,0.3757
1.5572519083969465,1.6946564885496183,-1.7557251908396947,-0.4267578125,0.00390625,-0.2861328125,0.37739999999999996
1.450381679389313,1.7251908396946565,-1.8625954198473282,-0.42724609375,0.007080078125,-0.290771484375,0.3791
1.4198473282442747,1.6641221374045803,-1.5267175572519085,-0.427001953125,0.0048828125,-0.281494140625,0.38079999999999997
1.3435114503816794,1.6030534351145038,-1.7404580152671756,-0.43115234375,0.008056640625,-0.285400390625,0.38249999999999995
1.6641221374045803,1.7099236641221374,-1.6030534351145038,-0.429931640625,0.005126953125,-0.283935546875,0.3842
1.5114503816793894,1.6488549618320612,-1.7099236641221374,-0.43212890625,0.00439453125,-0.290283203125,0.38589999999999997
1.7404580152671756,1.3893129770992367,-1.5114503816793894,-0.432861328125,0.0048828125,-0.288330078125,0.3876
1.5572519083969465,1.3282442748091603,-1.6488549618320612,-0.4326171875,0.002197265625,-0.2783203125,0.3893
1.6488549618320612,1.4198473282442747,-1.5877862595419847,-0.43603515625,0.004638671875,-0.287353515625,0.39099999999999996
1.5419847328244274,1.4045801526717556,-1.7099236641221374,-0.42919921875,0.00537109375,-0.2822265625,0.3927
1.633587786259542,1.282442748091603,-1.4198473282442747,-0.429931640625,0.00390625,-0.283447265625,0.3944
1.7404580152671756,1.297709923664122,-1.7404580152671756,-0.4326171875,0.003662109375,-0.28369140625,0.39609999999999995
1.8015267175572518,1.3129770992366412,-1.8625954198473282,-0.428466796875,0.00732421875,-0.286865234375,0.3978
1.465648854961832,1.0381679389312977,-1.8015267175572518,-0.43603515625,0.00537109375,-0.280029296875,0.39949999999999997
1.7099236641221374,0.9923664122137404,-1.9083969465648856,-0.431640625,0.00439453125,-0.286376953125,0.4012
1.5267175572519085,1.0381679389312977,-1.9389312977099236,-0.432373046875,0.00439453125,-0.283935546875,0.4029
1.7557251908396947,0.9465648854961832,-1.816793893129771,-0.4326171875,-0.000244140625,-0.282470703125,0.40459999999999996
1.816793893129771,1.083969465648855,-1.9236641221374047,-0.434326171875,0.001708984375,-0.28857421875,0.4063
1.7099236641221374,1.083969465648855,-1.7709923664122138,-0.43603515625,-0.0009765625,-0.281982421875,0.408
1.816793893129771,1.0381679389312977,-2.030534351145038,-0.435791015625,0.005126953125,-0.291748046875,0.40969999999999995
1.4961832061068703,1.099236641221374,-1.8778625954198473,-0.429931640625,0.002197265625,-0.2802734375,0.4114
1.5419847328244274,0.9312977099236641,-2.1374045801526718,-0.434326171875,0.007080078125,-0.2841796875,0.41309999999999997
1.7099236641221374,1.2061068702290076,-1.8625954198473282,-0.4296875,0.0,-0.28857421875,0.4148
1.7251908396946565,1.1450381679389312,-2.0610687022900764,-0.435791015625,0.00732421875,-0.28857421875,0.4165
1.6488549618320612,1.099236641221374,-1.9541984732824427,-0.43701171875,0.00634765625,-0.281494140625,0.41819999999999996
1.6641221374045803,0.9923664122137404,-2.030534351145038,-0.432861328125,-0.001708984375,-0.2919921875,0.4199
1.618320610687023,0.9618320610687023,-2.030534351145038,-0.4248046875,0.00390625,-0.293212890625,0.4216
1.786259541984733,0.9770992366412213,-1.9541984732824427,-0.427978515625,0.00390625,-0.288818359375,0.42329999999999995
1.7404580152671756,0.7022900763358778,-2.0,-0.429931640625,0.007568359375,-0.28125,0.425
1.618320610687023,0.7175572519083969,-2.0916030534351147,-0.432373046875,0.00634765625,-0.289306640625,0.42669999999999997
1.6030534351145038,0.6412213740458015,-2.16793893129771,-0.436767578125,0.006591796875,-0.279541015625,0.4284
1.6946564885496183,0.6259541984732825,-2.0610687022900764,-0.429443359375,0.0048828125,-0.295654296875,0.4301
1.5725190839694656,0.732824427480916,-1.9236641221374047,-0.435302734375,0.003173828125,-0.283935546875,0.43179999999999996
1.6946564885496183,0.7022900763358778,-2.0,-0.435302734375,0.00439453125,-0.292724609375,0.4335
1.9083969465648856,0.7633587786259542,-1.9236641221374047,-0.4306640625,0.00439453125,-0.27978515625,0.4352
1.465648854961832,0.7480916030534351,-1.9694656488549618,-0.431640625,0.0009765625,-0.289306640625,0.43689999999999996
1.83206106870229,0.7938931297709924,-1.8931297709923665,-0.434814453125,0.00048828125,-0.27587890625,0.4386
1.633587786259542,0.6870229007633588,-2.16793893129771,-0.43359375,0.004150390625,-0.284912109375,0.44029999999999997
1.6488549618320612,0.7480916030534351,-2.0610687022900764,-0.431396484375,0.000244140625,-0.27880859375,0.44199999999999995
1.6030534351145038,0.7480916030534351,-1.9389312977099236,-0.426513671875,0.005615234375,-0.294189453125,0.4437
1.6946564885496183,0.6106870229007634,-1.984732824427481,-0.4296875,0.004638671875,-0.28955078125,0.44539999999999996
1.4351145038167938,0.7633587786259542,-2.0763358778625953,-0.438720703125,0.002685546875,-0.28564453125,0.4471
1.6641221374045803,0.7633587786259542,-2.030534351145038,-0.434814453125,-0.003173828125,-0.29345703125,0.4488
1.4198473282442747,0.7938931297709924,-2.2442748091603053,-0.4365234375,0.001220703125,-0.291748046875,0.45049999999999996
1.450381679389313,0.7175572519083969,-2.015267175572519,-0.437255859375,0.00146484375,-0.280029296875,0.4522
1.6793893129770991,0.5954198473282443,-1.984732824427481,-0.4326171875,-0.002197265625,-0.291259765625,0.45389999999999997
1.5114503816793894,0.6106870229007634,-1.8931297709923665,-0.43505859375,0.000244140625,-0.2783203125,0.45559999999999995
1.5877862595419847,0.732824427480916,-2.0,-0.438720703125,0.00390625,-0.285888671875,0.4573
1.6641221374045803,0.4580152671755725,-1.9083969465648856,-0.431640625,0.00146484375,-0.286376953125,0.45899999999999996
1.4809160305343512,0.6259541984732825,-2.015267175572519,-0.440673828125,0.001708984375,-0.283935546875,0.4607
1.4809160305343512,0.8091603053435115,-1.9694656488549618,-0.433837890625,0.0029296875,-0.28515625,0.4624
1.4809160305343512,0.8549618320610687,-2.1068702290076335,-0.4345703125,0.0009765625,-0.284423828125,0.46409999999999996
1.7557251908396947,0.5801526717557252,-2.1374045801526718,-0.4375,0.00634765625,-0.286865234375,0.4658
1.7709923664122138,0.6412213740458015,-2.030534351145038,-0.4345703125,0.002685546875,-0.28125,0.46749999999999997
1.786259541984733,0.549618320610687,-2.0610687022900764,-0.44384765625,0.001708984375,-0.279541015625,0.46919999999999995
1.7709923664122138,0.5648854961832062,-2.1374045801526718,-0.43798828125,0.00390625,-0.286865234375,0.4709
1.6946564885496183,0.3511450381679389,-2.2442748091603053,-0.43896484375,0.00537109375,-0.28857421875,0.47259999999999996
1.7099236641221374,0.42748091603053434,-2.2595419847328246,-0.438720703125,0.000732421875,-0.28564453125,0.4743
1.9541984732824427,0.6412213740458015,-2.045801526717557,-0.43505859375,0.00341796875,-0.28564453125,0.476
1.816793893129771,0.5190839694656488,-2.2900763358778624,-0.43603515625,0.005615234375,-0.282470703125,0.47769999999999996
1.8625954198473282,0.5801526717557252,-2.1374045801526718,-0.43798828125,0.005859375,-0.282470703125,0.4794
1.6946564885496183,0.5648854961832062,-2.122137404580153,-0.4345703125,0.005126953125,-0.282958984375,0.48109999999999997
1.7557251908396947,0.549618320610687,-2.0916030534351147,-0.441162109375,0.004150390625,-0.28662109375,0.48279999999999995
1.984732824427481,0.7175572519083969,-2.0763358778625953,-0.43994140625,-0.001708984375,-0.287353515625,0.4845
2.030534351145038,0.7480916030534351,-2.1374045801526718,-0.4375,0.000732421875,-0.2861328125,0.48619999999999997
1.8473282442748091,0.6717557251908397,-2.198473282442748,-0.434326171875,-0.000244140625,-0.280029296875,0.4879
1.9694656488549618,0.7786259541984732,-2.0610687022900764,-0.4404296875,0.001220703125,-0.2841796875,0.4896
1.8015267175572518,0.6870229007633588,-2.122137404580153,-0.4345703125,-0.001953125,-0.287841796875,0.49129999999999996
1.8778625954198473,0.8091603053435115,-2.030534351145038,-0.44091796875,0.00341796875,-0.2802734375,0.493
1.9236641221374047,0.9923664122137404,-1.9694656488549618,-0.435302734375,0.00341796875,-0.28955078125,0.4947
1.9541984732824427,0.9618320610687023,-2.030534351145038,-0.439453125,0.007568359375,-0.287841796875,0.49639999999999995
1.9541984732824427,0.916030534351145,-2.030534351145038,-0.44189453125,0.00537109375,-0.28662109375,0.4981
2.1374045801526718,0.9923664122137404,-2.015267175572519,-0.4404296875,0.005859375,-0.279296875,0.49979999999999997
2.0916030534351147,1.0534351145038168,-1.984732824427481,-0.439208984375,0.00341796875,-0.286376953125,0.5015
2.0916030534351147,1.2671755725190839,-2.0763358778625953,-0.436279296875,-0.000244140625,-0.28759765625,0.5032
2.0,1.282442748091603,-2.0,-0.43603515625,-0.0009765625,-0.284423828125,0.5049
1.9694656488549618,1.297709923664122,-1.83206106870229,-0.434814453125,0.006591796875,-0.287841796875,0.5065999999999999
1.9389312977099236,1.3129770992366412,-1.8931297709923665,-0.44091796875,0.005859375,-0.281005859375,0.5083
1.8931297709923665,1.3129770992366412,-1.984732824427481,-0.43603515625,0.003173828125,-0.27734375,0.51
2.198473282442748,1.3893129770992367,-1.816793893129771,-0.4404296875,0.004150390625,-0.285888671875,0.5116999999999999
2.3206106870229006,1.3435114503816794,-1.786259541984733,-0.43603515625,0.003173828125,-0.284423828125,0.5134
2.1526717557251906,1.5572519083969465,-1.8473282442748091,-0.43505859375,0.003173828125,-0.291259765625,0.5151
2.0763358778625953,1.5725190839694656,-1.8931297709923665,-0.436767578125,-0.00244140625,-0.29150390625,0.5167999999999999
1.9389312977099236,1.297709923664122,-1.8931297709923665,-0.435791015625,0.000732421875,-0.28173828125,0.5185
2.381679389312977,1.4351145038167938,-2.045801526717557,-0.433837890625,0.0009765625,-0.280029296875,0.5202
2.213740458015267,1.6488549618320612,-1.984732824427481,-0.4326171875,0.00244140625,-0.28662109375,0.5218999999999999
2.1526717557251906,1.4351145038167938,-1.8015267175572518,-0.4306640625,0.003173828125,-0.28125,0.5236
2.2442748091603053,1.4961832061068703,-1.786259541984733,-0.43212890625,0.00244140625,-0.281005859375,0.5253
2.351145038167939,1.3740458015267176,-1.6488549618320612,-0.4326171875,0.000244140625,-0.28173828125,0.527
2.50381679389313,1.4351145038167938,-1.6641221374045803,-0.439453125,-0.000732421875,-0.283203125,0.5287
1.9236641221374047,1.7404580152671756,-1.5725190839694656,-0.433349609375,-0.0009765625,-0.27783203125,0.5304
2.1068702290076335,1.5114503816793894,-1.4045801526717556,-0.4296875,0.001708984375,-0.28271484375,0.5321
2.1526717557251906,1.450381679389313,-1.3740458015267176,-0.437255859375,-0.001708984375,-0.2841796875,0.5337999999999999
1.8778625954198473,1.4045801526717556,-1.450381679389313,-0.43408203125,0.0029296875,-0.28564453125,0.5355
1.9389312977099236,1.5572519083969465,-1.4351145038167938,-0.431640625,0.00390625,-0.281494140625,0.5372
2.183206106870229,1.4045801526717556,-1.3282442748091603,-0.4375,-0.00048828125,-0.276123046875,0.5388999999999999
2.1068702290076335,1.4809160305343512,-1.3587786259541985,-0.430419921875,-0.00048828125,-0.2841796875,0.5406
2.0916030534351147,1.3282442748091603,-1.5114503816793894,-0.43212890625,0.00537109375,-0.281494140625,0.5423
2.198473282442748,1.3282442748091603,-1.4045801526717556,-0.431640625,0.004150390625,-0.2841796875,0.5439999999999999
2.1374045801526718,1.2366412213740459,-1.5877862595419847,-0.434326171875,0.00048828125,-0.283203125,0.5457
2.1068702290076335,1.251908396946565,-1.6030534351145038,-0.433349609375,-0.000244140625,-0.286376953125,0.5474
2.2290076335877864,1.3740458015267176,-1.7251908396946565,-0.43408203125,-0.003662109375,-0.28515625,0.5490999999999999
2.015267175572519,1.450381679389313,-1.618320610687023,-0.433349609375,-0.001220703125,-0.2822265625,0.5508
2.0,1.4961832061068703,-1.5267175572519085,-0.431640625,-0.001708984375,-0.280029296875,0.5525
1.984732824427481,1.5114503816793894,-1.633587786259542,-0.433349609375,0.00634765625,-0.285400390625,0.5541999999999999
2.2595419847328246,1.4351145038167938,-1.450381679389313,-0.427001953125,0.00146484375,-0.28369140625,0.5559
2.015267175572519,1.5267175572519085,-1.5267175572519085,-0.427001953125,0.004150390625,-0.27685546875,0.5576
1.9541984732824427,1.450381679389313,-1.6030534351145038,-0.4306640625,0.0087890625,-0.28466796875,0.5593
2.1068702290076335,1.5572519083969465,-1.6793893129770991,-0.43408203125,-0.00146484375,-0.284423828125,0.5609999999999999
2.1374045801526718,1.4809160305343512,-1.5877862595419847,-0.43017578125,0.006103515625,-0.27587890625,0.5627
2.0763358778625953,1.297709923664122,-1.6641221374045803,-0.43017578125,0.00146484375,-0.28271484375,0.5644
2.3053435114503817,1.2213740458015268,-1.83206106870229,-0.43017578125,0.000244140625,-0.286376953125,0.5660999999999999
2.33587786259542,0.9770992366412213,-1.9083969465648856,-0.43017578125,0.0029296875,-0.285888671875,0.5678
2.351145038167939,0.8244274809160306,-1.7099236641221374,-0.4375,0.00439453125,-0.27734375,0.5695
2.366412213740458,0.9465648854961832,-1.8473282442748091,-0.431396484375,0.004150390625,-0.2880859375,0.5711999999999999
2.381679389312977,0.6106870229007634,-1.9389312977099236,-0.426025390625,0.001220703125,-0.289306640625,0.5729
2.50381679389313,0.6106870229007634,-1.83206106870229,-0.43798828125,-0.001953125,-0.29345703125,0.5746
2.5343511450381677,0.6259541984732825,-2.1068702290076335,-0.436279296875,0.00390625,-0.274169921875,0.5762999999999999
2.519083969465649,0.5343511450381679,-2.122137404580153,-0.433837890625,0.001953125,-0.288330078125,0.578
2.4885496183206106,0.5343511450381679,-1.9083969465648856,-0.42919921875,-0.001708984375,-0.28466796875,0.5797
2.687022900763359,0.8244274809160306,-2.1374045801526718,-0.4326171875,0.001220703125,-0.2880859375,0.5813999999999999
2.549618320610687,0.549618320610687,-2.0763358778625953,-0.43505859375,0.001953125,-0.28564453125,0.5831
2.366412213740458,0.6564885496183206,-2.030534351145038,-0.429443359375,0.002685546875,-0.28271484375,0.5848
2.8091603053435112,0.5954198473282443,-2.2595419847328246,-0.43603515625,-0.00048828125,-0.291259765625,0.5865
2.6259541984732824,0.7786259541984732,-2.1374045801526718,-0.436279296875,-0.001220703125,-0.284912109375,0.5882
2.6106870229007635,0.6564885496183206,-2.045801526717557,-0.4384765625,0.00390625,-0.28564453125,0.5899
2.5343511450381677,0.6564885496183206,-2.198473282442748,-0.4306640625,0.003173828125,-0.289306640625,0.5916
2.5343511450381677,0.9007633587786259,-2.2595419847328246,-0.43603515625,0.003173828125,-0.283447265625,0.5932999999999999
2.6106870229007635,0.549618320610687,-2.16793893129771,-0.430908203125,-0.003662109375,-0.286865234375,0.595
2.427480916030534,0.7022900763358778,-2.2900763358778624,-0.4365234375,-0.002197265625,-0.284912109375,0.5967
2.2748091603053435,0.6106870229007634,-2.1374045801526718,-0.4365234375,0.00244140625,-0.288330078125,0.5983999999999999
2.4580152671755724,0.6259541984732825,-1.9236641221374047,-0.435302734375,0.005859375,-0.3017578125,0.6001
2.198473282442748,0.6564885496183206,-2.0916030534351147,-0.435791015625,0.003662109375,-0.296875,0.6018
2.5801526717557253,0.5648854961832062,-2.045801526717557,-0.43701171875,-0.004150390625,-0.29736328125,0.6034999999999999
2.4732824427480917,0.6717557251908397,-2.0610687022900764,-0.438232421875,-0.0048828125,-0.28515625,0.6052
2.213740458015267,0.7633587786259542,-1.816793893129771,-0.436279296875,-0.00048828125,-0.284423828125,0.6069
2.366412213740458,0.7938931297709924,-1.9389312977099236,-0.4384765625,0.003662109375,-0.28515625,0.6085999999999999
2.4427480916030535,0.6717557251908397,-1.9389312977099236,-0.442138671875,0.00146484375,-0.289306640625,0.6103
2.2290076335877864,0.9770992366412213,-2.122137404580153,-0.4365234375,-0.00048828125,-0.28125,0.612
2.0,1.0534351145038168,-1.8931297709923665,-0.434326171875,-0.00244140625,-0.284423828125,0.6136999999999999
2.0,1.083969465648855,-2.015267175572519,-0.439208984375,0.001220703125,-0.288330078125,0.6154
2.366412213740458,1.2213740458015268,-1.83206106870229,-0.435546875,-0.002685546875,-0.282958984375,0.6171
2.1526717557251906,1.465648854961832,-1.8473282442748091,-0.438720703125,-0.005859375,-0.289306640625,0.6188
2.015267175572519,1.3893129770992367,-1.5419847328244274,-0.441650390625,0.00048828125,-0.285400390625,0.6204999999999999
2.1374045801526718,1.5877862595419847,-1.8931297709923665,-0.439208984375,0.00341796875,-0.2763671875,0.6222
2.0763358778625953,1.465648854961832,-1.6641221374045803,-0.43798828125,0.001708984375,-0.278564453125,0.6239
2.16793893129771,1.5725190839694656,-1.7251908396946565,-0.436767578125,0.003662109375,-0.285888671875,0.6255999999999999
2.16793893129771,1.5572519083969465,-1.7099236641221374,-0.4404296875,-0.00048828125,-0.287841796875,0.6273
2.045801526717557,1.2671755725190839,-1.7557251908396947,-0.436767578125,-0.00048828125,-0.285888671875,0.629
1.984732824427481,1.3129770992366412,-1.633587786259542,-0.435791015625,-0.00048828125,-0.290283203125,0.6306999999999999
2.122137404580153,1.3740458015267176,-1.5725190839694656,-0.4287109375,-0.001220703125,-0.28857421875,0.6324
2.030534351145038,1.4045801526717556,-1.7099236641221374,-0.43701171875,-0.00146484375,-0.287841796875,0.6341
1.9389312977099236,1.3282442748091603,-1.6488549618320612,-0.43505859375,0.000244140625,-0.28271484375,0.6357999999999999
1.9236641221374047,1.5419847328244274,-1.5114503816793894,-0.43115234375,0.00048828125,-0.285400390625,0.6375
1.9541984732824427,1.5419847328244274,-1.450381679389313,-0.43603515625,-0.00244140625,-0.287353515625,0.6392
1.9541984732824427,1.5114503816793894,-1.4961832061068703,-0.434814453125,0.001220703125,-0.284423828125,0.6408999999999999
2.0,1.3435114503816794,-1.3740458015267176,-0.438232421875,0.0029296875,-0.287109375,0.6426
1.9541984732824427,1.4351145038167938,-1.450381679389313,-0.435546875,-0.00048828125,-0.28759765625,0.6443
1.8778625954198473,1.5267175572519085,-1.5419847328244274,-0.438720703125,0.001953125,-0.287109375,0.646
1.7404580152671756,1.4045801526717556,-1.3129770992366412,-0.4345703125,0.0,-0.28173828125,0.6476999999999999
1.8778625954198473,1.3740458015267176,-1.2366412213740459,-0.434326171875,-0.00048828125,-0.289794921875,0.6494
1.9389312977099236,1.2366412213740459,-1.251908396946565,-0.436767578125,-0.000244140625,-0.284912109375,0.6511
1.6946564885496183,1.3893129770992367,-1.450381679389313,-0.4365234375,-0.000244140625,-0.288330078125,0.6527999999999999
1.7099236641221374,1.4961832061068703,-1.3587786259541985,-0.43798828125,0.0048828125,-0.289306640625,0.6545
1.7709923664122138,1.3587786259541985,-1.3587786259541985,-0.432373046875,0.0009765625,-0.279541015625,0.6562
1.816793893129771,1.4809160305343512,-1.2213740458015268,-0.43359375,-0.0009765625,-0.28173828125,0.6578999999999999
1.7251908396946565,1.5725190839694656,-1.2671755725190839,-0.43408203125,-0.000732421875,-0.285888671875,0.6596
1.8931297709923665,1.618320610687023,-1.2061068702290076,-0.427001953125,0.00341796875,-0.284423828125,0.6613
1.786259541984733,1.5114503816793894,-1.297709923664122,-0.4296875,0.00244140625,-0.29150390625,0.6629999999999999
1.4961832061068703,1.6488549618320612,-1.1755725190839694,-0.436279296875,-0.001953125,-0.28515625,0.6647
1.6641221374045803,1.6793893129770991,-1.2213740458015268,-0.4375,0.005126953125,-0.286376953125,0.6664
1.6488549618320612,1.3435114503816794,-1.1145038167938932,-0.43896484375,0.00244140625,-0.28662109375,0.6680999999999999
1.4045801526717556,1.4809160305343512,-1.1297709923664123,-0.432861328125,-0.00439453125,-0.28515625,0.6698
1.5725190839694656,1.5877862595419847,-0.9770992366412213,-0.434326171875,0.001708984375,-0.28857421875,0.6715
1.4961832061068703,1.5114503816793894,-1.1755725190839694,-0.432861328125,-0.002197265625,-0.28564453125,0.6731999999999999
1.5877862595419847,1.5419847328244274,-1.083969465648855,-0.43310546875,-0.002685546875,-0.29443359375,0.6748999999999999
1.5267175572519085,1.7251908396946565,-1.083969465648855,-0.4326171875,0.000732421875,-0.2900390625,0.6766
1.4045801526717556,1.633587786259542,-0.8549618320610687,-0.4326171875,-0.0048828125,-0.286376953125,0.6783
1.282442748091603,1.4045801526717556,-1.0381679389312977,-0.4326171875,-0.002685546875,-0.28662109375,0.6799999999999999
1.4351145038167938,1.5725190839694656,-0.916030534351145,-0.436767578125,-0.00048828125,-0.295166015625,0.6817
1.5114503816793894,1.4351145038167938,-1.0076335877862594,-0.434326171875,-0.0029296875,-0.28759765625,0.6834
1.3740458015267176,1.5725190839694656,-0.6564885496183206,-0.437255859375,-0.000244140625,-0.284912109375,0.6850999999999999
1.297709923664122,1.5114503816793894,-0.732824427480916,-0.43115234375,0.00390625,-0.292724609375,0.6868
1.1603053435114503,1.465648854961832,-0.8244274809160306,-0.431396484375,0.00439453125,-0.285888671875,0.6885
1.4198473282442747,1.5572519083969465,-0.7938931297709924,-0.437744140625,-0.002685546875,-0.2890625,0.6901999999999999
1.4045801526717556,1.5267175572519085,-0.5038167938931297,-0.43798828125,-0.001953125,-0.283447265625,0.6919
1.1145038167938932,1.5267175572519085,-0.6259541984732825,-0.43408203125,0.00390625,-0.288330078125,0.6936
1.083969465648855,1.3282442748091603,-0.6106870229007634,-0.433349609375,-0.0029296875,-0.290283203125,0.6952999999999999
1.4045801526717556,1.4045801526717556,-0.7022900763358778,-0.4326171875,0.00341796875,-0.288818359375,0.697
1.2671755725190839,1.3587786259541985,-0.549618320610687,-0.429931640625,0.00146484375,-0.27978515625,0.6987
0.9923664122137404,1.4809160305343512,-0.44274809160305345,-0.4326171875,0.0,-0.289306640625,0.7003999999999999
0.8854961832061069,1.5725190839694656,-0.42748091603053434,-0.435546875,0.0,-0.29296875,0.7021
1.0381679389312977,1.5572519083969465,-0.5038167938931297,-0.4365234375,0.005126953125,-0.28564453125,0.7038
1.2061068702290076,1.465648854961832,-0.2595419847328244,-0.436279296875,0.002197265625,-0.2958984375,0.7055
0.9312977099236641,1.4198473282442747,-0.32061068702290074,-0.43701171875,0.00244140625,-0.296142578125,0.7071999999999999
1.0076335877862594,1.450381679389313,-0.15267175572519084,-0.43798828125,-0.00048828125,-0.280517578125,0.7089
0.8702290076335878,1.450381679389313,-0.48854961832061067,-0.43310546875,0.002685546875,-0.290283203125,0.7106
0.8091603053435115,1.4045801526717556,-0.2748091603053435,-0.432373046875,-0.00390625,-0.286376953125,0.7122999999999999
0.9007633587786259,1.3282442748091603,-0.2748091603053435,-0.42919921875,0.001708984375,-0.297607421875,0.714
0.8702290076335878,1.251908396946565,-0.030534351145038167,-0.42822265625,0.00244140625,-0.28271484375,0.7157
0.8396946564885496,1.3587786259541985,-0.32061068702290074,-0.435546875,-0.0048828125,-0.28271484375,0.7173999999999999
0.732824427480916,1.282442748091603,-0.3511450381679389,-0.436279296875,0.001708984375,-0.28515625,0.7191
0.5190839694656488,1.3587786259541985,-0.2748091603053435,-0.43603515625,-0.0048828125,-0.294189453125,0.7208
0.8396946564885496,1.2671755725190839,-0.12213740458015267,-0.430419921875,0.0009765625,-0.2900390625,0.7224999999999999
0.732824427480916,1.251908396946565,-0.21374045801526717,-0.434326171875,0.0,-0.2861328125,0.7242
0.44274809160305345,1.3740458015267176,-0.12213740458015267,-0.434814453125,0.0,-0.2861328125,0.7259
0.5343511450381679,1.3587786259541985,-0.061068702290076333,-0.43310546875,-0.000732421875,-0.283447265625,0.7275999999999999
0.5648854961832062,1.1145038167938932,0.061068702290076333,-0.43359375,0.000732421875,-0.28515625,0.7293
0.6412213740458015,1.251908396946565,-0.061068702290076333,-0.43115234375,-0.00048828125,-0.286376953125,0.731
0.5038167938931297,1.3893129770992367,0.07633587786259542,-0.435302734375,-0.000732421875,-0.290771484375,0.7326999999999999
0.366412213740458,1.2366412213740459,-0.0916030534351145,-0.43359375,-0.00146484375,-0.281982421875,0.7343999999999999
0.4732824427480916,1.297709923664122,-0.030534351145038167,-0.4296875,-0.001220703125,-0.28515625,0.7361
0.2748091603053435,1.1450381679389312,-0.015267175572519083,-0.43603515625,0.002197265625,-0.274658203125,0.7378
0.3969465648854962,1.083969465648855,-0.10687022900763359,-0.433837890625,-0.00146484375,-0.296142578125,0.7394999999999999
0.44274809160305345,1.1603053435114503,-0.04580152671755725,-0.429443359375,-0.00244140625,-0.2939453125,0.7412
0.3053435114503817,1.0076335877862594,0.030534351145038167,-0.431396484375,0.0068359375,-0.291259765625,0.7429
0.3511450381679389,0.9923664122137404,0.0,-0.43408203125,0.00244140625,-0.284423828125,0.7445999999999999
0.33587786259541985,1.0534351145038168,-0.015267175572519083,-0.440185546875,0.00341796875,-0.282470703125,0.7463
0.21374045801526717,1.0534351145038168,-0.1984732824427481,-0.433349609375,0.00439453125,-0.296142578125,0.748
0.183206106870229,1.0534351145038168,0.22900763358778625,-0.437744140625,0.003662109375,-0.283203125,0.7496999999999999
0.2748091603053435,1.0687022900763359,-0.030534351145038167,-0.43017578125,0.001953125,-0.286376953125,0.7514
0.12213740458015267,0.9465648854961832,-0.061068702290076333,-0.434326171875,-0.00244140625,-0.285888671875,0.7531
0.21374045801526717,0.9465648854961832,0.0,-0.43017578125,0.005126953125,-0.286865234375,0.7547999999999999
0.2900763358778626,1.0534351145038168,-0.15267175572519084,-0.43115234375,0.004638671875,-0.287109375,0.7565
-0.24427480916030533,0.9465648854961832,-0.366412213740458,-0.42919921875,0.0068359375,-0.2783203125,0.7582
-0.12213740458015267,0.8854961832061069,-0.12213740458015267,-0.432861328125,0.000244140625,-0.2705078125,0.7598999999999999
0.061068702290076333,0.9923664122137404,-0.04580152671755725,-0.4267578125,0.002685546875,-0.284423828125,0.7615999999999999
-0.16793893129770993,1.0534351145038168,-0.015267175572519083,-0.431640625,-0.000244140625,-0.284423828125,0.7633
0.10687022900763359,0.8396946564885496,-0.3511450381679389,-0.4326171875,0.006591796875,-0.27880859375,0.7649999999999999
0.0,0.8091603053435115,-0.2595419847328244,-0.4306640625,0.00634765625,-0.272705078125,0.7666999999999999
0.015267175572519083,0.9923664122137404,-0.33587786259541985,-0.433837890625,0.000244140625,-0.281005859375,0.7684
-0.030534351145038167,0.9923664122137404,-0.2595419847328244,-0.436279296875,0.006103515625,-0.283203125,0.7701
-0.21374045801526717,0.916030534351145,-0.5343511450381679,-0.434814453125,0.00146484375,-0.283203125,0.7717999999999999
-0.12213740458015267,0.9312977099236641,-0.48854961832061067,-0.435791015625,0.000732421875,-0.281005859375,0.7735
0.12213740458015267,0.9465648854961832,-0.5343511450381679,-0.435302734375,0.004150390625,-0.28759765625,0.7752
-0.07633587786259542,0.8702290076335878,-0.5801526717557252,-0.43017578125,0.0087890625,-0.29150390625,0.7768999999999999
-0.13740458015267176,0.8702290076335878,-0.5190839694656488,-0.43359375,0.005126953125,-0.28173828125,0.7786
-0.16793893129770993,0.9312977099236641,-0.549618320610687,-0.436279296875,0.00390625,-0.281005859375,0.7803
-0.16793893129770993,0.9618320610687023,-0.7175572519083969,-0.439208984375,0.0078125,-0.285888671875,0.7819999999999999
-0.13740458015267176,0.9007633587786259,-0.7480916030534351,-0.4287109375,0.0048828125,-0.28369140625,0.7837
-0.21374045801526717,0.8854961832061069,-0.732824427480916,-0.436279296875,0.009765625,-0.289794921875,0.7854
-0.15267175572519084,0.7938931297709924,-0.732824427480916,-0.439208984375,0.0029296875,-0.28759765625,0.7870999999999999
0.07633587786259542,0.9007633587786259,-0.732824427480916,-0.436279296875,0.00439453125,-0.285400390625,0.7888
-0.0916030534351145,0.7480916030534351,-0.9618320610687023,-0.4326171875,0.00439453125,-0.2900390625,0.7905
-0.21374045801526717,0.7786259541984732,-1.0534351145038168,-0.435791015625,0.006103515625,-0.28662109375,0.7921999999999999
-0.061068702290076333,0.9007633587786259,-1.0381679389312977,-0.43408203125,0.006103515625,-0.291259765625,0.7938999999999999
-0.0916030534351145,0.9465648854961832,-1.0687022900763359,-0.435302734375,0.00732421875,-0.276611328125,0.7956
-0.1984732824427481,0.732824427480916,-1.1450381679389312,-0.4345703125,0.00390625,-0.290771484375,0.7973
0.0,0.7633587786259542,-1.297709923664122,-0.43798828125,-0.002197265625,-0.280517578125,0.7989999999999999
-0.04580152671755725,0.7786259541984732,-1.3587786259541985,-0.439697265625,0.0078125,-0.2880859375,0.8007
-0.015267175572519083,0.9923664122137404,-1.3129770992366412,-0.4365234375,0.007568359375,-0.285888671875,0.8024
-0.22900763358778625,0.9465648854961832,-1.3282442748091603,-0.435302734375,0.00830078125,-0.286376953125,0.8040999999999999
0.04580152671755725,1.0687022900763359,-1.3282442748091603,-0.435791015625,0.005859375,-0.287109375,0.8058
0.13740458015267176,0.9312977099236641,-1.3587786259541985,-0.43505859375,0.00390625,-0.28466796875,0.8075
0.061068702290076333,0.8244274809160306,-1.4961832061068703,-0.432373046875,0.0068359375,-0.284423828125,0.8091999999999999
-0.030534351145038167,0.916030534351145,-1.5877862595419847,-0.43603515625,0.002685546875,-0.28369140625,0.8109
-0.061068702290076333,0.732824427480916,-1.633587786259542,-0.43994140625,0.00244140625,-0.27490234375,0.8126
0.13740458015267176,0.916030534351145,-1.6488549618320612,-0.438232421875,0.007080078125,-0.281494140625,0.8142999999999999
0.015267175572519083,0.9770992366412213,-1.7709923664122138,-0.434326171875,0.0078125,-0.288818359375,0.816
-0.061068702290076333,0.9465648854961832,-1.6488549618320612,-0.43603515625,0.0087890625,-0.291259765625,0.8177
-0.07633587786259542,1.1450381679389312,-1.6641221374045803,-0.43603515625,0.00634765625,-0.287841796875,0.8193999999999999
0.15267175572519084,1.0381679389312977,-2.015267175572519,-0.434326171875,0.00634765625,-0.2841796875,0.8210999999999999
0.10687022900763359,0.9007633587786259,-2.030534351145038,-0.437744140625,0.00732421875,-0.283935546875,0.8228
0.183206106870229,0.8244274809160306,-1.8473282442748091,-0.434814453125,0.00390625,-0.280029296875,0.8244999999999999
0.07633587786259542,0.9312977099236641,-2.0,-0.440185546875,0.000244140625,-0.2841796875,0.8261999999999999
0.07633587786259542,0.8702290076335878,-2.1526717557251906,-0.435302734375,0.0029296875,-0.286865234375,0.8279
-0.12213740458015267,0.6412213740458015,-2.1374045801526718,-0.43896484375,0.0068359375,-0.288330078125,0.8296
0.04580152671755725,0.48854961832061067,-2.3206106870229006,-0.43701171875,0.006103515625,-0.28662109375,0.8312999999999999
0.04580152671755725,0.5954198473282443,-2.183206106870229,-0.4384765625,0.00146484375,-0.2802734375,0.833
0.0,0.5038167938931297,-2.3206106870229006,-0.4287109375,0.0068359375,-0.289794921875,0.8347
0.24427480916030533,0.44274809160305345,-2.2442748091603053,-0.430908203125,0.00634765625,-0.284423828125,0.8363999999999999
0.0916030534351145,0.549618320610687,-2.2442748091603053,-0.433349609375,0.005615234375,-0.284912109375,0.8381
0.15267175572519084,0.6564885496183206,-2.213740458015267,-0.435302734375,0.00537109375,-0.281005859375,0.8398
0.366412213740458,0.6564885496183206,-2.3053435114503817,-0.431640625,0.0087890625,-0.283447265625,0.8414999999999999
0.3511450381679389,0.7175572519083969,-2.2595419847328246,-0.437744140625,0.011474609375,-0.27978515625,0.8432
0.3053435114503817,0.8854961832061069,-2.2290076335877864,-0.435546875,0.0029296875,-0.27783203125,0.8449
0.2595419847328244,1.1297709923664123,-2.1526717557251906,-0.4345703125,0.00634765625,-0.290283203125,0.8465999999999999
0.5190839694656488,1.0534351145038168,-2.564885496183206,-0.436767578125,0.006103515625,-0.288818359375,0.8482999999999999
0.5038167938931297,1.2213740458015268,-2.5343511450381677,-0.44189453125,0.0068359375,-0.283203125,0.85
0.3816793893129771,1.1755725190839694,-2.6717557251908395,-0.435546875,0.0107421875,-0.28173828125,0.8516999999999999
0.5954198473282443,1.3129770992366412,-2.717557251908397,-0.43310546875,0.0078125,-0.283447265625,0.8533999999999999
0.5801526717557252,1.1755725190839694,-2.9618320610687023,-0.4365234375,0.005859375,-0.287109375,0.8551
0.7786259541984732,1.297709923664122,-3.145038167938931,-0.432861328125,0.00830078125,-0.2880859375,0.8568
0.7938931297709924,1.251908396946565,-3.1755725190839694,-0.434326171875,0.009033203125,-0.284423828125,0.8584999999999999
0.8396946564885496,1.2213740458015268,-2.931297709923664,-0.43701171875,0.00439453125,-0.28955078125,0.8602
0.8854961832061069,1.465648854961832,-3.2213740458015265,-0.431396484375,0.0078125,-0.279296875,0.8619
1.1145038167938932,1.2213740458015268,-3.3282442748091605,-0.43408203125,0.00341796875,-0.27978515625,0.8635999999999999
1.1145038167938932,0.916030534351145,-3.2213740458015265,-0.434814453125,0.007568359375,-0.287353515625,0.8653
1.3129770992366412,1.1450381679389312,-3.2213740458015265,-0.43505859375,0.0078125,-0.287109375,0.867
1.2061068702290076,1.0381679389312977,-3.0839694656488548,-0.432861328125,0.009765625,-0.27685546875,0.8686999999999999
1.3740458015267176,1.0076335877862594,-3.145038167938931,-0.432861328125,0.0078125,-0.278076171875,0.8704
1.4351145038167938,1.1145038167938932,-3.2977099236641223,-0.429931640625,0.008544921875,-0.28369140625,0.8721
1.5725190839694656,1.0534351145038168,-3.0381679389312977,-0.43408203125,0.008056640625,-0.286865234375,0.8737999999999999
1.3435114503816794,0.9923664122137404,-3.1755725190839694,-0.43505859375,0.0078125,-0.288818359375,0.8755
1.450381679389313,0.8854961832061069,-3.2977099236641223,-0.428955078125,0.004638671875,-0.286376953125,0.8772
1.5725190839694656,0.8702290076335878,-3.282442748091603,-0.437255859375,0.009765625,-0.295166015625,0.8788999999999999
1.3129770992366412,0.8244274809160306,-3.2977099236641223,-0.437744140625,0.0068359375,-0.296875,0.8805999999999999
1.7099236641221374,0.916030534351145,-3.5114503816793894,-0.430908203125,0.006103515625,-0.2802734375,0.8823
1.5419847328244274,0.8091603053435115,-3.3435114503816794,-0.4306640625,0.005126953125,-0.285400390625,0.8839999999999999
1.6641221374045803,0.9465648854961832,-3.282442748091603,-0.433837890625,0.0068359375,-0.283203125,0.8856999999999999
1.5725190839694656,0.8396946564885496,-3.3587786259541983,-0.43115234375,0.0009765625,-0.284423828125,0.8874
1.450381679389313,0.7938931297709924,-3.3587786259541983,-0.43408203125,0.006103515625,-0.282958984375,0.8891
1.450381679389313,0.8854961832061069,-3.068702290076336,-0.43603515625,0.00244140625,-0.287841796875,0.8907999999999999
1.6030534351145038,1.0687022900763359,-3.282442748091603,-0.436767578125,0.00244140625,-0.287109375,0.8925
1.8931297709923665,0.9312977099236641,-3.3893129770992365,-0.438720703125,0.005126953125,-0.285888671875,0.8942
1.7557251908396947,1.0076335877862594,-3.3435114503816794,-0.429931640625,0.00830078125,-0.282470703125,0.8958999999999999
1.7557251908396947,0.6870229007633588,-3.145038167938931,-0.431396484375,0.00537109375,-0.282470703125,0.8976
1.8625954198473282,0.7175572519083969,-3.2061068702290076,-0.433837890625,0.00390625,-0.2802734375,0.8993
2.015267175572519,0.7022900763358778,-3.0076335877862594,-0.435546875,0.0078125,-0.293212890625,0.9009999999999999
1.9083969465648856,0.7633587786259542,-3.1297709923664123,-0.43701171875,0.001708984375,-0.292236328125,0.9027
2.122137404580153,0.8091603053435115,-3.1908396946564888,-0.43603515625,0.00439453125,-0.30029296875,0.9044
2.2442748091603053,0.7480916030534351,-3.3587786259541983,-0.431884765625,0.0068359375,-0.287353515625,0.9060999999999999
2.213740458015267,0.7480916030534351,-3.145038167938931,-0.43408203125,0.007080078125,-0.2802734375,0.9077999999999999
2.2290076335877864,0.8091603053435115,-3.1908396946564888,-0.435302734375,0.009033203125,-0.28173828125,0.9095
2.519083969465649,0.8091603053435115,-3.2213740458015265,-0.437255859375,0.010986328125,-0.28369140625,0.9111999999999999
2.5343511450381677,0.7633587786259542,-3.2061068702290076,-0.44140625,0.006103515625,-0.27734375,0.9128999999999999
2.5343511450381677,0.7786259541984732,-3.053435114503817,-0.438720703125,0.009033203125,-0.274658203125,0.9146
2.6412213740458017,0.9007633587786259,-2.9770992366412212,-0.442626953125,0.01025390625,-0.28369140625,0.9163
2.4885496183206106,0.8702290076335878,-3.068702290076336,-0.43408203125,0.004150390625,-0.281982421875,0.9179999999999999
2.6259541984732824,0.9770992366412213,-3.3893129770992365,-0.42919921875,0.009521484375,-0.275146484375,0.9197
2.7786259541984735,1.2366412213740459,-3.2977099236641223,-0.4384765625,0.005126953125,-0.278564453125,0.9214
2.717557251908397,1.1755725190839694,-3.0839694656488548,-0.4404296875,0.005126953125,-0.29248046875,0.9230999999999999
2.717557251908397,0.9618320610687023,-2.9770992366412212,-0.439208984375,0.007568359375,-0.287841796875,0.9248
2.900763358778626,1.3893129770992367,-3.114503816793893,-0.44287109375,0.006103515625,-0.283447265625,0.9265
3.282442748091603,1.4198473282442747,-3.1908396946564888,-0.433837890625,0.002685546875,-0.2861328125,0.9281999999999999
3.2213740458015265,1.3129770992366412,-3.236641221374046,-0.4375,0.00927734375,-0.28271484375,0.9299
3.2977099236641223,1.251908396946565,-3.145038167938931,-0.4345703125,0.007080078125,-0.283935546875,0.9316
3.2977099236641223,1.2366412213740459,-3.1297709923664123,-0.434326171875,0.005859375,-0.28515625,0.9332999999999999
3.3435114503816794,1.3587786259541985,-3.053435114503817,-0.43701171875,0.00390625,-0.287841796875,0.9349999999999999
3.5114503816793894,1.3129770992366412,-3.145038167938931,-0.43359375,0.003173828125,-0.2861328125,0.9367
3.5572519083969465,1.0534351145038168,-2.931297709923664,-0.439453125,0.005126953125,-0.285888671875,0.9383999999999999
3.801526717557252,1.0381679389312977,-3.267175572519084,-0.43505859375,0.000732421875,-0.291259765625,0.9400999999999999
3.9083969465648853,1.0534351145038168,-3.0076335877862594,-0.436279296875,0.00146484375,-0.288818359375,0.9418
4.122137404580153,0.8702290076335878,-3.068702290076336,-0.435791015625,0.0068359375,-0.284912109375,0.9434999999999999
4.0,1.0229007633587786,-2.885496183206107,-0.43505859375,0.002685546875,-0.285888671875,0.9451999999999999
3.984732824427481,0.9007633587786259,-2.8702290076335877,-0.438232421875,-0.003173828125,-0.28857421875,0.9469
4.259541984732825,0.916030534351145,-2.717557251908397,-0.43505859375,-0.00146484375,-0.28662109375,0.9486
4.3816793893129775,1.0229007633587786,-2.9160305343511452,-0.435791015625,0.001953125,-0.286376953125,0.9502999999999999
4.366412213740458,1.0534351145038168,-2.7938931297709924,-0.43994140625,0.00341796875,-0.28515625,0.952
4.3816793893129775,0.916030534351145,-2.595419847328244,-0.439208984375,0.004638671875,-0.28369140625,0.9537
4.458015267175573,1.0381679389312977,-2.50381679389313,-0.43701171875,-0.00244140625,-0.281005859375,0.9553999999999999
4.458015267175573,1.2213740458015268,-2.6106870229007635,-0.440673828125,-0.0009765625,-0.290283203125,0.9571
4.442748091603053,1.2061068702290076,-2.4732824427480917,-0.43408203125,-0.001708984375,-0.286865234375,0.9588
4.564885496183206,1.1908396946564885,-2.6564885496183206,-0.43017578125,0.0,-0.284912109375,0.9604999999999999
4.5038167938931295,1.2366412213740459,-2.4580152671755724,-0.433837890625,-0.001953125,-0.281494140625,0.9621999999999999
4.625954198473282,1.1450381679389312,-2.4885496183206106,-0.431884765625,-0.00048828125,-0.279296875,0.9639
4.763358778625954,1.2213740458015268,-2.519083969465649,-0.43310546875,0.0009765625,-0.28466796875,0.9655999999999999
4.473282442748092,1.3129770992366412,-2.427480916030534,-0.433837890625,-0.003662109375,-0.28857421875,0.9672999999999999
4.564885496183206,1.3129770992366412,-2.3206106870229006,-0.431640625,0.001708984375,-0.2900390625,0.969
4.656488549618321,1.2061068702290076,-2.366412213740458,-0.43017578125,0.0009765625,-0.285888671875,0.9706999999999999
4.427480916030534,1.1908396946564885,-2.1374045801526718,-0.435546875,-0.003662109375,-0.283447265625,0.9723999999999999
4.564885496183206,1.3129770992366412,-2.2748091603053435,-0.432861328125,0.0,-0.27978515625,0.9741
4.778625954198473,1.251908396946565,-2.015267175572519,-0.432861328125,-0.001953125,-0.275390625,0.9758
4.3816793893129775,1.083969465648855,-1.9083969465648856,-0.430419921875,-0.001220703125,-0.287353515625,0.9774999999999999
4.290076335877862,0.9618320610687023,-2.015267175572519,-0.43115234375,-0.004638671875,-0.2802734375,0.9792
4.6106870229007635,1.0381679389312977,-1.984732824427481,-0.427490234375,-0.006591796875,-0.2841796875,0.9809
4.625954198473282,1.0229007633587786,-1.6030534351145038,-0.43408203125,-0.003662109375,-0.27880859375,0.9825999999999999
4.290076335877862,0.9923664122137404,-1.816793893129771,-0.435791015625,0.000732421875,-0.289306640625,0.9843
4.519083969465649,0.8549618320610687,-1.5267175572519085,-0.43359375,-0.002685546875,-0.2890625,0.986
4.320610687022901,0.9465648854961832,-1.7099236641221374,-0.431396484375,-0.0029296875,-0.290771484375,0.9876999999999999
4.244274809160306,0.9465648854961832,-1.450381679389313,-0.431396484375,-0.00537109375,-0.28857421875,0.9894
4.213740458015267,0.9770992366412213,-1.3282442748091603,-0.434326171875,-0.007568359375,-0.28076171875,0.9911
4.229007633587786,1.0381679389312977,-1.4045801526717556,-0.4365234375,-0.006591796875,-0.281005859375,0.9927999999999999
4.106870229007634,0.9312977099236641,-1.1908396946564885,-0.43505859375,-0.00390625,-0.285888671875,0.9944999999999999
4.076335877862595,0.8244274809160306,-1.0687022900763359,-0.429443359375,-0.00146484375,-0.287353515625,0.9962
4.091603053435114,0.8854961832061069,-1.2366412213740459,-0.428466796875,-0.004150390625,-0.2880859375,0.9978999999999999
3.7404580152671754,0.8702290076335878,-1.0381679389312977,-0.435302734375,-0.002685546875,-0.286865234375,0.9995999999999999
3.66412213740458,0.8854961832061069,-0.8396946564885496,-0.42724609375,-0.00732421875,-0.283203125,1.0012999999999999
3.83206106870229,0.7022900763358778,-0.9770992366412213,-0.435791015625,-0.004150390625,-0.2744140625,1.003
3.6946564885496183,0.7633587786259542,-1.083969465648855,-0.43408203125,-0.00048828125,-0.280517578125,1.0047
3.5572519083969465,0.6717557251908397,-0.9312977099236641,-0.43505859375,-0.005859375,-0.28369140625,1.0064
3.572519083969466,0.5343511450381679,-0.7786259541984732,-0.427490234375,-0.004150390625,-0.291015625,1.0081
3.49618320610687,0.6106870229007634,-0.8396946564885496,-0.435546875,-0.004638671875,-0.281494140625,1.0098
3.435114503816794,0.5648854961832062,-0.9618320610687023,-0.4287109375,-0.003662109375,-0.280517578125,1.0114999999999998
3.4656488549618323,0.7480916030534351,-0.8091603053435115,-0.43115234375,-0.002197265625,-0.288818359375,1.0131999999999999
3.3893129770992365,0.5038167938931297,-0.916030534351145,-0.4345703125,-0.001708984375,-0.288330078125,1.0149
3.1297709923664123,0.3969465648854962,-0.7175572519083969,-0.436767578125,-0.007080078125,-0.287109375,1.0166
3.267175572519084,0.32061068702290074,-0.8396946564885496,-0.43359375,-0.007080078125,-0.282470703125,1.0183
3.1908396946564888,0.3969465648854962,-0.8091603053435115,-0.4365234375,-0.003662109375,-0.285400390625,1.02
3.0229007633587788,0.4732824427480916,-0.5801526717557252,-0.43115234375,-0.005859375,-0.2841796875,1.0217
3.0381679389312977,0.183206106870229,-0.8549618320610687,-0.435791015625,-0.007080078125,-0.29150390625,1.0233999999999999
2.732824427480916,0.33587786259541985,-0.7480916030534351,-0.430419921875,0.0,-0.280517578125,1.0251
3.0076335877862594,0.3816793893129771,-0.6870229007633588,-0.4345703125,-0.002685546875,-0.283203125,1.0268
2.8091603053435112,0.2595419847328244,-0.6106870229007634,-0.442626953125,-0.008544921875,-0.284423828125,1.0285
2.8702290076335877,0.2748091603053435,-0.8244274809160306,-0.44189453125,-0.005126953125,-0.29296875,1.0302
2.687022900763359,0.3816793893129771,-0.7786259541984732,-0.437255859375,-0.007080078125,-0.2890625,1.0319
2.717557251908397,0.13740458015267176,-0.5801526717557252,-0.438720703125,-0.00244140625,-0.292724609375,1.0335999999999999
2.595419847328244,0.5038167938931297,-0.7022900763358778,-0.438232421875,-0.002197265625,-0.284423828125,1.0352999999999999
2.366412213740458,0.549618320610687,-0.6412213740458015,-0.434814453125,-0.00439453125,-0.28564453125,1.037
2.4885496183206106,0.48854961832061067,-0.5190839694656488,-0.43505859375,-0.004150390625,-0.283447265625,1.0387
2.33587786259542,0.5801526717557252,-0.5801526717557252,-0.436767578125,-0.005859375,-0.281494140625,1.0404
1.9541984732824427,0.6259541984732825,-0.5648854961832062,-0.43603515625,-0.00341796875,-0.280029296875,1.0421
2.198473282442748,0.4732824427480916,-0.6870229007633588,-0.44140625,-0.006103515625,-0.28759765625,1.0437999999999998
2.0916030534351147,0.549618320610687,-0.7175572519083969,-0.442138671875,-0.004638671875,-0.289794921875,1.0454999999999999
1.7099236641221374,0.6106870229007634,-0.6870229007633588,-0.43701171875,-0.004150390625,-0.29052734375,1.0472
1.786259541984733,0.6870229007633588,-0.7022900763358778,-0.440185546875,-0.002685546875,-0.2919921875,1.0489
1.6488549618320612,0.7938931297709924,-0.5954198473282443,-0.43798828125,-0.006591796875,-0.28369140625,1.0506
1.4198473282442747,0.9770992366412213,-0.5190839694656488,-0.4326171875,-0.005126953125,-0.291259765625,1.0523
1.4351145038167938,0.9007633587786259,-0.6106870229007634,-0.429443359375,-0.00732421875,-0.285400390625,1.054
1.3893129770992367,0.9618320610687023,-0.5801526717557252,-0.43701171875,-0.0068359375,-0.28857421875,1.0556999999999999
1.2213740458015268,1.2061068702290076,-0.5038167938931297,-0.438232421875,-0.000732421875,-0.269775390625,1.0574
1.099236641221374,1.083969465648855,-0.5801526717557252,-0.434814453125,-0.003662109375,-0.2802734375,1.0591
1.0229007633587786,0.9465648854961832,-0.5648854961832062,-0.434326171875,0.002197265625,-0.2890625,1.0608
0.9618320610687023,0.9618320610687023,-0.5038167938931297,-0.4404296875,-0.0048828125,-0.2880859375,1.0625
1.1145038167938932,1.083969465648855,-0.5190839694656488,-0.439453125,-0.006103515625,-0.2900390625,1.0642
0.9007633587786259,1.2061068702290076,-0.6412213740458015,-0.437744140625,-0.004638671875,-0.293212890625,1.0658999999999998
0.5343511450381679,1.083969465648855,-0.5954198473282443,-0.440185546875,-0.005859375,-0.290283203125,1.0675999999999999
0.6564885496183206,1.3435114503816794,-0.5954198473282443,-0.435546875,-0.00048828125,-0.28125,1.0693
0.7022900763358778,1.3587786259541985,-0.6106870229007634,-0.437744140625,0.001953125,-0.2822265625,1.071
0.5190839694656488,1.3740458015267176,-0.6870229007633588,-0.4384765625,-0.001708984375,-0.29150390625,1.0727
0.6717557251908397,1.450381679389313,-0.6717557251908397,-0.439697265625,0.0,-0.2802734375,1.0744
0.5190839694656488,1.4351145038167938,-0.5190839694656488,-0.435791015625,-0.001220703125,-0.277587890625,1.0760999999999998
0.4122137404580153,1.5419847328244274,-0.549618320610687,-0.43408203125,0.003662109375,-0.28662109375,1.0777999999999999
0.0916030534351145,1.5572519083969465,-0.6412213740458015,-0.435302734375,-0.001953125,-0.280029296875,1.0795
0.12213740458015267,1.4198473282442747,-0.6259541984732825,-0.433349609375,0.00146484375,-0.278076171875,1.0812
0.2595419847328244,1.3893129770992367,-0.7022900763358778,-0.433349609375,-0.003173828125,-0.286865234375,1.0829
0.04580152671755725,1.4961832061068703,-0.7633587786259542,-0.436767578125,0.0,-0.2802734375,1.0846
0.07633587786259542,1.7557251908396947,-0.6564885496183206,-0.433349609375,-0.000244140625,-0.282958984375,1.0863
0.0916030534351145,1.5114503816793894,-0.7633587786259542,-0.43310546875,0.00390625,-0.28271484375,1.0879999999999999
0.15267175572519084,1.5114503816793894,-0.8702290076335878,-0.433349609375,0.00244140625,-0.28564453125,1.0897
-0.15267175572519084,1.4961832061068703,-0.8854961832061069,-0.43359375,0.003662109375,-0.286376953125,1.0914
-0.07633587786259542,1.4351145038167938,-0.7633587786259542,-0.43310546875,-0.0009765625,-0.2822265625,1.0931
0.2900763358778626,1.3435114503816794,-0.732824427480916,-0.439208984375,0.004638671875,-0.285400390625,1.0948
0.10687022900763359,1.4198473282442747,-0.7480916030534351,-0.43017578125,-0.000244140625,-0.275634765625,1.0965
0.030534351145038167,1.2671755725190839,-0.9770992366412213,-0.42919921875,0.0068359375,-0.275390625,1.0981999999999998
0.061068702290076333,1.4045801526717556,-0.7633587786259542,-0.435546875,0.0029296875,-0.287353515625,1.0998999999999999
-0.22900763358778625,1.3587786259541985,-0.8091603053435115,-0.43115234375,0.00732421875,-0.28662109375,1.1016
0.04580152671755725,1.2366412213740459,-0.9618320610687023,-0.435302734375,0.00341796875,-0.280029296875,1.1033
-0.0916030534351145,1.251908396946565,-0.9618320610687023,-0.435546875,0.006591796875,-0.28271484375,1.105
-0.4122137404580153,1.297709923664122,-0.732824427480916,-0.43212890625,0.005859375,-0.28955078125,1.1067
-0.030534351145038167,1.1603053435114503,-1.0534351145038168,-0.435546875,-0.000244140625,-0.2802734375,1.1083999999999998
0.10687022900763359,1.3282442748091603,-0.9465648854961832,-0.434326171875,0.00341796875,-0.28125,1.1100999999999999
-0.21374045801526717,1.3129770992366412,-1.0381679389312977,-0.43115234375,0.00732421875,-0.287841796875,1.1118
0.04580152671755725,0.9618320610687023,-1.0534351145038168,-0.431396484375,0.0048828125,-0.281982421875,1.1135
0.04580152671755725,0.9465648854961832,-1.083969465648855,-0.4296875,0.00244140625,-0.28271484375,1.1152
0.061068702290076333,1.0229007633587786,-0.9923664122137404,-0.43359375,0.002197265625,-0.274169921875,1.1169
0.12213740458015267,1.0534351145038168,-1.0534351145038168,-0.43115234375,0.00244140625,-0.28857421875,1.1186
0.12213740458015267,1.1297709923664123,-1.1145038167938932,-0.429931640625,0.002197265625,-0.29541015625,1.1202999999999999
0.4122137404580153,0.9618320610687023,-1.099236641221374,-0.43505859375,0.005859375,-0.28857421875,1.1219999999999999
0.22900763358778625,0.9007633587786259,-1.0229007633587786,-0.431640625,0.00439453125,-0.27685546875,1.1237
0.32061068702290074,0.9465648854961832,-1.3587786259541985,-0.43017578125,0.00634765625,-0.278564453125,1.1254
0.13740458015267176,0.8854961832061069,-1.083969465648855,-0.4326171875,0.0048828125,-0.285400390625,1.1271
0.32061068702290074,0.6564885496183206,-1.0076335877862594,-0.436279296875,0.004150390625,-0.28369140625,1.1288
0.42748091603053434,0.732824427480916,-1.0381679389312977,-0.427734375,0.00341796875,-0.285400390625,1.1304999999999998
0.4580152671755725,0.549618320610687,-1.1450381679389312,-0.43212890625,0.002685546875,-0.282958984375,1.1321999999999999
0.7022900763358778,0.48854961832061067,-0.916030534351145,-0.429931640625,0.004150390625,-0.27294921875,1.1339
0.549618320610687,0.5648854961832062,-0.9618320610687023,-0.43603515625,-0.002685546875,-0.28662109375,1.1356
0.48854961832061067,0.7938931297709924,-1.1145038167938932,-0.42919921875,0.00634765625,-0.282470703125,1.1373
0.5648854961832062,0.7175572519083969,-1.0687022900763359,-0.434326171875,0.006591796875,-0.281982421875,1.139
0.6412213740458015,0.5343511450381679,-0.8091603053435115,-0.42919921875,0.0068359375,-0.28955078125,1.1407
0.7938931297709924,0.6106870229007634,-0.7938931297709924,-0.429931640625,0.006591796875,-0.2861328125,1.1423999999999999
0.6870229007633588,0.732824427480916,-0.7022900763358778,-0.427734375,0.005615234375,-0.283935546875,1.1441
0.6717557251908397,0.6259541984732825,-0.7786259541984732,-0.428955078125,0.010009765625,-0.2841796875,1.1458
0.9007633587786259,0.6259541984732825,-0.6259541984732825,-0.431640625,0.004638671875,-0.282470703125,1.1475
0.7786259541984732,0.6106870229007634,-0.7175572519083969,-0.436767578125,0.001220703125,-0.279052734375,1.1492
0.6412213740458015,0.4580152671755725,-0.4580152671755725,-0.43505859375,0.01123046875,-0.279541015625,1.1509
0.7786259541984732,0.5801526717557252,-0.8854961832061069,-0.438232421875,0.006591796875,-0.280517578125,1.1525999999999998
0.9465648854961832,0.549618320610687,-0.6870229007633588,-0.4384765625,0.00830078125,-0.2890625,1.1542999999999999
0.9923664122137404,0.6564885496183206,-0.7175572519083969,-0.43408203125,0.0078125,-0.291015625,1.156
0.8396946564885496,0.7022900763358778,-0.7786259541984732,-0.4365234375,0.00634765625,-0.281982421875,1.1577
0.9770992366412213,0.732824427480916,-1.0381679389312977,-0.433837890625,0.00732421875,-0.286376953125,1.1594
1.3435114503816794,0.6259541984732825,-0.732824427480916,-0.43359375,0.008544921875,-0.28271484375,1.1611
1.4351145038167938,0.6259541984732825,-1.0229007633587786,-0.4404296875,0.014404296875,-0.2744140625,1.1627999999999998
1.2366412213740459,0.7938931297709924,-0.8702290076335878,-0.435791015625,0.0107421875,-0.282470703125,1.1644999999999999
1.450381679389313,0.8702290076335878,-0.8854961832061069,-0.435302734375,0.01220703125,-0.284423828125,1.1662
1.3893129770992367,0.8396946564885496,-0.7633587786259542,-0.441162109375,0.0078125,-0.28466796875,1.1679
1.5114503816793894,0.8549618320610687,-0.9923664122137404,-0.439208984375,0.0068359375,-0.29443359375,1.1696
1.3893129770992367,1.0076335877862594,-0.732824427480916,-0.4365234375,0.010986328125,-0.28515625,1.1713
1.3129770992366412,1.1297709923664123,-0.9618320610687023,-0.435302734375,0.00732421875,-0.289794921875,1.173
1.83206106870229,1.2366412213740459,-1.0534351145038168,-0.4375,0.005615234375,-0.2841796875,1.1746999999999999
1.8778625954198473,1.099236641221374,-1.1603053435114503,-0.431884765625,0.0068359375,-0.292724609375,1.1764
1.7557251908396947,1.083969465648855,-1.0229007633587786,-0.43701171875,0.0078125,-0.28173828125,1.1781
2.122137404580153,1.0381679389312977,-1.0381679389312977,-0.437255859375,0.01123046875,-0.288330078125,1.1798
2.0763358778625953,1.1297709923664123,-1.282442748091603,-0.436279296875,0.009765625,-0.279541015625,1.1815
2.122137404580153,0.9465648854961832,-1.3740458015267176,-0.433837890625,0.0078125,-0.281982421875,1.1832
2.3053435114503817,1.0534351145038168,-1.3435114503816794,-0.43798828125,0.005859375,-0.28076171875,1.1848999999999998
2.183206106870229,1.083969465648855,-1.450381679389313,-0.439453125,0.001220703125,-0.287353515625,1.1865999999999999
2.1374045801526718,1.0076335877862594,-1.3129770992366412,-0.437255859375,0.00390625,-0.29443359375,1.1883
2.366412213740458,0.8854961832061069,-1.5267175572519085,-0.4375,0.00927734375,-0.284423828125,1.19
2.717557251908397,0.9618320610687023,-1.5877862595419847,-0.4345703125,0.0068359375,-0.287109375,1.1917
2.6259541984732824,1.083969465648855,-1.6641221374045803,-0.43505859375,0.009521484375,-0.287841796875,1.1934
2.564885496183206,1.0229007633587786,-1.7099236641221374,-0.4326171875,0.0068359375,-0.292724609375,1.1950999999999998
2.763358778625954,1.1450381679389312,-1.786259541984733,-0.4365234375,0.002197265625,-0.28271484375,1.1967999999999999
2.6717557251908395,1.1755725190839694,-1.9236641221374047,-0.436767578125,0.00830078125,-0.286865234375,1.1985
2.8244274809160306,1.1755725190839694,-1.9541984732824427,-0.441650390625,0.01123046875,-0.28857421875,1.2002
3.1297709923664123,1.3893129770992367,-1.8931297709923665,-0.434814453125,0.00244140625,-0.28271484375,1.2019
3.0381679389312977,1.1145038167938932,-2.2748091603053435,-0.435546875,0.00732421875,-0.279296875,1.2036
2.9770992366412212,1.2366412213740459,-2.1526717557251906,-0.43505859375,0.010986328125,-0.291259765625,1.2053
3.1603053435114505,1.450381679389313,-2.3053435114503817,-0.4375,0.006103515625,-0.29296875,1.2069999999999999
3.282442748091603,1.3435114503816794,-2.3206106870229006,-0.431640625,0.003173828125,-0.289306640625,1.2086999999999999
3.2061068702290076,1.2366412213740459,-2.427480916030534,-0.433349609375,0.000732421875,-0.29248046875,1.2104
3.1603053435114505,1.282442748091603,-2.427480916030534,-0.437255859375,0.000732421875,-0.287841796875,1.2121
3.1297709923664123,1.2366412213740459,-2.6412213740458017,-0.438720703125,0.008544921875,-0.293701171875,1.2138
3.099236641221374,1.450381679389313,-2.3206106870229006,-0.43896484375,0.002197265625,-0.29345703125,1.2155
3.114503816793893,1.4809160305343512,-2.717557251908397,-0.44091796875,0.00146484375,-0.28759765625,1.2171999999999998
3.4198473282442747,1.4045801526717556,-2.6412213740458017,-0.438720703125,0.005126953125,-0.2890625,1.2188999999999999
3.1755725190839694,1.4351145038167938,-2.687022900763359,-0.440673828125,0.000732421875,-0.279052734375,1.2206
3.0229007633587788,1.465648854961832,-2.687022900763359,-0.43798828125,0.001953125,-0.288330078125,1.2223
3.1297709923664123,1.7709923664122138,-2.854961832061069,-0.43798828125,0.0029296875,-0.289306640625,1.224
3.2061068702290076,1.83206106870229,-2.854961832061069,-0.43115234375,0.00341796875,-0.285400390625,1.2257
3.5572519083969465,1.83206106870229,-2.9618320610687023,-0.439208984375,0.001220703125,-0.28857421875,1.2273999999999998
3.5267175572519083,1.9236641221374047,-2.8702290076335877,-0.441162109375,0.00634765625,-0.288818359375,1.2290999999999999
3.3435114503816794,2.0763358778625953,-3.0076335877862594,-0.4375,0.004150390625,-0.2880859375,1.2308
3.236641221374046,2.183206106870229,-3.053435114503817,-0.437744140625,0.003173828125,-0.28857421875,1.2325
3.0381679389312977,2.0916030534351147,-3.2977099236641223,-0.43896484375,0.000244140625,-0.281982421875,1.2342
3.0381679389312977,2.1068702290076335,-3.1908396946564888,-0.43408203125,0.002685546875,-0.290771484375,1.2359
3.3435114503816794,2.0916030534351147,-3.3587786259541983,-0.436767578125,0.0,-0.29638671875,1.2376
3.5419847328244276,1.9389312977099236,-3.404580152671756,-0.435546875,0.000732421875,-0.28759765625,1.2392999999999998
3.1603053435114505,1.9083969465648856,-3.5267175572519083,-0.43505859375,-0.001708984375,-0.2880859375,1.2409999999999999
3.0381679389312977,1.6488549618320612,-3.6030534351145036,-0.4345703125,-0.00146484375,-0.282470703125,1.2427
3.1908396946564888,1.786259541984733,-3.5114503816793894,-0.4267578125,-0.001708984375,-0.28125,1.2444
3.404580152671756,1.9389312977099236,-3.6946564885496183,-0.427490234375,-0.003662109375,-0.28955078125,1.2461
3.2213740458015265,1.816793893129771,-3.618320610687023,-0.436767578125,-0.00146484375,-0.289794921875,1.2478
3.435114503816794,1.7099236641221374,-3.5419847328244276,-0.437744140625,0.001708984375,-0.288818359375,1.2494999999999998
3.0839694656488548,1.83206106870229,-3.572519083969466,-0.4296875,-0.004638671875,-0.287109375,1.2511999999999999
3.1908396946564888,1.6030534351145038,-3.3435114503816794,-0.43115234375,0.007568359375,-0.28125,1.2529
3.114503816793893,1.7099236641221374,-3.4656488549618323,-0.43310546875,0.00390625,-0.284912109375,1.2546
3.5114503816793894,1.6793893129770991,-3.4656488549618323,-0.435546875,0.00146484375,-0.284912109375,1.2563
3.3893129770992365,1.6488549618320612,-3.618320610687023,-0.431396484375,0.0,-0.290771484375,1.258
3.1908396946564888,1.5877862595419847,-3.49618320610687,-0.431884765625,-0.002197265625,-0.287353515625,1.2596999999999998
3.114503816793893,1.4045801526717556,-3.7099236641221376,-0.430908203125,0.002197265625,-0.291259765625,1.2613999999999999
3.282442748091603,1.4045801526717556,-3.7404580152671754,-0.432861328125,0.002685546875,-0.283203125,1.2631
3.1297709923664123,1.3893129770992367,-3.801526717557252,-0.425537109375,-0.00244140625,-0.28271484375,1.2648
3.0839694656488548,1.4809160305343512,-3.7709923664122136,-0.430908203125,0.001220703125,-0.2939453125,1.2665
2.946564885496183,1.4351145038167938,-3.9236641221374047,-0.428955078125,-0.001220703125,-0.28173828125,1.2682
3.0839694656488548,1.5419847328244274,-3.786259541984733,-0.43115234375,-0.003662109375,-0.286865234375,1.2699
3.312977099236641,1.3129770992366412,-3.8931297709923665,-0.432373046875,-0.004638671875,-0.282470703125,1.2715999999999998
3.0381679389312977,1.297709923664122,-3.7709923664122136,-0.42822265625,-0.00146484375,-0.283447265625,1.2732999999999999
3.145038167938931,1.099236641221374,-3.786259541984733,-0.42919921875,-0.00146484375,-0.28271484375,1.275
3.2519083969465647,1.0687022900763359,-3.6793893129770994,-0.427001953125,-0.00244140625,-0.2802734375,1.2767
3.1755725190839694,1.1145038167938932,-3.6030534351145036,-0.43115234375,-0.00732421875,-0.28662109375,1.2784
3.1755725190839694,0.9923664122137404,-3.66412213740458,-0.421142578125,-0.00439453125,-0.284423828125,1.2801
3.1755725190839694,0.9312977099236641,-3.6793893129770994,-0.4296875,-0.00048828125,-0.284423828125,1.2817999999999998
3.312977099236641,0.9923664122137404,-3.6946564885496183,-0.432861328125,-0.00732421875,-0.285400390625,1.2834999999999999
3.312977099236641,0.7786259541984732,-3.5877862595419847,-0.430419921875,-0.002685546875,-0.27734375,1.2852
3.1755725190839694,0.6717557251908397,-3.236641221374046,-0.43017578125,0.001708984375,-0.288330078125,1.2869
3.1603053435114505,0.6412213740458015,-3.480916030534351,-0.430908203125,0.0009765625,-0.288818359375,1.2886
3.2977099236641223,0.4732824427480916,-3.404580152671756,-0.43115234375,-0.005615234375,-0.2880859375,1.2903
3.0229007633587788,0.48854961832061067,-3.2519083969465647,-0.427490234375,0.00048828125,-0.2861328125,1.292
3.2519083969465647,0.3969465648854962,-3.145038167938931,-0.429931640625,-0.002685546875,-0.28662109375,1.2936999999999999
3.4656488549618323,0.32061068702290074,-3.0381679389312977,-0.435546875,-0.00341796875,-0.281494140625,1.2953999999999999
3.267175572519084,0.3816793893129771,-3.2213740458015265,-0.4365234375,-0.002685546875,-0.289794921875,1.2971
3.1908396946564888,0.22900763358778625,-2.8396946564885495,-0.43017578125,-0.006591796875,-0.281982421875,1.2988
3.2213740458015265,0.07633587786259542,-2.854961832061069,-0.42724609375,-0.00390625,-0.285400390625,1.3005
3.236641221374046,0.183206106870229,-2.7938931297709924,-0.43017578125,-0.00634765625,-0.2822265625,1.3022
3.3893129770992365,0.33587786259541985,-2.6412213740458017,-0.435791015625,-0.002197265625,-0.28662109375,1.3038999999999998
3.312977099236641,0.3053435114503817,-2.4732824427480917,-0.435302734375,-0.00048828125,-0.2705078125,1.3055999999999999
3.3740458015267176,0.16793893129770993,-2.4580152671755724,-0.43359375,-0.006103515625,-0.280517578125,1.3073
3.312977099236641,0.183206106870229,-2.549618320610687,-0.43408203125,-0.00439453125,-0.282470703125,1.309
3.3282442748091605,0.2748091603053435,-2.1374045801526718,-0.433837890625,-0.010009765625,-0.28369140625,1.3107
3.4198473282442747,0.0916030534351145,-2.030534351145038,-0.4326171875,-0.000244140625,-0.280029296875,1.3124
3.236641221374046,0.13740458015267176,-2.045801526717557,-0.4365234375,-0.003662109375,-0.290283203125,1.3140999999999998
3.3740458015267176,0.10687022900763359,-2.015267175572519,-0.437744140625,-0.003173828125,-0.29736328125,1.3157999999999999
3.435114503816794,0.183206106870229,-1.8778625954198473,-0.434326171875,-0.00146484375,-0.294921875,1.3175
3.5572519083969465,0.061068702290076333,-1.6946564885496183,-0.439453125,-0.00341796875,-0.288818359375,1.3192
3.312977099236641,-0.015267175572519083,-1.7251908396946565,-0.431640625,0.00048828125,-0.2861328125,1.3209
3.480916030534351,0.21374045801526717,-1.618320610687023,-0.4306640625,0.00146484375,-0.2861328125,1.3226
3.5419847328244276,-0.07633587786259542,-1.5114503816793894,-0.43505859375,-0.00341796875,-0.28515625,1.3243
3.3435114503816794,-0.13740458015267176,-1.4809160305343512,-0.4345703125,-0.002685546875,-0.288330078125,1.3259999999999998
3.435114503816794,0.0,-1.2366412213740459,-0.438720703125,-0.003173828125,-0.27978515625,1.3276999999999999
3.4656488549618323,0.10687022900763359,-0.8549618320610687,-0.4365234375,-0.0029296875,-0.283447265625,1.3294
3.5572519083969465,0.21374045801526717,-1.1603053435114503,-0.4375,-0.00244140625,-0.287353515625,1.3311
3.4656488549618323,-0.015267175572519083,-1.1450381679389312,-0.43798828125,-0.00634765625,-0.288818359375,1.3328
3.633587786259542,0.0916030534351145,-0.8244274809160306,-0.436767578125,-0.003662109375,-0.283935546875,1.3345
3.404580152671756,-0.13740458015267176,-0.8244274809160306,-0.436279296875,-0.00634765625,-0.281494140625,1.3361999999999998
3.480916030534351,-0.0916030534351145,-0.8702290076335878,-0.43359375,-0.002685546875,-0.28369140625,1.3378999999999999
3.5114503816793894,0.0916030534351145,-0.6412213740458015,-0.435546875,-0.005859375,-0.281982421875,1.3396
3.3740458015267176,0.21374045801526717,-0.7022900763358778,-0.4326171875,-0.00341796875,-0.2802734375,1.3413
3.633587786259542,0.015267175572519083,-0.42748091603053434,-0.4375,-0.003662109375,-0.278564453125,1.343
3.450381679389313,0.15267175572519084,-0.33587786259541985,-0.43505859375,-0.0029296875,-0.28125,1.3447
3.5114503816793894,0.07633587786259542,-0.21374045801526717,-0.43896484375,-0.000244140625,-0.28515625,1.3463999999999998
3.3282442748091605,0.1984732824427481,-0.3053435114503817,-0.440185546875,-0.004150390625,-0.282958984375,1.3480999999999999
3.2977099236641223,-0.030534351145038167,-0.061068702290076333,-0.440673828125,-0.003173828125,-0.283203125,1.3497999999999999
3.435114503816794,0.07633587786259542,-0.0916030534351145,-0.43798828125,-0.00390625,-0.285400390625,1.3515
3.267175572519084,0.33587786259541985,-0.015267175572519083,-0.440673828125,-0.002685546875,-0.286376953125,1.3532
3.3587786259541983,0.21374045801526717,-0.030534351145038167,-0.444580078125,-0.006591796875,-0.2900390625,1.3549
3.3740458015267176,0.4122137404580153,-0.04580152671755725,-0.439697265625,-0.006103515625,-0.287109375,1.3566
3.3740458015267176,0.2900763358778626,-0.15267175572519084,-0.437744140625,-0.005859375,-0.289306640625,1.3582999999999998
3.1908396946564888,0.21374045801526717,0.10687022900763359,-0.4384765625,-0.008544921875,-0.28662109375,1.3599999999999999
3.4198473282442747,0.3816793893129771,0.183206106870229,-0.440185546875,-0.0068359375,-0.28662109375,1.3617
3.1755725190839694,0.32061068702290074,0.24427480916030533,-0.440185546875,-0.009765625,-0.281982421875,1.3634
3.114503816793893,0.366412213740458,0.2900763358778626,-0.4365234375,0.0009765625,-0.287841796875,1.3651
3.053435114503817,0.48854961832061067,0.2595419847328244,-0.4384765625,-0.00634765625,-0.28515625,1.3668
3.0229007633587788,0.5801526717557252,0.24427480916030533,-0.438720703125,-0.00341796875,-0.284912109375,1.3684999999999998
3.068702290076336,0.5190839694656488,0.2748091603053435,-0.445556640625,-0.002197265625,-0.280029296875,1.3701999999999999
2.9923664122137406,0.6412213740458015,0.2900763358778626,-0.440185546875,-0.004150390625,-0.287353515625,1.3719
2.9618320610687023,0.6564885496183206,0.1984732824427481,-0.438232421875,-0.00537109375,-0.291748046875,1.3736
2.9160305343511452,0.5801526717557252,0.22900763358778625,-0.4404296875,0.000244140625,-0.281982421875,1.3753
2.763358778625954,0.7480916030534351,0.2748091603053435,-0.441162109375,-0.005859375,-0.285400390625,1.377
2.519083969465649,0.9770992366412213,0.13740458015267176,-0.442626953125,-0.00439453125,-0.289306640625,1.3786999999999998
2.763358778625954,0.8854961832061069,0.3816793893129771,-0.43798828125,-0.00537109375,-0.28564453125,1.3803999999999998
2.213740458015267,1.0229007633587786,0.183206106870229,-0.44140625,-0.00341796875,-0.283447265625,1.3820999999999999
2.16793893129771,0.9923664122137404,0.13740458015267176,-0.441162109375,-0.00537109375,-0.28173828125,1.3838
2.045801526717557,0.8854961832061069,0.1984732824427481,-0.4375,-0.006103515625,-0.291015625,1.3855
2.2290076335877864,0.9007633587786259,0.10687022900763359,-0.43896484375,-0.001953125,-0.288818359375,1.3872
2.198473282442748,0.8396946564885496,-0.16793893129770993,-0.44091796875,-0.00537109375,-0.28369140625,1.3889
2.030534351145038,0.9465648854961832,-0.16793893129770993,-0.43505859375,0.001953125,-0.279052734375,1.3905999999999998
1.633587786259542,0.916030534351145,-0.15267175572519084,-0.43408203125,-0.004638671875,-0.284423828125,1.3922999999999999
1.7404580152671756,0.8244274809160306,-0.2748091603053435,-0.43310546875,-0.005615234375,-0.28173828125,1.394
1.6793893129770991,1.0076335877862594,-0.4122137404580153,-0.437744140625,-0.0029296875,-0.278564453125,1.3957
1.6488549618320612,1.083969465648855,-0.13740458015267176,-0.438232421875,-0.00390625,-0.28125,1.3974
1.3129770992366412,1.1450381679389312,-0.42748091603053434,-0.43701171875,-0.006103515625,-0.285400390625,1.3991
1.3587786259541985,1.3587786259541985,-0.4732824427480916,-0.435791015625,-0.007080078125,-0.281982421875,1.4007999999999998
1.282442748091603,1.5419847328244274,-0.5801526717557252,-0.43701171875,-0.0009765625,-0.2822265625,1.4024999999999999
1.1603053435114503,1.618320610687023,-0.5648854961832062,-0.440185546875,-0.0048828125,-0.285888671875,1.4042
1.099236641221374,1.6641221374045803,-0.6412213740458015,-0.439208984375,-0.003173828125,-0.28076171875,1.4059
0.8854961832061069,1.633587786259542,-0.9007633587786259,-0.439208984375,-0.0087890625,-0.284423828125,1.4076
0.7480916030534351,1.8015267175572518,-0.916030534351145,-0.4384765625,-0.0048828125,-0.279052734375,1.4093
0.7175572519083969,1.8473282442748091,-0.9770992366412213,-0.43994140625,-0.0009765625,-0.287109375,1.411
0.6717557251908397,1.6946564885496183,-1.1755725190839694,-0.43359375,-0.005126953125,-0.29150390625,1.4126999999999998
0.42748091603053434,1.9236641221374047,-1.297709923664122,-0.43994140625,-0.003173828125,-0.276123046875,1.4143999999999999
0.48854961832061067,1.8625954198473282,-1.465648854961832,-0.4326171875,0.0,-0.287353515625,1.4161
0.1984732824427481,2.015267175572519,-1.4351145038167938,-0.436279296875,-0.0048828125,-0.284423828125,1.4178
0.2900763358778626,2.0763358778625953,-1.633587786259542,-0.4375,-0.00634765625,-0.283203125,1.4195
0.15267175572519084,1.9694656488549618,-1.6030534351145038,-0.429443359375,-0.00244140625,-0.287109375,1.4212
-0.13740458015267176,1.9694656488549618,-1.786259541984733,-0.432861328125,-0.0087890625,-0.287109375,1.4228999999999998
-0.13740458015267176,2.045801526717557,-1.8778625954198473,-0.43701171875,-0.0029296875,-0.278564453125,1.4245999999999999
-0.183206106870229,2.030534351145038,-1.984732824427481,-0.431884765625,0.000732421875,-0.2861328125,1.4263
-0.12213740458015267,1.9236641221374047,-2.030534351145038,-0.43701171875,-0.002197265625,-0.283935546875,1.428
-0.21374045801526717,1.9083969465648856,-2.2290076335877864,-0.434326171875,-0.0029296875,-0.28271484375,1.4297
-0.44274809160305345,1.9236641221374047,-2.1068702290076335,-0.43310546875,0.000244140625,-0.2880859375,1.4314
-0.549618320610687,1.984732824427481,-2.366412213740458,-0.42431640625,-0.000244140625,-0.28125,1.4330999999999998
-0.44274809160305345,1.9389312977099236,-2.33587786259542,-0.43212890625,-0.0009765625,-0.282470703125,1.4347999999999999
-0.732824427480916,1.9083969465648856,-2.717557251908397,-0.434326171875,-0.004150390625,-0.2861328125,1.4364999999999999
-0.6412213740458015,1.7557251908396947,-2.885496183206107,-0.43603515625,-0.002197265625,-0.286865234375,1.4382
-0.9007633587786259,1.9541984732824427,-2.717557251908397,-0.43212890625,-0.004150390625,-0.287353515625,1.4399
-0.7480916030534351,1.7099236641221374,-2.6412213740458017,-0.4365234375,0.001708984375,-0.28662109375,1.4416
-0.8854961832061069,1.9083969465648856,-2.9160305343511452,-0.4326171875,-0.002685546875,-0.283935546875,1.4433
-0.7022900763358778,1.984732824427481,-3.068702290076336,-0.432861328125,-0.001708984375,-0.2890625,1.4449999999999998
-0.916030534351145,2.0763358778625953,-3.145038167938931,-0.433349609375,0.001220703125,-0.2861328125,1.4466999999999999
-0.916030534351145,2.030534351145038,-3.236641221374046,-0.431640625,0.002685546875,-0.28662109375,1.4484
-0.8702290076335878,1.9083969465648856,-3.3435114503816794,-0.43115234375,0.00048828125,-0.286376953125,1.4501
-0.8854961832061069,1.9541984732824427,-3.2213740458015265,-0.428955078125,0.006103515625,-0.281005859375,1.4518
-0.9465648854961832,1.786259541984733,-3.4198473282442747,-0.431884765625,-0.002197265625,-0.286865234375,1.4535
-0.9618320610687023,1.9541984732824427,-3.4198473282442747,-0.4306640625,0.00390625,-0.29296875,1.4551999999999998
-1.0534351145038168,2.0610687022900764,-3.648854961832061,-0.428466796875,0.002197265625,-0.294189453125,1.4568999999999999
-0.6717557251908397,1.786259541984733,-3.450381679389313,-0.433837890625,0.001220703125,-0.280517578125,1.4586
-1.0229007633587786,1.7709923664122138,-3.7099236641221376,-0.43310546875,0.001708984375,-0.287109375,1.4603
-0.9923664122137404,1.8015267175572518,-3.4198473282442747,-0.431640625,0.005126953125,-0.2822265625,1.462
-0.8854961832061069,1.7557251908396947,-3.648854961832061,-0.4296875,0.0,-0.29248046875,1.4637
-0.732824427480916,1.816793893129771,-3.618320610687023,-0.435302734375,0.00537109375,-0.283935546875,1.4653999999999998
-0.5954198473282443,1.5267175572519085,-3.7099236641221376,-0.43017578125,0.002685546875,-0.284423828125,1.4670999999999998
-0.7022900763358778,1.6641221374045803,-3.7709923664122136,-0.431396484375,0.00390625,-0.288330078125,1.4687999999999999
-0.42748091603053434,1.5267175572519085,-3.8931297709923665,-0.429443359375,0.000732421875,-0.2900390625,1.4705
-0.5190839694656488,1.5267175572519085,-3.572519083969466,-0.434326171875,0.00390625,-0.289306640625,1.4722
-0.3053435114503817,1.4198473282442747,-3.8625954198473282,-0.4345703125,0.001220703125,-0.287109375,1.4739
-0.3969465648854962,1.465648854961832,-3.7404580152671754,-0.43701171875,-0.001220703125,-0.2880859375,1.4756
-0.24427480916030533,1.450381679389313,-3.7557251908396947,-0.433837890625,0.00634765625,-0.289306640625,1.4772999999999998
-0.04580152671755725,1.6641221374045803,-3.572519083969466,-0.43505859375,0.0068359375,-0.28662109375,1.4789999999999999
0.04580152671755725,1.6030534351145038,-3.8473282442748094,-0.435546875,0.007568359375,-0.288818359375,1.4807
0.0,1.6793893129770991,-3.5114503816793894,-0.434326171875,0.002685546875,-0.287353515625,1.4824
0.10687022900763359,1.816793893129771,-3.633587786259542,-0.43212890625,0.001220703125,-0.289794921875,1.4841
0.3816793893129771,1.6488549618320612,-3.5877862595419847,-0.4296875,0.012451171875,-0.290771484375,1.4858
0.3969465648854962,1.5725190839694656,-3.5572519083969465,-0.43359375,0.006103515625,-0.28857421875,1.4874999999999998
0.6412213740458015,1.6030534351145038,-3.5572519083969465,-0.4365234375,0.005615234375,-0.28271484375,1.4891999999999999
0.732824427480916,1.3587786259541985,-3.7251908396946565,-0.43359375,-0.000732421875,-0.28662109375,1.4909
0.8091603053435115,1.282442748091603,-3.5572519083969465,-0.430908203125,-0.000732421875,-0.292236328125,1.4926
0.7938931297709924,1.282442748091603,-3.5877862595419847,-0.43115234375,0.00390625,-0.290283203125,1.4943
0.9465648854961832,1.3587786259541985,-3.312977099236641,-0.430908203125,0.0068359375,-0.2841796875,1.496
1.1450381679389312,1.3893129770992367,-3.572519083969466,-0.428955078125,0.005615234375,-0.27880859375,1.4976999999999998
1.465648854961832,1.3740458015267176,-3.267175572519084,-0.42724609375,0.002685546875,-0.281494140625,1.4993999999999998
1.4809160305343512,1.2061068702290076,-2.9618320610687023,-0.432373046875,-0.00048828125,-0.282958984375,1.5010999999999999
1.5725190839694656,1.2213740458015268,-2.946564885496183,-0.43310546875,0.005126953125,-0.2861328125,1.5028
1.8473282442748091,1.2366412213740459,-3.068702290076336,-0.43017578125,-0.001953125,-0.28759765625,1.5045
1.6946564885496183,1.0381679389312977,-2.8702290076335877,-0.4365234375,0.002197265625,-0.284423828125,1.5062
2.015267175572519,0.916030534351145,-2.9160305343511452,-0.4404296875,0.005859375,-0.28369140625,1.5079
2.16793893129771,0.9465648854961832,-2.7786259541984735,-0.43310546875,0.00830078125,-0.2890625,1.5095999999999998
2.2595419847328246,1.0381679389312977,-2.931297709923664,-0.436279296875,0.001953125,-0.275634765625,1.5112999999999999
2.50381679389313,0.9770992366412213,-2.6717557251908395,-0.43408203125,0.002685546875,-0.282958984375,1.513
2.687022900763359,0.9465648854961832,-2.8702290076335877,-0.431640625,0.005859375,-0.283935546875,1.5147
2.7022900763358777,1.083969465648855,-2.763358778625954,-0.435302734375,0.006591796875,-0.2880859375,1.5164
3.0381679389312977,1.0076335877862594,-2.5801526717557253,-0.437255859375,0.0029296875,-0.29248046875,1.5181
3.114503816793893,0.9770992366412213,-2.4427480916030535,-0.439697265625,0.006591796875,-0.29248046875,1.5197999999999998
3.2977099236641223,0.9923664122137404,-2.717557251908397,-0.436279296875,0.00439453125,-0.291748046875,1.5214999999999999
3.5419847328244276,1.0076335877862594,-2.351145038167939,-0.432373046875,0.003173828125,-0.285888671875,1.5231999999999999
3.618320610687023,1.0534351145038168,-2.366412213740458,-0.431396484375,0.0029296875,-0.27978515625,1.5249
3.618320610687023,1.0534351145038168,-2.2290076335877864,-0.43359375,-0.003173828125,-0.2890625,1.5266
3.7099236641221376,1.1450381679389312,-2.3206106870229006,-0.431396484375,-0.00146484375,-0.2900390625,1.5283
3.6946564885496183,0.8244274809160306,-2.0610687022900764,-0.43115234375,0.003662109375,-0.28271484375,1.5299999999999998
3.9236641221374047,1.083969465648855,-2.0610687022900764,-0.4345703125,0.004150390625,-0.289306640625,1.5316999999999998
4.122137404580153,0.9465648854961832,-1.984732824427481,-0.431640625,0.00146484375,-0.295654296875,1.5333999999999999
4.030534351145038,0.7022900763358778,-1.9389312977099236,-0.431884765625,0.001220703125,-0.287109375,1.5351
4.076335877862595,0.7633587786259542,-1.9083969465648856,-0.438232421875,0.003173828125,-0.284423828125,1.5368
4.213740458015267,0.5954198473282443,-1.9083969465648856,-0.4296875,-0.00146484375,-0.28173828125,1.5385
4.0458015267175576,0.4732824427480916,-1.6793893129770991,-0.434814453125,-0.001220703125,-0.276123046875,1.5402
4.244274809160306,0.549618320610687,-1.7557251908396947,-0.43603515625,0.00244140625,-0.2900390625,1.5418999999999998
4.290076335877862,0.5801526717557252,-1.6946564885496183,-0.435302734375,-0.002685546875,-0.2900390625,1.5435999999999999
4.412213740458015,0.549618320610687,-1.5267175572519085,-0.428955078125,-0.005615234375,-0.2900390625,1.5453
4.305343511450381,0.5954198473282443,-1.3740458015267176,-0.433837890625,-0.00634765625,-0.2900390625,1.547
4.305343511450381,0.48854961832061067,-1.5114503816793894,-0.431640625,-0.00439453125,-0.28662109375,1.5487
4.366412213740458,0.6564885496183206,-1.297709923664122,-0.429443359375,-0.00390625,-0.276611328125,1.5504
4.290076335877862,0.44274809160305345,-1.1908396946564885,-0.429443359375,-0.00146484375,-0.27783203125,1.5520999999999998
4.427480916030534,0.33587786259541985,-1.297709923664122,-0.431396484375,-0.00634765625,-0.28369140625,1.5537999999999998
4.320610687022901,0.6259541984732825,-0.9465648854961832,-0.43115234375,-0.00390625,-0.284423828125,1.5554999999999999
4.488549618320611,0.5190839694656488,-0.9770992366412213,-0.432861328125,-0.004150390625,-0.280029296875,1.5572
4.122137404580153,0.6259541984732825,-1.0381679389312977,-0.4326171875,-0.006591796875,-0.28759765625,1.5589
4.030534351145038,0.5954198473282443,-0.8549618320610687,-0.430419921875,-0.00927734375,-0.28369140625,1.5606
4.076335877862595,0.5954198473282443,-0.9465648854961832,-0.43017578125,-0.0087890625,-0.273681640625,1.5623
4.412213740458015,0.4580152671755725,-0.7633587786259542,-0.4345703125,-0.005615234375,-0.28466796875,1.5639999999999998
4.0,0.44274809160305345,-0.8396946564885496,-0.4326171875,-0.00732421875,-0.277587890625,1.5656999999999999
4.458015267175573,0.4732824427480916,-0.732824427480916,-0.433837890625,-0.00634765625,-0.281982421875,1.5674
4.213740458015267,0.4732824427480916,-0.8549618320610687,-0.434814453125,-0.01318359375,-0.2802734375,1.5691
4.229007633587786,0.183206106870229,-0.6870229007633588,-0.436279296875,-0.006103515625,-0.28515625,1.5708
4.152671755725191,0.32061068702290074,-0.6259541984732825,-0.43701171875,-0.00390625,-0.28515625,1.5725
4.152671755725191,0.2595419847328244,-0.5801526717557252,-0.43310546875,-0.00390625,-0.282470703125,1.5741999999999998
4.198473282442748,0.24427480916030533,-0.7175572519083969,-0.437255859375,-0.001220703125,-0.273681640625,1.5758999999999999
4.229007633587786,0.2595419847328244,-0.6564885496183206,-0.4384765625,0.000244140625,-0.288330078125,1.5776
4.0458015267175576,0.42748091603053434,-0.6259541984732825,-0.438232421875,0.001220703125,-0.278564453125,1.5793
3.984732824427481,0.32061068702290074,-0.6870229007633588,-0.43994140625,-0.00537109375,-0.27783203125,1.581
3.83206106870229,0.5343511450381679,-0.7938931297709924,-0.436279296875,-0.007080078125,-0.284912109375,1.5827
3.9236641221374047,0.42748091603053434,-0.732824427480916,-0.4384765625,-0.011474609375,-0.2841796875,1.5843999999999998
3.877862595419847,0.5343511450381679,-0.7022900763358778,-0.4326171875,-0.009033203125,-0.29248046875,1.5860999999999998
3.66412213740458,0.6259541984732825,-0.8702290076335878,-0.43701171875,-0.005615234375,-0.28173828125,1.5877999999999999
3.7099236641221376,0.7480916030534351,-0.8702290076335878,-0.436279296875,-0.007568359375,-0.28564453125,1.5895
3.6946564885496183,0.7633587786259542,-0.9618320610687023,-0.435791015625,-0.004638671875,-0.28564453125,1.5912
3.786259541984733,0.7022900763358778,-1.0229007633587786,-0.438720703125,-0.005859375,-0.284912109375,1.5929
3.5572519083969465,0.8702290076335878,-0.9465648854961832,-0.435791015625,-0.002685546875,-0.280517578125,1.5946
3.618320610687023,0.9312977099236641,-1.0687022900763359,-0.437744140625,-0.0048828125,-0.280029296875,1.5962999999999998
3.5877862595419847,0.8549618320610687,-0.9312977099236641,-0.440673828125,-0.010498046875,-0.279541015625,1.5979999999999999
3.480916030534351,0.5954198473282443,-1.0534351145038168,-0.435791015625,-0.0048828125,-0.287109375,1.5997
3.3435114503816794,0.7175572519083969,-1.1297709923664123,-0.435791015625,-0.007568359375,-0.2822265625,1.6014
3.435114503816794,0.6717557251908397,-1.083969465648855,-0.43896484375,-0.007568359375,-0.282958984375,1.6031
3.4198473282442747,0.6259541984732825,-1.1603053435114503,-0.434814453125,-0.008056640625,-0.2890625,1.6048
3.435114503816794,0.6870229007633588,-1.083969465648855,-0.43310546875,-0.00634765625,-0.291748046875,1.6064999999999998
3.3282442748091605,0.7786259541984732,-0.9923664122137404,-0.437255859375,-0.005126953125,-0.2900390625,1.6081999999999999
3.2213740458015265,0.8396946564885496,-1.083969465648855,-0.439208984375,-0.005126953125,-0.279052734375,1.6098999999999999
3.1603053435114505,0.7022900763358778,-1.2061068702290076,-0.436279296875,-0.004638671875,-0.285400390625,1.6116
3.1755725190839694,0.5801526717557252,-1.1297709923664123,-0.4375,-0.005615234375,-0.279541015625,1.6133
3.0839694656488548,0.732824427480916,-1.1755725190839694,-0.43994140625,-0.006591796875,-0.28076171875,1.615
2.9923664122137406,0.9312977099236641,-1.1603053435114503,-0.439697265625,-0.005859375,-0.277099609375,1.6166999999999998
2.9923664122137406,1.099236641221374,-1.1908396946564885,-0.443359375,-0.00732421875,-0.27783203125,1.6183999999999998
2.854961832061069,1.1145038167938932,-1.1450381679389312,-0.447265625,-0.008544921875,-0.280029296875,1.6200999999999999
2.8244274809160306,1.0687022900763359,-1.2061068702290076,-0.4384765625,-0.009521484375,-0.27880859375,1.6218
2.595419847328244,1.0381679389312977,-1.1297709923664123,-0.4375,-0.011474609375,-0.282958984375,1.6235
2.7938931297709924,1.1755725190839694,-1.2061068702290076,-0.437744140625,-0.01025390625,-0.279296875,1.6252
2.6412213740458017,1.3893129770992367,-1.2213740458015268,-0.436279296875,-0.008544921875,-0.285400390625,1.6269
2.4732824427480917,1.4351145038167938,-1.297709923664122,-0.438720703125,-0.005859375,-0.28173828125,1.6285999999999998
2.3969465648854964,1.4198473282442747,-1.2671755725190839,-0.43896484375,-0.004150390625,-0.287841796875,1.6302999999999999
2.1526717557251906,1.633587786259542,-1.0687022900763359,-0.436279296875,-0.010009765625,-0.285400390625,1.632
2.015267175572519,1.7099236641221374,-0.9007633587786259,-0.44287109375,-0.005615234375,-0.28857421875,1.6337
1.7557251908396947,1.5877862595419847,-0.8854961832061069,-0.43798828125,-0.007080078125,-0.284423828125,1.6354
1.6946564885496183,1.7557251908396947,-0.7022900763358778,-0.437744140625,-0.00927734375,-0.28369140625,1.6371
1.7404580152671756,1.816793893129771,-0.8549618320610687,-0.440185546875,-0.005859375,-0.281494140625,1.6387999999999998
1.5267175572519085,1.7709923664122138,-0.8854961832061069,-0.438232421875,-0.00537109375,-0.283935546875,1.6404999999999998
1.6488549618320612,1.6946564885496183,-0.5038167938931297,-0.43701171875,-0.0068359375,-0.284912109375,1.6421999999999999
1.3282442748091603,1.816793893129771,-0.48854961832061067,-0.43359375,-0.008056640625,-0.2900390625,1.6439
1.465648854961832,1.8015267175572518,-0.5648854961832062,-0.4306640625,-0.001220703125,-0.28857421875,1.6456
1.1450381679389312,1.816793893129771,-0.3969465648854962,-0.436767578125,-0.00439453125,-0.2880859375,1.6473
0.9923664122137404,1.6488549618320612,-0.2595419847328244,-0.433837890625,-0.01318359375,-0.28662109375,1.6489999999999998
0.9007633587786259,1.8015267175572518,-0.22900763358778625,-0.43798828125,-0.009765625,-0.27880859375,1.6506999999999998
0.8702290076335878,1.7709923664122138,-0.2748091603053435,-0.439697265625,-0.01123046875,-0.288818359375,1.6523999999999999
0.7633587786259542,1.7251908396946565,-0.2595419847328244,-0.437255859375,-0.004150390625,-0.29248046875,1.6541
0.7175572519083969,1.5725190839694656,-0.183206106870229,-0.434814453125,-0.006103515625,-0.273681640625,1.6558
0.5954198473282443,1.7557251908396947,-0.0916030534351145,-0.435302734375,-0.00537109375,-0.2783203125,1.6575
0.3816793893129771,1.6946564885496183,-0.12213740458015267,-0.43701171875,-0.001953125,-0.28271484375,1.6592
0.6106870229007634,1.6793893129770991,-0.13740458015267176,-0.43212890625,-0.003173828125,-0.285888671875,1.6608999999999998
0.4580152671755725,1.5419847328244274,-0.183206106870229,-0.437744140625,-0.002685546875,-0.27978515625,1.6625999999999999
0.2595419847328244,1.5572519083969465,0.030534351145038167,-0.437255859375,-0.010009765625,-0.290283203125,1.6643
0.2900763358778626,1.5267175572519085,-0.061068702290076333,-0.43798828125,-0.006103515625,-0.283203125,1.666
0.21374045801526717,1.4961832061068703,0.22900763358778625,-0.432861328125,-0.008056640625,-0.285400390625,1.6677
0.2748091603053435,1.450381679389313,0.0916030534351145,-0.432861328125,-0.005859375,-0.2861328125,1.6694
0.16793893129770993,1.3282442748091603,-0.04580152671755725,-0.432373046875,-0.00830078125,-0.283935546875,1.6710999999999998
0.04580152671755725,1.450381679389313,0.015267175572519083,-0.43115234375,-0.006591796875,-0.284423828125,1.6727999999999998
0.13740458015267176,1.4809160305343512,0.061068702290076333,-0.433349609375,-0.003173828125,-0.284912109375,1.6744999999999999
-0.030534351145038167,1.1603053435114503,-0.061068702290076333,-0.430908203125,-0.0048828125,-0.285400390625,1.6762
-0.2900763358778626,1.4351145038167938,0.07633587786259542,-0.4365234375,-0.005615234375,-0.28076171875,1.6779
-0.061068702290076333,1.465648854961832,0.12213740458015267,-0.4365234375,-0.00634765625,-0.2822265625,1.6796
0.07633587786259542,1.282442748091603,0.061068702290076333,-0.436767578125,-0.003662109375,-0.291748046875,1.6813
-0.3816793893129771,1.3435114503816794,-0.10687022900763359,-0.43359375,-0.003662109375,-0.27978515625,1.6829999999999998
-0.183206106870229,1.3282442748091603,-0.12213740458015267,-0.4375,-0.006591796875,-0.279052734375,1.6846999999999999
-0.3969465648854962,1.297709923664122,0.10687022900763359,-0.43310546875,-0.005859375,-0.288330078125,1.6864
-0.42748091603053434,1.450381679389313,0.10687022900763359,-0.43408203125,-0.003662109375,-0.2822265625,1.6881
-0.2748091603053435,1.2366412213740459,0.015267175572519083,-0.432861328125,-0.001708984375,-0.28662109375,1.6898
-0.2748091603053435,1.4198473282442747,0.030534351145038167,-0.437744140625,-0.0078125,-0.279541015625,1.6915
-0.32061068702290074,1.4198473282442747,0.04580152671755725,-0.4384765625,-0.005859375,-0.283935546875,1.6931999999999998
-0.3816793893129771,1.2366412213740459,0.030534351145038167,-0.432373046875,-0.006103515625,-0.28271484375,1.6948999999999999
-0.5343511450381679,1.3282442748091603,-0.061068702290076333,-0.431640625,-0.00439453125,-0.278076171875,1.6965999999999999
-0.549618320610687,1.2671755725190839,-0.015267175572519083,-0.436279296875,-0.00439453125,-0.285400390625,1.6983
-0.5648854961832062,1.0687022900763359,0.0,-0.431396484375,-0.001953125,-0.284423828125,1.7
-0.5343511450381679,1.2366412213740459,0.0,-0.432861328125,0.001220703125,-0.2880859375,1.7017
-0.42748091603053434,1.3740458015267176,-0.07633587786259542,-0.4375,-0.001708984375,-0.28173828125,1.7033999999999998
-0.5801526717557252,1.1603053435114503,0.0916030534351145,-0.432373046875,-0.00146484375,-0.279296875,1.7050999999999998
-0.4580152671755725,1.4809160305343512,-0.13740458015267176,-0.4345703125,-0.00341796875,-0.283935546875,1.7067999999999999
-0.9007633587786259,1.3435114503816794,0.0916030534351145,-0.43896484375,-0.001953125,-0.284912109375,1.7085
-1.0076335877862594,1.4198473282442747,0.061068702290076333,-0.43212890625,0.002685546875,-0.28173828125,1.7102
-0.7633587786259542,1.5114503816793894,-0.030534351145038167,-0.435302734375,0.001953125,-0.279541015625,1.7119
-0.9007633587786259,1.3740458015267176,-0.04580152671755725,-0.431884765625,0.002197265625,-0.281494140625,1.7136
-0.8549618320610687,1.3740458015267176,-0.061068702290076333,-0.427490234375,0.0029296875,-0.2890625,1.7152999999999998
-0.9312977099236641,1.5114503816793894,-0.0916030534351145,-0.436279296875,0.001220703125,-0.29052734375,1.7169999999999999
-0.8244274809160306,1.5267175572519085,0.04580152671755725,-0.43359375,0.004638671875,-0.286865234375,1.7187
-1.0229007633587786,1.5419847328244274,-0.12213740458015267,-0.43408203125,0.004638671875,-0.291015625,1.7204
-0.916030534351145,1.8015267175572518,0.183206106870229,-0.43310546875,-0.00048828125,-0.28857421875,1.7221
-0.8244274809160306,1.5725190839694656,0.0916030534351145,-0.43212890625,-0.0009765625,-0.28857421875,1.7238
-0.8549618320610687,1.5572519083969465,-0.061068702290076333,-0.434814453125,0.001220703125,-0.288330078125,1.7254999999999998
-0.9770992366412213,1.6488549618320612,-0.061068702290076333,-0.43603515625,-0.0009765625,-0.289306640625,1.7271999999999998
-0.7786259541984732,1.6030534351145038,-0.015267175572519083,-0.439453125,0.005615234375,-0.29345703125,1.7288999999999999
-1.0534351145038168,1.5419847328244274,-0.0916030534351145,-0.43115234375,0.002197265625,-0.296142578125,1.7306
-1.099236641221374,1.5877862595419847,-0.22900763358778625,-0.43603515625,0.002685546875,-0.290771484375,1.7323
-0.8549618320610687,1.7404580152671756,-0.2748091603053435,-0.436279296875,0.003173828125,-0.282958984375,1.734
-0.8244274809160306,1.6946564885496183,-0.366412213740458,-0.431640625,0.007568359375,-0.279541015625,1.7356999999999998
-0.8854961832061069,1.633587786259542,-0.24427480916030533,-0.4287109375,0.0009765625,-0.286865234375,1.7373999999999998
-0.8854961832061069,1.8931297709923665,-0.33587786259541985,-0.431884765625,0.001953125,-0.27685546875,1.7390999999999999
-1.0687022900763359,1.6641221374045803,-0.4580152671755725,-0.43408203125,0.005615234375,-0.282958984375,1.7408
-1.0229007633587786,1.6488549618320612,-0.15267175572519084,-0.4345703125,-0.000244140625,-0.290283203125,1.7425
-0.9465648854961832,1.5572519083969465,-0.3816793893129771,-0.42724609375,0.005126953125,-0.28662109375,1.7442
-0.7175572519083969,1.5572519083969465,-0.48854961832061067,-0.432373046875,0.001708984375,-0.2822265625,1.7459
-0.916030534351145,1.5419847328244274,-0.549618320610687,-0.43359375,0.006591796875,-0.28662109375,1.7475999999999998
-0.8396946564885496,1.618320610687023,-0.48854961832061067,-0.433837890625,0.005859375,-0.289794921875,1.7492999999999999
-0.6412213740458015,1.6488549618320612,-0.7786259541984732,-0.434814453125,0.00244140625,-0.278076171875,1.751
-0.7633587786259542,1.5267175572519085,-0.5954198473282443,-0.432373046875,0.00634765625,-0.2802734375,1.7527
-0.732824427480916,1.6030534351145038,-0.7786259541984732,-0.429931640625,0.01220703125,-0.283203125,1.7544
-0.732824427480916,1.633587786259542,-0.6564885496183206,-0.435791015625,0.012451171875,-0.28173828125,1.7561
-0.3816793893129771,1.465648854961832,-0.9465648854961832,-0.438232421875,0.005126953125,-0.281982421875,1.7577999999999998
-0.22900763358778625,1.5572519083969465,-0.8854961832061069,-0.429443359375,0.00732421875,-0.289306640625,1.7594999999999998
-0.5190839694656488,1.5267175572519085,-1.0687022900763359,-0.4306640625,0.00244140625,-0.287841796875,1.7611999999999999
-0.42748091603053434,1.5725190839694656,-0.9312977099236641,-0.430419921875,0.00390625,-0.2861328125,1.7629
-0.16793893129770993,1.5114503816793894,-0.9465648854961832,-0.435546875,0.004638671875,-0.28271484375,1.7646
-0.07633587786259542,1.6030534351145038,-0.9923664122137404,-0.435302734375,0.00244140625,-0.28466796875,1.7663
-0.07633587786259542,1.4809160305343512,-1.3587786259541985,-0.43017578125,0.010009765625,-0.284423828125,1.7679999999999998
-0.061068702290076333,1.5267175572519085,-1.099236641221374,-0.429931640625,0.00830078125,-0.28271484375,1.7696999999999998
-0.030534351145038167,1.3435114503816794,-1.083969465648855,-0.43359375,0.004638671875,-0.283447265625,1.7713999999999999
0.0916030534351145,1.282442748091603,-1.2671755725190839,-0.42822265625,0.009765625,-0.286376953125,1.7731
0.2595419847328244,1.3587786259541985,-1.2671755725190839,-0.43310546875,0.010986328125,-0.2861328125,1.7748
0.2748091603053435,1.1908396946564885,-1.3435114503816794,-0.43896484375,0.0068359375,-0.283447265625,1.7765
0.44274809160305345,1.3435114503816794,-1.5419847328244274,-0.43359375,0.007568359375,-0.27880859375,1.7782
0.5343511450381679,1.4351145038167938,-1.4351145038167938,-0.435791015625,0.002685546875,-0.28076171875,1.7798999999999998
0.5801526717557252,1.1603053435114503,-1.5114503816793894,-0.4296875,0.008544921875,-0.287353515625,1.7815999999999999
0.4732824427480916,1.2213740458015268,-1.6030534351145038,-0.436279296875,0.00390625,-0.281494140625,1.7832999999999999
0.6106870229007634,1.3435114503816794,-1.7099236641221374,-0.429931640625,0.005615234375,-0.2822265625,1.785
0.916030534351145,1.3435114503816794,-1.4961832061068703,-0.439208984375,0.0068359375,-0.28271484375,1.7867
0.8702290076335878,1.1450381679389312,-1.5877862595419847,-0.4306640625,0.007568359375,-0.27978515625,1.7884
0.9618320610687023,1.1297709923664123,-1.7251908396946565,-0.429931640625,0.004150390625,-0.292724609375,1.7900999999999998
1.0076335877862594,1.1297709923664123,-1.816793893129771,-0.432861328125,0.010009765625,-0.27783203125,1.7917999999999998
1.1908396946564885,1.1755725190839694,-1.9541984732824427,-0.439208984375,0.013916015625,-0.27978515625,1.7934999999999999
1.1908396946564885,1.0381679389312977,-1.8625954198473282,-0.4326171875,0.01025390625,-0.282958984375,1.7952
1.3282442748091603,1.083969465648855,-1.786259541984733,-0.43310546875,0.002685546875,-0.2890625,1.7969
1.5267175572519085,1.083969465648855,-1.9389312977099236,-0.431640625,0.009521484375,-0.287109375,1.7986
1.7099236641221374,0.9465648854961832,-2.0916030534351147,-0.435546875,0.005615234375,-0.288818359375,1.8002999999999998
