gyrox1,gyroy1,gyroz1,accelx1,accely1,accelz1,Time
2.4885496183206106,1.9541984732824427,-1.5572519083969465,0.06640625,-0.112060546875,-0.591796875,0.0
2.366412213740458,2.1068702290076335,-1.3435114503816794,0.068603515625,-0.10986328125,-0.6025390625,0.0017
2.2442748091603053,2.427480916030534,-1.5267175572519085,0.0654296875,-0.10791015625,-0.591552734375,0.0034
2.213740458015267,2.381679389312977,-1.5877862595419847,0.066650390625,-0.104736328125,-0.596923828125,0.0050999999999999995
2.3206106870229006,2.2748091603053435,-1.8778625954198473,0.0673828125,-0.111328125,-0.59716796875,0.0068
1.8473282442748091,2.381679389312977,-1.633587786259542,0.065673828125,-0.11474609375,-0.5888671875,0.008499999999999999
2.015267175572519,2.4427480916030535,-1.7709923664122138,0.07421875,-0.10546875,-0.592041015625,0.010199999999999999
1.9541984732824427,2.4122137404580153,-1.4809160305343512,0.064453125,-0.11083984375,-0.5849609375,0.011899999999999999
1.8473282442748091,2.3053435114503817,-1.7099236641221374,0.07275390625,-0.111572265625,-0.593505859375,0.0136
1.8015267175572518,2.4427480916030535,-1.8778625954198473,0.071533203125,-0.103759765625,-0.60107421875,0.0153
1.786259541984733,2.3206106870229006,-1.9236641221374047,0.065185546875,-0.10205078125,-0.599853515625,0.016999999999999998
1.5877862595419847,2.4580152671755724,-1.816793893129771,0.070068359375,-0.10498046875,-0.602783203125,0.018699999999999998
1.816793893129771,2.2290076335877864,-1.984732824427481,0.0703125,-0.10693359375,-0.593994140625,0.020399999999999998
1.6030534351145038,2.2595419847328246,-1.9083969465648856,0.067138671875,-0.10400390625,-0.60009765625,0.022099999999999998
1.4809160305343512,2.351145038167939,-1.8473282442748091,0.06884765625,-0.108642578125,-0.5927734375,0.023799999999999998
1.7099236641221374,2.4580152671755724,-1.816793893129771,0.07080078125,-0.110107421875,-0.594970703125,0.0255
1.5114503816793894,2.351145038167939,-1.8015267175572518,0.06787109375,-0.105712890625,-0.596923828125,0.0272
1.2061068702290076,2.2748091603053435,-1.786259541984733,0.066162109375,-0.10205078125,-0.59814453125,0.0289
1.5877862595419847,2.2748091603053435,-1.9236641221374047,0.0673828125,-0.107666015625,-0.597412109375,0.0306
1.3893129770992367,2.2595419847328246,-1.8931297709923665,0.069091796875,-0.110595703125,-0.59521484375,0.032299999999999995
1.1145038167938932,2.33587786259542,-1.6793893129770991,0.0703125,-0.10595703125,-0.596923828125,0.033999999999999996
1.4961832061068703,2.183206106870229,-1.7099236641221374,0.07666015625,-0.103759765625,-0.59130859375,0.035699999999999996
1.3740458015267176,2.2900763358778624,-1.7099236641221374,0.072509765625,-0.103271484375,-0.6025390625,0.037399999999999996
1.0076335877862594,2.4122137404580153,-1.6946564885496183,0.06982421875,-0.1083984375,-0.594970703125,0.039099999999999996
0.9465648854961832,2.6717557251908395,-1.8625954198473282,0.069580078125,-0.109619140625,-0.59521484375,0.040799999999999996
0.8244274809160306,2.381679389312977,-1.7251908396946565,0.067626953125,-0.10107421875,-0.595458984375,0.042499999999999996
1.0229007633587786,2.3206106870229006,-1.7709923664122138,0.06982421875,-0.101806640625,-0.59814453125,0.044199999999999996
0.9923664122137404,2.4427480916030535,-1.7099236641221374,0.067626953125,-0.1025390625,-0.5986328125,0.045899999999999996
0.8854961832061069,2.2900763358778624,-1.7709923664122138,0.070068359375,-0.100830078125,-0.599609375,0.047599999999999996
0.7786259541984732,2.2442748091603053,-1.6793893129770991,0.072998046875,-0.1064453125,-0.587890625,0.0493
0.7786259541984732,2.183206106870229,-1.6488549618320612,0.06884765625,-0.10595703125,-0.59716796875,0.051
0.9312977099236641,2.3206106870229006,-1.4961832061068703,0.075927734375,-0.10693359375,-0.59814453125,0.0527
0.9770992366412213,2.2290076335877864,-1.7404580152671756,0.0732421875,-0.106201171875,-0.598388671875,0.0544
1.0229007633587786,2.4427480916030535,-1.6030534351145038,0.068359375,-0.1103515625,-0.595947265625,0.0561
1.0381679389312977,2.427480916030534,-1.633587786259542,0.064208984375,-0.104736328125,-0.59765625,0.0578
1.282442748091603,2.2595419847328246,-1.6641221374045803,0.066162109375,-0.11083984375,-0.6015625,0.0595
1.0381679389312977,2.183206106870229,-1.6488549618320612,0.066162109375,-0.109130859375,-0.59912109375,0.0612
1.3435114503816794,2.3969465648854964,-1.6488549618320612,0.070068359375,-0.109375,-0.595947265625,0.0629
1.3435114503816794,2.4122137404580153,-1.5267175572519085,0.062255859375,-0.10546875,-0.59765625,0.06459999999999999
1.297709923664122,2.3969465648854964,-1.6488549618320612,0.064208984375,-0.10693359375,-0.6005859375,0.0663
1.5877862595419847,2.564885496183206,-1.5419847328244274,0.0673828125,-0.107666015625,-0.588134765625,0.06799999999999999
1.3587786259541985,2.595419847328244,-1.5114503816793894,0.0693359375,-0.10546875,-0.5966796875,0.0697
1.4809160305343512,2.4580152671755724,-1.5572519083969465,0.06396484375,-0.10302734375,-0.594970703125,0.07139999999999999
1.5419847328244274,2.2900763358778624,-1.6030534351145038,0.064453125,-0.104248046875,-0.5908203125,0.0731
1.3893129770992367,2.5801526717557253,-1.3740458015267176,0.07080078125,-0.110107421875,-0.589111328125,0.07479999999999999
1.3587786259541985,2.3053435114503817,-1.633587786259542,0.06298828125,-0.108642578125,-0.58837890625,0.0765
1.251908396946565,2.4885496183206106,-1.5725190839694656,0.0625,-0.109375,-0.596435546875,0.07819999999999999
1.3740458015267176,2.1526717557251906,-1.3129770992366412,0.068359375,-0.1064453125,-0.60595703125,0.0799
1.4351145038167938,2.2290076335877864,-1.3435114503816794,0.063720703125,-0.107421875,-0.59130859375,0.08159999999999999
1.2061068702290076,2.0763358778625953,-1.7099236641221374,0.060546875,-0.1064453125,-0.592041015625,0.0833
1.0687022900763359,2.1374045801526718,-1.4809160305343512,0.0634765625,-0.113037109375,-0.600341796875,0.08499999999999999
0.7938931297709924,1.9083969465648856,-1.4961832061068703,0.06396484375,-0.107421875,-0.5986328125,0.0867
1.099236641221374,1.9694656488549618,-1.450381679389313,0.066650390625,-0.109130859375,-0.601806640625,0.08839999999999999
1.0076335877862594,2.030534351145038,-1.3893129770992367,0.06591796875,-0.10888671875,-0.58837890625,0.0901
0.6870229007633588,1.9236641221374047,-1.465648854961832,0.0693359375,-0.104736328125,-0.59033203125,0.09179999999999999
0.7022900763358778,1.8015267175572518,-1.6793893129770991,0.069580078125,-0.113037109375,-0.590576171875,0.0935
0.9007633587786259,1.816793893129771,-1.5267175572519085,0.0693359375,-0.107177734375,-0.596923828125,0.09519999999999999
0.6564885496183206,2.0763358778625953,-1.633587786259542,0.06591796875,-0.106689453125,-0.597900390625,0.0969
0.7786259541984732,1.8625954198473282,-1.4961832061068703,0.0693359375,-0.10546875,-0.595947265625,0.0986
0.8702290076335878,1.7709923664122138,-1.5725190839694656,0.06884765625,-0.105712890625,-0.6044921875,0.1003
0.732824427480916,1.6488549618320612,-1.7099236641221374,0.0703125,-0.107421875,-0.59619140625,0.102
0.8396946564885496,1.7557251908396947,-1.5877862595419847,0.07275390625,-0.107421875,-0.603759765625,0.1037
1.0534351145038168,1.816793893129771,-1.6641221374045803,0.075439453125,-0.10791015625,-0.595947265625,0.1054
0.6870229007633588,1.5725190839694656,-1.6641221374045803,0.0703125,-0.10888671875,-0.59765625,0.1071
0.9923664122137404,1.633587786259542,-1.4961832061068703,0.0703125,-0.1044921875,-0.592529296875,0.1088
1.1755725190839694,1.7251908396946565,-1.5572519083969465,0.066162109375,-0.107666015625,-0.60009765625,0.11049999999999999
1.2671755725190839,1.8625954198473282,-1.5725190839694656,0.06884765625,-0.102294921875,-0.59375,0.1122
0.8702290076335878,1.8473282442748091,-1.5572519083969465,0.069091796875,-0.105712890625,-0.5966796875,0.11389999999999999
1.0229007633587786,1.618320610687023,-1.465648854961832,0.070556640625,-0.10693359375,-0.59814453125,0.1156
0.7786259541984732,1.6488549618320612,-1.5114503816793894,0.0693359375,-0.107421875,-0.595458984375,0.11729999999999999
1.0534351145038168,1.786259541984733,-1.3893129770992367,0.068115234375,-0.10595703125,-0.593505859375,0.119
1.1145038167938932,1.8931297709923665,-1.6030534351145038,0.0634765625,-0.103759765625,-0.6015625,0.12069999999999999
0.7938931297709924,2.122137404580153,-1.3435114503816794,0.0703125,-0.104248046875,-0.6025390625,0.1224
0.8854961832061069,2.1068702290076335,-1.3587786259541985,0.063720703125,-0.108154296875,-0.58935546875,0.12409999999999999
0.48854961832061067,1.6946564885496183,-1.1450381679389312,0.065673828125,-0.106689453125,-0.589111328125,0.1258
0.6106870229007634,1.816793893129771,-1.2213740458015268,0.066650390625,-0.103271484375,-0.59619140625,0.1275
0.6106870229007634,1.816793893129771,-1.2061068702290076,0.068603515625,-0.105224609375,-0.59423828125,0.12919999999999998
0.6259541984732825,1.8931297709923665,-1.3435114503816794,0.06591796875,-0.10498046875,-0.59619140625,0.1309
0.5648854961832062,2.015267175572519,-1.297709923664122,0.067626953125,-0.108154296875,-0.601318359375,0.1326
0.5648854961832062,1.9083969465648856,-1.4351145038167938,0.066162109375,-0.10546875,-0.590087890625,0.1343
0.5190839694656488,1.6793893129770991,-1.099236641221374,0.068603515625,-0.10595703125,-0.59423828125,0.13599999999999998
0.549618320610687,1.7557251908396947,-1.3282442748091603,0.0673828125,-0.10986328125,-0.58837890625,0.1377
0.3816793893129771,1.7557251908396947,-1.297709923664122,0.069091796875,-0.111083984375,-0.588134765625,0.1394
0.5343511450381679,1.83206106870229,-1.282442748091603,0.0693359375,-0.107421875,-0.59326171875,0.1411
0.4732824427480916,2.045801526717557,-1.1908396946564885,0.064453125,-0.1083984375,-0.59423828125,0.14279999999999998
0.6259541984732825,1.8778625954198473,-1.465648854961832,0.06298828125,-0.105712890625,-0.592041015625,0.1445
0.6870229007633588,1.7557251908396947,-1.4198473282442747,0.069580078125,-0.109375,-0.603515625,0.1462
0.3816793893129771,1.7709923664122138,-1.5114503816793894,0.07080078125,-0.107421875,-0.589111328125,0.1479
0.549618320610687,1.5877862595419847,-1.282442748091603,0.072998046875,-0.104248046875,-0.590087890625,0.14959999999999998
0.6106870229007634,1.7557251908396947,-1.4045801526717556,0.07080078125,-0.112060546875,-0.597412109375,0.1513
0.4122137404580153,1.5725190839694656,-1.1908396946564885,0.0712890625,-0.107666015625,-0.603271484375,0.153
0.2748091603053435,1.4351145038167938,-1.4198473282442747,0.067626953125,-0.102783203125,-0.59912109375,0.1547
0.5190839694656488,1.5267175572519085,-1.5267175572519085,0.067626953125,-0.10986328125,-0.592529296875,0.15639999999999998
0.5190839694656488,1.5267175572519085,-1.3129770992366412,0.06689453125,-0.104248046875,-0.591064453125,0.1581
0.3969465648854962,1.4198473282442747,-1.4198473282442747,0.07080078125,-0.10595703125,-0.605224609375,0.1598
0.5190839694656488,1.618320610687023,-1.5725190839694656,0.06494140625,-0.10693359375,-0.590576171875,0.1615
0.4732824427480916,1.7557251908396947,-1.251908396946565,0.06298828125,-0.10546875,-0.58935546875,0.16319999999999998
0.2748091603053435,1.4961832061068703,-1.3740458015267176,0.0673828125,-0.10693359375,-0.596923828125,0.1649
0.4732824427480916,1.633587786259542,-1.099236641221374,0.066162109375,-0.107177734375,-0.58837890625,0.1666
0.366412213740458,1.83206106870229,-1.2061068702290076,0.06591796875,-0.09912109375,-0.592041015625,0.16829999999999998
0.5038167938931297,1.7404580152671756,-1.297709923664122,0.06591796875,-0.10107421875,-0.593994140625,0.16999999999999998
0.4580152671755725,1.6641221374045803,-1.297709923664122,0.070556640625,-0.110595703125,-0.59033203125,0.1717
0.6412213740458015,1.7557251908396947,-1.0076335877862594,0.068115234375,-0.10400390625,-0.596923828125,0.1734
0.4732824427480916,1.9083969465648856,-1.099236641221374,0.069580078125,-0.10302734375,-0.587158203125,0.17509999999999998
0.48854961832061067,1.8778625954198473,-0.9770992366412213,0.0693359375,-0.10546875,-0.585693359375,0.17679999999999998
0.24427480916030533,1.83206106870229,-1.0534351145038168,0.068115234375,-0.107666015625,-0.5927734375,0.1785
0.5954198473282443,1.9694656488549618,-0.9923664122137404,0.067626953125,-0.104248046875,-0.59765625,0.1802
0.6412213740458015,1.9541984732824427,-1.099236641221374,0.068359375,-0.108642578125,-0.591796875,0.18189999999999998
0.5648854961832062,2.0,-0.8702290076335878,0.06982421875,-0.1064453125,-0.59130859375,0.18359999999999999
0.6870229007633588,1.8473282442748091,-1.0381679389312977,0.067626953125,-0.107177734375,-0.592529296875,0.1853
0.7022900763358778,2.0,-1.0076335877862594,0.066650390625,-0.1064453125,-0.593017578125,0.187
0.732824427480916,1.786259541984733,-0.9923664122137404,0.069580078125,-0.10400390625,-0.588134765625,0.18869999999999998
0.732824427480916,1.9541984732824427,-0.8396946564885496,0.072998046875,-0.110107421875,-0.59326171875,0.19039999999999999
0.8091603053435115,1.984732824427481,-1.0076335877862594,0.066650390625,-0.108642578125,-0.601318359375,0.1921
0.9007633587786259,1.8931297709923665,-0.9312977099236641,0.06689453125,-0.108642578125,-0.596435546875,0.1938
0.7938931297709924,1.8778625954198473,-1.0534351145038168,0.06884765625,-0.109375,-0.592529296875,0.19549999999999998
0.8549618320610687,1.9083969465648856,-1.0076335877862594,0.06591796875,-0.10888671875,-0.594970703125,0.1972
1.0229007633587786,1.8625954198473282,-0.9007633587786259,0.06298828125,-0.111328125,-0.58935546875,0.1989
0.8091603053435115,1.6488549618320612,-0.7175572519083969,0.065185546875,-0.115234375,-0.58740234375,0.2006
1.2213740458015268,1.3740458015267176,-0.8549618320610687,0.07470703125,-0.110595703125,-0.593017578125,0.20229999999999998
1.3129770992366412,1.633587786259542,-0.9007633587786259,0.0654296875,-0.112548828125,-0.580810546875,0.204
1.1908396946564885,1.6488549618320612,-0.7480916030534351,0.06689453125,-0.1123046875,-0.5947265625,0.2057
1.297709923664122,1.6641221374045803,-0.6106870229007634,0.07177734375,-0.1123046875,-0.59619140625,0.2074
1.297709923664122,1.786259541984733,-0.7633587786259542,0.071044921875,-0.11083984375,-0.593505859375,0.20909999999999998
1.083969465648855,1.633587786259542,-0.6717557251908397,0.071044921875,-0.1123046875,-0.596923828125,0.2108
1.2671755725190839,1.8015267175572518,-0.8244274809160306,0.06640625,-0.111328125,-0.597412109375,0.2125
1.4351145038167938,1.7709923664122138,-0.6564885496183206,0.0712890625,-0.115234375,-0.59521484375,0.2142
1.5114503816793894,1.7099236641221374,-0.6870229007633588,0.070068359375,-0.114013671875,-0.58837890625,0.21589999999999998
1.3740458015267176,1.6641221374045803,-0.5343511450381679,0.06494140625,-0.1123046875,-0.590576171875,0.2176
1.1755725190839694,1.6793893129770991,-0.6870229007633588,0.0693359375,-0.106689453125,-0.5888671875,0.2193
1.3129770992366412,1.6030534351145038,-0.366412213740458,0.067626953125,-0.109375,-0.595458984375,0.22099999999999997
1.2671755725190839,1.6641221374045803,-0.5343511450381679,0.067626953125,-0.11376953125,-0.600830078125,0.22269999999999998
1.1450381679389312,1.8015267175572518,-0.5801526717557252,0.0703125,-0.108642578125,-0.605224609375,0.2244
0.9465648854961832,1.786259541984733,-0.549618320610687,0.067138671875,-0.109130859375,-0.60009765625,0.2261
0.9923664122137404,2.1526717557251906,-0.4122137404580153,0.069580078125,-0.10595703125,-0.593017578125,0.22779999999999997
0.8244274809160306,2.122137404580153,-0.5648854961832062,0.073974609375,-0.109619140625,-0.592041015625,0.22949999999999998
0.9007633587786259,1.8473282442748091,-0.2595419847328244,0.06982421875,-0.110595703125,-0.585693359375,0.2312
0.8854961832061069,1.9694656488549618,-0.3816793893129771,0.067138671875,-0.108154296875,-0.593017578125,0.2329
0.916030534351145,2.1068702290076335,-0.24427480916030533,0.067626953125,-0.108642578125,-0.58544921875,0.23459999999999998
1.099236641221374,2.015267175572519,-0.48854961832061067,0.070068359375,-0.104736328125,-0.583984375,0.23629999999999998
0.9007633587786259,2.16793893129771,-0.2595419847328244,0.06982421875,-0.109619140625,-0.5966796875,0.238
0.7175572519083969,2.0,-0.366412213740458,0.07177734375,-0.107421875,-0.59375,0.2397
1.0381679389312977,2.0610687022900764,-0.1984732824427481,0.07080078125,-0.10302734375,-0.589599609375,0.24139999999999998
0.7786259541984732,1.8778625954198473,-0.22900763358778625,0.0654296875,-0.107666015625,-0.5947265625,0.24309999999999998
0.7480916030534351,2.0916030534351147,-0.030534351145038167,0.073974609375,-0.1064453125,-0.59423828125,0.2448
0.8854961832061069,2.198473282442748,-0.24427480916030533,0.0751953125,-0.10400390625,-0.5888671875,0.2465
0.8549618320610687,2.015267175572519,-0.12213740458015267,0.071044921875,-0.103271484375,-0.59912109375,0.24819999999999998
1.1145038167938932,1.9389312977099236,-0.366412213740458,0.065673828125,-0.107421875,-0.590087890625,0.24989999999999998
1.1145038167938932,1.8473282442748091,-0.183206106870229,0.072021484375,-0.109130859375,-0.5888671875,0.2516
1.2061068702290076,1.9236641221374047,-0.22900763358778625,0.0693359375,-0.11279296875,-0.587890625,0.25329999999999997
1.4045801526717556,1.9389312977099236,-0.16793893129770993,0.072998046875,-0.1064453125,-0.585693359375,0.255
1.1145038167938932,1.8473282442748091,-0.3053435114503817,0.070556640625,-0.110595703125,-0.587890625,0.2567
1.450381679389313,1.8015267175572518,-0.21374045801526717,0.064453125,-0.101318359375,-0.59375,0.25839999999999996
1.3587786259541985,1.9236641221374047,-0.5801526717557252,0.06884765625,-0.105224609375,-0.591552734375,0.2601
1.2213740458015268,1.8625954198473282,-0.5190839694656488,0.0634765625,-0.10400390625,-0.59423828125,0.2618
1.3893129770992367,1.8473282442748091,-0.6106870229007634,0.072265625,-0.103515625,-0.59228515625,0.2635
1.4351145038167938,1.9694656488549618,-0.5648854961832062,0.069580078125,-0.103759765625,-0.5966796875,0.2652
1.5267175572519085,1.8015267175572518,-0.8091603053435115,0.068115234375,-0.103515625,-0.5947265625,0.26689999999999997
1.618320610687023,1.9694656488549618,-0.7175572519083969,0.07177734375,-0.104736328125,-0.59033203125,0.2686
1.3435114503816794,1.9694656488549618,-0.7938931297709924,0.070068359375,-0.103515625,-0.58837890625,0.2703
1.6488549618320612,1.8625954198473282,-0.6717557251908397,0.068359375,-0.110107421875,-0.59130859375,0.27199999999999996
1.465648854961832,1.7251908396946565,-0.9007633587786259,0.06640625,-0.10009765625,-0.59521484375,0.2737
1.5419847328244274,1.6641221374045803,-0.8549618320610687,0.0673828125,-0.103759765625,-0.593994140625,0.2754
1.633587786259542,1.7709923664122138,-0.8396946564885496,0.06884765625,-0.1064453125,-0.598388671875,0.27709999999999996
1.7251908396946565,1.9541984732824427,-0.8396946564885496,0.0693359375,-0.10546875,-0.597900390625,0.2788
1.9083969465648856,1.7404580152671756,-0.9465648854961832,0.068603515625,-0.109619140625,-0.59375,0.28049999999999997
1.8931297709923665,1.9236641221374047,-0.7786259541984732,0.0732421875,-0.111083984375,-0.5947265625,0.2822
1.8473282442748091,1.7557251908396947,-0.8396946564885496,0.0703125,-0.1044921875,-0.588623046875,0.2839
2.015267175572519,1.7099236641221374,-0.9618320610687023,0.066162109375,-0.113037109375,-0.591796875,0.28559999999999997
1.984732824427481,1.9389312977099236,-0.9770992366412213,0.070556640625,-0.109130859375,-0.5966796875,0.2873
1.83206106870229,1.8778625954198473,-0.9770992366412213,0.066650390625,-0.102294921875,-0.595703125,0.289
2.16793893129771,1.9541984732824427,-1.083969465648855,0.0693359375,-0.109375,-0.59716796875,0.29069999999999996
2.198473282442748,2.0610687022900764,-1.0229007633587786,0.07080078125,-0.1083984375,-0.591796875,0.2924
1.816793893129771,1.9541984732824427,-1.083969465648855,0.0751953125,-0.1103515625,-0.594482421875,0.2941
1.8778625954198473,1.9083969465648856,-0.9007633587786259,0.06787109375,-0.111328125,-0.59375,0.2958
1.9389312977099236,1.8015267175572518,-1.2213740458015268,0.06640625,-0.109375,-0.5947265625,0.2975
2.1068702290076335,1.9389312977099236,-1.1450381679389312,0.063232421875,-0.106201171875,-0.59521484375,0.29919999999999997
2.0,1.786259541984733,-1.2061068702290076,0.072021484375,-0.1103515625,-0.6005859375,0.3009
2.0916030534351147,2.015267175572519,-1.2213740458015268,0.072509765625,-0.107177734375,-0.593017578125,0.3026
1.7251908396946565,1.7709923664122138,-1.1450381679389312,0.06884765625,-0.10888671875,-0.59423828125,0.30429999999999996
1.9083969465648856,1.618320610687023,-1.1603053435114503,0.069091796875,-0.10693359375,-0.59716796875,0.306
1.9083969465648856,1.8778625954198473,-1.3893129770992367,0.068115234375,-0.1083984375,-0.593505859375,0.3077
1.7404580152671756,1.7404580152671756,-1.1450381679389312,0.0693359375,-0.112060546875,-0.591796875,0.3094
1.8015267175572518,1.6488549618320612,-1.282442748091603,0.066162109375,-0.107666015625,-0.595458984375,0.3111
1.5114503816793894,1.8473282442748091,-1.2366412213740459,0.07373046875,-0.11083984375,-0.591552734375,0.31279999999999997
1.3893129770992367,1.786259541984733,-1.2671755725190839,0.0732421875,-0.111083984375,-0.591064453125,0.3145
1.297709923664122,1.7404580152671756,-1.1145038167938932,0.072265625,-0.109130859375,-0.597412109375,0.3162
1.3282442748091603,1.618320610687023,-1.1297709923664123,0.069580078125,-0.11474609375,-0.592529296875,0.31789999999999996
1.1603053435114503,1.5419847328244274,-1.297709923664122,0.067626953125,-0.109130859375,-0.591064453125,0.3196
1.1603053435114503,1.6030534351145038,-1.2366412213740459,0.070068359375,-0.112548828125,-0.587158203125,0.3213
0.9312977099236641,1.5572519083969465,-1.3893129770992367,0.070556640625,-0.109375,-0.60009765625,0.323
0.8244274809160306,1.3587786259541985,-1.3282442748091603,0.068359375,-0.109375,-0.58935546875,0.3247
1.0229007633587786,1.4045801526717556,-1.4351145038167938,0.070068359375,-0.107666015625,-0.591552734375,0.32639999999999997
0.8244274809160306,1.4351145038167938,-1.1908396946564885,0.070068359375,-0.112060546875,-0.595947265625,0.3281
0.7633587786259542,1.465648854961832,-1.4961832061068703,0.065673828125,-0.106689453125,-0.593017578125,0.3298
0.6259541984732825,1.3740458015267176,-1.618320610687023,0.078369140625,-0.10205078125,-0.598876953125,0.33149999999999996
0.6106870229007634,1.450381679389313,-1.5419847328244274,0.07275390625,-0.111083984375,-0.58984375,0.3332
0.7175572519083969,1.4045801526717556,-1.450381679389313,0.0732421875,-0.111083984375,-0.595458984375,0.3349
1.0381679389312977,1.251908396946565,-1.4198473282442747,0.07373046875,-0.110107421875,-0.589599609375,0.33659999999999995
0.6870229007633588,1.297709923664122,-1.6030534351145038,0.06884765625,-0.115966796875,-0.59375,0.3383
0.9618320610687023,1.3740458015267176,-1.7709923664122138,0.068115234375,-0.10693359375,-0.59423828125,0.33999999999999997
0.916030534351145,1.1603053435114503,-1.618320610687023,0.067138671875,-0.108154296875,-0.59423828125,0.3417
1.083969465648855,1.0687022900763359,-1.5114503816793894,0.0712890625,-0.109619140625,-0.583740234375,0.3434
1.0534351145038168,1.1297709923664123,-1.5725190839694656,0.07177734375,-0.108154296875,-0.5986328125,0.34509999999999996
1.1908396946564885,0.9923664122137404,-1.6488549618320612,0.0732421875,-0.10888671875,-0.5830078125,0.3468
1.2366412213740459,0.9312977099236641,-1.633587786259542,0.073486328125,-0.1123046875,-0.5849609375,0.3485
1.282442748091603,0.9770992366412213,-1.6793893129770991,0.073486328125,-0.109619140625,-0.591552734375,0.35019999999999996
1.4351145038167938,0.7480916030534351,-1.4351145038167938,0.07470703125,-0.11279296875,-0.591796875,0.3519
1.5267175572519085,0.7786259541984732,-1.5725190839694656,0.07177734375,-0.109130859375,-0.59033203125,0.35359999999999997
1.450381679389313,0.8854961832061069,-1.5419847328244274,0.0693359375,-0.10595703125,-0.59326171875,0.3553
1.2671755725190839,0.8244274809160306,-1.3740458015267176,0.073486328125,-0.108642578125,-0.59375,0.357
1.282442748091603,0.7480916030534351,-1.6488549618320612,0.065185546875,-0.10400390625,-0.5908203125,0.35869999999999996
1.3129770992366412,0.5343511450381679,-1.7404580152671756,0.0673828125,-0.10546875,-0.58984375,0.3604
1.6488549618320612,0.7786259541984732,-1.4961832061068703,0.073974609375,-0.103759765625,-0.583251953125,0.3621
1.3740458015267176,0.8091603053435115,-1.5267175572519085,0.0751953125,-0.1015625,-0.595458984375,0.36379999999999996
1.1603053435114503,0.916030534351145,-1.3893129770992367,0.06982421875,-0.10791015625,-0.599365234375,0.3655
1.3282442748091603,0.916030534351145,-1.4809160305343512,0.0732421875,-0.106201171875,-0.59423828125,0.36719999999999997
1.1603053435114503,0.8396946564885496,-1.251908396946565,0.0732421875,-0.1083984375,-0.6025390625,0.3689
1.251908396946565,0.8244274809160306,-1.4809160305343512,0.072509765625,-0.100830078125,-0.595703125,0.3706
1.4351145038167938,0.7480916030534351,-1.7099236641221374,0.0712890625,-0.10498046875,-0.5947265625,0.37229999999999996
1.4351145038167938,0.7633587786259542,-1.6641221374045803,0.072998046875,-0.10595703125,-0.600830078125,0.374
1.3587786259541985,0.6412213740458015,-1.465648854961832,0.0712890625,-0.102294921875,-0.59033203125,0.3757
1.3587786259541985,0.5801526717557252,-1.6030534351145038,0.072265625,-0.112060546875,-0.595703125,0.37739999999999996
1.5419847328244274,0.5648854961832062,-1.5877862595419847,0.069091796875,-0.109619140625,-0.593017578125,0.3791
1.282442748091603,0.5038167938931297,-1.7404580152671756,0.0751953125,-0.105712890625,-0.596923828125,0.38079999999999997
1.3435114503816794,0.366412213740458,-1.7557251908396947,0.0693359375,-0.104736328125,-0.5966796875,0.38249999999999995
1.3893129770992367,0.2595419847328244,-1.6641221374045803,0.07470703125,-0.108154296875,-0.597412109375,0.3842
1.5419847328244274,0.2900763358778626,-1.7557251908396947,0.068359375,-0.105712890625,-0.590576171875,0.38589999999999997
1.4961832061068703,0.4122137404580153,-1.786259541984733,0.06982421875,-0.109619140625,-0.591796875,0.3876
1.5725190839694656,0.4122137404580153,-1.9236641221374047,0.06982421875,-0.112060546875,-0.592041015625,0.3893
1.4809160305343512,0.1984732824427481,-1.8625954198473282,0.068115234375,-0.1123046875,-0.589111328125,0.39099999999999996
1.7099236641221374,0.2595419847328244,-1.7099236641221374,0.06689453125,-0.1044921875,-0.59814453125,0.3927
1.5114503816793894,0.2748091603053435,-1.8778625954198473,0.071533203125,-0.1025390625,-0.60205078125,0.3944
1.3282442748091603,0.24427480916030533,-1.7251908396946565,0.072509765625,-0.10693359375,-0.59326171875,0.39609999999999995
1.1755725190839694,0.21374045801526717,-1.5267175572519085,0.069580078125,-0.10400390625,-0.598876953125,0.3978
1.282442748091603,0.21374045801526717,-1.7709923664122138,0.06884765625,-0.104248046875,-0.596923828125,0.39949999999999997
1.2213740458015268,0.3511450381679389,-1.6793893129770991,0.072021484375,-0.104248046875,-0.599853515625,0.4012
1.1450381679389312,0.16793893129770993,-1.6488549618320612,0.0693359375,-0.1103515625,-0.59912109375,0.4029
1.2061068702290076,0.2595419847328244,-1.5572519083969465,0.06787109375,-0.109375,-0.604736328125,0.40459999999999996
1.0534351145038168,0.4122137404580153,-1.618320610687023,0.076904296875,-0.1103515625,-0.5947265625,0.4063
0.9007633587786259,0.22900763358778625,-1.6641221374045803,0.06884765625,-0.10791015625,-0.585205078125,0.408
1.083969465648855,0.2900763358778626,-1.5267175572519085,0.06787109375,-0.10693359375,-0.5908203125,0.40969999999999995
1.1450381679389312,0.5190839694656488,-1.7099236641221374,0.072998046875,-0.1083984375,-0.585205078125,0.4114
0.8702290076335878,0.5648854961832062,-1.4198473282442747,0.067626953125,-0.10302734375,-0.5849609375,0.41309999999999997
0.9770992366412213,0.5038167938931297,-1.4351145038167938,0.0673828125,-0.103515625,-0.585693359375,0.4148
1.0687022900763359,0.4580152671755725,-1.3740458015267176,0.076416015625,-0.10546875,-0.5966796875,0.4165
1.2366412213740459,0.366412213740458,-1.6488549618320612,0.06591796875,-0.10986328125,-0.592041015625,0.41819999999999996
0.9465648854961832,0.4732824427480916,-1.6641221374045803,0.070556640625,-0.109375,-0.589599609375,0.4199
1.0229007633587786,0.4732824427480916,-1.465648854961832,0.0732421875,-0.10546875,-0.59912109375,0.4216
1.2366412213740459,0.5038167938931297,-1.4045801526717556,0.07177734375,-0.10693359375,-0.59228515625,0.42329999999999995
1.1145038167938932,0.42748091603053434,-1.5114503816793894,0.072509765625,-0.10400390625,-0.590087890625,0.425
1.1755725190839694,0.5190839694656488,-1.297709923664122,0.06982421875,-0.106689453125,-0.59423828125,0.42669999999999997
1.3740458015267176,0.44274809160305345,-1.3893129770992367,0.070556640625,-0.1015625,-0.591552734375,0.4284
1.4809160305343512,0.48854961832061067,-1.2671755725190839,0.070556640625,-0.103271484375,-0.59814453125,0.4301
1.5419847328244274,0.33587786259541985,-1.4045801526717556,0.072998046875,-0.105224609375,-0.591552734375,0.43179999999999996
1.4045801526717556,0.15267175572519084,-1.1603053435114503,0.06787109375,-0.109619140625,-0.597900390625,0.4335
1.251908396946565,0.549618320610687,-1.4198473282442747,0.06884765625,-0.10791015625,-0.587890625,0.4352
1.5877862595419847,0.5190839694656488,-1.1297709923664123,0.07177734375,-0.103759765625,-0.593994140625,0.43689999999999996
1.4198473282442747,0.4122137404580153,-1.2061068702290076,0.072021484375,-0.104736328125,-0.590087890625,0.4386
1.450381679389313,0.2595419847328244,-1.251908396946565,0.071533203125,-0.109619140625,-0.58935546875,0.44029999999999997
1.6030534351145038,0.5038167938931297,-1.1755725190839694,0.06494140625,-0.107666015625,-0.600341796875,0.44199999999999995
1.5419847328244274,0.5648854961832062,-1.0534351145038168,0.068359375,-0.104736328125,-0.59716796875,0.4437
1.5877862595419847,0.5190839694656488,-1.1145038167938932,0.0712890625,-0.1025390625,-0.589599609375,0.44539999999999996
1.7099236641221374,0.5190839694656488,-1.2061068702290076,0.072021484375,-0.109375,-0.594482421875,0.4471
1.6030534351145038,0.48854961832061067,-1.0687022900763359,0.0693359375,-0.10986328125,-0.604736328125,0.4488
1.618320610687023,0.42748091603053434,-0.9923664122137404,0.072021484375,-0.1044921875,-0.59130859375,0.45049999999999996
1.816793893129771,0.2595419847328244,-1.282442748091603,0.072265625,-0.10791015625,-0.585205078125,0.4522
1.618320610687023,0.549618320610687,-1.0381679389312977,0.0703125,-0.1025390625,-0.583251953125,0.45389999999999997
1.633587786259542,0.4580152671755725,-1.0534351145038168,0.0703125,-0.104736328125,-0.59814453125,0.45559999999999995
1.7251908396946565,0.48854961832061067,-1.0381679389312977,0.068603515625,-0.10205078125,-0.5908203125,0.4573
1.786259541984733,0.2900763358778626,-1.251908396946565,0.072998046875,-0.109375,-0.59814453125,0.45899999999999996
1.7099236641221374,0.44274809160305345,-1.1450381679389312,0.073486328125,-0.108642578125,-0.604248046875,0.4607
1.9389312977099236,0.4580152671755725,-1.1297709923664123,0.070556640625,-0.10302734375,-0.59228515625,0.4624
2.015267175572519,0.4122137404580153,-1.083969465648855,0.071533203125,-0.10302734375,-0.599365234375,0.46409999999999996
1.9389312977099236,0.549618320610687,-1.1145038167938932,0.069580078125,-0.1025390625,-0.5927734375,0.4658
2.045801526717557,0.3053435114503817,-0.9770992366412213,0.065673828125,-0.10546875,-0.6015625,0.46749999999999997
1.8015267175572518,0.5648854961832062,-1.1450381679389312,0.069091796875,-0.103759765625,-0.596923828125,0.46919999999999995
1.816793893129771,0.5801526717557252,-1.1755725190839694,0.06689453125,-0.10595703125,-0.591064453125,0.4709
1.9541984732824427,0.8091603053435115,-1.0687022900763359,0.068603515625,-0.108642578125,-0.598388671875,0.47259999999999996
1.83206106870229,0.8549618320610687,-1.1603053435114503,0.06689453125,-0.107421875,-0.60009765625,0.4743
1.9083969465648856,0.7175572519083969,-1.3587786259541985,0.066162109375,-0.102783203125,-0.599853515625,0.476
1.9389312977099236,0.732824427480916,-1.2061068702290076,0.068115234375,-0.101318359375,-0.59326171875,0.47769999999999996
1.786259541984733,0.8091603053435115,-1.2671755725190839,0.0654296875,-0.110595703125,-0.598388671875,0.4794
1.816793893129771,0.8091603053435115,-1.099236641221374,0.06689453125,-0.104248046875,-0.597900390625,0.48109999999999997
1.6641221374045803,0.9618320610687023,-1.4045801526717556,0.06689453125,-0.107177734375,-0.591064453125,0.48279999999999995
1.8778625954198473,0.9770992366412213,-0.9923664122137404,0.06689453125,-0.108154296875,-0.5947265625,0.4845
1.7404580152671756,0.8396946564885496,-1.1297709923664123,0.0673828125,-0.1083984375,-0.590087890625,0.48619999999999997
1.9236641221374047,0.916030534351145,-1.0687022900763359,0.067138671875,-0.107421875,-0.593017578125,0.4879
1.7251908396946565,0.6870229007633588,-1.2061068702290076,0.066162109375,-0.10986328125,-0.6044921875,0.4896
1.8931297709923665,0.916030534351145,-1.099236641221374,0.073486328125,-0.110107421875,-0.6005859375,0.49129999999999996
1.8778625954198473,0.9007633587786259,-1.0076335877862594,0.068603515625,-0.110107421875,-0.59814453125,0.493
1.9541984732824427,0.7022900763358778,-0.9923664122137404,0.07177734375,-0.10888671875,-0.597412109375,0.4947
1.8625954198473282,0.7786259541984732,-1.1603053435114503,0.068359375,-0.112060546875,-0.59375,0.49639999999999995
1.83206106870229,0.7175572519083969,-1.1755725190839694,0.07080078125,-0.1064453125,-0.5908203125,0.4981
1.6641221374045803,0.8549618320610687,-1.3740458015267176,0.068115234375,-0.109130859375,-0.598876953125,0.49979999999999997
1.786259541984733,0.8244274809160306,-1.297709923664122,0.070068359375,-0.103759765625,-0.597412109375,0.5015
1.7709923664122138,1.0381679389312977,-1.5419847328244274,0.068603515625,-0.1044921875,-0.587890625,0.5032
1.5419847328244274,0.9312977099236641,-0.9923664122137404,0.07177734375,-0.104736328125,-0.58935546875,0.5049
1.7099236641221374,0.9007633587786259,-1.3129770992366412,0.072021484375,-0.107666015625,-0.59130859375,0.5065999999999999
1.4961832061068703,1.083969465648855,-1.4809160305343512,0.0712890625,-0.108154296875,-0.594970703125,0.5083
1.6793893129770991,0.9312977099236641,-1.5114503816793894,0.07373046875,-0.105224609375,-0.5966796875,0.51
1.5419847328244274,0.916030534351145,-1.4351145038167938,0.064453125,-0.10498046875,-0.6025390625,0.5116999999999999
1.4809160305343512,0.9312977099236641,-1.3282442748091603,0.06640625,-0.106689453125,-0.5966796875,0.5134
1.5877862595419847,0.916030534351145,-1.3282442748091603,0.064208984375,-0.1064453125,-0.598876953125,0.5151
1.6488549618320612,0.9770992366412213,-1.6946564885496183,0.068359375,-0.108154296875,-0.600830078125,0.5167999999999999
1.5419847328244274,0.9312977099236641,-1.3740458015267176,0.082763671875,-0.109130859375,-0.5927734375,0.5185
1.7404580152671756,1.0229007633587786,-1.5725190839694656,0.06689453125,-0.1025390625,-0.5947265625,0.5202
1.633587786259542,0.9923664122137404,-1.3740458015267176,0.068359375,-0.10791015625,-0.59130859375,0.5218999999999999
1.4351145038167938,0.9312977099236641,-1.4045801526717556,0.06787109375,-0.103759765625,-0.5986328125,0.5236
1.6793893129770991,1.0687022900763359,-1.4198473282442747,0.0703125,-0.104736328125,-0.59521484375,0.5253
1.7709923664122138,0.9465648854961832,-1.4809160305343512,0.065185546875,-0.105224609375,-0.59423828125,0.527
1.9694656488549618,1.1145038167938932,-1.3893129770992367,0.066162109375,-0.109619140625,-0.593017578125,0.5287
1.7099236641221374,1.0534351145038168,-1.4351145038167938,0.068603515625,-0.1025390625,-0.5947265625,0.5304
1.9541984732824427,0.8854961832061069,-1.1755725190839694,0.069091796875,-0.099853515625,-0.595703125,0.5321
1.984732824427481,0.8854961832061069,-1.3282442748091603,0.071044921875,-0.107421875,-0.59716796875,0.5337999999999999
1.6946564885496183,0.7480916030534351,-1.2366412213740459,0.0703125,-0.100830078125,-0.5927734375,0.5355
1.984732824427481,0.8702290076335878,-1.4351145038167938,0.071533203125,-0.10693359375,-0.588623046875,0.5372
2.045801526717557,0.9312977099236641,-1.465648854961832,0.068359375,-0.106689453125,-0.590576171875,0.5388999999999999
1.8625954198473282,0.8396946564885496,-1.465648854961832,0.07177734375,-0.104736328125,-0.586181640625,0.5406
1.83206106870229,0.7786259541984732,-1.3587786259541985,0.064697265625,-0.105712890625,-0.599365234375,0.5423
2.015267175572519,0.7022900763358778,-1.3893129770992367,0.0712890625,-0.1064453125,-0.595703125,0.5439999999999999
1.9694656488549618,0.916030534351145,-1.4198473282442747,0.06787109375,-0.10791015625,-0.59521484375,0.5457
1.8931297709923665,0.7633587786259542,-1.2061068702290076,0.06689453125,-0.110107421875,-0.6025390625,0.5474
1.8625954198473282,0.7786259541984732,-1.3740458015267176,0.065185546875,-0.10693359375,-0.5947265625,0.5490999999999999
1.6641221374045803,1.0687022900763359,-1.2061068702290076,0.06591796875,-0.10986328125,-0.602783203125,0.5508
1.5877862595419847,0.7938931297709924,-1.0229007633587786,0.06884765625,-0.104736328125,-0.594482421875,0.5525
1.633587786259542,1.083969465648855,-1.2213740458015268,0.06591796875,-0.104736328125,-0.601318359375,0.5541999999999999
1.465648854961832,1.0381679389312977,-1.3893129770992367,0.066162109375,-0.10595703125,-0.60009765625,0.5559
1.3893129770992367,1.0534351145038168,-1.0687022900763359,0.07080078125,-0.11328125,-0.59375,0.5576
1.4045801526717556,1.1450381679389312,-1.3435114503816794,0.063720703125,-0.110107421875,-0.595947265625,0.5593
1.251908396946565,1.0381679389312977,-1.5725190839694656,0.068359375,-0.106689453125,-0.600341796875,0.5609999999999999
1.3740458015267176,1.0076335877862594,-1.3893129770992367,0.06689453125,-0.11083984375,-0.600830078125,0.5627
1.3435114503816794,0.8702290076335878,-1.3435114503816794,0.06689453125,-0.107421875,-0.594970703125,0.5644
1.1145038167938932,1.1297709923664123,-1.465648854961832,0.066162109375,-0.107666015625,-0.594970703125,0.5660999999999999
1.3282442748091603,1.0534351145038168,-1.4351145038167938,0.06640625,-0.106201171875,-0.59521484375,0.5678
1.1603053435114503,1.1297709923664123,-1.4809160305343512,0.0693359375,-0.103759765625,-0.586669921875,0.5695
1.2671755725190839,1.1603053435114503,-1.5267175572519085,0.07177734375,-0.105712890625,-0.59130859375,0.5711999999999999
1.3129770992366412,0.9770992366412213,-1.465648854961832,0.069091796875,-0.106689453125,-0.59521484375,0.5729
1.3282442748091603,1.1297709923664123,-1.4198473282442747,0.06689453125,-0.10400390625,-0.600830078125,0.5746
1.1450381679389312,1.251908396946565,-1.3129770992366412,0.07177734375,-0.10546875,-0.593505859375,0.5762999999999999
1.4809160305343512,1.0076335877862594,-1.3587786259541985,0.068359375,-0.110595703125,-0.595703125,0.578
1.2671755725190839,1.1603053435114503,-1.4198473282442747,0.069580078125,-0.108642578125,-0.60595703125,0.5797
1.0534351145038168,1.2366412213740459,-1.6030534351145038,0.067626953125,-0.10498046875,-0.599609375,0.5813999999999999
1.3129770992366412,1.3893129770992367,-1.2671755725190839,0.0673828125,-0.10400390625,-0.59375,0.5831
1.465648854961832,1.2671755725190839,-1.2213740458015268,0.07421875,-0.107666015625,-0.59521484375,0.5848
1.465648854961832,1.251908396946565,-1.3587786259541985,0.06884765625,-0.107421875,-0.597900390625,0.5865
1.2366412213740459,1.4045801526717556,-1.4809160305343512,0.066162109375,-0.105224609375,-0.591796875,0.5882
1.251908396946565,1.0229007633587786,-1.4045801526717556,0.0654296875,-0.107666015625,-0.597412109375,0.5899
1.3282442748091603,1.1755725190839694,-1.282442748091603,0.063232421875,-0.105224609375,-0.595947265625,0.5916
1.3435114503816794,1.297709923664122,-1.3282442748091603,0.065185546875,-0.103759765625,-0.597412109375,0.5932999999999999
1.3129770992366412,1.099236641221374,-1.3129770992366412,0.07177734375,-0.104248046875,-0.59814453125,0.595
1.6641221374045803,1.297709923664122,-1.4198473282442747,0.06787109375,-0.10888671875,-0.6015625,0.5967
1.8015267175572518,1.3893129770992367,-1.3587786259541985,0.072509765625,-0.104248046875,-0.593994140625,0.5983999999999999
1.6641221374045803,0.9465648854961832,-1.3893129770992367,0.06982421875,-0.103271484375,-0.585693359375,0.6001
1.6946564885496183,0.9465648854961832,-1.3893129770992367,0.07080078125,-0.10400390625,-0.59814453125,0.6018
2.030534351145038,1.0381679389312977,-1.4198473282442747,0.066162109375,-0.100830078125,-0.591796875,0.6034999999999999
1.984732824427481,1.4198473282442747,-1.4198473282442747,0.0693359375,-0.104736328125,-0.5927734375,0.6052
2.16793893129771,1.2213740458015268,-1.3893129770992367,0.0703125,-0.107666015625,-0.598876953125,0.6069
2.198473282442748,1.0687022900763359,-1.2366412213740459,0.063232421875,-0.106689453125,-0.595947265625,0.6085999999999999
2.1068702290076335,1.083969465648855,-1.297709923664122,0.066162109375,-0.104248046875,-0.60302734375,0.6103
2.2442748091603053,1.083969465648855,-1.3129770992366412,0.065185546875,-0.106201171875,-0.589111328125,0.612
2.0763358778625953,1.099236641221374,-1.3129770992366412,0.06396484375,-0.110107421875,-0.598388671875,0.6136999999999999
2.0,1.297709923664122,-1.2213740458015268,0.06591796875,-0.104736328125,-0.591552734375,0.6154
2.4427480916030535,1.1603053435114503,-1.251908396946565,0.068115234375,-0.107421875,-0.588134765625,0.6171
2.3053435114503817,1.2213740458015268,-1.2671755725190839,0.0712890625,-0.104736328125,-0.5966796875,0.6188
2.0610687022900764,1.1755725190839694,-1.5725190839694656,0.06591796875,-0.106201171875,-0.596435546875,0.6204999999999999
2.2748091603053435,1.2213740458015268,-1.4351145038167938,0.06494140625,-0.110595703125,-0.600830078125,0.6222
2.1068702290076335,1.3435114503816794,-1.3435114503816794,0.070556640625,-0.107421875,-0.593017578125,0.6239
2.0916030534351147,1.1908396946564885,-1.1908396946564885,0.06884765625,-0.10791015625,-0.592529296875,0.6255999999999999
2.1374045801526718,1.1450381679389312,-1.4045801526717556,0.068603515625,-0.10595703125,-0.597900390625,0.6273
1.9389312977099236,1.099236641221374,-1.3282442748091603,0.068603515625,-0.106689453125,-0.597412109375,0.629
1.8015267175572518,1.1450381679389312,-1.5267175572519085,0.0673828125,-0.112548828125,-0.60302734375,0.6306999999999999
1.6641221374045803,1.2061068702290076,-1.2366412213740459,0.0712890625,-0.111572265625,-0.594482421875,0.6324
1.633587786259542,1.2213740458015268,-1.3740458015267176,0.067138671875,-0.105712890625,-0.593017578125,0.6341
1.5572519083969465,1.2366412213740459,-1.3587786259541985,0.070068359375,-0.1103515625,-0.597412109375,0.6357999999999999
1.0229007633587786,1.2366412213740459,-1.633587786259542,0.062744140625,-0.10693359375,-0.60302734375,0.6375
1.0229007633587786,1.2366412213740459,-1.4045801526717556,0.06640625,-0.10888671875,-0.598388671875,0.6392
1.0381679389312977,1.2213740458015268,-1.2671755725190839,0.067138671875,-0.10595703125,-0.58935546875,0.6408999999999999
0.9312977099236641,1.1755725190839694,-1.1755725190839694,0.0654296875,-0.112548828125,-0.6015625,0.6426
0.7480916030534351,1.1755725190839694,-1.465648854961832,0.068359375,-0.104248046875,-0.604736328125,0.6443
0.7786259541984732,1.3282442748091603,-1.3129770992366412,0.06884765625,-0.11181640625,-0.59033203125,0.646
0.48854961832061067,1.3740458015267176,-1.4045801526717556,0.06787109375,-0.109130859375,-0.591552734375,0.6476999999999999
0.549618320610687,1.4351145038167938,-1.3893129770992367,0.07373046875,-0.10986328125,-0.59228515625,0.6494
0.6412213740458015,1.3740458015267176,-1.6488549618320612,0.0693359375,-0.107421875,-0.5947265625,0.6511
0.32061068702290074,1.1755725190839694,-1.5877862595419847,0.06884765625,-0.111572265625,-0.601318359375,0.6527999999999999
0.2748091603053435,1.1603053435114503,-1.5267175572519085,0.06494140625,-0.112548828125,-0.601806640625,0.6545
0.2748091603053435,1.0229007633587786,-1.618320610687023,0.0654296875,-0.114501953125,-0.599365234375,0.6562
0.12213740458015267,1.4351145038167938,-1.9236641221374047,0.06787109375,-0.110107421875,-0.6005859375,0.6578999999999999
0.24427480916030533,1.282442748091603,-1.5725190839694656,0.0703125,-0.10498046875,-0.58984375,0.6596
0.04580152671755725,0.9923664122137404,-1.5877862595419847,0.0703125,-0.10693359375,-0.593994140625,0.6613
0.07633587786259542,1.2213740458015268,-1.6641221374045803,0.06591796875,-0.10595703125,-0.5849609375,0.6629999999999999
0.183206106870229,1.1755725190839694,-1.6793893129770991,0.0693359375,-0.10986328125,-0.59228515625,0.6647
0.4122137404580153,1.1145038167938932,-1.618320610687023,0.07177734375,-0.11181640625,-0.5908203125,0.6664
0.2595419847328244,1.282442748091603,-1.633587786259542,0.070068359375,-0.106689453125,-0.5888671875,0.6680999999999999
0.2900763358778626,1.282442748091603,-1.5114503816793894,0.070068359375,-0.110107421875,-0.59814453125,0.6698
0.4122137404580153,1.0381679389312977,-1.6793893129770991,0.06787109375,-0.10400390625,-0.59375,0.6715
0.48854961832061067,1.0076335877862594,-1.5419847328244274,0.071044921875,-0.105224609375,-0.59619140625,0.6731999999999999
0.5038167938931297,0.9770992366412213,-1.6793893129770991,0.072509765625,-0.1064453125,-0.59130859375,0.6748999999999999
0.6717557251908397,1.099236641221374,-1.4961832061068703,0.06591796875,-0.109619140625,-0.598876953125,0.6766
0.8854961832061069,1.1145038167938932,-1.6488549618320612,0.0673828125,-0.11181640625,-0.587890625,0.6783
0.9923664122137404,1.083969465648855,-1.465648854961832,0.06982421875,-0.1044921875,-0.590576171875,0.6799999999999999
0.9465648854961832,1.0687022900763359,-1.5114503816793894,0.06591796875,-0.099853515625,-0.59228515625,0.6817
0.9618320610687023,0.8091603053435115,-1.5114503816793894,0.065673828125,-0.1015625,-0.601806640625,0.6834
1.2671755725190839,1.0687022900763359,-1.6488549618320612,0.06640625,-0.105224609375,-0.595458984375,0.6850999999999999
1.2671755725190839,1.1908396946564885,-1.5419847328244274,0.070556640625,-0.103515625,-0.59228515625,0.6868
1.0687022900763359,0.8244274809160306,-1.4198473282442747,0.073486328125,-0.105224609375,-0.59423828125,0.6885
1.4198473282442747,1.1145038167938932,-1.3893129770992367,0.068359375,-0.10546875,-0.593017578125,0.6901999999999999
1.6030534351145038,0.9618320610687023,-1.4045801526717556,0.071533203125,-0.104736328125,-0.58935546875,0.6919
1.5419847328244274,0.9465648854961832,-1.2061068702290076,0.071044921875,-0.1064453125,-0.5927734375,0.6936
1.4198473282442747,1.0534351145038168,-1.3893129770992367,0.06640625,-0.106689453125,-0.594482421875,0.6952999999999999
1.4351145038167938,1.0229007633587786,-1.1755725190839694,0.073974609375,-0.1015625,-0.59716796875,0.697
1.4045801526717556,1.0229007633587786,-1.5114503816793894,0.072509765625,-0.10302734375,-0.595947265625,0.6987
1.3435114503816794,1.0534351145038168,-1.1755725190839694,0.065185546875,-0.1025390625,-0.598388671875,0.7003999999999999
1.450381679389313,1.099236641221374,-1.2213740458015268,0.075927734375,-0.1083984375,-0.586669921875,0.7021
1.4961832061068703,1.1603053435114503,-1.0381679389312977,0.0693359375,-0.103271484375,-0.59619140625,0.7038
1.6946564885496183,1.2671755725190839,-1.1450381679389312,0.072265625,-0.10205078125,-0.605712890625,0.7055
1.3435114503816794,0.9770992366412213,-0.9465648854961832,0.07421875,-0.101806640625,-0.600341796875,0.7071999999999999
1.4961832061068703,1.1145038167938932,-0.9312977099236641,0.064697265625,-0.112060546875,-0.59521484375,0.7089
1.450381679389313,1.2671755725190839,-0.9923664122137404,0.068359375,-0.1064453125,-0.59375,0.7106
1.5572519083969465,1.099236641221374,-1.2061068702290076,0.0673828125,-0.109619140625,-0.594970703125,0.7122999999999999
1.3740458015267176,1.1297709923664123,-0.9770992366412213,0.071533203125,-0.10595703125,-0.593017578125,0.714
1.1450381679389312,1.2061068702290076,-0.9770992366412213,0.0673828125,-0.11328125,-0.593994140625,0.7157
1.0076335877862594,1.297709923664122,-0.9923664122137404,0.069091796875,-0.11181640625,-0.599609375,0.7173999999999999
1.099236641221374,1.282442748091603,-0.9007633587786259,0.067138671875,-0.107421875,-0.59619140625,0.7191
0.5954198473282443,1.1297709923664123,-0.7175572519083969,0.06689453125,-0.10791015625,-0.594482421875,0.7208
0.8091603053435115,1.251908396946565,-0.9312977099236641,0.068115234375,-0.111083984375,-0.590576171875,0.7224999999999999
0.916030534351145,1.2366412213740459,-0.9007633587786259,0.064208984375,-0.111083984375,-0.60009765625,0.7242
0.7022900763358778,1.099236641221374,-0.9618320610687023,0.071044921875,-0.10595703125,-0.589599609375,0.7259
0.7633587786259542,1.2671755725190839,-0.9770992366412213,0.072021484375,-0.107421875,-0.592529296875,0.7275999999999999
0.8549618320610687,1.1908396946564885,-0.8396946564885496,0.06884765625,-0.111328125,-0.595703125,0.7293
0.6564885496183206,1.2213740458015268,-0.916030534351145,0.0693359375,-0.104736328125,-0.589111328125,0.731
0.7175572519083969,1.3282442748091603,-1.0076335877862594,0.067138671875,-0.10400390625,-0.6005859375,0.7326999999999999
0.7786259541984732,1.083969465648855,-0.8702290076335878,0.072998046875,-0.108642578125,-0.5947265625,0.7343999999999999
0.6106870229007634,1.3129770992366412,-1.0229007633587786,0.065673828125,-0.112548828125,-0.597412109375,0.7361
0.9465648854961832,1.297709923664122,-0.8244274809160306,0.062255859375,-0.1083984375,-0.59228515625,0.7378
1.1145038167938932,1.1145038167938932,-0.8854961832061069,0.0615234375,-0.111328125,-0.587890625,0.7394999999999999
0.7633587786259542,1.099236641221374,-0.8549618320610687,0.064208984375,-0.111572265625,-0.59033203125,0.7412
0.8549618320610687,1.251908396946565,-0.7786259541984732,0.067138671875,-0.110595703125,-0.594970703125,0.7429
0.916030534351145,1.083969465648855,-0.732824427480916,0.068115234375,-0.10791015625,-0.59814453125,0.7445999999999999
0.6870229007633588,1.1603053435114503,-0.6870229007633588,0.067626953125,-0.10791015625,-0.587646484375,0.7463
0.6564885496183206,1.2213740458015268,-0.7175572519083969,0.070068359375,-0.1083984375,-0.59521484375,0.748
0.8702290076335878,1.0687022900763359,-0.549618320610687,0.0693359375,-0.1123046875,-0.592529296875,0.7496999999999999
0.8854961832061069,0.8549618320610687,-0.48854961832061067,0.068359375,-0.10546875,-0.5859375,0.7514
1.0381679389312977,0.9312977099236641,-0.5648854961832062,0.066650390625,-0.10693359375,-0.591796875,0.7531
0.9007633587786259,0.916030534351145,-0.33587786259541985,0.0712890625,-0.107666015625,-0.5966796875,0.7547999999999999
1.0381679389312977,0.7786259541984732,-0.2748091603053435,0.073486328125,-0.10498046875,-0.590087890625,0.7565
1.4961832061068703,0.7938931297709924,-0.030534351145038167,0.068603515625,-0.107177734375,-0.5947265625,0.7582
1.465648854961832,0.6106870229007634,-0.21374045801526717,0.068115234375,-0.108642578125,-0.59033203125,0.7598999999999999
1.633587786259542,0.9923664122137404,-0.32061068702290074,0.06982421875,-0.108642578125,-0.5947265625,0.7615999999999999
1.4961832061068703,0.7175572519083969,-0.3053435114503817,0.068603515625,-0.109375,-0.593017578125,0.7633
1.7557251908396947,0.8244274809160306,-0.33587786259541985,0.067138671875,-0.108154296875,-0.59521484375,0.7649999999999999
2.122137404580153,0.916030534351145,-0.32061068702290074,0.06591796875,-0.103515625,-0.598876953125,0.7666999999999999
1.9236641221374047,0.7633587786259542,-0.22900763358778625,0.06982421875,-0.104736328125,-0.59326171875,0.7684
2.0,0.4732824427480916,-0.0916030534351145,0.070556640625,-0.103759765625,-0.59521484375,0.7701
2.122137404580153,0.5648854961832062,-0.24427480916030533,0.072998046875,-0.107666015625,-0.588623046875,0.7717999999999999
2.045801526717557,0.6717557251908397,-0.22900763358778625,0.06591796875,-0.11181640625,-0.590576171875,0.7735
2.0763358778625953,0.6106870229007634,-0.1984732824427481,0.0693359375,-0.105224609375,-0.605712890625,0.7752
2.16793893129771,0.6717557251908397,-0.3053435114503817,0.06884765625,-0.106689453125,-0.593505859375,0.7768999999999999
2.015267175572519,0.6259541984732825,-0.3053435114503817,0.072998046875,-0.103759765625,-0.60546875,0.7786
2.0916030534351147,0.7480916030534351,-0.4580152671755725,0.068603515625,-0.10888671875,-0.59375,0.7803
1.8473282442748091,0.6106870229007634,-0.32061068702290074,0.062744140625,-0.103515625,-0.591064453125,0.7819999999999999
1.9694656488549618,0.6259541984732825,-0.3053435114503817,0.0615234375,-0.103271484375,-0.58984375,0.7837
2.045801526717557,0.8702290076335878,-0.4732824427480916,0.058837890625,-0.10693359375,-0.594482421875,0.7854
2.122137404580153,1.0076335877862594,-0.4732824427480916,0.062744140625,-0.10205078125,-0.60595703125,0.7870999999999999
1.9694656488549618,0.9923664122137404,-0.5343511450381679,0.072021484375,-0.09765625,-0.59765625,0.7888
1.9083969465648856,1.1450381679389312,-0.22900763358778625,0.06884765625,-0.100830078125,-0.597412109375,0.7905
1.8931297709923665,1.083969465648855,-0.3511450381679389,0.066162109375,-0.110595703125,-0.591552734375,0.7921999999999999
2.015267175572519,1.2213740458015268,-0.549618320610687,0.067138671875,-0.105224609375,-0.58837890625,0.7938999999999999
1.984732824427481,1.1297709923664123,-0.6870229007633588,0.066162109375,-0.105712890625,-0.583984375,0.7956
1.6793893129770991,1.297709923664122,-0.32061068702290074,0.07275390625,-0.10498046875,-0.60205078125,0.7973
1.9236641221374047,1.1603053435114503,-0.6259541984732825,0.06787109375,-0.1083984375,-0.590087890625,0.7989999999999999
1.9389312977099236,1.1603053435114503,-0.7175572519083969,0.06787109375,-0.106689453125,-0.59033203125,0.8007
1.5725190839694656,1.2366412213740459,-0.5801526717557252,0.068603515625,-0.103759765625,-0.592529296875,0.8024
1.618320610687023,1.1755725190839694,-0.8396946564885496,0.072265625,-0.106201171875,-0.5908203125,0.8040999999999999
1.8015267175572518,1.2671755725190839,-0.916030534351145,0.07080078125,-0.107666015625,-0.59375,0.8058
1.5572519083969465,1.465648854961832,-0.8396946564885496,0.0693359375,-0.107421875,-0.590087890625,0.8075
1.4351145038167938,1.1908396946564885,-1.2366412213740459,0.07421875,-0.112548828125,-0.590576171875,0.8091999999999999
1.5267175572519085,1.083969465648855,-0.9618320610687023,0.070556640625,-0.107666015625,-0.5986328125,0.8109
1.5572519083969465,1.1297709923664123,-0.9618320610687023,0.0703125,-0.107421875,-0.595947265625,0.8126
1.450381679389313,1.251908396946565,-1.251908396946565,0.070068359375,-0.10693359375,-0.5859375,0.8142999999999999
1.5419847328244274,1.1145038167938932,-1.2213740458015268,0.072021484375,-0.104736328125,-0.59765625,0.816
1.6641221374045803,1.1908396946564885,-1.3129770992366412,0.07373046875,-0.106201171875,-0.59423828125,0.8177
1.5419847328244274,0.8702290076335878,-1.1297709923664123,0.0703125,-0.10546875,-0.591796875,0.8193999999999999
1.5725190839694656,1.099236641221374,-1.251908396946565,0.07470703125,-0.110595703125,-0.59423828125,0.8210999999999999
1.5114503816793894,1.1908396946564885,-1.1603053435114503,0.073486328125,-0.106689453125,-0.6005859375,0.8228
1.465648854961832,1.1297709923664123,-1.3282442748091603,0.0732421875,-0.10302734375,-0.59375,0.8244999999999999
1.4198473282442747,0.9923664122137404,-1.297709923664122,0.076904296875,-0.107421875,-0.592041015625,0.8261999999999999
1.297709923664122,0.8702290076335878,-1.099236641221374,0.075927734375,-0.10546875,-0.599853515625,0.8279
1.3587786259541985,1.0687022900763359,-1.4198473282442747,0.0712890625,-0.113037109375,-0.5927734375,0.8296
1.3129770992366412,0.8702290076335878,-1.2366412213740459,0.070068359375,-0.111328125,-0.592041015625,0.8312999999999999
1.251908396946565,1.1297709923664123,-1.4198473282442747,0.072021484375,-0.105224609375,-0.59326171875,0.833
1.3435114503816794,1.251908396946565,-1.2213740458015268,0.07275390625,-0.105712890625,-0.590087890625,0.8347
1.2671755725190839,0.9312977099236641,-1.2366412213740459,0.0703125,-0.108642578125,-0.597412109375,0.8363999999999999
1.083969465648855,0.9007633587786259,-1.5419847328244274,0.0732421875,-0.10400390625,-0.591796875,0.8381
1.1603053435114503,0.7633587786259542,-1.6030534351145038,0.0751953125,-0.1083984375,-0.591796875,0.8398
0.9923664122137404,0.9465648854961832,-1.5114503816793894,0.07666015625,-0.1025390625,-0.59716796875,0.8414999999999999
1.0076335877862594,0.9770992366412213,-1.5877862595419847,0.066162109375,-0.1064453125,-0.589111328125,0.8432
1.0229007633587786,0.9618320610687023,-1.4809160305343512,0.0693359375,-0.101806640625,-0.593017578125,0.8449
1.083969465648855,0.9312977099236641,-1.4351145038167938,0.0732421875,-0.1025390625,-0.595458984375,0.8465999999999999
0.8396946564885496,0.8854961832061069,-1.450381679389313,0.071044921875,-0.110107421875,-0.59814453125,0.8482999999999999
0.8244274809160306,0.9770992366412213,-1.6793893129770991,0.07470703125,-0.104736328125,-0.592041015625,0.85
0.7175572519083969,1.2671755725190839,-1.4961832061068703,0.07470703125,-0.104736328125,-0.58837890625,0.8516999999999999
0.9312977099236641,1.2061068702290076,-1.5267175572519085,0.0732421875,-0.10302734375,-0.59375,0.8533999999999999
0.9770992366412213,1.099236641221374,-1.4198473282442747,0.0673828125,-0.11083984375,-0.595703125,0.8551
0.9312977099236641,1.1908396946564885,-1.5877862595419847,0.0703125,-0.107177734375,-0.604248046875,0.8568
0.916030534351145,1.4809160305343512,-1.3893129770992367,0.072021484375,-0.10498046875,-0.59814453125,0.8584999999999999
1.1450381679389312,1.3129770992366412,-1.4809160305343512,0.07080078125,-0.107177734375,-0.5986328125,0.8602
0.8854961832061069,1.5114503816793894,-1.2671755725190839,0.07177734375,-0.1044921875,-0.5966796875,0.8619
1.083969465648855,1.4045801526717556,-1.5267175572519085,0.07470703125,-0.108154296875,-0.60302734375,0.8635999999999999
1.0076335877862594,1.3282442748091603,-1.618320610687023,0.07421875,-0.1064453125,-0.60009765625,0.8653
0.8244274809160306,1.4198473282442747,-1.5725190839694656,0.071044921875,-0.10498046875,-0.591796875,0.867
1.2366412213740459,1.3740458015267176,-1.3893129770992367,0.0712890625,-0.10693359375,-0.595703125,0.8686999999999999
1.1908396946564885,1.4045801526717556,-1.4809160305343512,0.0673828125,-0.10693359375,-0.595947265625,0.8704
1.099236641221374,1.2061068702290076,-1.6488549618320612,0.072998046875,-0.104248046875,-0.600830078125,0.8721
1.1908396946564885,1.2366412213740459,-1.633587786259542,0.072509765625,-0.108154296875,-0.595458984375,0.8737999999999999
1.282442748091603,1.2366412213740459,-1.5572519083969465,0.068359375,-0.108154296875,-0.595703125,0.8755
1.5419847328244274,1.251908396946565,-1.5877862595419847,0.064208984375,-0.10595703125,-0.59130859375,0.8772
1.3893129770992367,1.1908396946564885,-1.297709923664122,0.066162109375,-0.099609375,-0.598388671875,0.8788999999999999
1.3893129770992367,1.2366412213740459,-1.6030534351145038,0.071533203125,-0.106201171875,-0.589599609375,0.8805999999999999
1.2671755725190839,1.297709923664122,-1.4961832061068703,0.0673828125,-0.107177734375,-0.594970703125,0.8823
1.251908396946565,1.251908396946565,-1.450381679389313,0.0712890625,-0.111572265625,-0.59521484375,0.8839999999999999
1.2061068702290076,1.3740458015267176,-1.4198473282442747,0.0654296875,-0.109375,-0.599853515625,0.8856999999999999
1.4809160305343512,1.3129770992366412,-1.7099236641221374,0.074462890625,-0.106689453125,-0.59765625,0.8874
1.282442748091603,1.2061068702290076,-1.4351145038167938,0.0703125,-0.1064453125,-0.597412109375,0.8891
1.2366412213740459,1.3282442748091603,-1.4961832061068703,0.0732421875,-0.109619140625,-0.59814453125,0.8907999999999999
1.282442748091603,1.4961832061068703,-1.4198473282442747,0.069580078125,-0.109130859375,-0.59326171875,0.8925
1.2061068702290076,1.4809160305343512,-1.633587786259542,0.07177734375,-0.107177734375,-0.5947265625,0.8942
1.4045801526717556,1.4198473282442747,-1.4809160305343512,0.073486328125,-0.106689453125,-0.591796875,0.8958999999999999
1.5267175572519085,1.5114503816793894,-1.6946564885496183,0.067626953125,-0.10791015625,-0.59912109375,0.8976
1.3740458015267176,1.4809160305343512,-1.3435114503816794,0.070068359375,-0.107177734375,-0.595458984375,0.8993
1.1908396946564885,1.633587786259542,-1.4198473282442747,0.070068359375,-0.101806640625,-0.599609375,0.9009999999999999
1.2671755725190839,1.450381679389313,-1.4351145038167938,0.0693359375,-0.110107421875,-0.58837890625,0.9027
1.3282442748091603,1.4961832061068703,-1.450381679389313,0.067626953125,-0.103759765625,-0.594970703125,0.9044
1.4961832061068703,1.5419847328244274,-1.297709923664122,0.070068359375,-0.1025390625,-0.595947265625,0.9060999999999999
1.3587786259541985,1.6793893129770991,-1.5572519083969465,0.072509765625,-0.10302734375,-0.5927734375,0.9077999999999999
1.251908396946565,1.4198473282442747,-1.297709923664122,0.075439453125,-0.10546875,-0.593017578125,0.9095
1.4351145038167938,1.465648854961832,-1.3282442748091603,0.0673828125,-0.1064453125,-0.592529296875,0.9111999999999999
1.251908396946565,1.3587786259541985,-1.3129770992366412,0.071533203125,-0.10595703125,-0.592529296875,0.9128999999999999
1.3435114503816794,1.4198473282442747,-1.4809160305343512,0.07373046875,-0.110107421875,-0.59521484375,0.9146
1.6641221374045803,1.450381679389313,-1.3435114503816794,0.06982421875,-0.108642578125,-0.5947265625,0.9163
1.297709923664122,1.5877862595419847,-1.4351145038167938,0.066650390625,-0.106201171875,-0.592529296875,0.9179999999999999
1.1297709923664123,1.3129770992366412,-1.251908396946565,0.07080078125,-0.103759765625,-0.595947265625,0.9197
1.2366412213740459,1.3435114503816794,-1.4351145038167938,0.069091796875,-0.107177734375,-0.6015625,0.9214
1.465648854961832,1.3129770992366412,-1.2366412213740459,0.07421875,-0.108642578125,-0.60009765625,0.9230999999999999
1.297709923664122,1.1297709923664123,-1.3587786259541985,0.068115234375,-0.108154296875,-0.5986328125,0.9248
1.2061068702290076,1.2366412213740459,-1.3129770992366412,0.068115234375,-0.104248046875,-0.598388671875,0.9265
1.297709923664122,1.2213740458015268,-1.297709923664122,0.07568359375,-0.103271484375,-0.596923828125,0.9281999999999999
1.282442748091603,1.2213740458015268,-1.2671755725190839,0.072998046875,-0.1025390625,-0.599365234375,0.9299
1.2061068702290076,1.1908396946564885,-1.3129770992366412,0.070068359375,-0.10888671875,-0.59033203125,0.9316
1.282442748091603,1.2366412213740459,-1.1603053435114503,0.0693359375,-0.102294921875,-0.595703125,0.9332999999999999
1.3740458015267176,1.3587786259541985,-1.1603053435114503,0.0673828125,-0.107666015625,-0.591796875,0.9349999999999999
1.3893129770992367,1.1450381679389312,-1.2366412213740459,0.0693359375,-0.108154296875,-0.5947265625,0.9367
1.4198473282442747,1.1755725190839694,-1.1908396946564885,0.068603515625,-0.1064453125,-0.593994140625,0.9383999999999999
1.5419847328244274,1.2671755725190839,-1.1450381679389312,0.071533203125,-0.10400390625,-0.591796875,0.9400999999999999
1.7557251908396947,1.1755725190839694,-1.1603053435114503,0.071044921875,-0.108642578125,-0.597412109375,0.9418
1.3893129770992367,1.1450381679389312,-1.1145038167938932,0.07275390625,-0.10205078125,-0.601318359375,0.9434999999999999
1.5419847328244274,1.083969465648855,-1.1908396946564885,0.072021484375,-0.103759765625,-0.5927734375,0.9451999999999999
1.6946564885496183,1.0381679389312977,-0.9465648854961832,0.072998046875,-0.101318359375,-0.597412109375,0.9469
1.786259541984733,1.1755725190839694,-1.2366412213740459,0.0712890625,-0.107421875,-0.595703125,0.9486
1.7557251908396947,0.9923664122137404,-1.282442748091603,0.071044921875,-0.109375,-0.600341796875,0.9502999999999999
1.4809160305343512,0.916030534351145,-1.3587786259541985,0.0703125,-0.1064453125,-0.598876953125,0.952
1.5267175572519085,1.0076335877862594,-0.9312977099236641,0.073486328125,-0.10498046875,-0.59228515625,0.9537
1.3740458015267176,0.9923664122137404,-1.1755725190839694,0.068115234375,-0.099365234375,-0.5986328125,0.9553999999999999
1.6488549618320612,1.0381679389312977,-0.9923664122137404,0.072509765625,-0.1064453125,-0.593994140625,0.9571
1.5725190839694656,1.2671755725190839,-1.3893129770992367,0.069091796875,-0.100830078125,-0.59423828125,0.9588
1.3435114503816794,1.1297709923664123,-1.1908396946564885,0.069091796875,-0.103515625,-0.591796875,0.9604999999999999
1.2671755725190839,0.9923664122137404,-1.2213740458015268,0.07080078125,-0.105712890625,-0.59423828125,0.9621999999999999
1.5419847328244274,0.9312977099236641,-1.1603053435114503,0.07568359375,-0.107177734375,-0.58837890625,0.9639
1.4809160305343512,1.0381679389312977,-1.282442748091603,0.069580078125,-0.10107421875,-0.591064453125,0.9655999999999999
1.282442748091603,1.1908396946564885,-1.1755725190839694,0.0703125,-0.103271484375,-0.594970703125,0.9672999999999999
1.1603053435114503,1.2671755725190839,-1.282442748091603,0.06787109375,-0.10595703125,-0.5986328125,0.969
1.3282442748091603,1.2213740458015268,-1.251908396946565,0.072021484375,-0.10546875,-0.596923828125,0.9706999999999999
0.9007633587786259,1.1755725190839694,-1.3282442748091603,0.070556640625,-0.103759765625,-0.591796875,0.9723999999999999
1.083969465648855,1.3587786259541985,-1.450381679389313,0.0693359375,-0.099853515625,-0.59326171875,0.9741
1.1603053435114503,1.3129770992366412,-1.4961832061068703,0.063720703125,-0.10400390625,-0.598388671875,0.9758
1.2213740458015268,1.297709923664122,-1.465648854961832,0.06884765625,-0.10302734375,-0.59912109375,0.9774999999999999
1.0687022900763359,1.4351145038167938,-1.6793893129770991,0.0703125,-0.105712890625,-0.59716796875,0.9792
1.1450381679389312,1.4198473282442747,-1.3893129770992367,0.074462890625,-0.105224609375,-0.59765625,0.9809
0.9923664122137404,1.3740458015267176,-1.3587786259541985,0.0712890625,-0.10498046875,-0.5888671875,0.9825999999999999
1.099236641221374,1.5572519083969465,-1.1603053435114503,0.0673828125,-0.112060546875,-0.590576171875,0.9843
1.0534351145038168,1.297709923664122,-1.450381679389313,0.065185546875,-0.109619140625,-0.59033203125,0.986
1.3740458015267176,1.3587786259541985,-1.2213740458015268,0.071533203125,-0.107666015625,-0.59423828125,0.9876999999999999
1.0687022900763359,1.465648854961832,-1.3740458015267176,0.068603515625,-0.1064453125,-0.591796875,0.9894
1.1908396946564885,1.4809160305343512,-1.1145038167938932,0.066650390625,-0.10986328125,-0.598388671875,0.9911
1.1145038167938932,1.4351145038167938,-1.2213740458015268,0.07275390625,-0.1103515625,-0.5966796875,0.9927999999999999
1.1603053435114503,1.4961832061068703,-1.1755725190839694,0.07373046875,-0.107177734375,-0.593017578125,0.9944999999999999
1.1450381679389312,1.465648854961832,-1.2061068702290076,0.07763671875,-0.103271484375,-0.5927734375,0.9962
1.2061068702290076,1.5419847328244274,-1.297709923664122,0.07275390625,-0.105712890625,-0.592041015625,0.9978999999999999
1.2671755725190839,1.450381679389313,-1.1755725190839694,0.07080078125,-0.112060546875,-0.60400390625,0.9995999999999999
1.3282442748091603,1.297709923664122,-1.1908396946564885,0.071533203125,-0.114501953125,-0.597412109375,1.0012999999999999
1.633587786259542,1.3893129770992367,-1.3282442748091603,0.069091796875,-0.104248046875,-0.58544921875,1.003
1.3740458015267176,1.450381679389313,-1.083969465648855,0.07177734375,-0.107421875,-0.5849609375,1.0047
1.251908396946565,1.2366412213740459,-1.2366412213740459,0.066650390625,-0.108642578125,-0.60009765625,1.0064
1.4961832061068703,1.3129770992366412,-1.251908396946565,0.068115234375,-0.107666015625,-0.596923828125,1.0081
1.4961832061068703,1.099236641221374,-1.282442748091603,0.06787109375,-0.10693359375,-0.593017578125,1.0098
1.3587786259541985,1.1297709923664123,-1.297709923664122,0.073974609375,-0.110595703125,-0.58837890625,1.0114999999999998
1.3587786259541985,1.3129770992366412,-1.3893129770992367,0.072509765625,-0.1103515625,-0.594970703125,1.0131999999999999
1.1908396946564885,1.083969465648855,-1.2061068702290076,0.072509765625,-0.110107421875,-0.595947265625,1.0149
1.297709923664122,1.1450381679389312,-1.2366412213740459,0.072021484375,-0.1044921875,-0.594970703125,1.0166
1.1603053435114503,1.2061068702290076,-1.1145038167938932,0.077880859375,-0.10400390625,-0.593994140625,1.0183
1.1908396946564885,1.0534351145038168,-1.1755725190839694,0.068115234375,-0.108642578125,-0.594482421875,1.02
1.1145038167938932,1.0534351145038168,-1.0687022900763359,0.07080078125,-0.10693359375,-0.595947265625,1.0217
0.9618320610687023,0.9618320610687023,-1.099236641221374,0.07080078125,-0.109619140625,-0.597900390625,1.0233999999999999
0.9923664122137404,1.0534351145038168,-1.0381679389312977,0.073486328125,-0.112060546875,-0.59423828125,1.0251
1.0381679389312977,1.2366412213740459,-1.0687022900763359,0.06396484375,-0.107666015625,-0.592041015625,1.0268
0.8549618320610687,1.1450381679389312,-1.297709923664122,0.066650390625,-0.105712890625,-0.5966796875,1.0285
0.7480916030534351,1.0534351145038168,-1.0076335877862594,0.070068359375,-0.106201171875,-0.599609375,1.0302
0.7480916030534351,1.3435114503816794,-1.1297709923664123,0.068359375,-0.1015625,-0.5908203125,1.0319
0.9923664122137404,1.3435114503816794,-0.8091603053435115,0.070068359375,-0.103515625,-0.59423828125,1.0335999999999999
0.9618320610687023,1.282442748091603,-0.9312977099236641,0.070068359375,-0.106201171875,-0.596923828125,1.0352999999999999
0.9007633587786259,1.1908396946564885,-0.9007633587786259,0.069091796875,-0.10693359375,-0.592041015625,1.037
1.0381679389312977,1.282442748091603,-1.0534351145038168,0.070068359375,-0.104736328125,-0.592041015625,1.0387
1.1297709923664123,1.2213740458015268,-0.9770992366412213,0.066162109375,-0.1015625,-0.597412109375,1.0404
0.9465648854961832,1.282442748091603,-0.8702290076335878,0.06787109375,-0.107666015625,-0.6025390625,1.0421
1.0534351145038168,1.297709923664122,-0.8854961832061069,0.06640625,-0.108154296875,-0.598876953125,1.0437999999999998
1.3129770992366412,1.4198473282442747,-0.8854961832061069,0.0712890625,-0.10693359375,-0.59619140625,1.0454999999999999
1.2366412213740459,1.5419847328244274,-0.8549618320610687,0.0673828125,-0.112548828125,-0.592529296875,1.0472
1.083969465648855,1.5572519083969465,-1.0076335877862594,0.068359375,-0.10498046875,-0.58984375,1.0489
1.2366412213740459,1.4351145038167938,-0.7480916030534351,0.06884765625,-0.1064453125,-0.591552734375,1.0506
1.2671755725190839,1.450381679389313,-0.9007633587786259,0.06494140625,-0.107421875,-0.596923828125,1.0523
1.2213740458015268,1.6946564885496183,-0.8091603053435115,0.064453125,-0.107421875,-0.594482421875,1.054
0.7938931297709924,1.3740458015267176,-0.9007633587786259,0.0712890625,-0.105712890625,-0.593994140625,1.0556999999999999
0.916030534351145,1.5419847328244274,-0.9618320610687023,0.07275390625,-0.10791015625,-0.5927734375,1.0574
0.9312977099236641,1.6030534351145038,-1.083969465648855,0.073486328125,-0.10546875,-0.59326171875,1.0591
0.8702290076335878,1.2366412213740459,-1.0687022900763359,0.072265625,-0.104736328125,-0.596435546875,1.0608
1.0534351145038168,1.5419847328244274,-1.1603053435114503,0.069580078125,-0.107421875,-0.595947265625,1.0625
1.0687022900763359,1.4351145038167938,-1.1145038167938932,0.06982421875,-0.11083984375,-0.58984375,1.0642
1.083969465648855,1.2061068702290076,-1.3893129770992367,0.069580078125,-0.1064453125,-0.59521484375,1.0658999999999998
0.9618320610687023,1.4198473282442747,-1.1755725190839694,0.069091796875,-0.107177734375,-0.58837890625,1.0675999999999999
1.297709923664122,1.4961832061068703,-1.5419847328244274,0.072998046875,-0.107666015625,-0.59765625,1.0693
1.3435114503816794,1.450381679389313,-1.3893129770992367,0.067626953125,-0.110107421875,-0.597412109375,1.071
1.3435114503816794,1.251908396946565,-1.3740458015267176,0.0703125,-0.107177734375,-0.59521484375,1.0727
1.4045801526717556,1.4351145038167938,-1.3129770992366412,0.068603515625,-0.10302734375,-0.59326171875,1.0744
1.4351145038167938,1.2671755725190839,-1.450381679389313,0.067138671875,-0.10693359375,-0.5966796875,1.0760999999999998
1.4961832061068703,1.2671755725190839,-1.5267175572519085,0.070556640625,-0.101318359375,-0.59912109375,1.0777999999999999
1.5419847328244274,1.282442748091603,-1.633587786259542,0.07080078125,-0.103271484375,-0.58837890625,1.0795
1.5267175572519085,1.4351145038167938,-1.297709923664122,0.068359375,-0.106201171875,-0.590087890625,1.0812
1.4045801526717556,1.1755725190839694,-1.4961832061068703,0.066650390625,-0.103515625,-0.592529296875,1.0829
1.7251908396946565,1.465648854961832,-1.5114503816793894,0.071533203125,-0.10791015625,-0.598388671875,1.0846
1.7251908396946565,1.3282442748091603,-1.4809160305343512,0.06689453125,-0.109130859375,-0.599365234375,1.0863
1.5419847328244274,1.2366412213740459,-1.297709923664122,0.0693359375,-0.107421875,-0.601318359375,1.0879999999999999
1.5419847328244274,1.4045801526717556,-1.3893129770992367,0.06884765625,-0.10205078125,-0.59375,1.0897
1.7404580152671756,1.3435114503816794,-1.4351145038167938,0.066650390625,-0.102294921875,-0.601318359375,1.0914
1.6946564885496183,1.465648854961832,-1.5114503816793894,0.07080078125,-0.10693359375,-0.595703125,1.0931
1.9541984732824427,1.465648854961832,-1.0381679389312977,0.06640625,-0.104736328125,-0.600830078125,1.0948
1.816793893129771,1.3587786259541985,-1.3435114503816794,0.071533203125,-0.1064453125,-0.599365234375,1.0965
2.0763358778625953,1.4961832061068703,-1.4351145038167938,0.069580078125,-0.10693359375,-0.59521484375,1.0981999999999998
1.9541984732824427,1.5114503816793894,-1.2213740458015268,0.066162109375,-0.108154296875,-0.5888671875,1.0998999999999999
1.8473282442748091,1.4198473282442747,-1.251908396946565,0.067626953125,-0.108642578125,-0.592041015625,1.1016
1.9083969465648856,1.6641221374045803,-1.282442748091603,0.067138671875,-0.103271484375,-0.591552734375,1.1033
2.0,1.5572519083969465,-1.1755725190839694,0.0625,-0.110107421875,-0.595703125,1.105
2.0610687022900764,1.6946564885496183,-1.2061068702290076,0.066650390625,-0.109375,-0.591552734375,1.1067
1.9236641221374047,1.5877862595419847,-1.0381679389312977,0.063720703125,-0.1064453125,-0.58544921875,1.1083999999999998
1.9694656488549618,1.6488549618320612,-1.3282442748091603,0.06103515625,-0.107421875,-0.593017578125,1.1100999999999999
1.6793893129770991,1.6793893129770991,-1.0381679389312977,0.069091796875,-0.10888671875,-0.594482421875,1.1118
1.5267175572519085,1.618320610687023,-0.9770992366412213,0.0712890625,-0.107421875,-0.59375,1.1135
1.4809160305343512,1.6946564885496183,-1.251908396946565,0.067138671875,-0.105712890625,-0.600341796875,1.1152
1.5419847328244274,1.816793893129771,-1.1908396946564885,0.066650390625,-0.101318359375,-0.596923828125,1.1169
1.465648854961832,1.633587786259542,-1.1755725190839694,0.066650390625,-0.10400390625,-0.597900390625,1.1186
1.2366412213740459,1.7557251908396947,-1.083969465648855,0.0673828125,-0.10791015625,-0.592529296875,1.1202999999999999
1.0534351145038168,1.5877862595419847,-0.9923664122137404,0.070556640625,-0.11083984375,-0.59326171875,1.1219999999999999
0.7938931297709924,1.7251908396946565,-1.1755725190839694,0.072998046875,-0.117431640625,-0.602783203125,1.1237
0.9923664122137404,1.5725190839694656,-1.2671755725190839,0.07373046875,-0.111572265625,-0.5986328125,1.1254
0.8702290076335878,1.4809160305343512,-1.465648854961832,0.072021484375,-0.10693359375,-0.5947265625,1.1271
0.8854961832061069,1.7251908396946565,-1.083969465648855,0.07275390625,-0.100830078125,-0.58935546875,1.1288
0.7175572519083969,1.633587786259542,-1.3129770992366412,0.07177734375,-0.1083984375,-0.584716796875,1.1304999999999998
0.5954198473282443,1.633587786259542,-1.1755725190839694,0.066650390625,-0.10791015625,-0.5908203125,1.1321999999999999
0.6412213740458015,1.5419847328244274,-1.4809160305343512,0.07373046875,-0.1015625,-0.59521484375,1.1339
0.366412213740458,1.297709923664122,-1.3129770992366412,0.07080078125,-0.109375,-0.6015625,1.1356
0.5343511450381679,1.297709923664122,-1.3435114503816794,0.065673828125,-0.10009765625,-0.59716796875,1.1373
0.5801526717557252,1.4045801526717556,-1.3282442748091603,0.068603515625,-0.106689453125,-0.59033203125,1.139
0.5954198473282443,1.2061068702290076,-1.3282442748091603,0.06640625,-0.105224609375,-0.603515625,1.1407
0.6412213740458015,1.3893129770992367,-1.2213740458015268,0.06591796875,-0.10205078125,-0.59619140625,1.1423999999999999
0.7175572519083969,1.3740458015267176,-1.3282442748091603,0.070556640625,-0.108154296875,-0.59228515625,1.1441
0.8091603053435115,1.4045801526717556,-1.083969465648855,0.07080078125,-0.104248046875,-0.59228515625,1.1458
1.099236641221374,1.3587786259541985,-1.450381679389313,0.068115234375,-0.10595703125,-0.583740234375,1.1475
0.9923664122137404,1.3129770992366412,-1.1908396946564885,0.072509765625,-0.10791015625,-0.583740234375,1.1492
1.282442748091603,1.3129770992366412,-1.1908396946564885,0.06787109375,-0.102783203125,-0.597900390625,1.1509
1.3282442748091603,1.251908396946565,-1.099236641221374,0.068359375,-0.10009765625,-0.601806640625,1.1525999999999998
1.618320610687023,1.5267175572519085,-1.1603053435114503,0.0693359375,-0.104248046875,-0.591064453125,1.1542999999999999
1.5877862595419847,1.1603053435114503,-0.9465648854961832,0.07275390625,-0.103515625,-0.59521484375,1.156
1.7709923664122138,1.2366412213740459,-1.0534351145038168,0.068115234375,-0.102294921875,-0.597900390625,1.1577
1.9236641221374047,1.282442748091603,-1.0381679389312977,0.07373046875,-0.103759765625,-0.597900390625,1.1594
2.045801526717557,1.0534351145038168,-1.0076335877862594,0.06591796875,-0.1025390625,-0.59521484375,1.1611
2.1068702290076335,1.251908396946565,-0.8244274809160306,0.0703125,-0.099365234375,-0.591064453125,1.1627999999999998
1.7099236641221374,1.3587786259541985,-0.8091603053435115,0.071044921875,-0.101318359375,-0.59619140625,1.1644999999999999
2.3053435114503817,1.2671755725190839,-0.7938931297709924,0.070556640625,-0.107421875,-0.5927734375,1.1662
2.549618320610687,1.3435114503816794,-0.9923664122137404,0.0703125,-0.10546875,-0.5986328125,1.1679
2.381679389312977,1.4045801526717556,-0.6717557251908397,0.06982421875,-0.10693359375,-0.597412109375,1.1696
2.4732824427480917,1.4198473282442747,-0.7633587786259542,0.0703125,-0.099853515625,-0.60302734375,1.1713
2.5343511450381677,1.5572519083969465,-0.5954198473282443,0.06884765625,-0.097900390625,-0.59033203125,1.173
2.3969465648854964,1.6030534351145038,-0.6564885496183206,0.067626953125,-0.107177734375,-0.5947265625,1.1746999999999999
2.6106870229007635,1.5419847328244274,-0.5343511450381679,0.067626953125,-0.10498046875,-0.602783203125,1.1764
2.6564885496183206,1.4961832061068703,-0.44274809160305345,0.069091796875,-0.10498046875,-0.597412109375,1.1781
2.732824427480916,1.4198473282442747,-0.5801526717557252,0.069091796875,-0.111572265625,-0.6025390625,1.1798
2.732824427480916,1.618320610687023,-0.6870229007633588,0.06494140625,-0.11083984375,-0.591796875,1.1815
2.381679389312977,1.450381679389313,-0.42748091603053434,0.07275390625,-0.109619140625,-0.592041015625,1.1832
2.366412213740458,1.450381679389313,-0.7175572519083969,0.070068359375,-0.1064453125,-0.6005859375,1.1848999999999998
2.2290076335877864,1.4961832061068703,-0.6564885496183206,0.0673828125,-0.1103515625,-0.595458984375,1.1865999999999999
2.2442748091603053,1.4961832061068703,-0.7175572519083969,0.07080078125,-0.1083984375,-0.592529296875,1.1883
1.984732824427481,1.4351145038167938,-0.7175572519083969,0.072265625,-0.109130859375,-0.614013671875,1.19
1.8015267175572518,1.4351145038167938,-0.7175572519083969,0.06982421875,-0.110107421875,-0.600830078125,1.1917
1.786259541984733,1.4961832061068703,-0.9465648854961832,0.07177734375,-0.105712890625,-0.595703125,1.1934
1.4961832061068703,1.2671755725190839,-0.9770992366412213,0.0693359375,-0.113525390625,-0.598876953125,1.1950999999999998
1.3435114503816794,1.1145038167938932,-0.9007633587786259,0.072021484375,-0.10888671875,-0.5966796875,1.1967999999999999
1.3282442748091603,1.099236641221374,-0.8854961832061069,0.067626953125,-0.109375,-0.602783203125,1.1985
1.2366412213740459,1.0076335877862594,-0.9618320610687023,0.072509765625,-0.10791015625,-0.604736328125,1.2002
1.1908396946564885,1.297709923664122,-1.099236641221374,0.073974609375,-0.10693359375,-0.589111328125,1.2019
1.0534351145038168,1.1755725190839694,-1.1908396946564885,0.07470703125,-0.10498046875,-0.592529296875,1.2036
0.9770992366412213,0.916030534351145,-1.2213740458015268,0.068115234375,-0.104736328125,-0.590576171875,1.2053
1.0381679389312977,1.0381679389312977,-1.2213740458015268,0.07568359375,-0.104736328125,-0.594482421875,1.2069999999999999
0.9312977099236641,0.916030534351145,-1.1297709923664123,0.073486328125,-0.1044921875,-0.59521484375,1.2086999999999999
0.9770992366412213,0.9312977099236641,-1.3893129770992367,0.071044921875,-0.107421875,-0.59423828125,1.2104
1.0229007633587786,1.0534351145038168,-1.2366412213740459,0.072509765625,-0.104248046875,-0.602783203125,1.2121
1.099236641221374,1.0076335877862594,-1.1450381679389312,0.069580078125,-0.10302734375,-0.601318359375,1.2138
0.7938931297709924,0.9312977099236641,-1.1908396946564885,0.0712890625,-0.10546875,-0.599609375,1.2155
1.1450381679389312,1.0076335877862594,-0.9770992366412213,0.071044921875,-0.10205078125,-0.601806640625,1.2171999999999998
1.4351145038167938,0.9770992366412213,-0.9312977099236641,0.071044921875,-0.104248046875,-0.594482421875,1.2188999999999999
1.0076335877862594,1.0229007633587786,-1.083969465648855,0.070068359375,-0.101806640625,-0.595458984375,1.2206
1.450381679389313,1.1603053435114503,-0.9312977099236641,0.06884765625,-0.101806640625,-0.593505859375,1.2223
1.2671755725190839,0.8702290076335878,-0.6259541984732825,0.06787109375,-0.1005859375,-0.591552734375,1.224
1.2061068702290076,0.7633587786259542,-0.6564885496183206,0.067626953125,-0.10693359375,-0.59521484375,1.2257
1.2213740458015268,1.0381679389312977,-0.6412213740458015,0.073486328125,-0.1064453125,-0.600341796875,1.2273999999999998
1.2061068702290076,0.916030534351145,-0.6412213740458015,0.067626953125,-0.108642578125,-0.58837890625,1.2290999999999999
1.3893129770992367,1.0229007633587786,-0.7175572519083969,0.0673828125,-0.10791015625,-0.595947265625,1.2308
1.2366412213740459,1.099236641221374,-0.732824427480916,0.06591796875,-0.10498046875,-0.593017578125,1.2325
1.4045801526717556,1.083969465648855,-0.4580152671755725,0.068603515625,-0.107421875,-0.59716796875,1.2342
1.3129770992366412,0.8702290076335878,-0.6259541984732825,0.0693359375,-0.105712890625,-0.591796875,1.2359
1.3435114503816794,0.7938931297709924,-0.7633587786259542,0.06640625,-0.106689453125,-0.591064453125,1.2376
1.4961832061068703,0.9770992366412213,-0.8854961832061069,0.066162109375,-0.100830078125,-0.594482421875,1.2392999999999998
1.465648854961832,0.7938931297709924,-0.7633587786259542,0.068603515625,-0.103759765625,-0.59765625,1.2409999999999999
1.3435114503816794,0.7175572519083969,-0.5648854961832062,0.068359375,-0.10888671875,-0.597412109375,1.2427
1.297709923664122,0.8091603053435115,-0.9465648854961832,0.0634765625,-0.108642578125,-0.60205078125,1.2444
1.297709923664122,0.9618320610687023,-0.7938931297709924,0.065673828125,-0.1025390625,-0.598388671875,1.2461
1.1297709923664123,0.8396946564885496,-0.8702290076335878,0.066650390625,-0.10986328125,-0.59375,1.2478
1.083969465648855,0.6564885496183206,-1.1297709923664123,0.068603515625,-0.106689453125,-0.599853515625,1.2494999999999998
1.3435114503816794,0.5801526717557252,-1.2061068702290076,0.06689453125,-0.109375,-0.59033203125,1.2511999999999999
1.099236641221374,0.5801526717557252,-1.1145038167938932,0.071044921875,-0.106689453125,-0.595458984375,1.2529
1.2213740458015268,0.7480916030534351,-1.099236641221374,0.073486328125,-0.103515625,-0.59228515625,1.2546
1.4351145038167938,0.5648854961832062,-1.1603053435114503,0.06640625,-0.1083984375,-0.59912109375,1.2563
1.0229007633587786,0.6564885496183206,-1.2061068702290076,0.06640625,-0.107177734375,-0.5986328125,1.258
0.8702290076335878,0.6564885496183206,-1.2213740458015268,0.0693359375,-0.101806640625,-0.591064453125,1.2596999999999998
0.8702290076335878,0.5954198473282443,-1.465648854961832,0.0673828125,-0.107666015625,-0.596923828125,1.2613999999999999
1.2061068702290076,0.7175572519083969,-1.2061068702290076,0.070068359375,-0.103759765625,-0.59912109375,1.2631
0.9465648854961832,0.6412213740458015,-1.465648854961832,0.0673828125,-0.1015625,-0.593505859375,1.2648
0.7786259541984732,0.5190839694656488,-1.3893129770992367,0.07177734375,-0.099365234375,-0.592041015625,1.2665
0.9465648854961832,0.6259541984732825,-1.297709923664122,0.070068359375,-0.105712890625,-0.59375,1.2682
0.7938931297709924,0.44274809160305345,-1.0534351145038168,0.071044921875,-0.109375,-0.593994140625,1.2699
0.7022900763358778,0.6259541984732825,-1.6488549618320612,0.06982421875,-0.108154296875,-0.584716796875,1.2715999999999998
1.1297709923664123,0.8549618320610687,-1.3435114503816794,0.072265625,-0.1044921875,-0.6025390625,1.2732999999999999
0.9007633587786259,0.7633587786259542,-1.2366412213740459,0.0703125,-0.1025390625,-0.599853515625,1.275
0.6564885496183206,0.5954198473282443,-1.297709923664122,0.07080078125,-0.107421875,-0.58837890625,1.2767
0.7938931297709924,0.7175572519083969,-1.5877862595419847,0.06591796875,-0.10888671875,-0.60205078125,1.2784
0.7480916030534351,0.6106870229007634,-1.0687022900763359,0.0712890625,-0.108642578125,-0.597900390625,1.2801
0.9770992366412213,0.6412213740458015,-1.1297709923664123,0.071533203125,-0.104248046875,-0.5986328125,1.2817999999999998
1.1450381679389312,0.8854961832061069,-1.1145038167938932,0.06591796875,-0.10107421875,-0.5908203125,1.2834999999999999
1.083969465648855,0.7480916030534351,-1.1908396946564885,0.066162109375,-0.105712890625,-0.595703125,1.2852
0.9465648854961832,0.8702290076335878,-1.083969465648855,0.068359375,-0.101806640625,-0.600341796875,1.2869
0.9770992366412213,0.8702290076335878,-1.0534351145038168,0.071044921875,-0.103271484375,-0.603271484375,1.2886
1.083969465648855,0.8854961832061069,-1.1450381679389312,0.069580078125,-0.1064453125,-0.58935546875,1.2903
1.282442748091603,0.8091603053435115,-1.2213740458015268,0.072021484375,-0.107666015625,-0.591064453125,1.292
1.3740458015267176,0.9312977099236641,-1.0229007633587786,0.067138671875,-0.109130859375,-0.587890625,1.2936999999999999
1.3435114503816794,0.8702290076335878,-1.1145038167938932,0.069091796875,-0.10546875,-0.596435546875,1.2953999999999999
1.3893129770992367,0.8396946564885496,-0.9618320610687023,0.06689453125,-0.103515625,-0.595947265625,1.2971
1.3893129770992367,0.7480916030534351,-1.0687022900763359,0.073486328125,-0.10546875,-0.604248046875,1.2988
1.3435114503816794,0.8244274809160306,-1.0687022900763359,0.068115234375,-0.111328125,-0.587158203125,1.3005
1.4045801526717556,0.6412213740458015,-1.3129770992366412,0.075927734375,-0.105712890625,-0.602783203125,1.3022
1.4961832061068703,0.5190839694656488,-0.8702290076335878,0.07275390625,-0.108642578125,-0.598388671875,1.3038999999999998
1.2366412213740459,0.5648854961832062,-0.7938931297709924,0.07470703125,-0.106201171875,-0.599609375,1.3055999999999999
1.4351145038167938,0.6106870229007634,-1.0534351145038168,0.068359375,-0.108154296875,-0.590087890625,1.3073
1.2061068702290076,0.6106870229007634,-1.3587786259541985,0.07177734375,-0.106689453125,-0.590087890625,1.309
1.2671755725190839,0.42748091603053434,-1.0076335877862594,0.068603515625,-0.108642578125,-0.601318359375,1.3107
1.3435114503816794,0.42748091603053434,-1.0076335877862594,0.066650390625,-0.10693359375,-0.59033203125,1.3124
1.1908396946564885,0.5648854961832062,-1.0229007633587786,0.072265625,-0.1044921875,-0.5986328125,1.3140999999999998
1.1603053435114503,0.732824427480916,-1.0381679389312977,0.074951171875,-0.105224609375,-0.60205078125,1.3157999999999999
1.2213740458015268,0.5954198473282443,-0.9007633587786259,0.069580078125,-0.10205078125,-0.597412109375,1.3175
1.4045801526717556,0.3969465648854962,-1.0381679389312977,0.068603515625,-0.107666015625,-0.598876953125,1.3192
1.2366412213740459,0.3511450381679389,-0.7938931297709924,0.07373046875,-0.109619140625,-0.593017578125,1.3209
1.450381679389313,0.44274809160305345,-1.0381679389312977,0.07177734375,-0.106201171875,-0.597900390625,1.3226
1.3435114503816794,0.5648854961832062,-0.7633587786259542,0.06591796875,-0.110595703125,-0.596923828125,1.3243
1.4198473282442747,0.4580152671755725,-0.916030534351145,0.0703125,-0.107666015625,-0.598876953125,1.3259999999999998
1.4045801526717556,0.42748091603053434,-0.8702290076335878,0.074462890625,-0.10595703125,-0.586181640625,1.3276999999999999
1.465648854961832,0.5801526717557252,-0.9312977099236641,0.072265625,-0.1025390625,-0.588623046875,1.3294
1.4045801526717556,0.3511450381679389,-0.7938931297709924,0.072021484375,-0.10498046875,-0.589111328125,1.3311
1.633587786259542,0.5801526717557252,-1.0229007633587786,0.071533203125,-0.104736328125,-0.58935546875,1.3328
1.6488549618320612,0.6412213740458015,-0.8396946564885496,0.073974609375,-0.10546875,-0.595947265625,1.3345
1.6946564885496183,0.3511450381679389,-0.8854961832061069,0.06982421875,-0.11181640625,-0.6005859375,1.3361999999999998
1.4198473282442747,0.549618320610687,-0.7022900763358778,0.071533203125,-0.11083984375,-0.59716796875,1.3378999999999999
1.5572519083969465,0.42748091603053434,-0.8396946564885496,0.071533203125,-0.1064453125,-0.59423828125,1.3396
1.3435114503816794,0.5648854961832062,-0.8702290076335878,0.072509765625,-0.10595703125,-0.5869140625,1.3413
1.3893129770992367,0.5648854961832062,-0.916030534351145,0.078369140625,-0.108154296875,-0.58642578125,1.343
1.3893129770992367,0.6564885496183206,-0.8396946564885496,0.06494140625,-0.10400390625,-0.60009765625,1.3447
1.6641221374045803,0.6259541984732825,-0.8854961832061069,0.065185546875,-0.1044921875,-0.59716796875,1.3463999999999998
1.4351145038167938,0.549618320610687,-0.8549618320610687,0.06884765625,-0.10595703125,-0.6015625,1.3480999999999999
1.465648854961832,0.732824427480916,-1.0534351145038168,0.069580078125,-0.103515625,-0.595947265625,1.3497999999999999
1.3129770992366412,0.7633587786259542,-0.8549618320610687,0.0595703125,-0.10791015625,-0.597900390625,1.3515
1.4961832061068703,0.8396946564885496,-0.7786259541984732,0.064208984375,-0.111328125,-0.599609375,1.3532
1.7251908396946565,0.7786259541984732,-1.083969465648855,0.066650390625,-0.104736328125,-0.591064453125,1.3549
1.2671755725190839,0.8396946564885496,-0.8702290076335878,0.06689453125,-0.1025390625,-0.599609375,1.3566
1.4809160305343512,0.7480916030534351,-1.0076335877862594,0.07421875,-0.1083984375,-0.602783203125,1.3582999999999998
1.3435114503816794,0.8091603053435115,-1.083969465648855,0.0712890625,-0.10107421875,-0.597412109375,1.3599999999999999
1.5419847328244274,0.9312977099236641,-1.0229007633587786,0.06640625,-0.107666015625,-0.5966796875,1.3617
1.4198473282442747,0.7480916030534351,-1.1297709923664123,0.071533203125,-0.105224609375,-0.5849609375,1.3634
1.3435114503816794,0.8244274809160306,-0.8702290076335878,0.0712890625,-0.106201171875,-0.58837890625,1.3651
1.633587786259542,0.8854961832061069,-1.1755725190839694,0.065673828125,-0.10791015625,-0.6044921875,1.3668
1.7709923664122138,0.8549618320610687,-0.9007633587786259,0.071044921875,-0.11083984375,-0.592041015625,1.3684999999999998
1.786259541984733,0.9770992366412213,-1.282442748091603,0.0712890625,-0.104736328125,-0.596923828125,1.3701999999999999
1.3893129770992367,0.7938931297709924,-1.083969465648855,0.06640625,-0.107666015625,-0.595703125,1.3719
1.4198473282442747,0.9312977099236641,-1.3435114503816794,0.07666015625,-0.106689453125,-0.592041015625,1.3736
1.5419847328244274,0.8244274809160306,-1.4045801526717556,0.067138671875,-0.107666015625,-0.600341796875,1.3753
1.633587786259542,0.6259541984732825,-1.1603053435114503,0.0712890625,-0.111572265625,-0.59228515625,1.377
1.5877862595419847,0.8396946564885496,-0.916030534351145,0.066650390625,-0.1083984375,-0.601318359375,1.3786999999999998
1.5572519083969465,0.732824427480916,-1.3129770992366412,0.072509765625,-0.108154296875,-0.59228515625,1.3803999999999998
1.6030534351145038,0.5343511450381679,-1.1755725190839694,0.0712890625,-0.109130859375,-0.592529296875,1.3820999999999999
1.6030534351145038,0.8396946564885496,-1.297709923664122,0.072265625,-0.103759765625,-0.58935546875,1.3838
1.9694656488549618,0.6717557251908397,-1.2671755725190839,0.06396484375,-0.1005859375,-0.592529296875,1.3855
1.8778625954198473,0.6870229007633588,-1.3740458015267176,0.068359375,-0.104736328125,-0.600830078125,1.3872
1.816793893129771,0.7175572519083969,-1.2061068702290076,0.072998046875,-0.10546875,-0.590576171875,1.3889
1.8931297709923665,0.8244274809160306,-1.3740458015267176,0.07080078125,-0.09716796875,-0.58984375,1.3905999999999998
2.122137404580153,0.6564885496183206,-1.1755725190839694,0.067626953125,-0.104736328125,-0.595703125,1.3922999999999999
2.198473282442748,0.8854961832061069,-1.2061068702290076,0.069091796875,-0.10498046875,-0.60205078125,1.394
2.0763358778625953,0.8702290076335878,-1.099236641221374,0.068359375,-0.107421875,-0.595947265625,1.3957
2.045801526717557,0.732824427480916,-1.083969465648855,0.071533203125,-0.10009765625,-0.599609375,1.3974
1.9694656488549618,0.8091603053435115,-0.9770992366412213,0.069580078125,-0.103271484375,-0.598876953125,1.3991
1.9236641221374047,0.8549618320610687,-1.3740458015267176,0.07568359375,-0.105224609375,-0.5927734375,1.4007999999999998
1.7251908396946565,0.8854961832061069,-1.2366412213740459,0.068115234375,-0.1064453125,-0.59326171875,1.4024999999999999
1.6946564885496183,0.8549618320610687,-1.083969465648855,0.0703125,-0.10693359375,-0.589599609375,1.4042
1.4809160305343512,0.8396946564885496,-1.0229007633587786,0.0712890625,-0.10791015625,-0.594970703125,1.4059
1.5877862595419847,1.0076335877862594,-1.297709923664122,0.069580078125,-0.106201171875,-0.594482421875,1.4076
1.465648854961832,0.7633587786259542,-1.1450381679389312,0.069580078125,-0.111328125,-0.59814453125,1.4093
1.5419847328244274,0.7175572519083969,-1.083969465648855,0.0703125,-0.109375,-0.592529296875,1.411
1.4045801526717556,0.9923664122137404,-1.1755725190839694,0.069580078125,-0.109375,-0.5927734375,1.4126999999999998
1.4045801526717556,1.083969465648855,-1.0534351145038168,0.06591796875,-0.109375,-0.594482421875,1.4143999999999999
1.4809160305343512,0.7938931297709924,-1.0229007633587786,0.069091796875,-0.1103515625,-0.595703125,1.4161
1.1297709923664123,0.916030534351145,-1.2061068702290076,0.066162109375,-0.110595703125,-0.60693359375,1.4178
1.297709923664122,0.8854961832061069,-1.1297709923664123,0.067138671875,-0.10888671875,-0.591552734375,1.4195
1.5572519083969465,0.6870229007633588,-1.3740458015267176,0.071044921875,-0.108154296875,-0.5927734375,1.4212
1.083969465648855,0.7786259541984732,-1.3893129770992367,0.06689453125,-0.106689453125,-0.591552734375,1.4228999999999998
1.282442748091603,0.9007633587786259,-1.465648854961832,0.069580078125,-0.103759765625,-0.59619140625,1.4245999999999999
1.465648854961832,0.7022900763358778,-1.4351145038167938,0.07177734375,-0.1044921875,-0.59423828125,1.4263
1.465648854961832,0.7175572519083969,-1.2366412213740459,0.068603515625,-0.11474609375,-0.59521484375,1.428
1.465648854961832,0.6564885496183206,-1.4809160305343512,0.06689453125,-0.10693359375,-0.58935546875,1.4297
1.4045801526717556,0.916030534351145,-1.7557251908396947,0.06494140625,-0.1044921875,-0.59375,1.4314
1.465648854961832,0.7175572519083969,-1.2366412213740459,0.066650390625,-0.102294921875,-0.594970703125,1.4330999999999998
1.5725190839694656,0.9770992366412213,-1.3587786259541985,0.0712890625,-0.10302734375,-0.591552734375,1.4347999999999999
1.5572519083969465,0.9465648854961832,-1.4809160305343512,0.068359375,-0.106201171875,-0.591064453125,1.4364999999999999
1.1755725190839694,1.099236641221374,-1.2671755725190839,0.06640625,-0.104248046875,-0.602294921875,1.4382
1.1450381679389312,0.916030534351145,-1.3740458015267176,0.066650390625,-0.102783203125,-0.5908203125,1.4399
1.1908396946564885,1.1450381679389312,-1.450381679389313,0.066650390625,-0.1044921875,-0.59375,1.4416
0.8549618320610687,1.0687022900763359,-1.2366412213740459,0.0712890625,-0.112060546875,-0.591064453125,1.4433
0.916030534351145,0.8396946564885496,-1.2671755725190839,0.0712890625,-0.104248046875,-0.595458984375,1.4449999999999998
0.6259541984732825,0.9312977099236641,-1.2671755725190839,0.068359375,-0.107421875,-0.597412109375,1.4466999999999999
0.732824427480916,1.0687022900763359,-1.3740458015267176,0.068359375,-0.110107421875,-0.59912109375,1.4484
0.8396946564885496,1.0381679389312977,-1.1908396946564885,0.070068359375,-0.10498046875,-0.589111328125,1.4501
0.5801526717557252,1.1145038167938932,-1.0687022900763359,0.071044921875,-0.101318359375,-0.589111328125,1.4518
0.3053435114503817,1.0687022900763359,-1.3129770992366412,0.072265625,-0.105712890625,-0.593994140625,1.4535
0.5954198473282443,1.1450381679389312,-1.1450381679389312,0.0712890625,-0.10205078125,-0.593017578125,1.4551999999999998
0.7633587786259542,1.0229007633587786,-1.4198473282442747,0.066162109375,-0.1025390625,-0.59765625,1.4568999999999999
1.0076335877862594,1.099236641221374,-1.4198473282442747,0.065673828125,-0.108642578125,-0.58935546875,1.4586
1.1908396946564885,1.1450381679389312,-1.2366412213740459,0.0634765625,-0.108154296875,-0.59765625,1.4603
1.0229007633587786,1.1297709923664123,-1.3435114503816794,0.062744140625,-0.10107421875,-0.590576171875,1.462
1.3740458015267176,1.0687022900763359,-1.3129770992366412,0.069091796875,-0.103271484375,-0.592041015625,1.4637
1.618320610687023,1.083969465648855,-1.297709923664122,0.068603515625,-0.108154296875,-0.600341796875,1.4653999999999998
1.6488549618320612,1.0076335877862594,-1.3129770992366412,0.0673828125,-0.105712890625,-0.585693359375,1.4670999999999998
1.7251908396946565,1.297709923664122,-1.3435114503816794,0.067626953125,-0.106201171875,-0.59619140625,1.4687999999999999
2.0763358778625953,1.1755725190839694,-1.3129770992366412,0.0673828125,-0.106689453125,-0.592041015625,1.4705
2.0763358778625953,1.2671755725190839,-1.282442748091603,0.066650390625,-0.100341796875,-0.590087890625,1.4722
1.9694656488549618,1.3435114503816794,-1.1145038167938932,0.0703125,-0.10791015625,-0.59619140625,1.4739
2.2748091603053435,1.3129770992366412,-0.916030534351145,0.071044921875,-0.099853515625,-0.593017578125,1.4756
2.0,1.251908396946565,-1.0076335877862594,0.069091796875,-0.105224609375,-0.598388671875,1.4772999999999998
2.1068702290076335,1.633587786259542,-0.9923664122137404,0.06787109375,-0.109375,-0.58447265625,1.4789999999999999
2.2290076335877864,1.465648854961832,-1.0381679389312977,0.06591796875,-0.102294921875,-0.5986328125,1.4807
2.183206106870229,1.297709923664122,-0.7480916030534351,0.058837890625,-0.104248046875,-0.591796875,1.4824
2.045801526717557,1.6946564885496183,-0.6870229007633588,0.065673828125,-0.107666015625,-0.5947265625,1.4841
2.0,1.6488549618320612,-0.6564885496183206,0.06884765625,-0.106201171875,-0.591796875,1.4858
1.7709923664122138,1.5267175572519085,-0.5648854961832062,0.0693359375,-0.1064453125,-0.592041015625,1.4874999999999998
2.015267175572519,1.633587786259542,-0.5648854961832062,0.068603515625,-0.109619140625,-0.586181640625,1.4891999999999999
2.1068702290076335,1.6030534351145038,-0.8244274809160306,0.064453125,-0.107177734375,-0.592529296875,1.4909
1.7404580152671756,1.7404580152671756,-0.8244274809160306,0.06591796875,-0.10546875,-0.595947265625,1.4926
1.618320610687023,1.6793893129770991,-0.6717557251908397,0.06787109375,-0.1064453125,-0.60400390625,1.4943
1.6030534351145038,1.6488549618320612,-0.6259541984732825,0.066162109375,-0.108642578125,-0.598876953125,1.496
1.5572519083969465,1.3129770992366412,-1.0076335877862594,0.0673828125,-0.11083984375,-0.591064453125,1.4976999999999998
1.633587786259542,1.3740458015267176,-1.0687022900763359,0.064697265625,-0.11181640625,-0.59423828125,1.4993999999999998
1.4809160305343512,1.6641221374045803,-0.9465648854961832,0.06884765625,-0.109375,-0.596435546875,1.5010999999999999
1.4961832061068703,1.4809160305343512,-1.0381679389312977,0.062744140625,-0.11181640625,-0.5888671875,1.5028
1.633587786259542,1.4198473282442747,-1.099236641221374,0.06591796875,-0.108642578125,-0.58740234375,1.5045
1.5114503816793894,1.5419847328244274,-1.083969465648855,0.06201171875,-0.10595703125,-0.59423828125,1.5062
1.6946564885496183,1.6488549618320612,-1.1145038167938932,0.0654296875,-0.10546875,-0.595947265625,1.5079
1.7709923664122138,1.3282442748091603,-1.083969465648855,0.067626953125,-0.10400390625,-0.594482421875,1.5095999999999998
1.6793893129770991,1.3740458015267176,-1.099236641221374,0.06689453125,-0.10546875,-0.598388671875,1.5112999999999999
1.5419847328244274,1.450381679389313,-0.9923664122137404,0.06494140625,-0.105224609375,-0.597900390625,1.513
1.465648854961832,1.3435114503816794,-1.1145038167938932,0.07421875,-0.1044921875,-0.594482421875,1.5147
1.5572519083969465,1.3129770992366412,-1.251908396946565,0.070068359375,-0.101806640625,-0.599609375,1.5164
1.7557251908396947,1.251908396946565,-1.099236641221374,0.06787109375,-0.10546875,-0.592041015625,1.5181
1.3435114503816794,1.1908396946564885,-1.0076335877862594,0.0693359375,-0.104248046875,-0.5966796875,1.5197999999999998
1.297709923664122,1.2061068702290076,-1.3129770992366412,0.072265625,-0.103271484375,-0.591552734375,1.5214999999999999
1.2671755725190839,1.4198473282442747,-1.1145038167938932,0.07275390625,-0.10498046875,-0.60107421875,1.5231999999999999
1.3435114503816794,1.1908396946564885,-1.2671755725190839,0.07373046875,-0.100341796875,-0.59228515625,1.5249
1.4961832061068703,1.2366412213740459,-0.9923664122137404,0.072509765625,-0.0986328125,-0.597412109375,1.5266
1.3282442748091603,1.282442748091603,-0.8396946564885496,0.070068359375,-0.102294921875,-0.605712890625,1.5283
1.3129770992366412,1.1450381679389312,-0.9618320610687023,0.07080078125,-0.105712890625,-0.59716796875,1.5299999999999998
1.1450381679389312,1.3587786259541985,-0.9618320610687023,0.069091796875,-0.102294921875,-0.58984375,1.5316999999999998
1.3587786259541985,1.3282442748091603,-1.0076335877862594,0.0732421875,-0.101806640625,-0.58984375,1.5333999999999999
1.4045801526717556,1.297709923664122,-1.1908396946564885,0.07177734375,-0.10009765625,-0.59326171875,1.5351
1.251908396946565,1.5725190839694656,-0.9618320610687023,0.0703125,-0.099853515625,-0.59033203125,1.5368
1.4809160305343512,1.6488549618320612,-0.9465648854961832,0.06884765625,-0.1044921875,-0.587646484375,1.5385
1.4961832061068703,1.633587786259542,-0.9007633587786259,0.064453125,-0.1025390625,-0.598876953125,1.5402
1.297709923664122,1.7251908396946565,-0.8091603053435115,0.06591796875,-0.103271484375,-0.597412109375,1.5418999999999998
1.618320610687023,1.9236641221374047,-0.916030534351145,0.067626953125,-0.1015625,-0.60302734375,1.5435999999999999
1.465648854961832,1.6946564885496183,-0.8549618320610687,0.068115234375,-0.105224609375,-0.5986328125,1.5453
1.786259541984733,1.6946564885496183,-0.8091603053435115,0.0712890625,-0.111083984375,-0.603759765625,1.547
1.4809160305343512,1.786259541984733,-0.9618320610687023,0.069580078125,-0.10693359375,-0.599609375,1.5487
1.4045801526717556,1.633587786259542,-0.8854961832061069,0.067138671875,-0.104248046875,-0.60009765625,1.5504
1.3740458015267176,1.6793893129770991,-1.1603053435114503,0.069580078125,-0.10302734375,-0.59716796875,1.5520999999999998
1.4198473282442747,1.5877862595419847,-0.8244274809160306,0.067626953125,-0.107177734375,-0.6025390625,1.5537999999999998
1.1145038167938932,1.618320610687023,-1.0229007633587786,0.065673828125,-0.10791015625,-0.601806640625,1.5554999999999999
1.3893129770992367,1.6641221374045803,-1.0076335877862594,0.0732421875,-0.102783203125,-0.59765625,1.5572
1.2366412213740459,1.450381679389313,-1.2213740458015268,0.073974609375,-0.107666015625,-0.60107421875,1.5589
0.916030534351145,1.2366412213740459,-0.9007633587786259,0.070556640625,-0.10546875,-0.596435546875,1.5606
1.0076335877862594,1.3587786259541985,-1.1450381679389312,0.073974609375,-0.104736328125,-0.59423828125,1.5623
0.9770992366412213,1.5419847328244274,-1.1908396946564885,0.069091796875,-0.1083984375,-0.5947265625,1.5639999999999998
0.9923664122137404,1.297709923664122,-1.3893129770992367,0.071044921875,-0.10595703125,-0.58984375,1.5656999999999999
1.0687022900763359,1.1297709923664123,-1.1603053435114503,0.0732421875,-0.104736328125,-0.59033203125,1.5674
0.7786259541984732,1.1755725190839694,-1.3740458015267176,0.067138671875,-0.10302734375,-0.592041015625,1.5691
0.7480916030534351,1.2671755725190839,-1.251908396946565,0.07275390625,-0.105712890625,-0.587890625,1.5708
0.6259541984732825,1.251908396946565,-1.282442748091603,0.06982421875,-0.104248046875,-0.5947265625,1.5725
0.48854961832061067,1.282442748091603,-1.0687022900763359,0.072021484375,-0.106689453125,-0.5986328125,1.5741999999999998
0.4580152671755725,1.3129770992366412,-1.2671755725190839,0.070556640625,-0.10546875,-0.592041015625,1.5758999999999999
0.5343511450381679,1.1755725190839694,-1.1145038167938932,0.06982421875,-0.1064453125,-0.595947265625,1.5776
0.6564885496183206,0.7786259541984732,-1.3587786259541985,0.072265625,-0.107666015625,-0.5908203125,1.5793
0.6717557251908397,0.9007633587786259,-1.099236641221374,0.07373046875,-0.10693359375,-0.5966796875,1.581
0.6106870229007634,1.0229007633587786,-1.1603053435114503,0.0693359375,-0.1064453125,-0.58544921875,1.5827
0.366412213740458,0.8091603053435115,-1.0229007633587786,0.071533203125,-0.1015625,-0.5927734375,1.5843999999999998
0.7633587786259542,0.916030534351145,-1.1145038167938932,0.072021484375,-0.109130859375,-0.597900390625,1.5860999999999998
0.7938931297709924,0.8549618320610687,-1.099236641221374,0.074462890625,-0.109375,-0.59326171875,1.5877999999999999
0.44274809160305345,0.7938931297709924,-1.0381679389312977,0.06787109375,-0.10302734375,-0.595947265625,1.5895
0.7633587786259542,0.8244274809160306,-0.7633587786259542,0.074462890625,-0.105224609375,-0.59228515625,1.5912
0.7633587786259542,0.8549618320610687,-0.8396946564885496,0.07080078125,-0.10546875,-0.60205078125,1.5929
0.916030534351145,0.6564885496183206,-0.7938931297709924,0.0693359375,-0.103759765625,-0.604248046875,1.5946
0.5648854961832062,0.549618320610687,-0.9923664122137404,0.071044921875,-0.105712890625,-0.592529296875,1.5962999999999998
0.6412213740458015,0.7480916030534351,-0.7786259541984732,0.068359375,-0.1103515625,-0.59765625,1.5979999999999999
0.8702290076335878,0.7480916030534351,-0.8244274809160306,0.06982421875,-0.1064453125,-0.5966796875,1.5997
0.6564885496183206,0.6564885496183206,-0.6564885496183206,0.071044921875,-0.1123046875,-0.59423828125,1.6014
1.0076335877862594,0.5954198473282443,-0.9312977099236641,0.069580078125,-0.10595703125,-0.591796875,1.6031
0.7938931297709924,0.549618320610687,-0.7633587786259542,0.072021484375,-0.10693359375,-0.59521484375,1.6048
0.6870229007633588,0.4580152671755725,-0.7175572519083969,0.067626953125,-0.106689453125,-0.59423828125,1.6064999999999998
0.8244274809160306,0.6259541984732825,-0.6412213740458015,0.0712890625,-0.109619140625,-0.596923828125,1.6081999999999999
0.8091603053435115,0.4732824427480916,-1.0687022900763359,0.0693359375,-0.1083984375,-0.59814453125,1.6098999999999999
0.8091603053435115,0.6106870229007634,-0.8396946564885496,0.072998046875,-0.104248046875,-0.59619140625,1.6116
0.8244274809160306,0.2748091603053435,-0.732824427480916,0.06982421875,-0.10693359375,-0.59814453125,1.6133
0.6717557251908397,0.366412213740458,-0.6870229007633588,0.069580078125,-0.108642578125,-0.5986328125,1.615
0.7480916030534351,0.5954198473282443,-0.8244274809160306,0.073974609375,-0.108154296875,-0.59765625,1.6166999999999998
0.7633587786259542,0.44274809160305345,-0.6564885496183206,0.069091796875,-0.11181640625,-0.596923828125,1.6183999999999998
0.7175572519083969,0.32061068702290074,-0.8702290076335878,0.066650390625,-0.1083984375,-0.58837890625,1.6200999999999999
0.44274809160305345,0.33587786259541985,-0.9312977099236641,0.066162109375,-0.107666015625,-0.594970703125,1.6218
0.6870229007633588,0.4122137404580153,-0.9618320610687023,0.068603515625,-0.09912109375,-0.604248046875,1.6235
0.5801526717557252,0.3816793893129771,-1.0381679389312977,0.070068359375,-0.107666015625,-0.602294921875,1.6252
0.42748091603053434,0.4732824427480916,-1.1450381679389312,0.07080078125,-0.104736328125,-0.596435546875,1.6269
0.3511450381679389,0.48854961832061067,-1.083969465648855,0.072509765625,-0.108154296875,-0.59228515625,1.6285999999999998
0.2595419847328244,0.1984732824427481,-1.3129770992366412,0.072998046875,-0.109130859375,-0.591552734375,1.6302999999999999
0.2900763358778626,0.10687022900763359,-1.0229007633587786,0.070556640625,-0.10205078125,-0.587646484375,1.632
0.0916030534351145,0.1984732824427481,-1.4961832061068703,0.068359375,-0.101806640625,-0.586669921875,1.6337
0.0916030534351145,0.366412213740458,-1.5877862595419847,0.072509765625,-0.1083984375,-0.59814453125,1.6354
0.22900763358778625,0.42748091603053434,-1.5114503816793894,0.071044921875,-0.107177734375,-0.605224609375,1.6371
0.0,0.4580152671755725,-1.5267175572519085,0.068603515625,-0.104248046875,-0.6005859375,1.6387999999999998
0.16793893129770993,0.3511450381679389,-1.618320610687023,0.07177734375,-0.1025390625,-0.591064453125,1.6404999999999998
0.12213740458015267,0.1984732824427481,-1.5419847328244274,0.069580078125,-0.107421875,-0.59423828125,1.6421999999999999
0.44274809160305345,0.22900763358778625,-1.6030534351145038,0.068359375,-0.101318359375,-0.594970703125,1.6439
0.3053435114503817,0.366412213740458,-1.633587786259542,0.070556640625,-0.108154296875,-0.590576171875,1.6456
0.3816793893129771,0.4580152671755725,-1.6488549618320612,0.072021484375,-0.10595703125,-0.589599609375,1.6473
0.4122137404580153,0.2748091603053435,-1.5725190839694656,0.068603515625,-0.1025390625,-0.602294921875,1.6489999999999998
0.4732824427480916,0.366412213740458,-1.6641221374045803,0.068603515625,-0.102783203125,-0.59716796875,1.6506999999999998
0.33587786259541985,0.3511450381679389,-1.4198473282442747,0.070556640625,-0.1025390625,-0.59228515625,1.6523999999999999
0.549618320610687,0.5954198473282443,-1.7557251908396947,0.06494140625,-0.1064453125,-0.595458984375,1.6541
0.33587786259541985,0.5038167938931297,-1.465648854961832,0.0625,-0.10302734375,-0.602783203125,1.6558
0.366412213740458,0.3816793893129771,-1.5419847328244274,0.064453125,-0.100341796875,-0.595947265625,1.6575
0.3511450381679389,0.5038167938931297,-1.5725190839694656,0.0703125,-0.103271484375,-0.592041015625,1.6592
0.3969465648854962,0.7786259541984732,-1.5725190839694656,0.068115234375,-0.099853515625,-0.58837890625,1.6608999999999998
0.732824427480916,0.8244274809160306,-1.4198473282442747,0.067626953125,-0.103759765625,-0.594970703125,1.6625999999999999
0.8396946564885496,0.7633587786259542,-1.3740458015267176,0.0654296875,-0.1025390625,-0.6005859375,1.6643
0.7022900763358778,0.8244274809160306,-1.4198473282442747,0.0634765625,-0.10498046875,-0.59521484375,1.666
0.916030534351145,0.9465648854961832,-1.5877862595419847,0.06640625,-0.1064453125,-0.58935546875,1.6677
0.7633587786259542,1.1908396946564885,-1.3587786259541985,0.06103515625,-0.105224609375,-0.597412109375,1.6694
0.9770992366412213,1.0381679389312977,-1.6030534351145038,0.068603515625,-0.104248046875,-0.59228515625,1.6710999999999998
1.0381679389312977,1.1603053435114503,-1.5572519083969465,0.06396484375,-0.105712890625,-0.5927734375,1.6727999999999998
0.8702290076335878,1.0229007633587786,-1.6030534351145038,0.06494140625,-0.108642578125,-0.58984375,1.6744999999999999
1.0687022900763359,1.3587786259541985,-1.5725190839694656,0.06884765625,-0.1123046875,-0.597412109375,1.6762
0.7175572519083969,1.297709923664122,-1.5877862595419847,0.072265625,-0.11328125,-0.59912109375,1.6779
0.7633587786259542,1.3435114503816794,-1.4809160305343512,0.06689453125,-0.107177734375,-0.5947265625,1.6796
0.6870229007633588,1.2213740458015268,-1.5419847328244274,0.06689453125,-0.10302734375,-0.59326171875,1.6813
0.5648854961832062,1.2213740458015268,-1.4045801526717556,0.0693359375,-0.102783203125,-0.592529296875,1.6829999999999998
0.6717557251908397,1.5267175572519085,-1.3740458015267176,0.0673828125,-0.1103515625,-0.59033203125,1.6846999999999999
0.7786259541984732,1.5419847328244274,-1.5572519083969465,0.069091796875,-0.11181640625,-0.601318359375,1.6864
0.4580152671755725,1.4045801526717556,-1.4961832061068703,0.067626953125,-0.11328125,-0.59912109375,1.6881
0.6259541984732825,1.6488549618320612,-1.5419847328244274,0.07275390625,-0.11083984375,-0.590576171875,1.6898
0.549618320610687,1.4351145038167938,-1.4351145038167938,0.069580078125,-0.111328125,-0.595458984375,1.6915
0.7480916030534351,1.4961832061068703,-1.5267175572519085,0.076904296875,-0.108154296875,-0.59765625,1.6931999999999998
0.6259541984732825,1.3893129770992367,-1.7404580152671756,0.069091796875,-0.10791015625,-0.59765625,1.6948999999999999
0.5801526717557252,1.465648854961832,-1.5572519083969465,0.06689453125,-0.11572265625,-0.58984375,1.6965999999999999
0.6717557251908397,1.6030534351145038,-1.6946564885496183,0.0712890625,-0.11083984375,-0.591064453125,1.6983
0.9770992366412213,1.5725190839694656,-1.5572519083969465,0.07177734375,-0.111083984375,-0.58740234375,1.7
0.7022900763358778,1.3740458015267176,-1.7404580152671756,0.072509765625,-0.107177734375,-0.58984375,1.7017
0.8549618320610687,1.282442748091603,-1.5114503816793894,0.069580078125,-0.1064453125,-0.59619140625,1.7033999999999998
1.1450381679389312,1.3435114503816794,-1.5114503816793894,0.07177734375,-0.10791015625,-0.597900390625,1.7050999999999998
0.9007633587786259,1.5267175572519085,-1.618320610687023,0.069091796875,-0.109130859375,-0.591064453125,1.7067999999999999
0.6259541984732825,1.465648854961832,-1.7099236641221374,0.06884765625,-0.106689453125,-0.59716796875,1.7085
0.8549618320610687,1.6030534351145038,-1.6641221374045803,0.069091796875,-0.10107421875,-0.5849609375,1.7102
1.297709923664122,1.5114503816793894,-1.5419847328244274,0.0654296875,-0.10107421875,-0.59423828125,1.7119
1.3129770992366412,1.8473282442748091,-1.7709923664122138,0.064697265625,-0.09765625,-0.59521484375,1.7136
1.1297709923664123,1.7251908396946565,-1.5267175572519085,0.06787109375,-0.10546875,-0.589599609375,1.7152999999999998
1.3740458015267176,1.816793893129771,-1.4809160305343512,0.067626953125,-0.106689453125,-0.591552734375,1.7169999999999999
1.450381679389313,1.984732824427481,-1.5877862595419847,0.070556640625,-0.101806640625,-0.594970703125,1.7187
1.6488549618320612,2.2290076335877864,-1.4961832061068703,0.063720703125,-0.107666015625,-0.597412109375,1.7204
1.7099236641221374,1.9236641221374047,-1.450381679389313,0.067626953125,-0.103515625,-0.5869140625,1.7221
1.9236641221374047,2.030534351145038,-1.6030534351145038,0.0654296875,-0.103271484375,-0.597900390625,1.7238
2.030534351145038,2.351145038167939,-1.3282442748091603,0.068115234375,-0.10302734375,-0.591796875,1.7254999999999998
1.9083969465648856,2.122137404580153,-1.3587786259541985,0.066162109375,-0.10693359375,-0.593017578125,1.7271999999999998
1.9236641221374047,2.0610687022900764,-1.2213740458015268,0.0673828125,-0.1044921875,-0.593994140625,1.7288999999999999
2.0,2.1374045801526718,-1.2061068702290076,0.07275390625,-0.10205078125,-0.59228515625,1.7306
1.9389312977099236,2.0610687022900764,-1.2671755725190839,0.068359375,-0.09814453125,-0.590087890625,1.7323
1.9083969465648856,2.0763358778625953,-1.4198473282442747,0.068603515625,-0.099853515625,-0.593017578125,1.734
2.1374045801526718,2.2442748091603053,-1.5114503816793894,0.06591796875,-0.1064453125,-0.591796875,1.7356999999999998
2.1068702290076335,2.213740458015267,-1.4045801526717556,0.0693359375,-0.106201171875,-0.593017578125,1.7373999999999998
2.015267175572519,2.3053435114503817,-1.4961832061068703,0.06884765625,-0.103759765625,-0.595947265625,1.7390999999999999
1.9083969465648856,2.2442748091603053,-1.282442748091603,0.0703125,-0.10546875,-0.59228515625,1.7408
1.9236641221374047,2.1068702290076335,-1.3587786259541985,0.06787109375,-0.10400390625,-0.59619140625,1.7425
1.9541984732824427,2.564885496183206,-1.6641221374045803,0.071044921875,-0.10107421875,-0.598876953125,1.7442
2.122137404580153,2.6106870229007635,-1.5572519083969465,0.07470703125,-0.10205078125,-0.5986328125,1.7459
2.213740458015267,2.427480916030534,-1.618320610687023,0.0693359375,-0.102783203125,-0.60009765625,1.7475999999999998
2.2748091603053435,2.33587786259542,-1.6946564885496183,0.072509765625,-0.101806640625,-0.59375,1.7492999999999999
1.9541984732824427,2.366412213740458,-1.6488549618320612,0.0673828125,-0.10302734375,-0.591552734375,1.751
2.122137404580153,2.50381679389313,-1.465648854961832,0.06884765625,-0.09814453125,-0.59130859375,1.7527
1.8931297709923665,2.4580152671755724,-1.6030534351145038,0.067138671875,-0.106689453125,-0.59521484375,1.7544
1.8473282442748091,2.2595419847328246,-1.6793893129770991,0.070556640625,-0.1162109375,-0.59716796875,1.7561
1.9389312977099236,2.213740458015267,-1.7099236641221374,0.06884765625,-0.108154296875,-0.5947265625,1.7577999999999998
1.618320610687023,2.381679389312977,-1.5725190839694656,0.07373046875,-0.103271484375,-0.59814453125,1.7594999999999998
1.4961832061068703,2.33587786259542,-1.5572519083969465,0.0732421875,-0.107177734375,-0.597900390625,1.7611999999999999
1.4045801526717556,2.2290076335877864,-1.4351145038167938,0.070068359375,-0.108154296875,-0.59130859375,1.7629
1.3129770992366412,2.3206106870229006,-1.4045801526717556,0.0712890625,-0.105712890625,-0.596923828125,1.7646
1.4045801526717556,2.427480916030534,-1.6030534351145038,0.074951171875,-0.106201171875,-0.589599609375,1.7663
1.4045801526717556,2.2748091603053435,-1.5877862595419847,0.067626953125,-0.107421875,-0.595947265625,1.7679999999999998
1.4198473282442747,2.4580152671755724,-1.450381679389313,0.074462890625,-0.10595703125,-0.592529296875,1.7696999999999998
1.3129770992366412,2.366412213740458,-1.618320610687023,0.07275390625,-0.106201171875,-0.591064453125,1.7713999999999999
1.0687022900763359,2.33587786259542,-1.4961832061068703,0.073486328125,-0.103271484375,-0.592041015625,1.7731
1.2061068702290076,2.198473282442748,-1.3740458015267176,0.068603515625,-0.10400390625,-0.592041015625,1.7748
1.1908396946564885,2.213740458015267,-1.3587786259541985,0.070068359375,-0.1064453125,-0.595703125,1.7765
1.1297709923664123,2.1068702290076335,-1.4961832061068703,0.0693359375,-0.10595703125,-0.58935546875,1.7782
1.2213740458015268,2.0610687022900764,-1.4351145038167938,0.074462890625,-0.103515625,-0.591064453125,1.7798999999999998
1.1755725190839694,1.8778625954198473,-1.282442748091603,0.068603515625,-0.100341796875,-0.59423828125,1.7815999999999999
1.1603053435114503,1.9541984732824427,-1.3893129770992367,0.072265625,-0.099609375,-0.59814453125,1.7832999999999999
1.297709923664122,1.9083969465648856,-1.5725190839694656,0.072509765625,-0.103515625,-0.59521484375,1.785
1.297709923664122,1.786259541984733,-1.2366412213740459,0.06884765625,-0.1044921875,-0.595458984375,1.7867
1.3435114503816794,1.8473282442748091,-1.3282442748091603,0.068359375,-0.106201171875,-0.592041015625,1.7884
1.3587786259541985,1.7099236641221374,-1.4198473282442747,0.070556640625,-0.109619140625,-0.595458984375,1.7900999999999998
1.282442748091603,1.618320610687023,-1.3587786259541985,0.073486328125,-0.099609375,-0.603515625,1.7917999999999998
1.4809160305343512,1.816793893129771,-1.0687022900763359,0.071533203125,-0.10302734375,-0.600830078125,1.7934999999999999
1.465648854961832,1.7099236641221374,-1.2213740458015268,0.069091796875,-0.102783203125,-0.5986328125,1.7952
1.450381679389313,1.633587786259542,-1.4198473282442747,0.07373046875,-0.101318359375,-0.595458984375,1.7969
1.8015267175572518,1.465648854961832,-1.3587786259541985,0.07080078125,-0.102783203125,-0.592041015625,1.7986
1.984732824427481,1.5114503816793894,-1.2061068702290076,0.071533203125,-0.101318359375,-0.588134765625,1.8002999999999998
1.984732824427481,1.5114503816793894,-1.4351145038167938,0.066650390625,-0.098388671875,-0.592041015625,1.8019999999999998
1.9236641221374047,1.5419847328244274,-1.1755725190839694,0.071044921875,-0.101806640625,-0.604248046875,1.8036999999999999
2.0763358778625953,1.5572519083969465,-1.3587786259541985,0.069580078125,-0.10302734375,-0.596435546875,1.8054
