gyrox1,gyroy1,gyroz1,accelx1,accely1,accelz1,Time
1.9694656488549618,0.7938931297709924,-1.3129770992366412,0.0927734375,-0.016845703125,-0.609130859375,0.0
2.1526717557251906,0.6870229007633588,-1.1603053435114503,0.093994140625,-0.017578125,-0.613525390625,0.0017
2.4885496183206106,0.7480916030534351,-1.4045801526717556,0.091796875,-0.015380859375,-0.61669921875,0.0034
2.0916030534351147,0.7786259541984732,-1.1908396946564885,0.09375,-0.01220703125,-0.610595703125,0.0050999999999999995
2.198473282442748,0.9007633587786259,-1.2061068702290076,0.092041015625,-0.013671875,-0.6171875,0.0068
2.2900763358778624,0.8091603053435115,-0.8854961832061069,0.08837890625,-0.01806640625,-0.616943359375,0.008499999999999999
2.122137404580153,1.0534351145038168,-1.0534351145038168,0.090576171875,-0.01904296875,-0.615478515625,0.010199999999999999
2.213740458015267,1.0076335877862594,-0.8854961832061069,0.092529296875,-0.015380859375,-0.61572265625,0.011899999999999999
2.2900763358778624,0.7480916030534351,-1.0229007633587786,0.0927734375,-0.01953125,-0.60302734375,0.0136
2.16793893129771,0.732824427480916,-0.7633587786259542,0.090576171875,-0.02294921875,-0.6142578125,0.0153
1.8778625954198473,0.7938931297709924,-0.8702290076335878,0.084228515625,-0.020263671875,-0.611083984375,0.016999999999999998
1.8931297709923665,1.1450381679389312,-0.9007633587786259,0.09130859375,-0.020751953125,-0.608154296875,0.018699999999999998
1.6641221374045803,1.1603053435114503,-1.1755725190839694,0.09375,-0.020751953125,-0.616455078125,0.020399999999999998
1.5419847328244274,1.1603053435114503,-1.0076335877862594,0.088134765625,-0.015869140625,-0.60693359375,0.022099999999999998
1.6946564885496183,1.2061068702290076,-0.8396946564885496,0.09228515625,-0.02197265625,-0.603515625,0.023799999999999998
1.465648854961832,1.099236641221374,-1.0687022900763359,0.093505859375,-0.01904296875,-0.602783203125,0.0255
1.3435114503816794,1.251908396946565,-0.9770992366412213,0.086181640625,-0.019775390625,-0.611083984375,0.0272
1.3740458015267176,1.2213740458015268,-0.8702290076335878,0.093994140625,-0.015380859375,-0.609375,0.0289
1.099236641221374,1.5725190839694656,-0.9465648854961832,0.092041015625,-0.01416015625,-0.61083984375,0.0306
1.2213740458015268,1.5725190839694656,-1.1145038167938932,0.087158203125,-0.016357421875,-0.611328125,0.032299999999999995
0.9465648854961832,1.3893129770992367,-1.1297709923664123,0.08740234375,-0.0146484375,-0.60986328125,0.033999999999999996
0.8396946564885496,1.4198473282442747,-0.9465648854961832,0.084716796875,-0.017333984375,-0.612548828125,0.035699999999999996
0.5648854961832062,1.633587786259542,-0.9618320610687023,0.09326171875,-0.01953125,-0.612060546875,0.037399999999999996
0.4122137404580153,1.9389312977099236,-1.0076335877862594,0.090087890625,-0.01904296875,-0.60986328125,0.039099999999999996
0.4122137404580153,1.816793893129771,-1.1297709923664123,0.091064453125,-0.02197265625,-0.6044921875,0.040799999999999996
0.2595419847328244,1.83206106870229,-1.083969465648855,0.093017578125,-0.019775390625,-0.612060546875,0.042499999999999996
0.16793893129770993,1.8778625954198473,-1.1145038167938932,0.091064453125,-0.017333984375,-0.614501953125,0.044199999999999996
0.13740458015267176,1.9694656488549618,-0.9007633587786259,0.096435546875,-0.019287109375,-0.6201171875,0.045899999999999996
0.183206106870229,1.7557251908396947,-1.3435114503816794,0.0986328125,-0.01904296875,-0.614990234375,0.047599999999999996
0.030534351145038167,1.786259541984733,-1.3587786259541985,0.09814453125,-0.014404296875,-0.613525390625,0.0493
0.22900763358778625,2.015267175572519,-1.2061068702290076,0.097412109375,-0.013671875,-0.61328125,0.051
0.1984732824427481,1.7557251908396947,-0.8854961832061069,0.089111328125,-0.015625,-0.609130859375,0.0527
0.183206106870229,1.7251908396946565,-1.0534351145038168,0.097412109375,-0.017822265625,-0.616455078125,0.0544
0.22900763358778625,1.9694656488549618,-0.9923664122137404,0.092041015625,-0.0166015625,-0.610595703125,0.0561
0.4732824427480916,1.8931297709923665,-1.1297709923664123,0.092041015625,-0.01025390625,-0.60302734375,0.0578
0.5954198473282443,1.7099236641221374,-1.1297709923664123,0.09765625,-0.011474609375,-0.6025390625,0.0595
0.732824427480916,1.5572519083969465,-0.9007633587786259,0.09375,-0.0166015625,-0.62109375,0.0612
0.8396946564885496,1.6793893129770991,-0.8244274809160306,0.09765625,-0.012451171875,-0.6103515625,0.0629
0.8244274809160306,1.6488549618320612,-0.9618320610687023,0.091796875,-0.008544921875,-0.60546875,0.06459999999999999
1.1603053435114503,1.5114503816793894,-0.8091603053435115,0.095703125,-0.013427734375,-0.6064453125,0.0663
1.282442748091603,1.5267175572519085,-0.8091603053435115,0.093505859375,-0.014892578125,-0.615478515625,0.06799999999999999
1.5725190839694656,1.7709923664122138,-0.7022900763358778,0.094482421875,-0.018310546875,-0.611083984375,0.0697
1.7099236641221374,1.5419847328244274,-0.7633587786259542,0.09765625,-0.01513671875,-0.622314453125,0.07139999999999999
1.7404580152671756,1.618320610687023,-0.7938931297709924,0.095703125,-0.013427734375,-0.60791015625,0.0731
2.183206106870229,1.3587786259541985,-0.916030534351145,0.0927734375,-0.011962890625,-0.607421875,0.07479999999999999
2.2748091603053435,1.282442748091603,-0.7938931297709924,0.09716796875,-0.01318359375,-0.61328125,0.0765
2.1068702290076335,1.4351145038167938,-0.7938931297709924,0.09228515625,-0.011474609375,-0.615234375,0.07819999999999999
2.2595419847328246,1.1450381679389312,-0.6717557251908397,0.091552734375,-0.01416015625,-0.609619140625,0.0799
2.2290076335877864,0.9312977099236641,-0.732824427480916,0.09033203125,-0.01123046875,-0.615966796875,0.08159999999999999
2.351145038167939,0.916030534351145,-0.7786259541984732,0.097412109375,-0.008544921875,-0.614501953125,0.0833
2.198473282442748,1.083969465648855,-0.732824427480916,0.099853515625,-0.015380859375,-0.61767578125,0.08499999999999999
2.2748091603053435,1.2671755725190839,-0.6564885496183206,0.09912109375,-0.013916015625,-0.613037109375,0.0867
1.984732824427481,0.9618320610687023,-0.8396946564885496,0.097412109375,-0.0126953125,-0.61474609375,0.08839999999999999
1.8015267175572518,0.8549618320610687,-0.7175572519083969,0.097412109375,-0.00634765625,-0.62109375,0.0901
1.9541984732824427,1.0076335877862594,-0.6564885496183206,0.097412109375,-0.0068359375,-0.617919921875,0.09179999999999999
2.045801526717557,0.8854961832061069,-0.8702290076335878,0.09765625,-0.01611328125,-0.615234375,0.0935
2.0916030534351147,0.916030534351145,-0.9465648854961832,0.095947265625,-0.015380859375,-0.611328125,0.09519999999999999
2.122137404580153,0.8091603053435115,-0.8091603053435115,0.092041015625,-0.011474609375,-0.61328125,0.0969
2.198473282442748,0.8396946564885496,-0.732824427480916,0.089599609375,-0.01708984375,-0.609619140625,0.0986
2.16793893129771,0.7633587786259542,-0.732824427480916,0.098876953125,-0.0185546875,-0.60791015625,0.1003
2.2748091603053435,0.8091603053435115,-0.9618320610687023,0.09716796875,-0.015869140625,-0.609619140625,0.102
2.549618320610687,0.5343511450381679,-0.8244274809160306,0.09765625,-0.016845703125,-0.605712890625,0.1037
2.6717557251908395,0.6564885496183206,-0.8091603053435115,0.0908203125,-0.012939453125,-0.607177734375,0.1054
2.5801526717557253,0.8549618320610687,-1.0381679389312977,0.09033203125,-0.01806640625,-0.61328125,0.1071
2.5801526717557253,0.7938931297709924,-1.099236641221374,0.093994140625,-0.012939453125,-0.6064453125,0.1088
3.0839694656488548,0.6717557251908397,-0.916030534351145,0.0947265625,-0.014404296875,-0.60888671875,0.11049999999999999
2.8702290076335877,0.7938931297709924,-0.9465648854961832,0.0859375,-0.01806640625,-0.615478515625,0.1122
2.7786259541984735,0.7480916030534351,-1.1145038167938932,0.0888671875,-0.01904296875,-0.60888671875,0.11389999999999999
2.717557251908397,0.5954198473282443,-1.1908396946564885,0.09375,-0.01220703125,-0.61328125,0.1156
2.549618320610687,0.7938931297709924,-1.1297709923664123,0.091064453125,-0.012939453125,-0.621826171875,0.11729999999999999
2.6717557251908395,0.8091603053435115,-1.2213740458015268,0.091796875,-0.012451171875,-0.61181640625,0.119
2.4732824427480917,0.8244274809160306,-1.1450381679389312,0.091552734375,-0.011474609375,-0.61279296875,0.12069999999999999
1.816793893129771,1.0687022900763359,-1.0381679389312977,0.093017578125,-0.0146484375,-0.60986328125,0.1224
1.786259541984733,1.1450381679389312,-1.2366412213740459,0.09619140625,-0.015625,-0.61962890625,0.12409999999999999
1.83206106870229,1.2061068702290076,-1.1603053435114503,0.0927734375,-0.013671875,-0.6201171875,0.1258
1.618320610687023,1.1145038167938932,-1.1755725190839694,0.092041015625,-0.012451171875,-0.603759765625,0.1275
1.2671755725190839,1.3282442748091603,-1.3893129770992367,0.091552734375,-0.01904296875,-0.609619140625,0.12919999999999998
1.1603053435114503,1.2671755725190839,-1.3435114503816794,0.09130859375,-0.017578125,-0.61279296875,0.1309
1.1450381679389312,1.282442748091603,-1.251908396946565,0.09228515625,-0.01611328125,-0.61328125,0.1326
0.9312977099236641,1.3740458015267176,-1.7709923664122138,0.09375,-0.013916015625,-0.612548828125,0.1343
0.9923664122137404,1.2366412213740459,-1.6030534351145038,0.092041015625,-0.015380859375,-0.61376953125,0.13599999999999998
0.7022900763358778,1.1908396946564885,-1.5877862595419847,0.097900390625,-0.01708984375,-0.612548828125,0.1377
0.7022900763358778,1.2671755725190839,-1.5114503816793894,0.091064453125,-0.0185546875,-0.6171875,0.1394
0.7786259541984732,1.1908396946564885,-1.7404580152671756,0.091064453125,-0.016357421875,-0.615966796875,0.1411
0.8244274809160306,1.1450381679389312,-1.7099236641221374,0.090576171875,-0.015869140625,-0.61376953125,0.14279999999999998
0.7480916030534351,1.3740458015267176,-1.8625954198473282,0.091552734375,-0.015625,-0.611083984375,0.1445
0.8702290076335878,1.2671755725190839,-1.8015267175572518,0.091064453125,-0.01806640625,-0.61767578125,0.1462
0.8244274809160306,1.4351145038167938,-1.8625954198473282,0.095947265625,-0.0146484375,-0.61328125,0.1479
1.1145038167938932,1.2366412213740459,-1.9236641221374047,0.0947265625,-0.017822265625,-0.6142578125,0.14959999999999998
1.0229007633587786,1.297709923664122,-1.984732824427481,0.0966796875,-0.016357421875,-0.61279296875,0.1513
1.1145038167938932,1.297709923664122,-1.8625954198473282,0.095947265625,-0.0166015625,-0.621826171875,0.153
1.3282442748091603,1.1450381679389312,-1.9694656488549618,0.099609375,-0.015380859375,-0.611083984375,0.1547
1.2213740458015268,1.1908396946564885,-2.015267175572519,0.09521484375,-0.019775390625,-0.609375,0.15639999999999998
1.3893129770992367,1.2061068702290076,-2.0916030534351147,0.094482421875,-0.01318359375,-0.615234375,0.1581
1.5572519083969465,1.2061068702290076,-1.9694656488549618,0.094482421875,-0.013427734375,-0.60888671875,0.1598
1.6946564885496183,0.9007633587786259,-1.9236641221374047,0.10009765625,-0.017578125,-0.61328125,0.1615
1.465648854961832,0.9923664122137404,-1.9083969465648856,0.092529296875,-0.012451171875,-0.617919921875,0.16319999999999998
1.4351145038167938,1.0687022900763359,-2.0610687022900764,0.09375,-0.01708984375,-0.614501953125,0.1649
1.2213740458015268,0.9007633587786259,-1.633587786259542,0.092529296875,-0.01953125,-0.6171875,0.1666
1.2671755725190839,0.9618320610687023,-1.9236641221374047,0.0927734375,-0.016357421875,-0.61474609375,0.16829999999999998
1.4198473282442747,0.9312977099236641,-1.9236641221374047,0.0947265625,-0.017333984375,-0.610595703125,0.16999999999999998
1.0687022900763359,0.6717557251908397,-2.0916030534351147,0.09326171875,-0.015869140625,-0.61279296875,0.1717
0.8702290076335878,0.9312977099236641,-1.9083969465648856,0.09619140625,-0.01904296875,-0.6103515625,0.1734
0.8549618320610687,0.9007633587786259,-1.816793893129771,0.0947265625,-0.01513671875,-0.618408203125,0.17509999999999998
1.0076335877862594,0.6717557251908397,-1.7099236641221374,0.09326171875,-0.01220703125,-0.61328125,0.17679999999999998
0.7022900763358778,0.8396946564885496,-1.8778625954198473,0.091064453125,-0.016845703125,-0.60986328125,0.1785
0.7022900763358778,0.7175572519083969,-1.5877862595419847,0.10107421875,-0.01708984375,-0.609375,0.1802
1.0076335877862594,0.9007633587786259,-1.8625954198473282,0.10107421875,-0.0166015625,-0.617431640625,0.18189999999999998
1.2061068702290076,1.1603053435114503,-1.8625954198473282,0.0966796875,-0.013916015625,-0.613525390625,0.18359999999999999
0.9618320610687023,0.8396946564885496,-1.8778625954198473,0.09375,-0.015869140625,-0.619140625,0.1853
1.0229007633587786,1.083969465648855,-1.8015267175572518,0.093994140625,-0.015625,-0.616943359375,0.187
1.0381679389312977,0.9465648854961832,-1.7709923664122138,0.0947265625,-0.01611328125,-0.613037109375,0.18869999999999998
0.9770992366412213,1.0381679389312977,-1.6488549618320612,0.0908203125,-0.0146484375,-0.616943359375,0.19039999999999999
1.099236641221374,0.9770992366412213,-1.6946564885496183,0.093017578125,-0.015625,-0.6162109375,0.1921
1.2061068702290076,1.1297709923664123,-1.7557251908396947,0.090576171875,-0.017822265625,-0.614501953125,0.1938
1.1145038167938932,1.3129770992366412,-1.618320610687023,0.09521484375,-0.0185546875,-0.6142578125,0.19549999999999998
1.0076335877862594,1.0381679389312977,-1.5725190839694656,0.0927734375,-0.01318359375,-0.615234375,0.1972
1.0229007633587786,0.9618320610687023,-1.8625954198473282,0.09228515625,-0.016845703125,-0.611572265625,0.1989
1.0381679389312977,1.0534351145038168,-1.6488549618320612,0.093994140625,-0.014404296875,-0.60205078125,0.2006
0.8854961832061069,1.1450381679389312,-1.8931297709923665,0.094970703125,-0.017333984375,-0.607421875,0.20229999999999998
0.7480916030534351,1.1908396946564885,-1.618320610687023,0.09033203125,-0.02001953125,-0.611328125,0.204
0.7480916030534351,1.450381679389313,-1.618320610687023,0.087890625,-0.016845703125,-0.618408203125,0.2057
0.9007633587786259,1.3282442748091603,-1.7557251908396947,0.0869140625,-0.016357421875,-0.607177734375,0.2074
0.8396946564885496,1.4809160305343512,-1.8625954198473282,0.09130859375,-0.019775390625,-0.6123046875,0.20909999999999998
0.8854961832061069,1.3587786259541985,-1.7709923664122138,0.093994140625,-0.0166015625,-0.615234375,0.2108
0.8244274809160306,1.3893129770992367,-1.9389312977099236,0.09521484375,-0.012939453125,-0.608154296875,0.2125
0.7175572519083969,1.4045801526717556,-1.7709923664122138,0.0869140625,-0.014404296875,-0.620849609375,0.2142
0.8244274809160306,1.450381679389313,-1.816793893129771,0.085693359375,-0.0146484375,-0.6142578125,0.21589999999999998
0.6870229007633588,1.2671755725190839,-1.8778625954198473,0.0947265625,-0.015625,-0.611083984375,0.2176
0.7938931297709924,1.3587786259541985,-1.8473282442748091,0.09326171875,-0.0126953125,-0.603759765625,0.2193
0.6717557251908397,1.3129770992366412,-1.816793893129771,0.09521484375,-0.0107421875,-0.60498046875,0.22099999999999997
0.7786259541984732,1.282442748091603,-2.045801526717557,0.093017578125,-0.015869140625,-0.606201171875,0.22269999999999998
0.7022900763358778,1.4961832061068703,-1.984732824427481,0.094970703125,-0.01171875,-0.61181640625,0.2244
0.44274809160305345,1.297709923664122,-2.0,0.1015625,-0.009521484375,-0.612548828125,0.2261
0.5343511450381679,1.5725190839694656,-2.122137404580153,0.089599609375,-0.01318359375,-0.611083984375,0.22779999999999997
0.7938931297709924,1.5419847328244274,-1.984732824427481,0.08935546875,-0.015625,-0.61279296875,0.22949999999999998
1.083969465648855,1.4198473282442747,-2.0763358778625953,0.092041015625,-0.01123046875,-0.60595703125,0.2312
0.8091603053435115,1.3893129770992367,-1.786259541984733,0.092041015625,-0.017333984375,-0.609619140625,0.2329
1.1755725190839694,1.6030534351145038,-1.9694656488549618,0.095458984375,-0.007568359375,-0.609375,0.23459999999999998
1.450381679389313,1.6030534351145038,-1.9083969465648856,0.093505859375,-0.0146484375,-0.61328125,0.23629999999999998
1.297709923664122,1.4351145038167938,-1.8625954198473282,0.092041015625,-0.01025390625,-0.609375,0.238
1.618320610687023,1.5267175572519085,-2.0763358778625953,0.0927734375,-0.01123046875,-0.611572265625,0.2397
1.5114503816793894,1.4809160305343512,-1.9541984732824427,0.094482421875,-0.0146484375,-0.616455078125,0.24139999999999998
1.6946564885496183,1.4045801526717556,-1.9236641221374047,0.09716796875,-0.01513671875,-0.6162109375,0.24309999999999998
2.030534351145038,1.618320610687023,-1.7404580152671756,0.092041015625,-0.013916015625,-0.62109375,0.2448
2.16793893129771,1.4961832061068703,-1.83206106870229,0.09814453125,-0.01513671875,-0.610595703125,0.2465
1.8778625954198473,1.1755725190839694,-1.786259541984733,0.095458984375,-0.015380859375,-0.6123046875,0.24819999999999998
2.1374045801526718,1.2061068702290076,-1.618320610687023,0.0966796875,-0.0185546875,-0.610595703125,0.24989999999999998
2.351145038167939,1.251908396946565,-1.7099236641221374,0.0986328125,-0.012451171875,-0.6123046875,0.2516
2.16793893129771,1.2213740458015268,-1.465648854961832,0.096923828125,-0.019775390625,-0.61279296875,0.25329999999999997
2.213740458015267,0.9770992366412213,-1.4351145038167938,0.095947265625,-0.01318359375,-0.62353515625,0.255
2.213740458015267,1.1145038167938932,-1.633587786259542,0.08984375,-0.0224609375,-0.613525390625,0.2567
2.2290076335877864,0.9770992366412213,-1.5419847328244274,0.092529296875,-0.012451171875,-0.6103515625,0.25839999999999996
1.8473282442748091,0.916030534351145,-1.3893129770992367,0.095458984375,-0.011474609375,-0.607177734375,0.2601
1.9694656488549618,0.7938931297709924,-1.3587786259541985,0.09619140625,-0.019287109375,-0.614990234375,0.2618
2.045801526717557,0.8244274809160306,-1.3282442748091603,0.092529296875,-0.019775390625,-0.613525390625,0.2635
1.8015267175572518,0.9465648854961832,-1.4961832061068703,0.08984375,-0.017578125,-0.610595703125,0.2652
1.83206106870229,1.1755725190839694,-1.2213740458015268,0.08984375,-0.02197265625,-0.610107421875,0.26689999999999997
1.7709923664122138,1.1297709923664123,-1.3435114503816794,0.09228515625,-0.018798828125,-0.6171875,0.2686
1.8625954198473282,1.1297709923664123,-1.5267175572519085,0.091552734375,-0.013916015625,-0.6142578125,0.2703
1.786259541984733,1.1755725190839694,-1.3740458015267176,0.090576171875,-0.020263671875,-0.610107421875,0.27199999999999996
2.0610687022900764,1.1450381679389312,-1.3893129770992367,0.0888671875,-0.02099609375,-0.606689453125,0.2737
1.8625954198473282,1.1450381679389312,-1.3740458015267176,0.087890625,-0.013671875,-0.61083984375,0.2754
2.0610687022900764,1.3587786259541985,-1.4351145038167938,0.086669921875,-0.015625,-0.617919921875,0.27709999999999996
1.816793893129771,1.4045801526717556,-1.7099236641221374,0.090087890625,-0.01953125,-0.612548828125,0.2788
1.4198473282442747,1.3435114503816794,-1.3893129770992367,0.089111328125,-0.01318359375,-0.6123046875,0.28049999999999997
1.5572519083969465,1.3435114503816794,-1.5114503816793894,0.08447265625,-0.013916015625,-0.609619140625,0.2822
1.618320610687023,1.5419847328244274,-1.3740458015267176,0.091064453125,-0.017578125,-0.611083984375,0.2839
1.5419847328244274,1.618320610687023,-1.251908396946565,0.09130859375,-0.017822265625,-0.61474609375,0.28559999999999997
1.4961832061068703,1.6641221374045803,-1.4045801526717556,0.091552734375,-0.01611328125,-0.61083984375,0.2873
1.2061068702290076,1.7709923664122138,-1.4351145038167938,0.09228515625,-0.017578125,-0.621337890625,0.289
1.0534351145038168,1.7404580152671756,-1.1908396946564885,0.089111328125,-0.019775390625,-0.6123046875,0.29069999999999996
1.2061068702290076,1.9541984732824427,-1.1908396946564885,0.093994140625,-0.017578125,-0.622314453125,0.2924
0.9618320610687023,1.8625954198473282,-1.099236641221374,0.093505859375,-0.01611328125,-0.610107421875,0.2941
0.916030534351145,2.0763358778625953,-1.083969465648855,0.087646484375,-0.019775390625,-0.61279296875,0.2958
0.9770992366412213,2.1068702290076335,-0.9007633587786259,0.090576171875,-0.020263671875,-0.620361328125,0.2975
1.083969465648855,2.015267175572519,-0.8702290076335878,0.09130859375,-0.0205078125,-0.62255859375,0.29919999999999997
0.9312977099236641,2.2442748091603053,-0.9312977099236641,0.090087890625,-0.021484375,-0.619384765625,0.3009
0.7175572519083969,2.2290076335877864,-0.8702290076335878,0.09130859375,-0.0283203125,-0.617431640625,0.3026
0.9923664122137404,2.366412213740458,-0.6412213740458015,0.091064453125,-0.020263671875,-0.6201171875,0.30429999999999996
0.9618320610687023,2.2595419847328246,-0.7938931297709924,0.091064453125,-0.024658203125,-0.609619140625,0.306
0.8854961832061069,2.4122137404580153,-0.7022900763358778,0.090576171875,-0.0205078125,-0.611083984375,0.3077
0.8854961832061069,2.427480916030534,-0.8091603053435115,0.0927734375,-0.02392578125,-0.612548828125,0.3094
0.9770992366412213,2.427480916030534,-0.6870229007633588,0.08984375,-0.020263671875,-0.6123046875,0.3111
1.083969465648855,2.2290076335877864,-0.8244274809160306,0.095947265625,-0.018798828125,-0.609619140625,0.31279999999999997
0.916030534351145,2.2290076335877864,-0.7175572519083969,0.089599609375,-0.02197265625,-0.615234375,0.3145
0.7480916030534351,1.9083969465648856,-0.916030534351145,0.091552734375,-0.023193359375,-0.61279296875,0.3162
0.916030534351145,2.045801526717557,-0.8854961832061069,0.091552734375,-0.017822265625,-0.603515625,0.31789999999999996
1.0687022900763359,1.9389312977099236,-1.0229007633587786,0.094970703125,-0.016357421875,-0.608642578125,0.3196
1.0229007633587786,2.0916030534351147,-1.2213740458015268,0.09716796875,-0.016845703125,-0.612060546875,0.3213
1.0381679389312977,1.7251908396946565,-1.083969465648855,0.089599609375,-0.012939453125,-0.6103515625,0.323
0.916030534351145,1.5725190839694656,-1.1450381679389312,0.096923828125,-0.017333984375,-0.606201171875,0.3247
0.8549618320610687,1.4961832061068703,-1.1755725190839694,0.091064453125,-0.01318359375,-0.61181640625,0.32639999999999997
1.0381679389312977,1.450381679389313,-1.1908396946564885,0.09521484375,-0.0126953125,-0.61376953125,0.3281
1.251908396946565,1.251908396946565,-1.5267175572519085,0.0947265625,-0.01513671875,-0.61328125,0.3298
1.3587786259541985,1.3587786259541985,-1.1908396946564885,0.094482421875,-0.0078125,-0.60791015625,0.33149999999999996
1.5267175572519085,1.4045801526717556,-1.5572519083969465,0.0869140625,-0.013671875,-0.6064453125,0.3332
1.6793893129770991,1.1908396946564885,-1.450381679389313,0.09423828125,-0.01123046875,-0.607177734375,0.3349
1.9083969465648856,1.083969465648855,-1.5114503816793894,0.08984375,-0.013427734375,-0.61669921875,0.33659999999999995
2.1526717557251906,1.1450381679389312,-1.3587786259541985,0.09033203125,-0.006591796875,-0.615478515625,0.3383
2.2442748091603053,0.9465648854961832,-1.816793893129771,0.090576171875,-0.01171875,-0.610107421875,0.33999999999999997
2.183206106870229,0.9618320610687023,-1.6946564885496183,0.09423828125,-0.015869140625,-0.61279296875,0.3417
2.183206106870229,1.083969465648855,-1.7251908396946565,0.091064453125,-0.016357421875,-0.622802734375,0.3434
2.7022900763358777,1.0381679389312977,-1.5267175572519085,0.088134765625,-0.010498046875,-0.615966796875,0.34509999999999996
2.900763358778626,0.9618320610687023,-1.7099236641221374,0.08984375,-0.01416015625,-0.610595703125,0.3468
2.9618320610687023,1.1297709923664123,-1.3282442748091603,0.091064453125,-0.010498046875,-0.607666015625,0.3485
2.9770992366412212,1.2061068702290076,-1.450381679389313,0.085205078125,-0.0126953125,-0.6123046875,0.35019999999999996
3.114503816793893,1.0229007633587786,-1.4961832061068703,0.087646484375,-0.0087890625,-0.612060546875,0.3519
3.099236641221374,1.083969465648855,-1.3893129770992367,0.0869140625,-0.008544921875,-0.6103515625,0.35359999999999997
3.1908396946564888,1.1603053435114503,-1.297709923664122,0.090576171875,-0.013671875,-0.621826171875,0.3553
3.0381679389312977,1.4045801526717556,-1.4809160305343512,0.0927734375,-0.01025390625,-0.61669921875,0.357
3.068702290076336,1.3893129770992367,-1.2061068702290076,0.090087890625,-0.016357421875,-0.618896484375,0.35869999999999996
2.6106870229007635,1.4045801526717556,-1.1755725190839694,0.09033203125,-0.015869140625,-0.6181640625,0.3604
2.595419847328244,1.5267175572519085,-1.297709923664122,0.088134765625,-0.01708984375,-0.623291015625,0.3621
2.6106870229007635,1.7251908396946565,-1.3740458015267176,0.087890625,-0.01416015625,-0.61328125,0.36379999999999996
2.351145038167939,1.8778625954198473,-1.1145038167938932,0.089599609375,-0.01318359375,-0.607666015625,0.3655
2.198473282442748,1.6793893129770991,-1.1908396946564885,0.089111328125,-0.014404296875,-0.60791015625,0.36719999999999997
2.1374045801526718,1.8015267175572518,-1.2061068702290076,0.0869140625,-0.02001953125,-0.61279296875,0.3689
2.0763358778625953,1.786259541984733,-1.2366412213740459,0.0888671875,-0.017822265625,-0.607177734375,0.3706
1.6793893129770991,1.83206106870229,-1.282442748091603,0.089599609375,-0.016357421875,-0.6083984375,0.37229999999999996
1.5114503816793894,1.8931297709923665,-1.3893129770992367,0.0927734375,-0.017333984375,-0.6181640625,0.374
1.4961832061068703,1.7099236641221374,-1.3740458015267176,0.0986328125,-0.016845703125,-0.60791015625,0.3757
1.6030534351145038,1.8015267175572518,-1.2671755725190839,0.091796875,-0.01904296875,-0.6123046875,0.37739999999999996
1.2213740458015268,1.83206106870229,-1.3129770992366412,0.093505859375,-0.022705078125,-0.6171875,0.3791
1.282442748091603,1.9541984732824427,-1.4351145038167938,0.090576171875,-0.0205078125,-0.6162109375,0.38079999999999997
1.099236641221374,1.8015267175572518,-1.4198473282442747,0.090576171875,-0.015625,-0.610595703125,0.38249999999999995
1.1603053435114503,1.9389312977099236,-1.4045801526717556,0.09228515625,-0.020263671875,-0.612060546875,0.3842
1.083969465648855,1.816793893129771,-1.251908396946565,0.0947265625,-0.02001953125,-0.606689453125,0.38589999999999997
0.9312977099236641,1.9389312977099236,-1.5419847328244274,0.0947265625,-0.01318359375,-0.6123046875,0.3876
0.9770992366412213,1.9541984732824427,-1.1603053435114503,0.093505859375,-0.019775390625,-0.6123046875,0.3893
0.8396946564885496,1.9389312977099236,-1.1450381679389312,0.095947265625,-0.016845703125,-0.610595703125,0.39099999999999996
0.5801526717557252,1.8625954198473282,-1.4198473282442747,0.093505859375,-0.020751953125,-0.6044921875,0.3927
0.5190839694656488,1.8473282442748091,-1.3587786259541985,0.093017578125,-0.014404296875,-0.60107421875,0.3944
0.2900763358778626,1.786259541984733,-1.3282442748091603,0.09375,-0.0126953125,-0.613037109375,0.39609999999999995
0.24427480916030533,1.8473282442748091,-1.0687022900763359,0.093505859375,-0.015625,-0.612060546875,0.3978
0.5038167938931297,1.786259541984733,-1.2061068702290076,0.094482421875,-0.016845703125,-0.61962890625,0.39949999999999997
0.366412213740458,1.7557251908396947,-1.2061068702290076,0.095458984375,-0.016357421875,-0.615234375,0.4012
0.3053435114503817,1.6946564885496183,-1.2061068702290076,0.09375,-0.02001953125,-0.60791015625,0.4029
0.183206106870229,1.4961832061068703,-1.1297709923664123,0.0947265625,-0.01611328125,-0.609375,0.40459999999999996
0.183206106870229,1.6793893129770991,-1.0687022900763359,0.093994140625,-0.014404296875,-0.5966796875,0.4063
0.0,1.450381679389313,-1.0381679389312977,0.093017578125,-0.010498046875,-0.606201171875,0.408
0.366412213740458,1.5267175572519085,-0.8091603053435115,0.099609375,-0.01513671875,-0.616943359375,0.40969999999999995
0.22900763358778625,1.3740458015267176,-1.0076335877862594,0.09814453125,-0.011962890625,-0.617919921875,0.4114
0.183206106870229,1.1908396946564885,-0.9007633587786259,0.093994140625,-0.017333984375,-0.602783203125,0.41309999999999997
0.0,1.3129770992366412,-0.9923664122137404,0.09521484375,-0.01123046875,-0.609375,0.4148
-0.13740458015267176,1.2061068702290076,-0.9007633587786259,0.09521484375,-0.01171875,-0.609375,0.4165
-0.015267175572519083,0.9770992366412213,-0.732824427480916,0.0986328125,-0.01025390625,-0.615966796875,0.41819999999999996
0.12213740458015267,1.251908396946565,-0.8549618320610687,0.099609375,-0.0078125,-0.61083984375,0.4199
0.3511450381679389,1.2366412213740459,-0.8854961832061069,0.0966796875,-0.0068359375,-0.610107421875,0.4216
0.6564885496183206,1.1145038167938932,-1.1450381679389312,0.0986328125,-0.010986328125,-0.610107421875,0.42329999999999995
0.7633587786259542,0.8854961832061069,-1.083969465648855,0.089599609375,-0.01513671875,-0.610107421875,0.425
0.9770992366412213,0.8396946564885496,-1.0381679389312977,0.097412109375,-0.009765625,-0.606689453125,0.42669999999999997
1.4351145038167938,0.7938931297709924,-1.0229007633587786,0.09521484375,-0.014892578125,-0.61181640625,0.4284
1.4198473282442747,0.7175572519083969,-1.0687022900763359,0.09521484375,-0.0146484375,-0.627685546875,0.4301
1.8931297709923665,0.9770992366412213,-1.0381679389312977,0.096923828125,-0.013671875,-0.612548828125,0.43179999999999996
1.9694656488549618,0.6412213740458015,-1.1145038167938932,0.096435546875,-0.0166015625,-0.61181640625,0.4335
2.2290076335877864,0.549618320610687,-1.083969465648855,0.0947265625,-0.013671875,-0.60791015625,0.4352
2.381679389312977,0.33587786259541985,-1.1755725190839694,0.09423828125,-0.010986328125,-0.61328125,0.43689999999999996
2.351145038167939,0.32061068702290074,-1.099236641221374,0.093505859375,-0.012939453125,-0.61572265625,0.4386
2.5343511450381677,0.549618320610687,-1.099236641221374,0.0947265625,-0.008056640625,-0.611572265625,0.44029999999999997
2.717557251908397,0.2900763358778626,-1.1908396946564885,0.095458984375,-0.0126953125,-0.61083984375,0.44199999999999995
2.7480916030534353,0.2748091603053435,-1.1450381679389312,0.09326171875,-0.011962890625,-0.607421875,0.4437
3.0229007633587788,0.4732824427480916,-1.099236641221374,0.09716796875,-0.01318359375,-0.615478515625,0.44539999999999996
2.9160305343511452,0.4580152671755725,-1.1297709923664123,0.094482421875,-0.01708984375,-0.60693359375,0.4471
3.0229007633587788,0.3053435114503817,-1.0687022900763359,0.093017578125,-0.012451171875,-0.612548828125,0.4488
2.9618320610687023,0.44274809160305345,-1.1145038167938932,0.092529296875,-0.013916015625,-0.61376953125,0.45049999999999996
3.0381679389312977,0.4732824427480916,-0.9923664122137404,0.095703125,-0.014404296875,-0.616943359375,0.4522
3.1755725190839694,0.6717557251908397,-0.9923664122137404,0.089111328125,-0.01513671875,-0.615478515625,0.45389999999999997
2.8091603053435112,0.6106870229007634,-0.6259541984732825,0.09228515625,-0.017578125,-0.60595703125,0.45559999999999995
2.7938931297709924,0.6564885496183206,-0.916030534351145,0.089599609375,-0.020263671875,-0.61669921875,0.4573
2.8244274809160306,0.5343511450381679,-0.5801526717557252,0.092041015625,-0.017333984375,-0.61181640625,0.45899999999999996
2.8396946564885495,0.5190839694656488,-0.7480916030534351,0.093017578125,-0.01513671875,-0.615966796875,0.4607
2.732824427480916,0.7022900763358778,-0.549618320610687,0.091064453125,-0.020751953125,-0.60498046875,0.4624
2.6106870229007635,0.8396946564885496,-0.6564885496183206,0.0927734375,-0.013427734375,-0.625244140625,0.46409999999999996
2.595419847328244,0.732824427480916,-0.48854961832061067,0.0966796875,-0.017578125,-0.61328125,0.4658
2.3206106870229006,0.9007633587786259,-0.44274809160305345,0.090087890625,-0.01220703125,-0.6142578125,0.46749999999999997
2.4427480916030535,0.7633587786259542,-0.3511450381679389,0.0908203125,-0.023681640625,-0.61962890625,0.46919999999999995
2.427480916030534,0.9312977099236641,-0.5343511450381679,0.0927734375,-0.020751953125,-0.607177734375,0.4709
2.4122137404580153,1.0229007633587786,-0.3969465648854962,0.094482421875,-0.024658203125,-0.6103515625,0.47259999999999996
2.6106870229007635,1.0687022900763359,-0.44274809160305345,0.093505859375,-0.016357421875,-0.62548828125,0.4743
2.16793893129771,1.0534351145038168,-0.1984732824427481,0.094970703125,-0.02099609375,-0.615478515625,0.476
1.8625954198473282,1.0229007633587786,-0.48854961832061067,0.090576171875,-0.024169921875,-0.610595703125,0.47769999999999996
1.618320610687023,1.099236641221374,-0.3969465648854962,0.09423828125,-0.0185546875,-0.614990234375,0.4794
1.6946564885496183,1.1908396946564885,-0.8396946564885496,0.0947265625,-0.0224609375,-0.614990234375,0.48109999999999997
1.7404580152671756,1.0534351145038168,-0.3816793893129771,0.095458984375,-0.021728515625,-0.62255859375,0.48279999999999995
1.2213740458015268,1.3282442748091603,-0.7938931297709924,0.09716796875,-0.021240234375,-0.611083984375,0.4845
1.0381679389312977,1.2061068702290076,-0.6564885496183206,0.09228515625,-0.018310546875,-0.60791015625,0.48619999999999997
1.282442748091603,1.0687022900763359,-0.549618320610687,0.091796875,-0.017578125,-0.614501953125,0.4879
1.0229007633587786,1.1297709923664123,-0.9465648854961832,0.094482421875,-0.01904296875,-0.61474609375,0.4896
0.9007633587786259,1.3129770992366412,-0.7633587786259542,0.093505859375,-0.0185546875,-0.609130859375,0.49129999999999996
1.0229007633587786,1.099236641221374,-0.6106870229007634,0.09521484375,-0.016845703125,-0.612060546875,0.493
0.8702290076335878,0.9312977099236641,-0.9923664122137404,0.092041015625,-0.0185546875,-0.608642578125,0.4947
0.7633587786259542,1.1450381679389312,-0.7480916030534351,0.095458984375,-0.01708984375,-0.610595703125,0.49639999999999995
0.549618320610687,1.099236641221374,-0.7022900763358778,0.10009765625,-0.017333984375,-0.61474609375,0.4981
0.7938931297709924,1.1755725190839694,-0.8702290076335878,0.096435546875,-0.01904296875,-0.6162109375,0.49979999999999997
0.8702290076335878,1.1297709923664123,-0.9007633587786259,0.08984375,-0.019775390625,-0.60595703125,0.5015
0.9465648854961832,1.3893129770992367,-0.8549618320610687,0.0908203125,-0.0126953125,-0.609619140625,0.5032
0.8854961832061069,1.2366412213740459,-1.0381679389312977,0.0927734375,-0.019287109375,-0.61181640625,0.5049
0.9465648854961832,1.3435114503816794,-1.0381679389312977,0.09130859375,-0.009765625,-0.605712890625,0.5065999999999999
0.8854961832061069,1.4045801526717556,-1.1145038167938932,0.095703125,-0.01611328125,-0.613037109375,0.5083
1.297709923664122,1.4045801526717556,-0.7786259541984732,0.095947265625,-0.01611328125,-0.617431640625,0.51
1.1145038167938932,1.450381679389313,-0.8244274809160306,0.0966796875,-0.011962890625,-0.616455078125,0.5116999999999999
1.3740458015267176,1.4961832061068703,-0.8854961832061069,0.092529296875,-0.009765625,-0.6103515625,0.5134
1.5114503816793894,1.4351145038167938,-1.3587786259541985,0.09619140625,-0.0087890625,-0.61865234375,0.5151
1.5419847328244274,1.3435114503816794,-0.9465648854961832,0.09033203125,-0.01513671875,-0.61474609375,0.5167999999999999
1.6641221374045803,1.4961832061068703,-1.0381679389312977,0.095458984375,-0.013671875,-0.609619140625,0.5185
1.6641221374045803,1.5877862595419847,-0.9465648854961832,0.097900390625,-0.01220703125,-0.608642578125,0.5202
1.7557251908396947,1.4809160305343512,-1.1450381679389312,0.1015625,-0.01171875,-0.616455078125,0.5218999999999999
1.7404580152671756,1.4198473282442747,-0.9923664122137404,0.094482421875,-0.015869140625,-0.61474609375,0.5236
1.9236641221374047,1.3282442748091603,-0.9007633587786259,0.097900390625,-0.0146484375,-0.6123046875,0.5253
2.045801526717557,1.5725190839694656,-1.083969465648855,0.09423828125,-0.01123046875,-0.607177734375,0.527
2.2900763358778624,1.450381679389313,-1.1908396946564885,0.093017578125,-0.01611328125,-0.61572265625,0.5287
2.33587786259542,1.5419847328244274,-1.0534351145038168,0.09228515625,-0.021484375,-0.6123046875,0.5304
2.3969465648854964,1.5877862595419847,-1.1908396946564885,0.092041015625,-0.017578125,-0.60791015625,0.5321
2.366412213740458,1.5877862595419847,-1.1755725190839694,0.09375,-0.016845703125,-0.609375,0.5337999999999999
2.717557251908397,1.618320610687023,-1.1603053435114503,0.09716796875,-0.017822265625,-0.617431640625,0.5355
2.8244274809160306,1.7099236641221374,-1.2671755725190839,0.094482421875,-0.021728515625,-0.609619140625,0.5372
2.549618320610687,1.7404580152671756,-1.2366412213740459,0.096923828125,-0.022216796875,-0.6083984375,0.5388999999999999
2.5801526717557253,1.816793893129771,-1.1297709923664123,0.0947265625,-0.017822265625,-0.608154296875,0.5406
2.732824427480916,1.7251908396946565,-1.251908396946565,0.091064453125,-0.0146484375,-0.610595703125,0.5423
2.5801526717557253,1.7251908396946565,-1.2213740458015268,0.093505859375,-0.02099609375,-0.61328125,0.5439999999999999
2.519083969465649,1.8473282442748091,-1.3282442748091603,0.091796875,-0.02001953125,-0.621337890625,0.5457
2.6717557251908395,1.618320610687023,-1.0076335877862594,0.09716796875,-0.0185546875,-0.618408203125,0.5474
2.519083969465649,1.786259541984733,-1.1145038167938932,0.097412109375,-0.019287109375,-0.6083984375,0.5490999999999999
2.427480916030534,1.816793893129771,-1.1908396946564885,0.097412109375,-0.018310546875,-0.6064453125,0.5508
2.366412213740458,1.8015267175572518,-1.099236641221374,0.09716796875,-0.0224609375,-0.6142578125,0.5525
2.2595419847328246,1.816793893129771,-1.0076335877862594,0.0927734375,-0.021728515625,-0.611572265625,0.5541999999999999
2.1374045801526718,1.8931297709923665,-1.4198473282442747,0.099609375,-0.015869140625,-0.6162109375,0.5559
2.0916030534351147,1.8625954198473282,-1.1603053435114503,0.093505859375,-0.01708984375,-0.612060546875,0.5576
2.045801526717557,1.9083969465648856,-1.1297709923664123,0.0927734375,-0.015869140625,-0.6162109375,0.5593
2.0,1.7557251908396947,-0.9923664122137404,0.0927734375,-0.017333984375,-0.62060546875,0.5609999999999999
1.6946564885496183,1.5725190839694656,-1.1908396946564885,0.09326171875,-0.017578125,-0.614013671875,0.5627
1.4045801526717556,1.816793893129771,-1.1145038167938932,0.09375,-0.0185546875,-0.615234375,0.5644
1.1450381679389312,1.7251908396946565,-1.2671755725190839,0.097412109375,-0.016357421875,-0.61669921875,0.5660999999999999
1.3435114503816794,1.6641221374045803,-1.2671755725190839,0.093017578125,-0.015380859375,-0.605712890625,0.5678
1.1908396946564885,1.8473282442748091,-1.251908396946565,0.0947265625,-0.017822265625,-0.6171875,0.5695
0.8244274809160306,1.9083969465648856,-1.3740458015267176,0.09228515625,-0.01904296875,-0.611083984375,0.5711999999999999
0.44274809160305345,1.8015267175572518,-1.4961832061068703,0.09375,-0.01806640625,-0.614501953125,0.5729
0.6717557251908397,2.0610687022900764,-1.5725190839694656,0.0927734375,-0.0146484375,-0.610595703125,0.5746
0.9465648854961832,2.015267175572519,-1.5419847328244274,0.096923828125,-0.01904296875,-0.61572265625,0.5762999999999999
0.7480916030534351,2.1374045801526718,-1.5419847328244274,0.096435546875,-0.020263671875,-0.6064453125,0.578
0.7633587786259542,2.1068702290076335,-1.4961832061068703,0.093505859375,-0.013427734375,-0.607421875,0.5797
1.1755725190839694,1.984732824427481,-1.6793893129770991,0.09033203125,-0.015625,-0.614013671875,0.5813999999999999
1.0534351145038168,2.030534351145038,-1.816793893129771,0.095458984375,-0.01220703125,-0.614990234375,0.5831
1.1297709923664123,1.9083969465648856,-1.5267175572519085,0.095458984375,-0.010986328125,-0.6201171875,0.5848
1.251908396946565,1.9083969465648856,-1.618320610687023,0.097900390625,-0.014404296875,-0.60888671875,0.5865
1.5114503816793894,1.83206106870229,-1.6793893129770991,0.09375,-0.017333984375,-0.619873046875,0.5882
1.618320610687023,1.618320610687023,-1.3740458015267176,0.099609375,-0.013427734375,-0.610107421875,0.5899
1.5877862595419847,1.618320610687023,-1.786259541984733,0.097412109375,-0.01123046875,-0.606689453125,0.5916
1.7557251908396947,1.6488549618320612,-1.618320610687023,0.090087890625,-0.01708984375,-0.6123046875,0.5932999999999999
1.5572519083969465,1.5419847328244274,-1.4809160305343512,0.08837890625,-0.019287109375,-0.60205078125,0.595
1.297709923664122,1.7251908396946565,-1.4351145038167938,0.092041015625,-0.012939453125,-0.615966796875,0.5967
1.4351145038167938,1.7404580152671756,-1.4045801526717556,0.093017578125,-0.017822265625,-0.609130859375,0.5983999999999999
1.1755725190839694,1.6641221374045803,-1.2671755725190839,0.0927734375,-0.012939453125,-0.61279296875,0.6001
1.3740458015267176,1.5572519083969465,-1.2061068702290076,0.0927734375,-0.011962890625,-0.615478515625,0.6018
1.7099236641221374,1.633587786259542,-0.9770992366412213,0.093505859375,-0.010009765625,-0.61376953125,0.6034999999999999
1.4351145038167938,1.7251908396946565,-0.9312977099236641,0.096923828125,-0.01416015625,-0.61181640625,0.6052
1.5114503816793894,1.7557251908396947,-1.083969465648855,0.09326171875,-0.015869140625,-0.615234375,0.6069
1.3435114503816794,1.8625954198473282,-1.1755725190839694,0.091552734375,-0.0166015625,-0.616943359375,0.6085999999999999
1.450381679389313,1.9541984732824427,-1.0229007633587786,0.09521484375,-0.01513671875,-0.607177734375,0.6103
1.4198473282442747,1.7557251908396947,-1.2213740458015268,0.09326171875,-0.0234375,-0.60693359375,0.612
1.1908396946564885,1.7099236641221374,-1.0534351145038168,0.09619140625,-0.016357421875,-0.61669921875,0.6136999999999999
1.2061068702290076,1.633587786259542,-1.4198473282442747,0.09130859375,-0.01513671875,-0.6064453125,0.6154
1.3435114503816794,1.7251908396946565,-1.2061068702290076,0.0869140625,-0.015869140625,-0.604248046875,0.6171
1.2213740458015268,1.6641221374045803,-1.4351145038167938,0.088623046875,-0.01416015625,-0.618896484375,0.6188
0.9923664122137404,1.7251908396946565,-1.3129770992366412,0.091552734375,-0.017333984375,-0.615478515625,0.6204999999999999
1.1603053435114503,1.8015267175572518,-1.0687022900763359,0.095703125,-0.02294921875,-0.615966796875,0.6222
1.099236641221374,1.5877862595419847,-1.3587786259541985,0.09326171875,-0.020751953125,-0.6123046875,0.6239
1.1297709923664123,1.83206106870229,-1.5572519083969465,0.09716796875,-0.018310546875,-0.61572265625,0.6255999999999999
1.2366412213740459,1.5419847328244274,-1.2366412213740459,0.091552734375,-0.018798828125,-0.60888671875,0.6273
1.0381679389312977,1.4961832061068703,-1.450381679389313,0.0966796875,-0.017333984375,-0.611083984375,0.629
0.8854961832061069,1.7251908396946565,-1.3282442748091603,0.087646484375,-0.02001953125,-0.618408203125,0.6306999999999999
1.1297709923664123,1.7557251908396947,-1.6488549618320612,0.09228515625,-0.021484375,-0.610107421875,0.6324
1.2061068702290076,1.8625954198473282,-1.3282442748091603,0.09130859375,-0.01708984375,-0.6083984375,0.6341
1.2671755725190839,1.7404580152671756,-1.2213740458015268,0.08935546875,-0.0224609375,-0.6142578125,0.6357999999999999
0.9923664122137404,1.816793893129771,-1.4198473282442747,0.08642578125,-0.016845703125,-0.603759765625,0.6375
1.099236641221374,1.786259541984733,-1.3740458015267176,0.088623046875,-0.013916015625,-0.61181640625,0.6392
1.3435114503816794,1.8778625954198473,-1.3129770992366412,0.08837890625,-0.020263671875,-0.615478515625,0.6408999999999999
1.3282442748091603,2.015267175572519,-1.5419847328244274,0.09375,-0.015869140625,-0.61279296875,0.6426
1.2671755725190839,2.0,-1.2366412213740459,0.09326171875,-0.01806640625,-0.60888671875,0.6443
1.2061068702290076,1.7709923664122138,-1.5725190839694656,0.090576171875,-0.02099609375,-0.609130859375,0.646
1.0229007633587786,1.8473282442748091,-1.6030534351145038,0.09033203125,-0.019775390625,-0.6123046875,0.6476999999999999
1.282442748091603,1.9541984732824427,-1.6030534351145038,0.0927734375,-0.01611328125,-0.615966796875,0.6494
1.099236641221374,1.83206106870229,-1.2671755725190839,0.090576171875,-0.0107421875,-0.612548828125,0.6511
1.2213740458015268,2.0763358778625953,-1.5114503816793894,0.096435546875,-0.018310546875,-0.6123046875,0.6527999999999999
1.1450381679389312,2.213740458015267,-1.465648854961832,0.0927734375,-0.017578125,-0.612548828125,0.6545
1.2061068702290076,2.122137404580153,-1.786259541984733,0.093505859375,-0.015869140625,-0.6142578125,0.6562
1.1603053435114503,1.8931297709923665,-1.4809160305343512,0.0927734375,-0.015625,-0.610107421875,0.6578999999999999
1.3893129770992367,2.1526717557251906,-1.9236641221374047,0.09130859375,-0.01806640625,-0.61962890625,0.6596
1.4045801526717556,2.0610687022900764,-1.8778625954198473,0.092041015625,-0.016357421875,-0.602783203125,0.6613
1.1908396946564885,1.8625954198473282,-1.9083969465648856,0.095703125,-0.020751953125,-0.61083984375,0.6629999999999999
1.2671755725190839,1.984732824427481,-1.8473282442748091,0.087890625,-0.02197265625,-0.604248046875,0.6647
1.5114503816793894,2.030534351145038,-1.9083969465648856,0.095703125,-0.0146484375,-0.608642578125,0.6664
1.5877862595419847,2.015267175572519,-1.7099236641221374,0.094482421875,-0.014404296875,-0.6103515625,0.6680999999999999
1.3129770992366412,1.9083969465648856,-1.9541984732824427,0.09521484375,-0.0126953125,-0.615234375,0.6698
1.5114503816793894,1.786259541984733,-1.9694656488549618,0.091796875,-0.013427734375,-0.61328125,0.6715
1.633587786259542,1.6946564885496183,-1.8015267175572518,0.093505859375,-0.01220703125,-0.60595703125,0.6731999999999999
1.4961832061068703,1.9389312977099236,-1.7099236641221374,0.08984375,-0.015625,-0.610595703125,0.6748999999999999
1.282442748091603,1.8473282442748091,-1.8778625954198473,0.093505859375,-0.016357421875,-0.6064453125,0.6766
1.3893129770992367,1.8625954198473282,-1.450381679389313,0.09912109375,-0.013427734375,-0.61279296875,0.6783
1.4045801526717556,1.8625954198473282,-1.618320610687023,0.09716796875,-0.016845703125,-0.6142578125,0.6799999999999999
1.2061068702290076,1.9083969465648856,-1.633587786259542,0.092041015625,-0.014892578125,-0.597900390625,0.6817
1.1908396946564885,1.8931297709923665,-1.6793893129770991,0.093994140625,-0.017333984375,-0.61865234375,0.6834
1.2061068702290076,1.7404580152671756,-1.3587786259541985,0.089599609375,-0.017822265625,-0.610107421875,0.6850999999999999
1.1450381679389312,1.6030534351145038,-1.4198473282442747,0.1015625,-0.013427734375,-0.612060546875,0.6868
1.1145038167938932,1.5725190839694656,-1.1908396946564885,0.09716796875,-0.01220703125,-0.611572265625,0.6885
1.251908396946565,1.5572519083969465,-1.3282442748091603,0.0947265625,-0.01513671875,-0.61181640625,0.6901999999999999
1.083969465648855,1.7251908396946565,-1.2671755725190839,0.0966796875,-0.017578125,-0.61279296875,0.6919
0.732824427480916,1.6793893129770991,-1.282442748091603,0.0927734375,-0.017822265625,-0.608642578125,0.6936
0.9923664122137404,1.5572519083969465,-1.251908396946565,0.09423828125,-0.017822265625,-0.615478515625,0.6952999999999999
0.9923664122137404,1.4809160305343512,-1.2671755725190839,0.094970703125,-0.017578125,-0.612548828125,0.697
1.0534351145038168,1.465648854961832,-1.0381679389312977,0.096923828125,-0.020751953125,-0.61328125,0.6987
1.0687022900763359,1.4351145038167938,-1.297709923664122,0.09716796875,-0.0185546875,-0.616943359375,0.7003999999999999
0.8854961832061069,1.4351145038167938,-1.251908396946565,0.09228515625,-0.014404296875,-0.609375,0.7021
0.8396946564885496,1.4961832061068703,-1.3740458015267176,0.095947265625,-0.01708984375,-0.602294921875,0.7038
1.0076335877862594,1.3893129770992367,-1.2061068702290076,0.09423828125,-0.018310546875,-0.6083984375,0.7055
0.9770992366412213,1.282442748091603,-1.3282442748091603,0.09423828125,-0.016845703125,-0.6064453125,0.7071999999999999
1.0687022900763359,1.4045801526717556,-1.4351145038167938,0.0927734375,-0.015380859375,-0.609130859375,0.7089
0.8702290076335878,1.465648854961832,-1.5267175572519085,0.092041015625,-0.015380859375,-0.608154296875,0.7106
0.6259541984732825,1.465648854961832,-1.3435114503816794,0.09326171875,-0.016357421875,-0.61181640625,0.7122999999999999
0.732824427480916,1.2061068702290076,-1.450381679389313,0.087646484375,-0.014892578125,-0.6123046875,0.714
0.8091603053435115,1.3129770992366412,-1.5267175572519085,0.08984375,-0.016357421875,-0.610595703125,0.7157
0.6717557251908397,1.2061068702290076,-1.6793893129770991,0.0927734375,-0.013427734375,-0.61767578125,0.7173999999999999
0.5801526717557252,1.2061068702290076,-1.5572519083969465,0.097900390625,-0.017578125,-0.618408203125,0.7191
0.9770992366412213,1.282442748091603,-1.450381679389313,0.096923828125,-0.01416015625,-0.610595703125,0.7208
0.8854961832061069,1.0076335877862594,-1.4809160305343512,0.093505859375,-0.016845703125,-0.61962890625,0.7224999999999999
1.0076335877862594,0.9770992366412213,-1.450381679389313,0.092529296875,-0.017822265625,-0.610595703125,0.7242
1.0076335877862594,1.083969465648855,-1.4809160305343512,0.097900390625,-0.01953125,-0.611572265625,0.7259
1.1603053435114503,1.1297709923664123,-1.6030534351145038,0.093994140625,-0.0126953125,-0.6064453125,0.7275999999999999
1.282442748091603,1.1450381679389312,-1.3740458015267176,0.090087890625,-0.012939453125,-0.608154296875,0.7293
1.2671755725190839,1.1603053435114503,-1.251908396946565,0.0927734375,-0.01025390625,-0.6123046875,0.731
1.282442748091603,0.8702290076335878,-1.282442748091603,0.098876953125,-0.01806640625,-0.611083984375,0.7326999999999999
1.4961832061068703,0.8854961832061069,-1.251908396946565,0.097900390625,-0.01611328125,-0.617431640625,0.7343999999999999
1.7404580152671756,0.9770992366412213,-1.3587786259541985,0.097412109375,-0.01708984375,-0.6103515625,0.7361
1.6030534351145038,0.9618320610687023,-1.1755725190839694,0.091064453125,-0.01318359375,-0.615234375,0.7378
1.3435114503816794,0.9618320610687023,-0.9923664122137404,0.09326171875,-0.011962890625,-0.609375,0.7394999999999999
1.6488549618320612,0.9770992366412213,-1.1755725190839694,0.09521484375,-0.012939453125,-0.609130859375,0.7412
1.3282442748091603,0.8854961832061069,-1.2213740458015268,0.09814453125,-0.01171875,-0.60205078125,0.7429
1.618320610687023,0.8549618320610687,-1.2366412213740459,0.0927734375,-0.0166015625,-0.6025390625,0.7445999999999999
1.4198473282442747,0.9923664122137404,-1.465648854961832,0.09423828125,-0.017333984375,-0.60693359375,0.7463
1.465648854961832,0.9007633587786259,-1.3282442748091603,0.0947265625,-0.0087890625,-0.609619140625,0.748
1.7404580152671756,0.916030534351145,-1.1145038167938932,0.0869140625,-0.009765625,-0.61181640625,0.7496999999999999
2.030534351145038,0.9618320610687023,-1.1908396946564885,0.09130859375,-0.009033203125,-0.61865234375,0.7514
1.8778625954198473,1.0076335877862594,-1.3282442748091603,0.09375,-0.014892578125,-0.608642578125,0.7531
1.8778625954198473,1.0687022900763359,-1.3282442748091603,0.088623046875,-0.015380859375,-0.6201171875,0.7547999999999999
1.6641221374045803,1.1145038167938932,-1.1908396946564885,0.091796875,-0.01318359375,-0.613037109375,0.7565
2.0763358778625953,1.2671755725190839,-1.1908396946564885,0.0888671875,-0.017822265625,-0.609130859375,0.7582
1.9389312977099236,1.5877862595419847,-1.4351145038167938,0.088623046875,-0.015380859375,-0.620361328125,0.7598999999999999
2.0,1.251908396946565,-1.251908396946565,0.091796875,-0.01318359375,-0.61865234375,0.7615999999999999
1.7709923664122138,1.3435114503816794,-1.3282442748091603,0.085205078125,-0.0166015625,-0.61083984375,0.7633
2.1068702290076335,1.5572519083969465,-1.2366412213740459,0.091552734375,-0.016357421875,-0.61328125,0.7649999999999999
1.7709923664122138,1.5267175572519085,-1.3740458015267176,0.09326171875,-0.015625,-0.61083984375,0.7666999999999999
2.0610687022900764,1.6641221374045803,-1.4351145038167938,0.09130859375,-0.013671875,-0.607177734375,0.7684
1.83206106870229,1.297709923664122,-1.3435114503816794,0.09375,-0.020751953125,-0.605712890625,0.7701
1.8015267175572518,1.4809160305343512,-1.2061068702290076,0.08984375,-0.015380859375,-0.62158203125,0.7717999999999999
1.9389312977099236,1.6641221374045803,-1.4961832061068703,0.088623046875,-0.016357421875,-0.6181640625,0.7735
1.6030534351145038,1.3740458015267176,-1.2671755725190839,0.094970703125,-0.018798828125,-0.619873046875,0.7752
1.6641221374045803,1.4961832061068703,-1.2671755725190839,0.09130859375,-0.021484375,-0.6123046875,0.7768999999999999
1.7557251908396947,1.3587786259541985,-1.2366412213740459,0.094970703125,-0.020263671875,-0.611328125,0.7786
1.618320610687023,1.4198473282442747,-1.251908396946565,0.09130859375,-0.014892578125,-0.609619140625,0.7803
1.465648854961832,1.6488549618320612,-1.2213740458015268,0.089599609375,-0.01904296875,-0.62255859375,0.7819999999999999
1.4961832061068703,1.6030534351145038,-1.2671755725190839,0.094970703125,-0.0078125,-0.6083984375,0.7837
1.450381679389313,1.6946564885496183,-1.1297709923664123,0.09716796875,-0.016357421875,-0.621337890625,0.7854
1.3587786259541985,1.633587786259542,-1.099236641221374,0.09326171875,-0.0126953125,-0.609619140625,0.7870999999999999
1.5267175572519085,1.7404580152671756,-1.0229007633587786,0.0927734375,-0.010498046875,-0.616943359375,0.7888
1.4198473282442747,1.7709923664122138,-1.2061068702290076,0.09619140625,-0.017333984375,-0.61962890625,0.7905
1.4198473282442747,1.83206106870229,-1.0381679389312977,0.095458984375,-0.02099609375,-0.608642578125,0.7921999999999999
1.0381679389312977,1.6793893129770991,-1.083969465648855,0.097412109375,-0.01806640625,-0.6220703125,0.7938999999999999
1.1145038167938932,1.7099236641221374,-1.1908396946564885,0.094482421875,-0.018798828125,-0.619873046875,0.7956
1.2061068702290076,1.8015267175572518,-1.1755725190839694,0.09375,-0.017822265625,-0.611083984375,0.7973
0.9007633587786259,1.5419847328244274,-1.0687022900763359,0.09814453125,-0.018310546875,-0.607177734375,0.7989999999999999
1.0534351145038168,1.786259541984733,-1.297709923664122,0.093505859375,-0.021484375,-0.613037109375,0.8007
1.1145038167938932,1.8625954198473282,-1.0534351145038168,0.09423828125,-0.020751953125,-0.611572265625,0.8024
0.9923664122137404,1.6793893129770991,-1.282442748091603,0.09130859375,-0.016357421875,-0.6103515625,0.8040999999999999
1.1450381679389312,1.7557251908396947,-1.3129770992366412,0.097412109375,-0.02197265625,-0.61181640625,0.8058
1.0076335877862594,1.9541984732824427,-1.2061068702290076,0.093994140625,-0.021484375,-0.61669921875,0.8075
1.0229007633587786,1.7709923664122138,-1.2671755725190839,0.09130859375,-0.017333984375,-0.6123046875,0.8091999999999999
1.465648854961832,1.8015267175572518,-1.4351145038167938,0.09033203125,-0.01953125,-0.6025390625,0.8109
1.4198473282442747,2.015267175572519,-1.1145038167938932,0.090576171875,-0.01806640625,-0.607421875,0.8126
1.1450381679389312,1.7709923664122138,-1.3129770992366412,0.09521484375,-0.01806640625,-0.615478515625,0.8142999999999999
1.2671755725190839,1.984732824427481,-0.9923664122137404,0.090576171875,-0.013427734375,-0.615478515625,0.816
1.4198473282442747,1.9083969465648856,-1.0687022900763359,0.0927734375,-0.014404296875,-0.606689453125,0.8177
1.1755725190839694,1.83206106870229,-0.9312977099236641,0.093017578125,-0.01318359375,-0.610595703125,0.8193999999999999
1.297709923664122,1.9694656488549618,-0.8702290076335878,0.09423828125,-0.01708984375,-0.602783203125,0.8210999999999999
1.4809160305343512,1.8778625954198473,-1.099236641221374,0.0947265625,-0.013427734375,-0.604248046875,0.8228
1.297709923664122,2.122137404580153,-0.8549618320610687,0.09228515625,-0.010498046875,-0.602783203125,0.8244999999999999
1.251908396946565,2.0763358778625953,-0.8244274809160306,0.088623046875,-0.012939453125,-0.6103515625,0.8261999999999999
1.1908396946564885,2.030534351145038,-0.7938931297709924,0.08984375,-0.01416015625,-0.607421875,0.8279
1.0076335877862594,2.0916030534351147,-1.083969465648855,0.087646484375,-0.01220703125,-0.614990234375,0.8296
0.732824427480916,2.2595419847328246,-0.9007633587786259,0.09130859375,-0.012939453125,-0.611083984375,0.8312999999999999
0.7175572519083969,2.4580152671755724,-0.9312977099236641,0.092041015625,-0.013427734375,-0.609619140625,0.833
0.7175572519083969,2.2900763358778624,-1.0229007633587786,0.09228515625,-0.019775390625,-0.611083984375,0.8347
0.8702290076335878,2.50381679389313,-0.8244274809160306,0.096923828125,-0.013671875,-0.611083984375,0.8363999999999999
0.8244274809160306,2.4885496183206106,-1.099236641221374,0.09716796875,-0.01611328125,-0.6142578125,0.8381
0.9618320610687023,2.351145038167939,-1.1297709923664123,0.095458984375,-0.009033203125,-0.614013671875,0.8398
1.2213740458015268,2.0763358778625953,-1.1297709923664123,0.09521484375,-0.008544921875,-0.61376953125,0.8414999999999999
1.2213740458015268,2.4885496183206106,-1.1450381679389312,0.097412109375,-0.013671875,-0.6162109375,0.8432
1.3587786259541985,2.50381679389313,-1.251908396946565,0.10302734375,-0.01416015625,-0.6123046875,0.8449
1.5725190839694656,2.366412213740458,-1.1450381679389312,0.0966796875,-0.00830078125,-0.61376953125,0.8465999999999999
1.5419847328244274,2.198473282442748,-1.251908396946565,0.09326171875,-0.011962890625,-0.615234375,0.8482999999999999
1.5419847328244274,2.1068702290076335,-1.3129770992366412,0.093505859375,-0.0185546875,-0.611328125,0.85
1.4961832061068703,2.122137404580153,-1.282442748091603,0.09033203125,-0.020263671875,-0.6142578125,0.8516999999999999
1.7709923664122138,2.16793893129771,-1.4198473282442747,0.09375,-0.020263671875,-0.6181640625,0.8533999999999999
2.0,2.0610687022900764,-1.4351145038167938,0.102294921875,-0.013427734375,-0.613525390625,0.8551
2.015267175572519,2.0610687022900764,-1.1145038167938932,0.095703125,-0.016357421875,-0.608642578125,0.8568
2.122137404580153,2.015267175572519,-1.5419847328244274,0.097412109375,-0.014404296875,-0.60107421875,0.8584999999999999
2.183206106870229,1.8015267175572518,-1.4045801526717556,0.09619140625,-0.01953125,-0.6162109375,0.8602
2.3206106870229006,1.786259541984733,-1.3740458015267176,0.092041015625,-0.015869140625,-0.6044921875,0.8619
2.2442748091603053,1.786259541984733,-1.1603053435114503,0.092529296875,-0.01513671875,-0.6015625,0.8635999999999999
2.2595419847328246,1.5725190839694656,-1.251908396946565,0.10107421875,-0.01953125,-0.61376953125,0.8653
2.6106870229007635,1.5114503816793894,-1.1603053435114503,0.0966796875,-0.01806640625,-0.61279296875,0.867
2.519083969465649,1.5419847328244274,-1.099236641221374,0.0966796875,-0.014892578125,-0.610595703125,0.8686999999999999
2.7480916030534353,1.297709923664122,-1.0076335877862594,0.09912109375,-0.0263671875,-0.61328125,0.8704
2.595419847328244,1.3129770992366412,-1.1297709923664123,0.100830078125,-0.015380859375,-0.609619140625,0.8721
2.8244274809160306,1.297709923664122,-1.1450381679389312,0.095458984375,-0.0185546875,-0.6123046875,0.8737999999999999
2.717557251908397,1.2366412213740459,-1.1908396946564885,0.09765625,-0.0185546875,-0.614501953125,0.8755
2.6259541984732824,1.5114503816793894,-1.1297709923664123,0.097900390625,-0.017578125,-0.609375,0.8772
2.6106870229007635,1.4351145038167938,-1.3129770992366412,0.09326171875,-0.014892578125,-0.619384765625,0.8788999999999999
2.50381679389313,1.1297709923664123,-1.251908396946565,0.099609375,-0.02001953125,-0.615478515625,0.8805999999999999
2.33587786259542,1.4809160305343512,-1.1908396946564885,0.095458984375,-0.01318359375,-0.619873046875,0.8823
2.2442748091603053,1.618320610687023,-1.3435114503816794,0.09521484375,-0.014892578125,-0.610107421875,0.8839999999999999
2.122137404580153,1.5572519083969465,-1.3282442748091603,0.092041015625,-0.019775390625,-0.617431640625,0.8856999999999999
2.1374045801526718,1.6488549618320612,-1.251908396946565,0.09228515625,-0.014892578125,-0.6103515625,0.8874
1.6641221374045803,1.9236641221374047,-1.1755725190839694,0.091552734375,-0.019287109375,-0.608642578125,0.8891
1.7099236641221374,1.984732824427481,-1.1755725190839694,0.0859375,-0.020751953125,-0.614990234375,0.8907999999999999
1.7404580152671756,1.9236641221374047,-1.1450381679389312,0.093994140625,-0.01806640625,-0.620849609375,0.8925
1.2671755725190839,2.030534351145038,-1.2213740458015268,0.091552734375,-0.012451171875,-0.6201171875,0.8942
1.0076335877862594,2.030534351145038,-1.1755725190839694,0.091064453125,-0.01416015625,-0.61474609375,0.8958999999999999
1.1297709923664123,2.0916030534351147,-1.4198473282442747,0.093505859375,-0.0166015625,-0.606689453125,0.8976
1.1908396946564885,2.0610687022900764,-1.465648854961832,0.089599609375,-0.01416015625,-0.611083984375,0.8993
1.297709923664122,2.045801526717557,-1.3740458015267176,0.0947265625,-0.01513671875,-0.610595703125,0.9009999999999999
1.0229007633587786,2.0763358778625953,-1.5572519083969465,0.0888671875,-0.017578125,-0.613037109375,0.9027
1.1297709923664123,1.9541984732824427,-1.6488549618320612,0.09130859375,-0.01611328125,-0.6142578125,0.9044
1.1603053435114503,2.1068702290076335,-1.5877862595419847,0.091064453125,-0.01220703125,-0.615966796875,0.9060999999999999
1.2366412213740459,2.2900763358778624,-1.5419847328244274,0.09130859375,-0.013671875,-0.61767578125,0.9077999999999999
1.2366412213740459,2.1374045801526718,-1.6793893129770991,0.09326171875,-0.014404296875,-0.61767578125,0.9095
1.0534351145038168,2.015267175572519,-1.5419847328244274,0.09716796875,-0.01513671875,-0.624267578125,0.9111999999999999
0.8702290076335878,2.1526717557251906,-1.3587786259541985,0.09619140625,-0.009521484375,-0.61376953125,0.9128999999999999
1.3282442748091603,1.9541984732824427,-1.5419847328244274,0.095458984375,-0.01318359375,-0.620361328125,0.9146
1.4351145038167938,1.984732824427481,-1.2061068702290076,0.0986328125,-0.010986328125,-0.611083984375,0.9163
1.5114503816793894,1.8625954198473282,-1.0381679389312977,0.09228515625,-0.017333984375,-0.613525390625,0.9179999999999999
1.5114503816793894,1.8931297709923665,-1.083969465648855,0.093017578125,-0.0146484375,-0.606689453125,0.9197
1.633587786259542,1.8015267175572518,-1.1297709923664123,0.09326171875,-0.016357421875,-0.613037109375,0.9214
1.465648854961832,1.8931297709923665,-0.9923664122137404,0.1015625,-0.01416015625,-0.6103515625,0.9230999999999999
1.4809160305343512,1.8473282442748091,-1.0076335877862594,0.100341796875,-0.01708984375,-0.612548828125,0.9248
1.3282442748091603,1.6946564885496183,-0.8854961832061069,0.099853515625,-0.0185546875,-0.61572265625,0.9265
1.450381679389313,1.9083969465648856,-0.9770992366412213,0.098876953125,-0.01806640625,-0.613037109375,0.9281999999999999
1.4045801526717556,1.633587786259542,-0.9618320610687023,0.09716796875,-0.018310546875,-0.616455078125,0.9299
1.297709923664122,1.5267175572519085,-1.0687022900763359,0.093505859375,-0.023681640625,-0.605712890625,0.9316
1.2061068702290076,1.5725190839694656,-1.083969465648855,0.09619140625,-0.020751953125,-0.615966796875,0.9332999999999999
1.083969465648855,1.7099236641221374,-0.8396946564885496,0.0966796875,-0.019287109375,-0.615234375,0.9349999999999999
0.6106870229007634,1.4198473282442747,-0.9770992366412213,0.09765625,-0.025146484375,-0.609619140625,0.9367
0.8244274809160306,1.251908396946565,-1.0229007633587786,0.09326171875,-0.02099609375,-0.609130859375,0.9383999999999999
0.6870229007633588,1.3893129770992367,-1.0534351145038168,0.098388671875,-0.02001953125,-0.605712890625,0.9400999999999999
0.5801526717557252,1.3893129770992367,-1.1755725190839694,0.0927734375,-0.020751953125,-0.610595703125,0.9418
0.5190839694656488,1.2061068702290076,-1.3282442748091603,0.09619140625,-0.01806640625,-0.607666015625,0.9434999999999999
0.4580152671755725,1.0229007633587786,-1.4351145038167938,0.09814453125,-0.020263671875,-0.609130859375,0.9451999999999999
0.4580152671755725,1.1145038167938932,-1.297709923664122,0.090087890625,-0.023193359375,-0.610107421875,0.9469
0.48854961832061067,1.0229007633587786,-1.4045801526717556,0.093994140625,-0.01611328125,-0.607177734375,0.9486
0.5343511450381679,0.8091603053435115,-1.450381679389313,0.094970703125,-0.017333984375,-0.607666015625,0.9502999999999999
0.6564885496183206,0.6870229007633588,-1.7557251908396947,0.093994140625,-0.017578125,-0.605712890625,0.952
0.6870229007633588,0.8702290076335878,-1.786259541984733,0.09619140625,-0.017822265625,-0.608154296875,0.9537
0.549618320610687,1.0687022900763359,-1.9083969465648856,0.089599609375,-0.017822265625,-0.604736328125,0.9553999999999999
0.6259541984732825,0.9312977099236641,-1.5877862595419847,0.089599609375,-0.01025390625,-0.6064453125,0.9571
0.9312977099236641,0.8396946564885496,-1.786259541984733,0.09033203125,-0.015380859375,-0.611083984375,0.9588
0.8396946564885496,0.8702290076335878,-1.8931297709923665,0.09228515625,-0.014892578125,-0.609619140625,0.9604999999999999
0.9007633587786259,0.6564885496183206,-1.816793893129771,0.092041015625,-0.0126953125,-0.610595703125,0.9621999999999999
1.083969465648855,0.7022900763358778,-1.8473282442748091,0.093505859375,-0.01806640625,-0.611328125,0.9639
1.3740458015267176,0.6412213740458015,-1.7557251908396947,0.0966796875,-0.01416015625,-0.608154296875,0.9655999999999999
1.4351145038167938,0.732824427480916,-1.8473282442748091,0.093017578125,-0.01220703125,-0.61328125,0.9672999999999999
1.5572519083969465,0.8091603053435115,-2.0916030534351147,0.09375,-0.01025390625,-0.614990234375,0.969
1.5419847328244274,0.7786259541984732,-1.8473282442748091,0.090576171875,-0.02197265625,-0.6103515625,0.9706999999999999
1.9694656488549618,0.5801526717557252,-2.1068702290076335,0.094482421875,-0.008544921875,-0.619384765625,0.9723999999999999
2.33587786259542,0.7175572519083969,-2.16793893129771,0.091552734375,-0.023681640625,-0.614013671875,0.9741
2.2748091603053435,0.8702290076335878,-2.0610687022900764,0.09228515625,-0.017333984375,-0.61669921875,0.9758
2.549618320610687,0.6717557251908397,-1.8778625954198473,0.09326171875,-0.01513671875,-0.616943359375,0.9774999999999999
2.351145038167939,0.7175572519083969,-2.1068702290076335,0.091064453125,-0.017578125,-0.608642578125,0.9792
2.6564885496183206,0.8244274809160306,-2.015267175572519,0.08984375,-0.01904296875,-0.60205078125,0.9809
2.549618320610687,0.9923664122137404,-1.9389312977099236,0.09130859375,-0.013427734375,-0.6142578125,0.9825999999999999
2.33587786259542,1.0076335877862594,-1.7557251908396947,0.0927734375,-0.0166015625,-0.610107421875,0.9843
2.4427480916030535,1.1755725190839694,-1.9236641221374047,0.093017578125,-0.01416015625,-0.614990234375,0.986
2.50381679389313,1.2366412213740459,-1.7557251908396947,0.094970703125,-0.017822265625,-0.60791015625,0.9876999999999999
2.015267175572519,1.251908396946565,-1.633587786259542,0.09130859375,-0.016357421875,-0.61181640625,0.9894
1.9236641221374047,1.251908396946565,-1.6030534351145038,0.093994140625,-0.01513671875,-0.614990234375,0.9911
1.786259541984733,1.3435114503816794,-1.6946564885496183,0.090576171875,-0.01953125,-0.607666015625,0.9927999999999999
1.4961832061068703,1.6030534351145038,-1.5267175572519085,0.094970703125,-0.019287109375,-0.6171875,0.9944999999999999
1.2061068702290076,1.7404580152671756,-1.7709923664122138,0.09130859375,-0.0205078125,-0.619384765625,0.9962
1.0534351145038168,1.8778625954198473,-1.6488549618320612,0.093994140625,-0.019775390625,-0.61181640625,0.9978999999999999
0.916030534351145,1.9389312977099236,-1.83206106870229,0.0947265625,-0.017333984375,-0.6162109375,0.9995999999999999
0.6717557251908397,1.9694656488549618,-1.5419847328244274,0.091552734375,-0.019287109375,-0.61474609375,1.0012999999999999
0.5648854961832062,2.4732824427480917,-1.6030534351145038,0.09765625,-0.0166015625,-0.614990234375,1.003
0.3511450381679389,2.2595419847328246,-1.4045801526717556,0.09423828125,-0.018310546875,-0.612060546875,1.0047
0.22900763358778625,2.0916030534351147,-1.7557251908396947,0.099853515625,-0.02001953125,-0.61767578125,1.0064
-0.0916030534351145,2.2442748091603053,-1.7099236641221374,0.095947265625,-0.02099609375,-0.6181640625,1.0081
0.0,2.2900763358778624,-1.7099236641221374,0.09765625,-0.0234375,-0.614501953125,1.0098
-0.10687022900763359,2.351145038167939,-1.3893129770992367,0.098388671875,-0.017822265625,-0.612060546875,1.0114999999999998
-0.3053435114503817,2.366412213740458,-1.6488549618320612,0.09423828125,-0.020751953125,-0.60791015625,1.0131999999999999
-0.32061068702290074,2.366412213740458,-1.465648854961832,0.09375,-0.01953125,-0.60009765625,1.0149
-0.6412213740458015,2.3969465648854964,-1.4045801526717556,0.095458984375,-0.01806640625,-0.604736328125,1.0166
-0.48854961832061067,2.3969465648854964,-1.3893129770992367,0.09716796875,-0.015380859375,-0.61474609375,1.0183
-0.4122137404580153,2.183206106870229,-1.3282442748091603,0.100830078125,-0.0166015625,-0.613525390625,1.02
-0.9312977099236641,2.549618320610687,-1.4809160305343512,0.09814453125,-0.0185546875,-0.612548828125,1.0217
-0.6106870229007634,2.351145038167939,-1.3893129770992367,0.09765625,-0.015380859375,-0.607421875,1.0233999999999999
-0.8396946564885496,2.3969465648854964,-1.3435114503816794,0.10009765625,-0.0146484375,-0.610595703125,1.0251
-0.8396946564885496,2.366412213740458,-1.3129770992366412,0.09814453125,-0.015869140625,-0.60546875,1.0268
-0.8854961832061069,2.2900763358778624,-1.1145038167938932,0.101806640625,-0.016357421875,-0.609375,1.0285
-0.7175572519083969,2.213740458015267,-1.282442748091603,0.09716796875,-0.01220703125,-0.6123046875,1.0302
-0.6259541984732825,2.1068702290076335,-1.282442748091603,0.098388671875,-0.011962890625,-0.606201171875,1.0319
-0.6259541984732825,2.16793893129771,-1.1908396946564885,0.09716796875,-0.013427734375,-0.601806640625,1.0335999999999999
-0.21374045801526717,2.030534351145038,-1.1908396946564885,0.100830078125,-0.0107421875,-0.6162109375,1.0352999999999999
-0.4732824427480916,2.015267175572519,-1.251908396946565,0.100341796875,-0.010986328125,-0.615234375,1.037
0.030534351145038167,1.8931297709923665,-1.0381679389312977,0.0966796875,-0.015380859375,-0.60986328125,1.0387
0.366412213740458,1.786259541984733,-1.2213740458015268,0.094482421875,-0.011962890625,-0.60791015625,1.0404
0.6564885496183206,1.786259541984733,-1.1908396946564885,0.098876953125,-0.010986328125,-0.603271484375,1.0421
1.0381679389312977,1.984732824427481,-1.297709923664122,0.095703125,-0.012939453125,-0.61083984375,1.0437999999999998
1.282442748091603,1.9236641221374047,-1.1755725190839694,0.09716796875,-0.011474609375,-0.60986328125,1.0454999999999999
1.3740458015267176,1.7251908396946565,-1.465648854961832,0.09765625,-0.017333984375,-0.605712890625,1.0472
1.7404580152671756,1.4809160305343512,-1.297709923664122,0.095458984375,-0.009765625,-0.61279296875,1.0489
1.9541984732824427,1.633587786259542,-1.1755725190839694,0.09814453125,-0.0107421875,-0.609619140625,1.0506
2.33587786259542,1.4961832061068703,-1.1908396946564885,0.097900390625,-0.011474609375,-0.613037109375,1.0523
2.50381679389313,1.3893129770992367,-1.0381679389312977,0.095703125,-0.00927734375,-0.615966796875,1.054
2.5343511450381677,1.4961832061068703,-1.297709923664122,0.09326171875,-0.0146484375,-0.615966796875,1.0556999999999999
2.6106870229007635,1.4809160305343512,-1.083969465648855,0.0927734375,-0.01025390625,-0.611328125,1.0574
2.7022900763358777,1.2671755725190839,-1.099236641221374,0.097412109375,-0.01025390625,-0.61474609375,1.0591
2.946564885496183,1.4198473282442747,-1.099236641221374,0.098388671875,-0.010498046875,-0.6162109375,1.0608
2.7480916030534353,1.4809160305343512,-1.251908396946565,0.096923828125,-0.013671875,-0.613037109375,1.0625
2.8702290076335877,1.3893129770992367,-1.282442748091603,0.095458984375,-0.018310546875,-0.6083984375,1.0642
2.931297709923664,1.3893129770992367,-1.2061068702290076,0.097412109375,-0.01025390625,-0.6240234375,1.0658999999999998
3.068702290076336,1.5114503816793894,-1.1450381679389312,0.09814453125,-0.0166015625,-0.614501953125,1.0675999999999999
3.2977099236641223,1.3129770992366412,-1.3740458015267176,0.09912109375,-0.016357421875,-0.617919921875,1.0693
3.435114503816794,1.3587786259541985,-1.282442748091603,0.095458984375,-0.012939453125,-0.60888671875,1.071
3.4656488549618323,1.5114503816793894,-1.1603053435114503,0.096923828125,-0.016357421875,-0.60986328125,1.0727
3.282442748091603,1.2061068702290076,-1.2671755725190839,0.09716796875,-0.014892578125,-0.607421875,1.0744
3.3435114503816794,1.2671755725190839,-1.4198473282442747,0.095458984375,-0.017578125,-0.6181640625,1.0760999999999998
3.1297709923664123,1.297709923664122,-1.282442748091603,0.0986328125,-0.01611328125,-0.614990234375,1.0777999999999999
3.1297709923664123,1.1450381679389312,-1.2213740458015268,0.09716796875,-0.01806640625,-0.615966796875,1.0795
3.1755725190839694,1.3282442748091603,-1.2061068702290076,0.10205078125,-0.013427734375,-0.618408203125,1.0812
2.7786259541984735,1.3893129770992367,-1.3282442748091603,0.101318359375,-0.018310546875,-0.609619140625,1.0829
2.4427480916030535,1.1450381679389312,-1.2366412213740459,0.098876953125,-0.01513671875,-0.618896484375,1.0846
2.4122137404580153,1.251908396946565,-1.297709923664122,0.099609375,-0.0146484375,-0.626953125,1.0863
2.4122137404580153,1.3282442748091603,-1.297709923664122,0.098876953125,-0.0205078125,-0.615966796875,1.0879999999999999
2.366412213740458,1.282442748091603,-1.3893129770992367,0.098388671875,-0.023193359375,-0.625244140625,1.0897
2.1526717557251906,1.4045801526717556,-1.1755725190839694,0.09375,-0.018798828125,-0.6259765625,1.0914
2.1068702290076335,1.618320610687023,-1.099236641221374,0.09521484375,-0.01904296875,-0.6181640625,1.0931
1.8778625954198473,1.1145038167938932,-1.1755725190839694,0.099853515625,-0.016845703125,-0.614990234375,1.0948
1.83206106870229,1.4351145038167938,-1.1603053435114503,0.103271484375,-0.017333984375,-0.609619140625,1.0965
1.3129770992366412,1.6030534351145038,-1.251908396946565,0.10205078125,-0.018798828125,-0.6103515625,1.0981999999999998
1.4809160305343512,1.3435114503816794,-1.3893129770992367,0.09521484375,-0.02001953125,-0.609130859375,1.0998999999999999
1.3893129770992367,1.3129770992366412,-1.297709923664122,0.09375,-0.01953125,-0.609130859375,1.1016
0.9923664122137404,1.297709923664122,-1.0534351145038168,0.096923828125,-0.01806640625,-0.60986328125,1.1033
1.0381679389312977,1.1450381679389312,-1.282442748091603,0.097412109375,-0.01513671875,-0.61328125,1.105
0.6106870229007634,1.1450381679389312,-1.450381679389313,0.09716796875,-0.017822265625,-0.614013671875,1.1067
0.12213740458015267,1.2061068702290076,-1.2061068702290076,0.093994140625,-0.015625,-0.605224609375,1.1083999999999998
0.16793893129770993,1.1908396946564885,-1.0687022900763359,0.0986328125,-0.0146484375,-0.60888671875,1.1100999999999999
0.16793893129770993,1.2061068702290076,-0.8244274809160306,0.09521484375,-0.014404296875,-0.619384765625,1.1118
-0.10687022900763359,1.099236641221374,-1.1145038167938932,0.09716796875,-0.02197265625,-0.62158203125,1.1135
-0.04580152671755725,1.0534351145038168,-1.0381679389312977,0.097412109375,-0.01611328125,-0.610107421875,1.1152
-0.4122137404580153,1.2671755725190839,-1.0381679389312977,0.10107421875,-0.015380859375,-0.62158203125,1.1169
-0.1984732824427481,1.0229007633587786,-0.9312977099236641,0.100830078125,-0.013427734375,-0.615966796875,1.1186
-0.15267175572519084,1.1755725190839694,-0.9923664122137404,0.10107421875,-0.014404296875,-0.615478515625,1.1202999999999999
-0.04580152671755725,1.297709923664122,-0.9618320610687023,0.099609375,-0.016357421875,-0.624755859375,1.1219999999999999
0.0,1.1908396946564885,-0.9618320610687023,0.097412109375,-0.013916015625,-0.61328125,1.1237
0.04580152671755725,1.0229007633587786,-0.9312977099236641,0.09521484375,-0.015625,-0.6123046875,1.1254
0.061068702290076333,1.099236641221374,-1.0381679389312977,0.093017578125,-0.016357421875,-0.606689453125,1.1271
0.15267175572519084,1.0534351145038168,-0.9770992366412213,0.093017578125,-0.011962890625,-0.609375,1.1288
0.22900763358778625,0.8396946564885496,-1.1145038167938932,0.09765625,-0.013916015625,-0.60546875,1.1304999999999998
0.33587786259541985,0.8244274809160306,-1.083969465648855,0.0986328125,-0.016845703125,-0.61328125,1.1321999999999999
0.48854961832061067,0.8091603053435115,-1.251908396946565,0.099365234375,-0.015380859375,-0.609375,1.1339
0.549618320610687,0.8244274809160306,-1.1297709923664123,0.09375,-0.019775390625,-0.616943359375,1.1356
0.7175572519083969,0.9923664122137404,-1.251908396946565,0.095947265625,-0.0185546875,-0.616455078125,1.1373
0.7175572519083969,0.8702290076335878,-1.3893129770992367,0.09423828125,-0.0146484375,-0.61376953125,1.139
0.4732824427480916,0.9770992366412213,-1.5114503816793894,0.09375,-0.01416015625,-0.615966796875,1.1407
0.6259541984732825,0.9618320610687023,-1.450381679389313,0.0927734375,-0.0146484375,-0.62353515625,1.1423999999999999
0.7175572519083969,0.9770992366412213,-1.5114503816793894,0.094970703125,-0.016357421875,-0.6142578125,1.1441
0.5343511450381679,0.9312977099236641,-1.4809160305343512,0.0947265625,-0.01708984375,-0.61865234375,1.1458
0.6412213740458015,1.0076335877862594,-1.7251908396946565,0.096435546875,-0.015869140625,-0.614990234375,1.1475
0.5343511450381679,1.1297709923664123,-1.7099236641221374,0.09521484375,-0.015625,-0.60546875,1.1492
0.22900763358778625,1.1603053435114503,-1.816793893129771,0.09423828125,-0.0107421875,-0.619384765625,1.1509
0.24427480916030533,1.1603053435114503,-1.9389312977099236,0.096435546875,-0.0048828125,-0.611572265625,1.1525999999999998
0.4122137404580153,1.3893129770992367,-1.9236641221374047,0.09521484375,-0.01025390625,-0.61083984375,1.1542999999999999
0.4732824427480916,1.297709923664122,-1.984732824427481,0.096923828125,-0.014892578125,-0.614990234375,1.156
0.4122137404580153,1.3740458015267176,-2.16793893129771,0.09375,-0.010498046875,-0.614013671875,1.1577
0.8396946564885496,1.3282442748091603,-1.786259541984733,0.09326171875,-0.02001953125,-0.60986328125,1.1594
0.9923664122137404,1.2061068702290076,-1.9389312977099236,0.09423828125,-0.016845703125,-0.61328125,1.1611
1.1755725190839694,1.282442748091603,-1.9694656488549618,0.098876953125,-0.0146484375,-0.613525390625,1.1627999999999998
1.6641221374045803,1.4045801526717556,-1.9389312977099236,0.09619140625,-0.01416015625,-0.6103515625,1.1644999999999999
1.5419847328244274,1.2366412213740459,-1.6946564885496183,0.089599609375,-0.018798828125,-0.6171875,1.1662
1.8015267175572518,1.5114503816793894,-1.9083969465648856,0.09130859375,-0.012451171875,-0.620361328125,1.1679
2.030534351145038,1.7251908396946565,-1.7557251908396947,0.0888671875,-0.015869140625,-0.609130859375,1.1696
1.9389312977099236,1.5419847328244274,-1.786259541984733,0.089599609375,-0.01318359375,-0.60595703125,1.1713
1.9694656488549618,1.5877862595419847,-1.6946564885496183,0.097900390625,-0.017333984375,-0.608154296875,1.173
1.9389312977099236,1.3587786259541985,-1.7709923664122138,0.0927734375,-0.023681640625,-0.61328125,1.1746999999999999
1.7557251908396947,1.3587786259541985,-1.6030534351145038,0.09375,-0.02294921875,-0.607177734375,1.1764
1.465648854961832,1.4809160305343512,-1.83206106870229,0.098876953125,-0.02392578125,-0.603515625,1.1781
1.2366412213740459,1.282442748091603,-1.6946564885496183,0.095947265625,-0.01904296875,-0.606201171875,1.1798
1.5572519083969465,1.450381679389313,-1.786259541984733,0.09375,-0.01904296875,-0.60693359375,1.1815
1.083969465648855,1.4045801526717556,-1.6030534351145038,0.095458984375,-0.015380859375,-0.6064453125,1.1832
1.0076335877862594,1.4809160305343512,-1.8625954198473282,0.09814453125,-0.018798828125,-0.6064453125,1.1848999999999998
1.1755725190839694,1.3893129770992367,-1.7709923664122138,0.095458984375,-0.017333984375,-0.609619140625,1.1865999999999999
1.1297709923664123,1.4809160305343512,-1.7557251908396947,0.099365234375,-0.01513671875,-0.601806640625,1.1883
0.9770992366412213,1.450381679389313,-1.7251908396946565,0.095703125,-0.017822265625,-0.610595703125,1.19
1.0534351145038168,1.4809160305343512,-1.8473282442748091,0.095458984375,-0.02392578125,-0.603759765625,1.1917
1.3129770992366412,1.4351145038167938,-1.83206106870229,0.094482421875,-0.021240234375,-0.604736328125,1.1934
1.5267175572519085,1.4198473282442747,-2.030534351145038,0.093505859375,-0.0205078125,-0.60302734375,1.1950999999999998
1.4809160305343512,1.5267175572519085,-1.8931297709923665,0.09619140625,-0.015869140625,-0.610595703125,1.1967999999999999
1.3740458015267176,1.7557251908396947,-1.9694656488549618,0.09326171875,-0.020263671875,-0.614013671875,1.1985
1.3129770992366412,1.6946564885496183,-1.8778625954198473,0.09033203125,-0.019287109375,-0.61474609375,1.2002
1.3587786259541985,1.6946564885496183,-1.7557251908396947,0.088134765625,-0.018798828125,-0.609619140625,1.2019
1.083969465648855,1.6030534351145038,-1.7709923664122138,0.087890625,-0.016845703125,-0.612548828125,1.2036
0.8702290076335878,1.7251908396946565,-1.7709923664122138,0.088623046875,-0.016357421875,-0.609375,1.2053
0.732824427480916,1.816793893129771,-1.8015267175572518,0.097900390625,-0.0185546875,-0.609375,1.2069999999999999
0.732824427480916,1.6488549618320612,-1.6030534351145038,0.0908203125,-0.019287109375,-0.615478515625,1.2086999999999999
0.44274809160305345,1.7404580152671756,-1.6641221374045803,0.089111328125,-0.013916015625,-0.6103515625,1.2104
0.3816793893129771,2.1374045801526718,-1.6946564885496183,0.091552734375,-0.013671875,-0.6103515625,1.2121
0.10687022900763359,1.9083969465648856,-1.83206106870229,0.092041015625,-0.01806640625,-0.607421875,1.2138
-0.04580152671755725,1.9236641221374047,-1.786259541984733,0.09619140625,-0.014892578125,-0.611572265625,1.2155
-0.3053435114503817,2.122137404580153,-1.5725190839694656,0.093017578125,-0.015380859375,-0.61181640625,1.2171999999999998
-0.42748091603053434,2.0916030534351147,-1.7404580152671756,0.095947265625,-0.01708984375,-0.61181640625,1.2188999999999999
-0.32061068702290074,2.2900763358778624,-1.5572519083969465,0.092041015625,-0.0185546875,-0.605712890625,1.2206
-0.22900763358778625,2.3969465648854964,-1.5114503816793894,0.089599609375,-0.01708984375,-0.611572265625,1.2223
-0.10687022900763359,2.2290076335877864,-1.5572519083969465,0.09228515625,-0.017822265625,-0.611572265625,1.224
-0.16793893129770993,2.1068702290076335,-1.3893129770992367,0.091552734375,-0.01416015625,-0.614501953125,1.2257
-0.16793893129770993,2.3969465648854964,-1.4961832061068703,0.091796875,-0.010986328125,-0.61279296875,1.2273999999999998
-0.1984732824427481,2.2290076335877864,-1.282442748091603,0.098876953125,-0.011962890625,-0.62158203125,1.2290999999999999
-0.1984732824427481,2.366412213740458,-1.3893129770992367,0.092041015625,-0.011474609375,-0.614990234375,1.2308
0.04580152671755725,2.381679389312977,-1.282442748091603,0.09228515625,-0.01220703125,-0.604736328125,1.2325
0.2900763358778626,2.1526717557251906,-1.297709923664122,0.0927734375,-0.013427734375,-0.610107421875,1.2342
0.061068702290076333,2.198473282442748,-1.4198473282442747,0.096923828125,-0.016357421875,-0.60791015625,1.2359
0.3969465648854962,2.198473282442748,-1.2671755725190839,0.098876953125,-0.012939453125,-0.60888671875,1.2376
0.4580152671755725,2.0610687022900764,-1.1297709923664123,0.101806640625,-0.01318359375,-0.606201171875,1.2392999999999998
0.2900763358778626,2.3053435114503817,-1.3282442748091603,0.101318359375,-0.01171875,-0.608154296875,1.2409999999999999
0.3053435114503817,2.2290076335877864,-1.282442748091603,0.09912109375,-0.014404296875,-0.60888671875,1.2427
0.15267175572519084,2.0763358778625953,-1.1145038167938932,0.0986328125,-0.013671875,-0.61376953125,1.2444
0.21374045801526717,2.0916030534351147,-1.3435114503816794,0.100341796875,-0.01220703125,-0.609130859375,1.2461
0.24427480916030533,2.0,-1.4351145038167938,0.095458984375,-0.01318359375,-0.60595703125,1.2478
0.3816793893129771,1.9694656488549618,-1.3587786259541985,0.093505859375,-0.011474609375,-0.607666015625,1.2494999999999998
0.3969465648854962,2.0916030534351147,-1.3129770992366412,0.093505859375,-0.014404296875,-0.614501953125,1.2511999999999999
0.6259541984732825,1.8625954198473282,-1.0076335877862594,0.103515625,-0.009521484375,-0.60693359375,1.2529
0.9312977099236641,1.8931297709923665,-1.0534351145038168,0.097900390625,-0.01171875,-0.608642578125,1.2546
1.297709923664122,1.816793893129771,-1.1145038167938932,0.09814453125,-0.015625,-0.6064453125,1.2563
1.5114503816793894,1.8473282442748091,-1.282442748091603,0.095703125,-0.009765625,-0.6025390625,1.258
1.8778625954198473,1.7557251908396947,-1.1450381679389312,0.09716796875,-0.00537109375,-0.61181640625,1.2596999999999998
1.6488549618320612,1.7099236641221374,-1.0229007633587786,0.098876953125,-0.015625,-0.60595703125,1.2613999999999999
1.984732824427481,1.6641221374045803,-1.1908396946564885,0.093505859375,-0.0146484375,-0.610595703125,1.2631
1.8778625954198473,1.4961832061068703,-0.916030534351145,0.09326171875,-0.017822265625,-0.613037109375,1.2648
1.984732824427481,1.465648854961832,-1.1450381679389312,0.091796875,-0.015625,-0.6142578125,1.2665
2.122137404580153,1.6793893129770991,-1.1755725190839694,0.098876953125,-0.01513671875,-0.603515625,1.2682
1.7251908396946565,1.618320610687023,-1.1908396946564885,0.09326171875,-0.013427734375,-0.614013671875,1.2699
1.5419847328244274,1.5725190839694656,-1.2061068702290076,0.093994140625,-0.017578125,-0.60791015625,1.2715999999999998
1.5267175572519085,1.4961832061068703,-1.083969465648855,0.092529296875,-0.012939453125,-0.61279296875,1.2732999999999999
1.4809160305343512,1.3587786259541985,-1.1908396946564885,0.097900390625,-0.015380859375,-0.6162109375,1.275
1.7099236641221374,1.7099236641221374,-1.3129770992366412,0.095458984375,-0.017578125,-0.61376953125,1.2767
1.4961832061068703,1.3587786259541985,-1.2213740458015268,0.096435546875,-0.019287109375,-0.610595703125,1.2784
1.465648854961832,1.3893129770992367,-1.2061068702290076,0.09228515625,-0.023193359375,-0.60546875,1.2801
1.4351145038167938,1.2061068702290076,-1.282442748091603,0.09228515625,-0.018798828125,-0.6015625,1.2817999999999998
0.9923664122137404,1.1755725190839694,-1.2061068702290076,0.09130859375,-0.01318359375,-0.61181640625,1.2834999999999999
1.2366412213740459,1.083969465648855,-1.3435114503816794,0.096923828125,-0.0126953125,-0.614013671875,1.2852
1.3129770992366412,1.1450381679389312,-1.450381679389313,0.091552734375,-0.012939453125,-0.609130859375,1.2869
1.4809160305343512,0.9312977099236641,-1.3129770992366412,0.093505859375,-0.019287109375,-0.611083984375,1.2886
1.3435114503816794,1.1755725190839694,-1.4809160305343512,0.093505859375,-0.01611328125,-0.60595703125,1.2903
1.4961832061068703,1.083969465648855,-1.3740458015267176,0.093505859375,-0.01953125,-0.606689453125,1.292
1.6641221374045803,1.0534351145038168,-1.3129770992366412,0.091552734375,-0.01904296875,-0.605224609375,1.2936999999999999
1.5419847328244274,0.8854961832061069,-1.3587786259541985,0.093017578125,-0.017333984375,-0.603759765625,1.2953999999999999
1.5725190839694656,0.8091603053435115,-1.1297709923664123,0.093505859375,-0.01611328125,-0.60546875,1.2971
1.786259541984733,0.9618320610687023,-1.282442748091603,0.097900390625,-0.018310546875,-0.611572265625,1.2988
1.83206106870229,0.9923664122137404,-1.1603053435114503,0.09716796875,-0.01708984375,-0.610107421875,1.3005
1.7557251908396947,1.0076335877862594,-1.3587786259541985,0.091064453125,-0.01806640625,-0.603271484375,1.3022
1.7251908396946565,1.0534351145038168,-1.3282442748091603,0.09130859375,-0.01904296875,-0.611328125,1.3038999999999998
1.8473282442748091,1.2213740458015268,-1.3282442748091603,0.093017578125,-0.021484375,-0.60888671875,1.3055999999999999
1.6030534351145038,1.0076335877862594,-1.1755725190839694,0.096923828125,-0.01611328125,-0.6103515625,1.3073
1.7557251908396947,1.0076335877862594,-1.1908396946564885,0.094482421875,-0.015869140625,-0.611572265625,1.309
1.9541984732824427,1.0229007633587786,-1.2671755725190839,0.096435546875,-0.016357421875,-0.614990234375,1.3107
1.5267175572519085,1.1145038167938932,-1.1755725190839694,0.101318359375,-0.01904296875,-0.619140625,1.3124
1.3587786259541985,1.0687022900763359,-1.0687022900763359,0.09130859375,-0.0185546875,-0.607421875,1.3140999999999998
1.4351145038167938,0.9923664122137404,-1.1908396946564885,0.089599609375,-0.016357421875,-0.60693359375,1.3157999999999999
1.251908396946565,0.916030534351145,-1.0534351145038168,0.0986328125,-0.02294921875,-0.605712890625,1.3175
1.282442748091603,0.916030534351145,-1.0687022900763359,0.09716796875,-0.0185546875,-0.6044921875,1.3192
1.2671755725190839,1.099236641221374,-0.9312977099236641,0.09521484375,-0.018798828125,-0.60595703125,1.3209
1.0076335877862594,1.0687022900763359,-1.0229007633587786,0.095947265625,-0.0107421875,-0.60498046875,1.3226
1.0534351145038168,1.0076335877862594,-1.0229007633587786,0.09130859375,-0.019775390625,-0.6064453125,1.3243
1.0381679389312977,1.1145038167938932,-1.2366412213740459,0.09716796875,-0.021240234375,-0.611572265625,1.3259999999999998
0.8396946564885496,0.7480916030534351,-1.0687022900763359,0.0947265625,-0.01806640625,-0.611572265625,1.3276999999999999
1.099236641221374,0.7022900763358778,-1.1297709923664123,0.09326171875,-0.02099609375,-0.61767578125,1.3294
1.083969465648855,0.8244274809160306,-1.083969465648855,0.098388671875,-0.015380859375,-0.615478515625,1.3311
0.9923664122137404,0.6870229007633588,-1.2061068702290076,0.095703125,-0.017822265625,-0.61328125,1.3328
1.1450381679389312,0.5801526717557252,-0.9923664122137404,0.09521484375,-0.01416015625,-0.61474609375,1.3345
1.4809160305343512,0.44274809160305345,-0.9312977099236641,0.09765625,-0.015625,-0.608642578125,1.3361999999999998
1.5267175572519085,0.48854961832061067,-1.282442748091603,0.095703125,-0.02197265625,-0.60546875,1.3378999999999999
1.3893129770992367,0.5190839694656488,-1.0687022900763359,0.095703125,-0.021728515625,-0.60791015625,1.3396
1.7709923664122138,0.48854961832061067,-1.0687022900763359,0.0966796875,-0.016357421875,-0.6103515625,1.3413
1.4961832061068703,0.5190839694656488,-1.1755725190839694,0.09912109375,-0.017333984375,-0.61279296875,1.343
1.3587786259541985,0.16793893129770993,-1.1297709923664123,0.0986328125,-0.01513671875,-0.609375,1.3447
1.9083969465648856,0.15267175572519084,-1.1297709923664123,0.093017578125,-0.01611328125,-0.60302734375,1.3463999999999998
1.5267175572519085,0.04580152671755725,-0.916030534351145,0.09033203125,-0.0087890625,-0.61279296875,1.3480999999999999
1.7251908396946565,0.10687022900763359,-0.7633587786259542,0.0966796875,-0.011474609375,-0.615478515625,1.3497999999999999
1.7251908396946565,0.0916030534351145,-0.9007633587786259,0.0947265625,-0.0126953125,-0.613525390625,1.3515
1.4809160305343512,0.0,-1.0381679389312977,0.091552734375,-0.011474609375,-0.611083984375,1.3532
1.6030534351145038,-0.1984732824427481,-0.9007633587786259,0.090576171875,-0.015869140625,-0.609130859375,1.3549
1.3587786259541985,-0.2900763358778626,-0.9770992366412213,0.091552734375,-0.01513671875,-0.607421875,1.3566
1.465648854961832,-0.22900763358778625,-0.8549618320610687,0.0908203125,-0.011962890625,-0.606201171875,1.3582999999999998
1.6641221374045803,-0.22900763358778625,-1.0076335877862594,0.095458984375,-0.015625,-0.608642578125,1.3599999999999999
1.6641221374045803,-0.16793893129770993,-1.0534351145038168,0.09326171875,-0.01318359375,-0.611572265625,1.3617
1.6793893129770991,-0.21374045801526717,-1.1145038167938932,0.093505859375,-0.019775390625,-0.612548828125,1.3634
1.6793893129770991,-0.15267175572519084,-0.9312977099236641,0.087158203125,-0.01953125,-0.609130859375,1.3651
1.5877862595419847,-0.21374045801526717,-1.1603053435114503,0.095703125,-0.01025390625,-0.6142578125,1.3668
1.3893129770992367,-0.32061068702290074,-1.1603053435114503,0.09716796875,-0.013671875,-0.6162109375,1.3684999999999998
1.6030534351145038,-0.366412213740458,-1.1145038167938932,0.094970703125,-0.013671875,-0.6142578125,1.3701999999999999
1.5267175572519085,-0.22900763358778625,-1.1908396946564885,0.09619140625,-0.01318359375,-0.61572265625,1.3719
1.251908396946565,-0.366412213740458,-1.1297709923664123,0.091796875,-0.01416015625,-0.615966796875,1.3736
1.3129770992366412,-0.2900763358778626,-1.1297709923664123,0.093017578125,-0.021240234375,-0.6142578125,1.3753
1.618320610687023,-0.061068702290076333,-1.3740458015267176,0.092041015625,-0.02099609375,-0.612548828125,1.377
1.633587786259542,-0.42748091603053434,-0.9923664122137404,0.094970703125,-0.013427734375,-0.61376953125,1.3786999999999998
1.297709923664122,-0.4580152671755725,-1.4198473282442747,0.0947265625,-0.015380859375,-0.60693359375,1.3803999999999998
1.6030534351145038,-0.32061068702290074,-1.3435114503816794,0.09375,-0.016845703125,-0.608642578125,1.3820999999999999
1.6641221374045803,-0.1984732824427481,-1.1908396946564885,0.0947265625,-0.01611328125,-0.6142578125,1.3838
2.0,-0.1984732824427481,-1.1450381679389312,0.091552734375,-0.01708984375,-0.610107421875,1.3855
1.816793893129771,-0.2595419847328244,-1.5114503816793894,0.09033203125,-0.019775390625,-0.60693359375,1.3872
1.7709923664122138,-0.1984732824427481,-1.3587786259541985,0.09033203125,-0.01416015625,-0.60546875,1.3889
1.9694656488549618,0.015267175572519083,-1.3435114503816794,0.096923828125,-0.02001953125,-0.6162109375,1.3905999999999998
1.7557251908396947,-0.061068702290076333,-1.3282442748091603,0.09814453125,-0.017578125,-0.609619140625,1.3922999999999999
1.786259541984733,-0.10687022900763359,-1.4809160305343512,0.092041015625,-0.015869140625,-0.612060546875,1.394
1.6946564885496183,-0.16793893129770993,-1.3587786259541985,0.0927734375,-0.018798828125,-0.611328125,1.3957
1.7404580152671756,0.07633587786259542,-1.2671755725190839,0.095703125,-0.013916015625,-0.60693359375,1.3974
2.0763358778625953,0.04580152671755725,-1.1908396946564885,0.09375,-0.01611328125,-0.613525390625,1.3991
1.8778625954198473,0.0,-1.3282442748091603,0.0927734375,-0.013671875,-0.622802734375,1.4007999999999998
1.9236641221374047,0.33587786259541985,-1.297709923664122,0.09765625,-0.01513671875,-0.6103515625,1.4024999999999999
2.1068702290076335,0.15267175572519084,-1.099236641221374,0.09375,-0.014892578125,-0.61376953125,1.4042
1.9694656488549618,0.13740458015267176,-1.099236641221374,0.095458984375,-0.012939453125,-0.61083984375,1.4059
1.8778625954198473,0.15267175572519084,-1.0534351145038168,0.096923828125,-0.01513671875,-0.611328125,1.4076
1.8778625954198473,0.24427480916030533,-1.099236641221374,0.09619140625,-0.01708984375,-0.611572265625,1.4093
2.015267175572519,0.183206106870229,-0.9465648854961832,0.10107421875,-0.021240234375,-0.61572265625,1.411
1.8473282442748091,0.366412213740458,-0.9770992366412213,0.098876953125,-0.017822265625,-0.618408203125,1.4126999999999998
1.6488549618320612,0.2595419847328244,-1.1297709923664123,0.0908203125,-0.0185546875,-0.61669921875,1.4143999999999999
1.83206106870229,0.24427480916030533,-1.1145038167938932,0.09130859375,-0.019287109375,-0.610595703125,1.4161
2.16793893129771,0.10687022900763359,-0.9007633587786259,0.0966796875,-0.0205078125,-0.6064453125,1.4178
1.6641221374045803,0.16793893129770993,-0.9618320610687023,0.096435546875,-0.009521484375,-0.609130859375,1.4195
1.83206106870229,0.13740458015267176,-0.9465648854961832,0.10205078125,-0.01318359375,-0.6201171875,1.4212
1.7709923664122138,0.2900763358778626,-1.0381679389312977,0.09619140625,-0.015625,-0.614990234375,1.4228999999999998
1.7099236641221374,0.32061068702290074,-0.916030534351145,0.0966796875,-0.01708984375,-0.61279296875,1.4245999999999999
2.1068702290076335,0.21374045801526717,-1.0534351145038168,0.102294921875,-0.01611328125,-0.608642578125,1.4263
1.9389312977099236,0.2748091603053435,-1.0229007633587786,0.0986328125,-0.017822265625,-0.610107421875,1.428
2.183206106870229,0.16793893129770993,-1.1145038167938932,0.096923828125,-0.01318359375,-0.616455078125,1.4297
1.9236641221374047,0.061068702290076333,-1.0687022900763359,0.0888671875,-0.012939453125,-0.609130859375,1.4314
2.030534351145038,0.21374045801526717,-0.9007633587786259,0.093994140625,-0.015380859375,-0.606201171875,1.4330999999999998
1.9083969465648856,0.2748091603053435,-1.0229007633587786,0.095947265625,-0.016845703125,-0.6083984375,1.4347999999999999
1.8015267175572518,0.2748091603053435,-1.1297709923664123,0.094482421875,-0.0146484375,-0.612548828125,1.4364999999999999
1.6641221374045803,0.2748091603053435,-0.9618320610687023,0.0947265625,-0.012939453125,-0.613037109375,1.4382
1.6488549618320612,0.2595419847328244,-0.8244274809160306,0.09912109375,-0.022216796875,-0.620849609375,1.4399
1.7557251908396947,0.24427480916030533,-0.7938931297709924,0.101318359375,-0.0126953125,-0.610595703125,1.4416
1.5114503816793894,-0.030534351145038167,-0.9923664122137404,0.097412109375,-0.01318359375,-0.611083984375,1.4433
1.1450381679389312,0.0,-1.083969465648855,0.097900390625,-0.015380859375,-0.620849609375,1.4449999999999998
1.1145038167938932,0.13740458015267176,-0.7938931297709924,0.0966796875,-0.021240234375,-0.600341796875,1.4466999999999999
1.1755725190839694,0.183206106870229,-0.732824427480916,0.096923828125,-0.012451171875,-0.61376953125,1.4484
1.0381679389312977,-0.015267175572519083,-0.6870229007633588,0.100341796875,-0.01708984375,-0.615478515625,1.4501
1.0229007633587786,0.15267175572519084,-0.5190839694656488,0.09619140625,-0.015380859375,-0.61083984375,1.4518
0.9465648854961832,0.15267175572519084,-0.6412213740458015,0.095947265625,-0.01416015625,-0.61083984375,1.4535
1.1603053435114503,0.12213740458015267,-0.5648854961832062,0.09619140625,-0.01806640625,-0.612548828125,1.4551999999999998
1.3129770992366412,0.15267175572519084,-0.7022900763358778,0.1005859375,-0.01904296875,-0.610107421875,1.4568999999999999
1.4198473282442747,-0.04580152671755725,-0.5801526717557252,0.101806640625,-0.017333984375,-0.61474609375,1.4586
1.5572519083969465,-0.12213740458015267,-0.5190839694656488,0.096923828125,-0.017333984375,-0.6181640625,1.4603
1.3282442748091603,0.1984732824427481,-0.5190839694656488,0.093994140625,-0.020751953125,-0.615478515625,1.462
1.4809160305343512,-0.061068702290076333,-0.6106870229007634,0.099365234375,-0.014404296875,-0.612548828125,1.4637
1.4809160305343512,-0.04580152671755725,-0.5801526717557252,0.101318359375,-0.013671875,-0.617431640625,1.4653999999999998
1.465648854961832,-0.10687022900763359,-0.7938931297709924,0.099853515625,-0.014404296875,-0.622314453125,1.4670999999999998
1.1755725190839694,-0.16793893129770993,-0.6412213740458015,0.1005859375,-0.01806640625,-0.611083984375,1.4687999999999999
1.6030534351145038,0.07633587786259542,-0.8396946564885496,0.100830078125,-0.017822265625,-0.615966796875,1.4705
1.618320610687023,0.030534351145038167,-0.6106870229007634,0.1005859375,-0.015380859375,-0.613525390625,1.4722
1.6946564885496183,-0.0916030534351145,-1.0229007633587786,0.102783203125,-0.013427734375,-0.610595703125,1.4739
1.7251908396946565,0.1984732824427481,-0.7175572519083969,0.095703125,-0.019775390625,-0.609619140625,1.4756
1.6641221374045803,0.1984732824427481,-0.7022900763358778,0.095703125,-0.0185546875,-0.611572265625,1.4772999999999998
1.8473282442748091,0.22900763358778625,-0.6259541984732825,0.09423828125,-0.0205078125,-0.603515625,1.4789999999999999
1.9389312977099236,0.2748091603053435,-0.7175572519083969,0.095458984375,-0.015380859375,-0.61279296875,1.4807
1.984732824427481,0.3816793893129771,-0.6106870229007634,0.09326171875,-0.009765625,-0.611572265625,1.4824
1.9541984732824427,0.24427480916030533,-0.6259541984732825,0.096923828125,-0.01171875,-0.613037109375,1.4841
2.183206106870229,0.42748091603053434,-0.44274809160305345,0.095458984375,-0.01708984375,-0.6083984375,1.4858
2.1374045801526718,0.5190839694656488,-0.5648854961832062,0.1005859375,-0.0107421875,-0.618896484375,1.4874999999999998
2.16793893129771,0.5954198473282443,-0.366412213740458,0.098876953125,-0.009765625,-0.610595703125,1.4891999999999999
2.351145038167939,0.5954198473282443,-0.6564885496183206,0.09912109375,-0.015869140625,-0.606201171875,1.4909
2.2748091603053435,0.549618320610687,-0.7786259541984732,0.095947265625,-0.020263671875,-0.619384765625,1.4926
1.984732824427481,0.5954198473282443,-1.0076335877862594,0.09228515625,-0.01953125,-0.61279296875,1.4943
1.9236641221374047,0.5801526717557252,-0.7022900763358778,0.09228515625,-0.02099609375,-0.61962890625,1.496
1.8015267175572518,0.6870229007633588,-0.6412213740458015,0.096923828125,-0.015869140625,-0.6181640625,1.4976999999999998
1.6488549618320612,0.9007633587786259,-0.7480916030534351,0.096923828125,-0.020263671875,-0.614013671875,1.4993999999999998
1.816793893129771,0.9007633587786259,-0.8702290076335878,0.096923828125,-0.013916015625,-0.614013671875,1.5010999999999999
1.786259541984733,0.9923664122137404,-0.9007633587786259,0.09619140625,-0.015625,-0.6181640625,1.5028
1.3740458015267176,0.8702290076335878,-1.0381679389312977,0.0966796875,-0.017333984375,-0.615966796875,1.5045
1.5114503816793894,0.8091603053435115,-1.251908396946565,0.0927734375,-0.01318359375,-0.611083984375,1.5062
1.5572519083969465,0.9465648854961832,-1.465648854961832,0.095458984375,-0.01416015625,-0.6142578125,1.5079
1.3435114503816794,1.1908396946564885,-1.5114503816793894,0.091796875,-0.017822265625,-0.61376953125,1.5095999999999998
1.4198473282442747,1.0381679389312977,-1.6641221374045803,0.093017578125,-0.013671875,-0.612548828125,1.5112999999999999
1.5877862595419847,0.916030534351145,-1.3740458015267176,0.09765625,-0.011474609375,-0.6142578125,1.513
1.6946564885496183,1.099236641221374,-1.4809160305343512,0.09716796875,-0.016845703125,-0.616455078125,1.5147
1.6641221374045803,1.1145038167938932,-1.5114503816793894,0.09423828125,-0.016845703125,-0.61083984375,1.5164
1.7709923664122138,0.8549618320610687,-1.7709923664122138,0.093994140625,-0.01171875,-0.61376953125,1.5181
1.984732824427481,0.8396946564885496,-1.4045801526717556,0.0986328125,-0.013427734375,-0.616455078125,1.5197999999999998
2.030534351145038,0.8854961832061069,-1.5877862595419847,0.09814453125,-0.015869140625,-0.614501953125,1.5214999999999999
1.8625954198473282,1.0687022900763359,-1.5572519083969465,0.099609375,-0.0166015625,-0.615478515625,1.5231999999999999
2.015267175572519,1.1908396946564885,-1.4198473282442747,0.097412109375,-0.0185546875,-0.618408203125,1.5249
1.8625954198473282,1.083969465648855,-1.4045801526717556,0.094970703125,-0.01318359375,-0.612548828125,1.5266
2.045801526717557,1.1908396946564885,-1.5725190839694656,0.09619140625,-0.017333984375,-0.6201171875,1.5283
2.045801526717557,0.9923664122137404,-1.4045801526717556,0.099365234375,-0.01513671875,-0.610595703125,1.5299999999999998
1.83206106870229,1.0687022900763359,-1.0687022900763359,0.089111328125,-0.013427734375,-0.61181640625,1.5316999999999998
1.9389312977099236,0.9465648854961832,-1.1297709923664123,0.09912109375,-0.017333984375,-0.613037109375,1.5333999999999999
1.7099236641221374,0.9770992366412213,-1.251908396946565,0.095458984375,-0.015625,-0.6123046875,1.5351
1.6946564885496183,0.9770992366412213,-0.8854961832061069,0.096923828125,-0.02197265625,-0.619873046875,1.5368
1.5267175572519085,0.8244274809160306,-0.9312977099236641,0.09814453125,-0.022216796875,-0.61572265625,1.5385
1.7099236641221374,0.8244274809160306,-0.8396946564885496,0.096435546875,-0.021484375,-0.613525390625,1.5402
1.465648854961832,0.8702290076335878,-0.916030534351145,0.095947265625,-0.01513671875,-0.62353515625,1.5418999999999998
1.6488549618320612,0.8244274809160306,-0.8244274809160306,0.0986328125,-0.019775390625,-0.61572265625,1.5435999999999999
1.099236641221374,0.6106870229007634,-0.8854961832061069,0.097412109375,-0.017822265625,-0.6201171875,1.5453
1.1145038167938932,0.6259541984732825,-0.9618320610687023,0.095458984375,-0.017578125,-0.613037109375,1.547
1.4198473282442747,0.6717557251908397,-1.0076335877862594,0.09619140625,-0.02294921875,-0.61181640625,1.5487
1.450381679389313,0.5801526717557252,-0.8396946564885496,0.093994140625,-0.025634765625,-0.61376953125,1.5504
1.3435114503816794,0.6564885496183206,-0.9923664122137404,0.093994140625,-0.021240234375,-0.613037109375,1.5520999999999998
1.3893129770992367,0.732824427480916,-1.1603053435114503,0.09130859375,-0.0224609375,-0.614990234375,1.5537999999999998
1.3740458015267176,0.7633587786259542,-1.083969465648855,0.093505859375,-0.02197265625,-0.6123046875,1.5554999999999999
1.2213740458015268,0.8244274809160306,-1.3435114503816794,0.0947265625,-0.02392578125,-0.62255859375,1.5572
1.0229007633587786,0.8549618320610687,-1.251908396946565,0.096923828125,-0.025146484375,-0.6083984375,1.5589
1.099236641221374,0.7938931297709924,-1.2213740458015268,0.0947265625,-0.02099609375,-0.60400390625,1.5606
0.9923664122137404,0.7786259541984732,-1.4045801526717556,0.094482421875,-0.020751953125,-0.61572265625,1.5623
1.1297709923664123,0.7175572519083969,-1.4198473282442747,0.08984375,-0.0224609375,-0.6123046875,1.5639999999999998
1.1603053435114503,0.9770992366412213,-1.5419847328244274,0.089599609375,-0.021240234375,-0.612060546875,1.5656999999999999
0.9618320610687023,1.099236641221374,-1.5267175572519085,0.0859375,-0.013427734375,-0.60986328125,1.5674
0.9465648854961832,1.0229007633587786,-1.4961832061068703,0.093505859375,-0.016357421875,-0.614013671875,1.5691
0.6259541984732825,1.1755725190839694,-1.6793893129770991,0.096435546875,-0.0146484375,-0.613037109375,1.5708
0.6564885496183206,1.297709923664122,-1.5419847328244274,0.09228515625,-0.015380859375,-0.61572265625,1.5725
0.5038167938931297,1.4198473282442747,-1.5572519083969465,0.089599609375,-0.01611328125,-0.6123046875,1.5741999999999998
0.21374045801526717,1.450381679389313,-1.5877862595419847,0.0966796875,-0.016357421875,-0.6162109375,1.5758999999999999
0.4122137404580153,1.6641221374045803,-1.7099236641221374,0.08984375,-0.013916015625,-0.6142578125,1.5776
0.21374045801526717,1.9083969465648856,-1.5419847328244274,0.092529296875,-0.0126953125,-0.61865234375,1.5793
0.24427480916030533,2.0763358778625953,-1.7099236641221374,0.09130859375,-0.01025390625,-0.6142578125,1.581
-0.183206106870229,2.015267175572519,-1.7709923664122138,0.088134765625,-0.00732421875,-0.61083984375,1.5827
-0.13740458015267176,2.213740458015267,-1.5725190839694656,0.092529296875,-0.014892578125,-0.614501953125,1.5843999999999998
0.0,2.0610687022900764,-1.4351145038167938,0.09716796875,-0.009765625,-0.618896484375,1.5860999999999998
0.13740458015267176,2.0916030534351147,-1.633587786259542,0.093994140625,-0.019775390625,-0.614501953125,1.5877999999999999
0.2595419847328244,2.030534351145038,-1.5877862595419847,0.09521484375,-0.017578125,-0.61572265625,1.5895
0.366412213740458,2.0,-1.5725190839694656,0.093017578125,-0.01318359375,-0.613037109375,1.5912
0.5343511450381679,2.16793893129771,-1.6641221374045803,0.091796875,-0.01318359375,-0.6103515625,1.5929
0.32061068702290074,2.3053435114503817,-1.618320610687023,0.0947265625,-0.0107421875,-0.615234375,1.5946
0.549618320610687,2.183206106870229,-1.7709923664122138,0.09619140625,-0.01416015625,-0.6015625,1.5962999999999998
0.9007633587786259,2.015267175572519,-1.7099236641221374,0.094482421875,-0.01220703125,-0.608642578125,1.5979999999999999
0.9618320610687023,2.1374045801526718,-1.5725190839694656,0.095703125,-0.01220703125,-0.613525390625,1.5997
0.9312977099236641,2.0610687022900764,-1.618320610687023,0.09326171875,-0.01123046875,-0.608154296875,1.6014
1.3893129770992367,2.198473282442748,-1.5267175572519085,0.094970703125,-0.01806640625,-0.604248046875,1.6031
1.4198473282442747,1.8778625954198473,-1.4351145038167938,0.096435546875,-0.010986328125,-0.616943359375,1.6048
1.4961832061068703,2.2748091603053435,-1.6488549618320612,0.09814453125,-0.015380859375,-0.608154296875,1.6064999999999998
1.6793893129770991,2.213740458015267,-1.4351145038167938,0.0966796875,-0.003173828125,-0.614013671875,1.6081999999999999
1.618320610687023,2.1374045801526718,-1.4045801526717556,0.096923828125,-0.00927734375,-0.614501953125,1.6098999999999999
1.5267175572519085,2.1526717557251906,-1.4351145038167938,0.094970703125,-0.00732421875,-0.610107421875,1.6116
1.8625954198473282,2.0763358778625953,-1.3740458015267176,0.0966796875,-0.01416015625,-0.607421875,1.6133
2.045801526717557,2.213740458015267,-1.2366412213740459,0.0966796875,-0.011474609375,-0.613525390625,1.615
2.045801526717557,2.2442748091603053,-1.1603053435114503,0.09716796875,-0.0107421875,-0.6181640625,1.6166999999999998
1.8015267175572518,2.183206106870229,-1.251908396946565,0.097412109375,-0.009521484375,-0.61083984375,1.6183999999999998
2.122137404580153,2.015267175572519,-1.0381679389312977,0.09619140625,-0.01513671875,-0.607666015625,1.6200999999999999
2.045801526717557,2.0916030534351147,-1.1297709923664123,0.093017578125,-0.015380859375,-0.613037109375,1.6218
1.9236641221374047,1.9236641221374047,-0.9923664122137404,0.092529296875,-0.010009765625,-0.60791015625,1.6235
1.8473282442748091,1.9236641221374047,-0.9465648854961832,0.0947265625,-0.0146484375,-0.61572265625,1.6252
1.7251908396946565,1.6641221374045803,-0.9007633587786259,0.09765625,-0.01416015625,-0.615478515625,1.6269
1.786259541984733,1.816793893129771,-1.1145038167938932,0.097900390625,-0.013916015625,-0.616455078125,1.6285999999999998
1.9389312977099236,1.8778625954198473,-1.1603053435114503,0.091064453125,-0.014892578125,-0.614501953125,1.6302999999999999
1.5877862595419847,1.5725190839694656,-1.0687022900763359,0.094482421875,-0.017578125,-0.6142578125,1.632
1.4198473282442747,1.7099236641221374,-1.0076335877862594,0.0927734375,-0.017822265625,-0.609130859375,1.6337
1.1908396946564885,1.7709923664122138,-1.1603053435114503,0.0908203125,-0.019775390625,-0.608154296875,1.6354
1.1145038167938932,1.9083969465648856,-1.0534351145038168,0.0947265625,-0.017578125,-0.608154296875,1.6371
1.1145038167938932,1.7251908396946565,-1.3435114503816794,0.09716796875,-0.020263671875,-0.614013671875,1.6387999999999998
1.1297709923664123,1.786259541984733,-1.282442748091603,0.093994140625,-0.018798828125,-0.6162109375,1.6404999999999998
1.1297709923664123,2.015267175572519,-1.2061068702290076,0.09033203125,-0.01611328125,-0.609619140625,1.6421999999999999
1.1450381679389312,1.7251908396946565,-1.251908396946565,0.099609375,-0.01806640625,-0.612548828125,1.6439
1.2366412213740459,1.6793893129770991,-1.5419847328244274,0.094482421875,-0.017333984375,-0.607421875,1.6456
1.282442748091603,1.5419847328244274,-1.3587786259541985,0.09423828125,-0.019775390625,-0.607177734375,1.6473
1.3129770992366412,1.4809160305343512,-1.3587786259541985,0.093994140625,-0.017333984375,-0.608642578125,1.6489999999999998
1.3282442748091603,1.465648854961832,-1.3435114503816794,0.091064453125,-0.013916015625,-0.613037109375,1.6506999999999998
1.6946564885496183,1.618320610687023,-1.3282442748091603,0.0888671875,-0.011962890625,-0.610595703125,1.6523999999999999
1.6488549618320612,1.5267175572519085,-1.251908396946565,0.09326171875,-0.01611328125,-0.6171875,1.6541
1.4198473282442747,1.6793893129770991,-1.3129770992366412,0.0947265625,-0.02001953125,-0.620361328125,1.6558
1.5572519083969465,1.9083969465648856,-1.2671755725190839,0.095947265625,-0.0166015625,-0.619140625,1.6575
1.4961832061068703,1.4961832061068703,-1.297709923664122,0.09033203125,-0.016357421875,-0.61572265625,1.6592
1.2671755725190839,1.5725190839694656,-1.3129770992366412,0.097412109375,-0.01611328125,-0.612060546875,1.6608999999999998
1.5419847328244274,1.6488549618320612,-1.2213740458015268,0.093994140625,-0.020263671875,-0.610107421875,1.6625999999999999
1.5725190839694656,1.7404580152671756,-1.1755725190839694,0.09521484375,-0.0166015625,-0.6162109375,1.6643
1.4809160305343512,1.6641221374045803,-1.3129770992366412,0.09814453125,-0.01513671875,-0.606689453125,1.666
1.1297709923664123,1.4961832061068703,-1.1450381679389312,0.09228515625,-0.011962890625,-0.611083984375,1.6677
1.3587786259541985,1.633587786259542,-1.099236641221374,0.0908203125,-0.015869140625,-0.60986328125,1.6694
1.3587786259541985,1.5419847328244274,-0.9923664122137404,0.093505859375,-0.02001953125,-0.60791015625,1.6710999999999998
1.297709923664122,1.8015267175572518,-0.8702290076335878,0.095458984375,-0.02099609375,-0.613525390625,1.6727999999999998
0.9465648854961832,1.7557251908396947,-0.9618320610687023,0.095703125,-0.011962890625,-0.615234375,1.6744999999999999
1.0381679389312977,1.5114503816793894,-0.9618320610687023,0.0927734375,-0.017333984375,-0.6064453125,1.6762
1.1908396946564885,1.618320610687023,-0.7938931297709924,0.096435546875,-0.023193359375,-0.6083984375,1.6779
1.0381679389312977,1.6946564885496183,-0.8702290076335878,0.099609375,-0.019775390625,-0.61328125,1.6796
0.9770992366412213,1.3893129770992367,-0.916030534351145,0.095703125,-0.019775390625,-0.616455078125,1.6813
1.3435114503816794,1.2671755725190839,-1.0229007633587786,0.08984375,-0.01025390625,-0.613525390625,1.6829999999999998
1.2061068702290076,1.1450381679389312,-0.8702290076335878,0.091552734375,-0.010986328125,-0.609375,1.6846999999999999
1.3129770992366412,1.282442748091603,-0.9007633587786259,0.09228515625,-0.020263671875,-0.610107421875,1.6864
1.5419847328244274,1.3740458015267176,-0.8854961832061069,0.094482421875,-0.012939453125,-0.609619140625,1.6881
1.6488549618320612,1.1908396946564885,-0.7786259541984732,0.09326171875,-0.0146484375,-0.6142578125,1.6898
1.7404580152671756,1.1603053435114503,-0.7175572519083969,0.096435546875,-0.01806640625,-0.615478515625,1.6915
1.6030534351145038,1.1755725190839694,-0.8244274809160306,0.097412109375,-0.01513671875,-0.606689453125,1.6931999999999998
1.9389312977099236,1.083969465648855,-0.5190839694656488,0.099609375,-0.01611328125,-0.615478515625,1.6948999999999999
1.9389312977099236,1.3587786259541985,-0.5954198473282443,0.093994140625,-0.016845703125,-0.612548828125,1.6965999999999999
2.0,1.1297709923664123,-0.7480916030534351,0.095703125,-0.011962890625,-0.60107421875,1.6983
1.9083969465648856,0.8396946564885496,-0.3969465648854962,0.094970703125,-0.013916015625,-0.608642578125,1.7
1.9083969465648856,0.8396946564885496,-0.3969465648854962,0.096923828125,-0.018310546875,-0.610595703125,1.7017
1.9694656488549618,0.732824427480916,-0.549618320610687,0.09130859375,-0.011962890625,-0.6123046875,1.7033999999999998
2.122137404580153,0.44274809160305345,-0.32061068702290074,0.09716796875,-0.017333984375,-0.6005859375,1.7050999999999998
2.0610687022900764,0.5801526717557252,-0.42748091603053434,0.093505859375,-0.024169921875,-0.60595703125,1.7067999999999999
2.3053435114503817,0.48854961832061067,-0.366412213740458,0.095947265625,-0.013916015625,-0.610107421875,1.7085
2.198473282442748,0.42748091603053434,-0.3816793893129771,0.097900390625,-0.015625,-0.609619140625,1.7102
2.351145038167939,0.4732824427480916,-0.3511450381679389,0.091064453125,-0.016845703125,-0.609130859375,1.7119
2.4122137404580153,0.5038167938931297,-0.24427480916030533,0.093994140625,-0.013671875,-0.6171875,1.7136
2.4885496183206106,0.732824427480916,-0.4122137404580153,0.092529296875,-0.023193359375,-0.60791015625,1.7152999999999998
2.4580152671755724,0.549618320610687,-0.22900763358778625,0.088134765625,-0.01806640625,-0.61767578125,1.7169999999999999
2.4580152671755724,0.7786259541984732,-0.15267175572519084,0.08984375,-0.018798828125,-0.614501953125,1.7187
2.351145038167939,0.8396946564885496,-0.4732824427480916,0.092529296875,-0.01708984375,-0.609130859375,1.7204
2.3969465648854964,0.7938931297709924,-0.549618320610687,0.09130859375,-0.02294921875,-0.610107421875,1.7221
2.381679389312977,0.7175572519083969,-0.44274809160305345,0.090087890625,-0.02197265625,-0.60400390625,1.7238
2.213740458015267,0.9312977099236641,-0.4732824427480916,0.095458984375,-0.0185546875,-0.60791015625,1.7254999999999998
2.213740458015267,0.9465648854961832,-0.5343511450381679,0.093017578125,-0.022216796875,-0.606201171875,1.7271999999999998
2.2748091603053435,0.9312977099236641,-0.549618320610687,0.090087890625,-0.017578125,-0.6064453125,1.7288999999999999
2.1068702290076335,0.8549618320610687,-0.5648854961832062,0.085693359375,-0.01806640625,-0.614501953125,1.7306
2.2900763358778624,0.8854961832061069,-0.4732824427480916,0.090576171875,-0.02099609375,-0.61474609375,1.7323
2.4122137404580153,0.916030534351145,-0.5954198473282443,0.092041015625,-0.01904296875,-0.61572265625,1.734
2.122137404580153,1.0076335877862594,-0.6870229007633588,0.093017578125,-0.02099609375,-0.6142578125,1.7356999999999998
2.183206106870229,0.7938931297709924,-0.5801526717557252,0.095703125,-0.014404296875,-0.605224609375,1.7373999999999998
2.1374045801526718,0.9312977099236641,-0.6564885496183206,0.08984375,-0.021484375,-0.61572265625,1.7390999999999999
2.045801526717557,0.8702290076335878,-0.48854961832061067,0.0908203125,-0.013427734375,-0.6123046875,1.7408
2.2595419847328246,0.7938931297709924,-0.6870229007633588,0.08984375,-0.014404296875,-0.603759765625,1.7425
2.183206106870229,0.8549618320610687,-0.7480916030534351,0.094482421875,-0.01513671875,-0.61181640625,1.7442
1.9541984732824427,0.916030534351145,-0.6564885496183206,0.08984375,-0.016845703125,-0.613037109375,1.7459
1.8015267175572518,0.732824427480916,-0.7175572519083969,0.08837890625,-0.01416015625,-0.6171875,1.7475999999999998
1.9236641221374047,0.8091603053435115,-0.7022900763358778,0.093994140625,-0.015625,-0.60595703125,1.7492999999999999
1.8931297709923665,0.9770992366412213,-0.7938931297709924,0.098388671875,-0.017578125,-0.60986328125,1.751
1.3129770992366412,1.1603053435114503,-1.0076335877862594,0.093017578125,-0.01318359375,-0.616943359375,1.7527
1.450381679389313,1.0229007633587786,-0.8702290076335878,0.092529296875,-0.015869140625,-0.611328125,1.7544
1.1145038167938932,1.3893129770992367,-0.916030534351145,0.093994140625,-0.01171875,-0.614013671875,1.7561
1.0229007633587786,1.4198473282442747,-0.7480916030534351,0.093017578125,-0.014892578125,-0.61669921875,1.7577999999999998
1.1908396946564885,1.3435114503816794,-0.9465648854961832,0.092041015625,-0.02197265625,-0.6181640625,1.7594999999999998
1.099236641221374,1.297709923664122,-0.8702290076335878,0.091552734375,-0.021728515625,-0.611083984375,1.7611999999999999
1.0687022900763359,1.251908396946565,-0.916030534351145,0.092529296875,-0.0224609375,-0.612548828125,1.7629
1.1450381679389312,1.2366412213740459,-1.0381679389312977,0.0986328125,-0.0205078125,-0.609619140625,1.7646
1.3435114503816794,1.3435114503816794,-1.0229007633587786,0.09521484375,-0.016357421875,-0.626220703125,1.7663
1.5572519083969465,1.3282442748091603,-0.8396946564885496,0.09619140625,-0.014892578125,-0.625,1.7679999999999998
1.5877862595419847,1.1603053435114503,-0.9618320610687023,0.09423828125,-0.01318359375,-0.61669921875,1.7696999999999998
1.618320610687023,1.2366412213740459,-0.7786259541984732,0.102783203125,-0.016357421875,-0.614990234375,1.7713999999999999
1.633587786259542,1.1755725190839694,-0.7175572519083969,0.095947265625,-0.02001953125,-0.614501953125,1.7731
1.8778625954198473,1.0381679389312977,-0.7022900763358778,0.097412109375,-0.0185546875,-0.615478515625,1.7748
2.045801526717557,1.0687022900763359,-0.6412213740458015,0.097900390625,-0.022216796875,-0.610107421875,1.7765
2.030534351145038,0.9618320610687023,-0.7175572519083969,0.090087890625,-0.018798828125,-0.614501953125,1.7782
2.4885496183206106,0.9618320610687023,-0.9465648854961832,0.099853515625,-0.017822265625,-0.60888671875,1.7798999999999998
2.2748091603053435,0.9007633587786259,-0.5343511450381679,0.09619140625,-0.023681640625,-0.6123046875,1.7815999999999999
1.9236641221374047,0.9465648854961832,-0.6717557251908397,0.09423828125,-0.023193359375,-0.60107421875,1.7832999999999999
2.0,0.8244274809160306,-0.5038167938931297,0.099853515625,-0.015869140625,-0.6064453125,1.785
2.0763358778625953,0.9465648854961832,-0.7786259541984732,0.095458984375,-0.011474609375,-0.609130859375,1.7867
1.8625954198473282,0.8854961832061069,-0.5038167938931297,0.09423828125,-0.0185546875,-0.60546875,1.7884
1.9389312977099236,1.0076335877862594,-0.6870229007633588,0.09326171875,-0.01904296875,-0.602783203125,1.7900999999999998
1.5877862595419847,0.8396946564885496,-0.6870229007633588,0.0986328125,-0.017333984375,-0.609619140625,1.7917999999999998
1.633587786259542,0.916030534351145,-0.8244274809160306,0.096435546875,-0.016845703125,-0.612548828125,1.7934999999999999
1.8931297709923665,1.0381679389312977,-0.7480916030534351,0.0927734375,-0.020263671875,-0.606201171875,1.7952
1.816793893129771,0.9312977099236641,-0.916030534351145,0.0927734375,-0.020751953125,-0.609619140625,1.7969
2.1068702290076335,1.0687022900763359,-0.9312977099236641,0.092529296875,-0.0166015625,-0.61279296875,1.7986
2.183206106870229,1.2671755725190839,-1.1450381679389312,0.09619140625,-0.018798828125,-0.619140625,1.8002999999999998
1.7709923664122138,0.8549618320610687,-0.9007633587786259,0.09375,-0.016845703125,-0.618408203125,1.8019999999999998
1.7404580152671756,1.0229007633587786,-1.0687022900763359,0.099853515625,-0.016845703125,-0.617919921875,1.8036999999999999
