gyrox1,gyroy1,gyroz1,accelx1,accely1,accelz1,Time
1.450381679389313,0.8854961832061069,-1.9541984732824427,-0.46630859375,-0.015380859375,-0.15869140625,0.0
1.6030534351145038,0.7633587786259542,-2.030534351145038,-0.463623046875,-0.008056640625,-0.15478515625,0.0017
1.7099236641221374,0.732824427480916,-2.1374045801526718,-0.46337890625,-0.011962890625,-0.1494140625,0.0034
1.7099236641221374,0.916030534351145,-2.122137404580153,-0.46240234375,-0.0107421875,-0.1533203125,0.0050999999999999995
1.4809160305343512,0.8396946564885496,-1.9541984732824427,-0.464599609375,-0.0107421875,-0.154296875,0.0068
1.3740458015267176,0.9770992366412213,-2.1068702290076335,-0.46337890625,-0.0087890625,-0.148193359375,0.008499999999999999
1.5419847328244274,0.9465648854961832,-1.9541984732824427,-0.460693359375,-0.009033203125,-0.16064453125,0.010199999999999999
1.6488549618320612,0.8396946564885496,-1.8931297709923665,-0.46630859375,-0.012939453125,-0.15625,0.011899999999999999
1.465648854961832,0.8702290076335878,-1.9389312977099236,-0.466552734375,-0.010498046875,-0.1552734375,0.0136
1.3282442748091603,0.7786259541984732,-1.8778625954198473,-0.465576171875,-0.01025390625,-0.150634765625,0.0153
1.5419847328244274,0.916030534351145,-1.83206106870229,-0.46484375,-0.0087890625,-0.146240234375,0.016999999999999998
1.6946564885496183,1.0229007633587786,-1.9236641221374047,-0.46484375,-0.012939453125,-0.154541015625,0.018699999999999998
1.4961832061068703,0.9007633587786259,-2.0916030534351147,-0.462890625,-0.010986328125,-0.15771484375,0.020399999999999998
1.3893129770992367,0.9923664122137404,-2.0916030534351147,-0.4658203125,-0.007568359375,-0.160888671875,0.022099999999999998
1.5572519083969465,1.0229007633587786,-2.16793893129771,-0.462158203125,-0.009765625,-0.15576171875,0.023799999999999998
1.633587786259542,0.8244274809160306,-2.0763358778625953,-0.470947265625,-0.00732421875,-0.1552734375,0.0255
1.6946564885496183,0.9007633587786259,-2.045801526717557,-0.464599609375,-0.013427734375,-0.15771484375,0.0272
1.4809160305343512,0.7633587786259542,-1.984732824427481,-0.467041015625,-0.01123046875,-0.1455078125,0.0289
1.465648854961832,0.916030534351145,-2.198473282442748,-0.462646484375,-0.009033203125,-0.16259765625,0.0306
1.4961832061068703,1.099236641221374,-2.0916030534351147,-0.462890625,-0.0068359375,-0.157958984375,0.032299999999999995
1.450381679389313,0.8244274809160306,-2.0916030534351147,-0.467041015625,-0.010986328125,-0.157958984375,0.033999999999999996
1.5114503816793894,0.8702290076335878,-2.015267175572519,-0.4697265625,-0.01123046875,-0.15625,0.035699999999999996
1.4809160305343512,1.0687022900763359,-1.9694656488549618,-0.46435546875,-0.011474609375,-0.151123046875,0.037399999999999996
1.5419847328244274,1.1755725190839694,-2.015267175572519,-0.46484375,-0.010009765625,-0.147705078125,0.039099999999999996
1.4351145038167938,1.099236641221374,-2.030534351145038,-0.46044921875,-0.012939453125,-0.1572265625,0.040799999999999996
1.5572519083969465,0.9618320610687023,-2.045801526717557,-0.46435546875,-0.0146484375,-0.1533203125,0.042499999999999996
1.4198473282442747,1.0687022900763359,-1.9083969465648856,-0.46337890625,-0.0205078125,-0.15478515625,0.044199999999999996
1.5267175572519085,1.1450381679389312,-1.9694656488549618,-0.462646484375,-0.009765625,-0.14892578125,0.045899999999999996
1.3587786259541985,0.9007633587786259,-1.9694656488549618,-0.458251953125,-0.0146484375,-0.159423828125,0.047599999999999996
1.5572519083969465,1.1297709923664123,-2.045801526717557,-0.4638671875,-0.013916015625,-0.158447265625,0.0493
1.4198473282442747,1.0687022900763359,-2.015267175572519,-0.45849609375,-0.01318359375,-0.152587890625,0.051
1.3435114503816794,1.1450381679389312,-1.8625954198473282,-0.461669921875,-0.007080078125,-0.1484375,0.0527
1.5419847328244274,1.0076335877862594,-2.0763358778625953,-0.463623046875,-0.010498046875,-0.149658203125,0.0544
1.450381679389313,0.9312977099236641,-1.9236641221374047,-0.460693359375,-0.01123046875,-0.154541015625,0.0561
1.3129770992366412,1.0076335877862594,-1.7251908396946565,-0.464111328125,-0.009521484375,-0.154296875,0.0578
1.5877862595419847,1.0687022900763359,-1.7557251908396947,-0.463623046875,-0.012451171875,-0.153564453125,0.0595
1.465648854961832,0.9618320610687023,-1.7404580152671756,-0.46630859375,-0.011474609375,-0.14453125,0.0612
1.450381679389313,0.9312977099236641,-1.618320610687023,-0.46533203125,-0.015380859375,-0.156005859375,0.0629
1.450381679389313,1.0534351145038168,-1.6030534351145038,-0.4697265625,-0.01318359375,-0.154296875,0.06459999999999999
1.465648854961832,1.1603053435114503,-1.5725190839694656,-0.462646484375,-0.014404296875,-0.15283203125,0.0663
1.5114503816793894,1.0076335877862594,-1.6488549618320612,-0.4638671875,-0.00830078125,-0.146240234375,0.06799999999999999
1.633587786259542,1.0381679389312977,-1.7099236641221374,-0.462646484375,-0.011962890625,-0.155029296875,0.0697
1.4045801526717556,1.083969465648855,-1.4351145038167938,-0.45947265625,-0.009765625,-0.15673828125,0.07139999999999999
1.4961832061068703,1.1450381679389312,-1.6641221374045803,-0.4638671875,-0.009033203125,-0.15380859375,0.0731
1.5572519083969465,1.1755725190839694,-1.7251908396946565,-0.458984375,-0.007080078125,-0.1513671875,0.07479999999999999
1.5725190839694656,1.2671755725190839,-1.6030534351145038,-0.463134765625,-0.0078125,-0.152099609375,0.0765
1.3587786259541985,1.1755725190839694,-1.6488549618320612,-0.460205078125,-0.009765625,-0.154541015625,0.07819999999999999
1.4198473282442747,1.083969465648855,-1.4198473282442747,-0.4658203125,-0.014892578125,-0.155517578125,0.0799
1.465648854961832,1.1145038167938932,-1.6030534351145038,-0.46533203125,-0.0078125,-0.153076171875,0.08159999999999999
1.6946564885496183,1.2061068702290076,-1.4961832061068703,-0.46240234375,-0.010498046875,-0.152099609375,0.0833
1.5725190839694656,1.3129770992366412,-1.3282442748091603,-0.461669921875,-0.01513671875,-0.14794921875,0.08499999999999999
1.3893129770992367,1.1450381679389312,-1.5877862595419847,-0.4638671875,-0.009765625,-0.16162109375,0.0867
1.4809160305343512,1.3587786259541985,-1.4198473282442747,-0.46142578125,-0.01123046875,-0.16259765625,0.08839999999999999
1.3435114503816794,1.2366412213740459,-1.297709923664122,-0.467529296875,-0.0146484375,-0.15576171875,0.0901
1.450381679389313,1.1755725190839694,-1.3435114503816794,-0.46142578125,-0.0126953125,-0.150390625,0.09179999999999999
1.3129770992366412,1.633587786259542,-1.3282442748091603,-0.461669921875,-0.012451171875,-0.151611328125,0.0935
1.3129770992366412,1.3282442748091603,-1.3129770992366412,-0.465576171875,-0.0087890625,-0.148681640625,0.09519999999999999
1.3282442748091603,1.3129770992366412,-1.0534351145038168,-0.462890625,-0.012939453125,-0.156982421875,0.0969
1.1603053435114503,1.3740458015267176,-1.0229007633587786,-0.468017578125,-0.0126953125,-0.15576171875,0.0986
1.3435114503816794,1.450381679389313,-1.1450381679389312,-0.465087890625,-0.011474609375,-0.153564453125,0.1003
1.297709923664122,1.3893129770992367,-1.083969465648855,-0.465576171875,-0.013671875,-0.15283203125,0.102
1.1755725190839694,1.465648854961832,-1.1297709923664123,-0.467529296875,-0.01171875,-0.152099609375,0.1037
1.0229007633587786,1.4198473282442747,-1.1450381679389312,-0.467041015625,-0.010498046875,-0.155029296875,0.1054
1.3129770992366412,1.3893129770992367,-1.083969465648855,-0.46728515625,-0.009033203125,-0.15966796875,0.1071
1.083969465648855,1.4351145038167938,-1.0687022900763359,-0.46875,-0.005615234375,-0.1455078125,0.1088
0.9770992366412213,1.3893129770992367,-0.8091603053435115,-0.46728515625,-0.014404296875,-0.15087890625,0.11049999999999999
0.8396946564885496,1.465648854961832,-0.9923664122137404,-0.46484375,-0.014892578125,-0.148193359375,0.1122
0.7786259541984732,1.3282442748091603,-0.9923664122137404,-0.46923828125,-0.009521484375,-0.160400390625,0.11389999999999999
1.0381679389312977,1.4961832061068703,-0.916030534351145,-0.462158203125,-0.009033203125,-0.160888671875,0.1156
0.8244274809160306,1.5877862595419847,-0.8549618320610687,-0.463623046875,-0.009521484375,-0.156494140625,0.11729999999999999
0.8549618320610687,1.6488549618320612,-1.0076335877862594,-0.46826171875,-0.015869140625,-0.158447265625,0.119
0.6564885496183206,1.6641221374045803,-1.0229007633587786,-0.46484375,-0.01220703125,-0.157958984375,0.12069999999999999
0.6106870229007634,1.4809160305343512,-0.9312977099236641,-0.465087890625,-0.01220703125,-0.158447265625,0.1224
0.7938931297709924,1.5725190839694656,-0.8549618320610687,-0.462890625,-0.013671875,-0.149658203125,0.12409999999999999
0.7175572519083969,1.7557251908396947,-0.9770992366412213,-0.462158203125,-0.01025390625,-0.15087890625,0.1258
0.5954198473282443,1.5419847328244274,-1.0381679389312977,-0.466064453125,-0.0126953125,-0.153564453125,0.1275
0.6106870229007634,1.5114503816793894,-0.9618320610687023,-0.4658203125,-0.016845703125,-0.16162109375,0.12919999999999998
0.7480916030534351,1.7251908396946565,-0.732824427480916,-0.4638671875,-0.01318359375,-0.153076171875,0.1309
0.9618320610687023,1.6030534351145038,-0.9312977099236641,-0.46484375,-0.01416015625,-0.156494140625,0.1326
0.8396946564885496,1.4809160305343512,-0.916030534351145,-0.46435546875,-0.008056640625,-0.158203125,0.1343
0.7175572519083969,1.5267175572519085,-1.1450381679389312,-0.458740234375,-0.009765625,-0.1494140625,0.13599999999999998
0.4122137404580153,1.3435114503816794,-0.9618320610687023,-0.466064453125,-0.007080078125,-0.146240234375,0.1377
0.4732824427480916,1.4045801526717556,-1.282442748091603,-0.4619140625,-0.011962890625,-0.16259765625,0.1394
0.5190839694656488,1.450381679389313,-1.1450381679389312,-0.469482421875,-0.006103515625,-0.152587890625,0.1411
0.8549618320610687,1.3587786259541985,-1.1603053435114503,-0.46630859375,-0.00830078125,-0.159912109375,0.14279999999999998
0.6259541984732825,1.3435114503816794,-1.1908396946564885,-0.46337890625,-0.0146484375,-0.1611328125,0.1445
0.5801526717557252,1.5114503816793894,-1.4961832061068703,-0.462158203125,-0.012451171875,-0.159423828125,0.1462
0.6412213740458015,1.1908396946564885,-1.4198473282442747,-0.466552734375,-0.00439453125,-0.157958984375,0.1479
0.5648854961832062,1.3893129770992367,-1.3587786259541985,-0.4638671875,-0.009521484375,-0.153564453125,0.14959999999999998
0.48854961832061067,1.4961832061068703,-1.450381679389313,-0.46533203125,-0.00634765625,-0.15234375,0.1513
0.549618320610687,1.5267175572519085,-1.5419847328244274,-0.46533203125,-0.011962890625,-0.158935546875,0.153
0.5801526717557252,1.2671755725190839,-1.450381679389313,-0.468505859375,-0.01318359375,-0.15625,0.1547
0.44274809160305345,1.3587786259541985,-1.5725190839694656,-0.469482421875,-0.015380859375,-0.145263671875,0.15639999999999998
0.7175572519083969,1.6946564885496183,-1.5114503816793894,-0.460693359375,-0.008544921875,-0.15185546875,0.1581
0.4732824427480916,1.8931297709923665,-1.5572519083969465,-0.465087890625,-0.0107421875,-0.1552734375,0.1598
0.5190839694656488,1.7251908396946565,-1.4045801526717556,-0.46875,-0.011962890625,-0.164306640625,0.1615
0.7633587786259542,1.8473282442748091,-1.6030534351145038,-0.460693359375,-0.013427734375,-0.15478515625,0.16319999999999998
0.6717557251908397,1.6641221374045803,-1.5877862595419847,-0.4609375,-0.010986328125,-0.152587890625,0.1649
0.5190839694656488,1.83206106870229,-1.6641221374045803,-0.46484375,-0.01513671875,-0.151611328125,0.1666
0.3969465648854962,1.9694656488549618,-1.4961832061068703,-0.462158203125,-0.01611328125,-0.155029296875,0.16829999999999998
0.3816793893129771,1.8778625954198473,-1.5572519083969465,-0.46044921875,-0.012939453125,-0.152587890625,0.16999999999999998
0.4580152671755725,1.7709923664122138,-1.5725190839694656,-0.46435546875,-0.0126953125,-0.15673828125,0.1717
0.5801526717557252,1.7709923664122138,-1.4809160305343512,-0.4619140625,-0.014892578125,-0.1513671875,0.1734
0.3816793893129771,1.8473282442748091,-1.3740458015267176,-0.46728515625,-0.012451171875,-0.157958984375,0.17509999999999998
0.6106870229007634,1.7557251908396947,-1.465648854961832,-0.47021484375,-0.010498046875,-0.1513671875,0.17679999999999998
0.732824427480916,1.6641221374045803,-1.3282442748091603,-0.469970703125,-0.010986328125,-0.154296875,0.1785
0.549618320610687,1.816793893129771,-1.251908396946565,-0.463134765625,-0.01220703125,-0.15673828125,0.1802
0.549618320610687,1.7404580152671756,-1.3282442748091603,-0.46875,-0.007568359375,-0.163330078125,0.18189999999999998
0.6106870229007634,1.7557251908396947,-1.282442748091603,-0.466552734375,-0.009765625,-0.157470703125,0.18359999999999999
0.6259541984732825,1.6946564885496183,-0.8396946564885496,-0.46923828125,-0.00927734375,-0.155029296875,0.1853
0.5954198473282443,1.5877862595419847,-0.916030534351145,-0.466552734375,-0.009033203125,-0.154541015625,0.187
0.5038167938931297,1.5114503816793894,-0.7938931297709924,-0.46826171875,-0.005859375,-0.1591796875,0.18869999999999998
0.44274809160305345,1.633587786259542,-0.8702290076335878,-0.46728515625,-0.00732421875,-0.1513671875,0.19039999999999999
0.5038167938931297,1.5877862595419847,-0.7786259541984732,-0.469482421875,-0.008544921875,-0.152587890625,0.1921
0.5801526717557252,1.450381679389313,-0.8244274809160306,-0.4658203125,-0.0126953125,-0.153564453125,0.1938
0.6259541984732825,1.5877862595419847,-0.6412213740458015,-0.46630859375,-0.00732421875,-0.150390625,0.19549999999999998
0.8244274809160306,1.6488549618320612,-0.6870229007633588,-0.4716796875,-0.013671875,-0.150634765625,0.1972
0.7175572519083969,1.7251908396946565,-0.549618320610687,-0.469482421875,-0.009765625,-0.159423828125,0.1989
0.9465648854961832,2.0,-0.6412213740458015,-0.469970703125,-0.00341796875,-0.160888671875,0.2006
0.8549618320610687,1.9389312977099236,-0.6717557251908397,-0.46533203125,-0.00830078125,-0.1611328125,0.20229999999999998
0.8702290076335878,1.9694656488549618,-0.7480916030534351,-0.469482421875,-0.006103515625,-0.14794921875,0.204
0.9923664122137404,2.030534351145038,-0.6870229007633588,-0.471435546875,-0.008544921875,-0.14794921875,0.2057
0.9312977099236641,2.183206106870229,-0.7175572519083969,-0.469482421875,-0.012939453125,-0.160888671875,0.2074
0.9618320610687023,2.030534351145038,-0.6412213740458015,-0.468017578125,-0.010009765625,-0.152099609375,0.20909999999999998
0.8396946564885496,2.122137404580153,-0.8702290076335878,-0.4638671875,-0.009033203125,-0.157958984375,0.2108
1.251908396946565,2.0763358778625953,-0.8091603053435115,-0.466064453125,-0.007568359375,-0.1533203125,0.2125
1.4045801526717556,2.0,-0.8091603053435115,-0.465576171875,-0.00537109375,-0.16357421875,0.2142
1.1450381679389312,2.015267175572519,-0.5801526717557252,-0.46435546875,-0.005859375,-0.146484375,0.21589999999999998
1.5114503816793894,2.1374045801526718,-0.7022900763358778,-0.463134765625,-0.002685546875,-0.14697265625,0.2176
1.4809160305343512,2.122137404580153,-0.549618320610687,-0.462890625,-0.006591796875,-0.153564453125,0.2193
1.3893129770992367,2.16793893129771,-0.5954198473282443,-0.463623046875,-0.015380859375,-0.14599609375,0.22099999999999997
1.6488549618320612,1.8931297709923665,-0.6870229007633588,-0.46435546875,-0.0107421875,-0.149169921875,0.22269999999999998
1.6641221374045803,2.0916030534351147,-0.6259541984732825,-0.462646484375,-0.00244140625,-0.158447265625,0.2244
1.5572519083969465,2.0610687022900764,-0.3816793893129771,-0.465087890625,-0.006591796875,-0.158447265625,0.2261
1.6641221374045803,1.816793893129771,-0.5343511450381679,-0.469482421875,-0.00927734375,-0.1611328125,0.22779999999999997
1.9236641221374047,1.984732824427481,-0.5190839694656488,-0.471435546875,-0.00927734375,-0.14794921875,0.22949999999999998
1.83206106870229,2.0610687022900764,-0.549618320610687,-0.46142578125,-0.009033203125,-0.151611328125,0.2312
1.7709923664122138,1.7709923664122138,-0.5038167938931297,-0.46533203125,-0.0107421875,-0.149169921875,0.2329
1.7099236641221374,2.1068702290076335,-0.5343511450381679,-0.46142578125,-0.01416015625,-0.158203125,0.23459999999999998
1.9083969465648856,2.16793893129771,-0.42748091603053434,-0.46533203125,-0.00537109375,-0.16015625,0.23629999999999998
1.7404580152671756,2.0763358778625953,-0.4122137404580153,-0.464599609375,-0.00830078125,-0.157958984375,0.238
1.816793893129771,2.198473282442748,-0.2595419847328244,-0.464599609375,-0.0126953125,-0.1572265625,0.2397
1.6641221374045803,2.1526717557251906,-0.42748091603053434,-0.4677734375,-0.010498046875,-0.15087890625,0.24139999999999998
1.8931297709923665,1.8625954198473282,-0.3511450381679389,-0.46044921875,-0.01123046875,-0.15625,0.24309999999999998
1.8473282442748091,2.030534351145038,-0.0916030534351145,-0.465087890625,-0.013916015625,-0.1513671875,0.2448
1.8015267175572518,2.122137404580153,0.04580152671755725,-0.468505859375,-0.011962890625,-0.15234375,0.2465
1.9541984732824427,2.2290076335877864,-0.12213740458015267,-0.46044921875,-0.0068359375,-0.156005859375,0.24819999999999998
1.9694656488549618,1.9694656488549618,0.15267175572519084,-0.4638671875,-0.01025390625,-0.15576171875,0.24989999999999998
1.786259541984733,2.045801526717557,0.0916030534351145,-0.467041015625,-0.00439453125,-0.147216796875,0.2516
2.183206106870229,2.030534351145038,-0.0916030534351145,-0.467041015625,-0.0087890625,-0.15380859375,0.25329999999999997
2.045801526717557,2.0610687022900764,0.183206106870229,-0.462890625,-0.008544921875,-0.15771484375,0.255
1.984732824427481,2.1526717557251906,0.24427480916030533,-0.458251953125,-0.01025390625,-0.149658203125,0.2567
1.8625954198473282,2.0763358778625953,0.0916030534351145,-0.460693359375,-0.00927734375,-0.159423828125,0.25839999999999996
1.8625954198473282,2.045801526717557,0.22900763358778625,-0.463134765625,-0.00927734375,-0.154296875,0.2601
2.030534351145038,2.0916030534351147,0.15267175572519084,-0.468505859375,-0.00341796875,-0.154541015625,0.2618
1.984732824427481,2.1374045801526718,0.24427480916030533,-0.46484375,-0.009033203125,-0.150634765625,0.2635
2.0,1.8931297709923665,0.0,-0.46533203125,-0.012939453125,-0.164306640625,0.2652
2.0610687022900764,1.8931297709923665,0.2595419847328244,-0.4658203125,-0.010986328125,-0.1640625,0.26689999999999997
2.122137404580153,1.83206106870229,0.13740458015267176,-0.465576171875,-0.010498046875,-0.154052734375,0.2686
2.16793893129771,1.7557251908396947,0.22900763358778625,-0.463134765625,-0.008056640625,-0.146240234375,0.2703
1.9541984732824427,2.0,0.33587786259541985,-0.46435546875,-0.012939453125,-0.156494140625,0.27199999999999996
2.16793893129771,1.9541984732824427,0.33587786259541985,-0.463623046875,-0.010986328125,-0.15576171875,0.2737
2.045801526717557,1.7557251908396947,0.0916030534351145,-0.46533203125,-0.013916015625,-0.1591796875,0.2754
1.8015267175572518,2.015267175572519,0.3969465648854962,-0.462890625,-0.010009765625,-0.15869140625,0.27709999999999996
1.8931297709923665,1.9236641221374047,0.5038167938931297,-0.46142578125,-0.0126953125,-0.16162109375,0.2788
1.8778625954198473,1.8778625954198473,0.3816793893129771,-0.4619140625,-0.00927734375,-0.149169921875,0.28049999999999997
1.633587786259542,2.0,0.549618320610687,-0.462890625,-0.013671875,-0.153564453125,0.2822
1.7099236641221374,2.030534351145038,0.6106870229007634,-0.461669921875,-0.010009765625,-0.1552734375,0.2839
1.7099236641221374,1.9236641221374047,0.5801526717557252,-0.468505859375,-0.01416015625,-0.158447265625,0.28559999999999997
1.5114503816793894,1.8625954198473282,0.5954198473282443,-0.459716796875,-0.01025390625,-0.15185546875,0.2873
1.450381679389313,2.015267175572519,0.5038167938931297,-0.460693359375,-0.009765625,-0.154052734375,0.289
1.4809160305343512,1.5877862595419847,0.5343511450381679,-0.464599609375,-0.009033203125,-0.156005859375,0.29069999999999996
1.3893129770992367,1.6641221374045803,0.4580152671755725,-0.4658203125,-0.0107421875,-0.155517578125,0.2924
1.5725190839694656,1.3740458015267176,0.3816793893129771,-0.46142578125,-0.005615234375,-0.153076171875,0.2941
1.3587786259541985,1.4961832061068703,0.3053435114503817,-0.460205078125,-0.005859375,-0.15283203125,0.2958
1.5114503816793894,1.465648854961832,0.32061068702290074,-0.46337890625,-0.010009765625,-0.15673828125,0.2975
1.3435114503816794,1.3282442748091603,0.48854961832061067,-0.4580078125,-0.0048828125,-0.1552734375,0.29919999999999997
1.4198473282442747,1.2061068702290076,0.366412213740458,-0.458740234375,-0.00927734375,-0.155029296875,0.3009
1.3282442748091603,1.2213740458015268,0.4732824427480916,-0.45849609375,-0.009521484375,-0.158935546875,0.3026
1.083969465648855,1.3740458015267176,0.2748091603053435,-0.45751953125,-0.0048828125,-0.155517578125,0.30429999999999996
1.2671755725190839,1.3740458015267176,0.4122137404580153,-0.459716796875,-0.0068359375,-0.15966796875,0.306
1.251908396946565,1.2061068702290076,0.366412213740458,-0.46240234375,-0.007080078125,-0.162109375,0.3077
1.297709923664122,1.4351145038167938,0.32061068702290074,-0.4697265625,-0.004638671875,-0.158935546875,0.3094
1.0229007633587786,1.5114503816793894,0.12213740458015267,-0.463134765625,-0.008544921875,-0.15380859375,0.3111
0.7786259541984732,1.5267175572519085,0.2748091603053435,-0.461181640625,-0.007080078125,-0.157958984375,0.31279999999999997
0.8702290076335878,1.4961832061068703,0.16793893129770993,-0.467041015625,-0.006591796875,-0.153564453125,0.3145
1.1450381679389312,1.633587786259542,0.24427480916030533,-0.4658203125,-0.006103515625,-0.14892578125,0.3162
0.9618320610687023,1.4809160305343512,0.183206106870229,-0.463623046875,-0.004638671875,-0.156982421875,0.31789999999999996
0.6564885496183206,1.282442748091603,0.10687022900763359,-0.469482421875,-0.008056640625,-0.156005859375,0.3196
0.6259541984732825,1.251908396946565,0.1984732824427481,-0.4677734375,-0.00390625,-0.14990234375,0.3213
0.8091603053435115,1.465648854961832,0.030534351145038167,-0.46142578125,-0.005859375,-0.158447265625,0.323
0.7480916030534351,1.5572519083969465,0.04580152671755725,-0.45947265625,-0.00537109375,-0.1552734375,0.3247
0.6564885496183206,1.3740458015267176,0.12213740458015267,-0.459228515625,-0.010498046875,-0.15576171875,0.32639999999999997
0.7938931297709924,1.2671755725190839,0.10687022900763359,-0.463134765625,-0.008056640625,-0.156982421875,0.3281
0.7786259541984732,1.3435114503816794,0.0916030534351145,-0.46728515625,-0.00439453125,-0.15673828125,0.3298
0.7633587786259542,1.3740458015267176,-0.2595419847328244,-0.46630859375,0.0,-0.154052734375,0.33149999999999996
0.7175572519083969,1.3129770992366412,-0.22900763358778625,-0.457763671875,-0.007080078125,-0.151611328125,0.3332
0.6564885496183206,1.3893129770992367,-0.10687022900763359,-0.462890625,-0.001953125,-0.15966796875,0.3349
0.6259541984732825,1.450381679389313,-0.13740458015267176,-0.465576171875,-0.00537109375,-0.156494140625,0.33659999999999995
0.7480916030534351,1.5267175572519085,-0.061068702290076333,-0.463623046875,-0.00146484375,-0.156494140625,0.3383
0.7786259541984732,1.5725190839694656,0.04580152671755725,-0.464111328125,-0.00634765625,-0.154541015625,0.33999999999999997
0.6106870229007634,1.6793893129770991,-0.15267175572519084,-0.462158203125,-0.006591796875,-0.156982421875,0.3417
0.4580152671755725,1.6488549618320612,-0.2595419847328244,-0.462646484375,-0.0009765625,-0.14697265625,0.3434
0.6870229007633588,1.7251908396946565,-0.22900763358778625,-0.46484375,-0.0029296875,-0.1455078125,0.34509999999999996
0.42748091603053434,1.786259541984733,-0.10687022900763359,-0.462646484375,-0.00244140625,-0.151123046875,0.3468
0.3053435114503817,1.6946564885496183,-0.2748091603053435,-0.4658203125,-0.006103515625,-0.1533203125,0.3485
0.44274809160305345,1.7709923664122138,-0.2900763358778626,-0.4638671875,-0.000244140625,-0.162109375,0.35019999999999996
0.4732824427480916,1.786259541984733,-0.4732824427480916,-0.46337890625,-0.003173828125,-0.15576171875,0.3519
0.42748091603053434,1.7099236641221374,-0.32061068702290074,-0.4599609375,-0.0087890625,-0.15625,0.35359999999999997
0.44274809160305345,1.5725190839694656,-0.5038167938931297,-0.46435546875,-0.000244140625,-0.156494140625,0.3553
0.42748091603053434,1.786259541984733,-0.4580152671755725,-0.464599609375,-0.004638671875,-0.156005859375,0.357
0.5954198473282443,1.5877862595419847,-0.4732824427480916,-0.46484375,-0.002197265625,-0.157470703125,0.35869999999999996
0.6717557251908397,1.786259541984733,-0.4122137404580153,-0.463623046875,-0.00732421875,-0.15478515625,0.3604
0.3969465648854962,1.5114503816793894,-0.549618320610687,-0.46044921875,-0.004150390625,-0.153564453125,0.3621
0.44274809160305345,1.4961832061068703,-0.3969465648854962,-0.45947265625,0.0009765625,-0.1533203125,0.36379999999999996
0.7480916030534351,1.6030534351145038,-0.42748091603053434,-0.46533203125,-0.006103515625,-0.16162109375,0.3655
0.8091603053435115,1.4809160305343512,-0.4122137404580153,-0.46435546875,-0.001220703125,-0.153076171875,0.36719999999999997
0.7022900763358778,1.3587786259541985,-0.8396946564885496,-0.46484375,-0.008056640625,-0.143798828125,0.3689
0.6870229007633588,1.282442748091603,-0.5648854961832062,-0.466064453125,-0.001708984375,-0.153076171875,0.3706
1.0229007633587786,1.3893129770992367,-0.6564885496183206,-0.4638671875,-0.001953125,-0.1572265625,0.37229999999999996
0.8549618320610687,1.2366412213740459,-0.7938931297709924,-0.46435546875,-0.0029296875,-0.146728515625,0.374
0.9007633587786259,1.4045801526717556,-0.8702290076335878,-0.46484375,-0.001953125,-0.16259765625,0.3757
1.0076335877862594,1.465648854961832,-0.732824427480916,-0.4619140625,-0.006103515625,-0.153564453125,0.37739999999999996
1.0687022900763359,1.4045801526717556,-0.9312977099236641,-0.462890625,-0.00537109375,-0.155029296875,0.3791
1.1297709923664123,1.4045801526717556,-1.0381679389312977,-0.466064453125,0.001220703125,-0.157958984375,0.38079999999999997
1.1297709923664123,1.2671755725190839,-0.9770992366412213,-0.462158203125,-0.002197265625,-0.156982421875,0.38249999999999995
1.0229007633587786,1.3893129770992367,-0.8549618320610687,-0.46435546875,-0.00537109375,-0.158935546875,0.3842
1.1297709923664123,1.4045801526717556,-1.1297709923664123,-0.46533203125,-0.001708984375,-0.154541015625,0.38589999999999997
1.1145038167938932,1.282442748091603,-1.0381679389312977,-0.458251953125,0.00146484375,-0.151123046875,0.3876
1.2366412213740459,1.282442748091603,-1.251908396946565,-0.460693359375,0.000244140625,-0.147705078125,0.3893
1.3282442748091603,1.2213740458015268,-1.1297709923664123,-0.460693359375,-0.00146484375,-0.1552734375,0.39099999999999996
1.297709923664122,1.3740458015267176,-1.251908396946565,-0.46484375,-0.007080078125,-0.15234375,0.3927
1.5419847328244274,1.2366412213740459,-1.4198473282442747,-0.465087890625,-0.00341796875,-0.162353515625,0.3944
1.633587786259542,1.297709923664122,-1.3282442748091603,-0.462890625,-0.002197265625,-0.16259765625,0.39609999999999995
1.3740458015267176,1.1603053435114503,-1.1603053435114503,-0.466796875,0.00439453125,-0.1552734375,0.3978
1.7404580152671756,1.1755725190839694,-1.3740458015267176,-0.45947265625,-0.002685546875,-0.1572265625,0.39949999999999997
1.83206106870229,1.0229007633587786,-1.297709923664122,-0.466796875,0.00048828125,-0.158447265625,0.4012
1.7404580152671756,1.1145038167938932,-1.6793893129770991,-0.456298828125,0.0029296875,-0.14794921875,0.4029
1.8625954198473282,1.1908396946564885,-1.465648854961832,-0.46044921875,0.001220703125,-0.14599609375,0.40459999999999996
1.8473282442748091,1.0381679389312977,-1.5725190839694656,-0.460693359375,0.001708984375,-0.1513671875,0.4063
1.9694656488549618,1.0076335877862594,-1.4961832061068703,-0.462158203125,-0.002685546875,-0.152099609375,0.408
1.9083969465648856,1.0229007633587786,-1.5877862595419847,-0.4609375,-0.004638671875,-0.150390625,0.40969999999999995
2.1526717557251906,1.0534351145038168,-1.4809160305343512,-0.466064453125,-0.00048828125,-0.154541015625,0.4114
2.015267175572519,1.0534351145038168,-1.633587786259542,-0.463134765625,-0.000244140625,-0.151611328125,0.41309999999999997
2.045801526717557,1.1603053435114503,-1.6793893129770991,-0.463134765625,0.001953125,-0.1630859375,0.4148
2.2442748091603053,0.9465648854961832,-1.9694656488549618,-0.463134765625,-0.001708984375,-0.1572265625,0.4165
2.16793893129771,1.083969465648855,-1.6641221374045803,-0.46044921875,-0.002197265625,-0.159912109375,0.41819999999999996
2.381679389312977,1.0229007633587786,-1.83206106870229,-0.463623046875,-0.00439453125,-0.149658203125,0.4199
2.427480916030534,0.8702290076335878,-1.816793893129771,-0.462890625,0.0,-0.158935546875,0.4216
2.2290076335877864,0.9618320610687023,-1.9541984732824427,-0.461669921875,-0.00146484375,-0.15185546875,0.42329999999999995
2.50381679389313,1.0381679389312977,-1.8473282442748091,-0.4638671875,0.00537109375,-0.162353515625,0.425
2.50381679389313,0.9465648854961832,-1.8625954198473282,-0.46142578125,0.000244140625,-0.15576171875,0.42669999999999997
2.4732824427480917,0.9618320610687023,-1.7099236641221374,-0.461181640625,-0.002685546875,-0.1611328125,0.4284
2.4885496183206106,0.8549618320610687,-1.7404580152671756,-0.462646484375,-0.006591796875,-0.159423828125,0.4301
2.763358778625954,0.9312977099236641,-1.7557251908396947,-0.4619140625,-0.002197265625,-0.160400390625,0.43179999999999996
2.7480916030534353,0.9465648854961832,-1.83206106870229,-0.46484375,-0.00244140625,-0.15283203125,0.4335
2.4427480916030535,0.8091603053435115,-1.8778625954198473,-0.468994140625,-0.002197265625,-0.156005859375,0.4352
2.7480916030534353,0.8702290076335878,-2.030534351145038,-0.465087890625,-0.007080078125,-0.16357421875,0.43689999999999996
2.900763358778626,0.9465648854961832,-1.816793893129771,-0.462646484375,0.0009765625,-0.163330078125,0.4386
2.854961832061069,0.8396946564885496,-2.1068702290076335,-0.458984375,-0.005859375,-0.158203125,0.44029999999999997
2.687022900763359,0.7022900763358778,-1.8931297709923665,-0.4658203125,-0.003173828125,-0.16162109375,0.44199999999999995
2.595419847328244,0.916030534351145,-2.030534351145038,-0.468994140625,-0.002197265625,-0.152587890625,0.4437
2.9923664122137406,0.916030534351145,-1.8931297709923665,-0.46337890625,-0.00537109375,-0.1533203125,0.44539999999999996
2.8244274809160306,0.5954198473282443,-2.0763358778625953,-0.464111328125,-0.001953125,-0.158203125,0.4471
2.717557251908397,0.5954198473282443,-2.0916030534351147,-0.462890625,-0.005126953125,-0.1611328125,0.4488
2.9923664122137406,0.6717557251908397,-2.213740458015267,-0.462646484375,-0.006103515625,-0.152099609375,0.45049999999999996
2.9618320610687023,0.6564885496183206,-2.0763358778625953,-0.460205078125,-0.00146484375,-0.154052734375,0.4522
2.946564885496183,0.7480916030534351,-2.0,-0.4638671875,-0.00732421875,-0.155029296875,0.45389999999999997
3.114503816793893,0.8396946564885496,-2.030534351145038,-0.45947265625,-0.00537109375,-0.15234375,0.45559999999999995
2.8396946564885495,0.5343511450381679,-2.2595419847328246,-0.459716796875,-0.0068359375,-0.158447265625,0.4573
2.763358778625954,0.5801526717557252,-2.0763358778625953,-0.4599609375,-0.00830078125,-0.1552734375,0.45899999999999996
3.2213740458015265,0.6412213740458015,-2.2442748091603053,-0.459228515625,-0.007568359375,-0.14892578125,0.4607
3.0229007633587788,0.6717557251908397,-2.0610687022900764,-0.46875,-0.00439453125,-0.15234375,0.4624
2.885496183206107,0.6412213740458015,-2.3206106870229006,-0.4619140625,-0.00634765625,-0.1591796875,0.46409999999999996
3.0381679389312977,0.6106870229007634,-2.2748091603053435,-0.464599609375,-0.0087890625,-0.15576171875,0.4658
2.9923664122137406,0.6717557251908397,-2.1374045801526718,-0.469482421875,-0.005859375,-0.147705078125,0.46749999999999997
3.0229007633587788,0.732824427480916,-2.183206106870229,-0.467529296875,-0.00634765625,-0.155029296875,0.46919999999999995
2.885496183206107,0.5648854961832062,-2.4885496183206106,-0.464599609375,-0.001953125,-0.14990234375,0.4709
3.0839694656488548,0.7022900763358778,-2.3969465648854964,-0.46826171875,-0.003662109375,-0.158203125,0.47259999999999996
3.1603053435114505,0.4732824427480916,-2.33587786259542,-0.4697265625,-0.00439453125,-0.1533203125,0.4743
3.0229007633587788,0.6870229007633588,-2.2442748091603053,-0.46337890625,-0.00830078125,-0.16357421875,0.476
3.099236641221374,0.5801526717557252,-2.427480916030534,-0.4609375,-0.008056640625,-0.156005859375,0.47769999999999996
2.9770992366412212,0.6259541984732825,-2.015267175572519,-0.4580078125,-0.01123046875,-0.156005859375,0.4794
2.7938931297709924,0.549618320610687,-2.366412213740458,-0.467529296875,-0.006103515625,-0.152099609375,0.48109999999999997
3.0076335877862594,0.5648854961832062,-2.3969465648854964,-0.462890625,-0.0068359375,-0.15771484375,0.48279999999999995
3.0839694656488548,0.7022900763358778,-2.3053435114503817,-0.46484375,-0.00830078125,-0.15771484375,0.4845
2.8244274809160306,0.7480916030534351,-2.183206106870229,-0.465087890625,-0.011962890625,-0.16015625,0.48619999999999997
2.8702290076335877,0.6259541984732825,-2.2900763358778624,-0.461181640625,-0.0029296875,-0.155029296875,0.4879
2.7786259541984735,0.4580152671755725,-2.4885496183206106,-0.46435546875,-0.00439453125,-0.1640625,0.4896
2.931297709923664,0.549618320610687,-2.366412213740458,-0.459716796875,-0.0048828125,-0.157958984375,0.49129999999999996
3.099236641221374,0.6717557251908397,-2.381679389312977,-0.4609375,-0.003662109375,-0.159912109375,0.493
2.8396946564885495,0.6870229007633588,-2.595419847328244,-0.465087890625,-0.006591796875,-0.1484375,0.4947
2.519083969465649,0.6106870229007634,-2.122137404580153,-0.46435546875,-0.005859375,-0.15234375,0.49639999999999995
2.8091603053435112,0.7938931297709924,-2.2900763358778624,-0.46435546875,-0.008056640625,-0.15576171875,0.4981
3.0076335877862594,0.7480916030534351,-2.381679389312977,-0.460693359375,-0.010009765625,-0.1630859375,0.49979999999999997
2.854961832061069,0.5954198473282443,-2.33587786259542,-0.458740234375,-0.009521484375,-0.161376953125,0.5015
2.5343511450381677,0.6717557251908397,-2.2900763358778624,-0.468017578125,-0.015869140625,-0.150390625,0.5032
2.717557251908397,0.8396946564885496,-2.4580152671755724,-0.46533203125,-0.010498046875,-0.16650390625,0.5049
2.7938931297709924,0.916030534351145,-2.0763358778625953,-0.466552734375,-0.015380859375,-0.15771484375,0.5065999999999999
2.946564885496183,0.8549618320610687,-2.351145038167939,-0.4599609375,-0.015625,-0.156982421875,0.5083
2.5801526717557253,0.5190839694656488,-2.4122137404580153,-0.4677734375,-0.01171875,-0.158935546875,0.51
2.687022900763359,0.6717557251908397,-2.2595419847328246,-0.46630859375,-0.0078125,-0.1484375,0.5116999999999999
2.946564885496183,0.732824427480916,-2.0610687022900764,-0.469482421875,-0.010498046875,-0.1494140625,0.5134
2.5343511450381677,0.7633587786259542,-2.213740458015267,-0.463134765625,-0.00927734375,-0.157958984375,0.5151
2.6412213740458017,0.916030534351145,-1.9389312977099236,-0.46142578125,-0.010986328125,-0.158203125,0.5167999999999999
2.366412213740458,0.7786259541984732,-2.0,-0.465576171875,-0.01025390625,-0.157470703125,0.5185
2.7022900763358777,0.9465648854961832,-1.9389312977099236,-0.46240234375,-0.0087890625,-0.15380859375,0.5202
2.6106870229007635,0.9465648854961832,-1.9694656488549618,-0.464111328125,-0.010986328125,-0.159912109375,0.5218999999999999
2.549618320610687,0.8091603053435115,-1.9083969465648856,-0.465576171875,-0.011962890625,-0.1591796875,0.5236
2.50381679389313,0.8549618320610687,-1.9083969465648856,-0.468017578125,-0.007568359375,-0.158447265625,0.5253
2.3969465648854964,0.6717557251908397,-1.9236641221374047,-0.465576171875,-0.00927734375,-0.15625,0.527
2.5801526717557253,0.7175572519083969,-2.0,-0.463623046875,-0.013427734375,-0.147705078125,0.5287
2.5801526717557253,0.8091603053435115,-1.7709923664122138,-0.46435546875,-0.01025390625,-0.148193359375,0.5304
2.351145038167939,0.7633587786259542,-1.8015267175572518,-0.462890625,-0.00830078125,-0.16064453125,0.5321
2.4122137404580153,0.9465648854961832,-1.6641221374045803,-0.46875,-0.011474609375,-0.1484375,0.5337999999999999
2.2595419847328246,1.0534351145038168,-1.4809160305343512,-0.468017578125,-0.01171875,-0.151611328125,0.5355
2.2290076335877864,0.8396946564885496,-1.4961832061068703,-0.47119140625,-0.007568359375,-0.15966796875,0.5372
2.351145038167939,0.9923664122137404,-1.5419847328244274,-0.46875,-0.015869140625,-0.152587890625,0.5388999999999999
2.3969465648854964,0.9465648854961832,-1.3129770992366412,-0.470947265625,-0.012451171875,-0.1552734375,0.5406
2.3969465648854964,1.0687022900763359,-1.5419847328244274,-0.466064453125,-0.010498046875,-0.15380859375,0.5423
2.4122137404580153,0.8549618320610687,-1.4809160305343512,-0.46533203125,-0.007080078125,-0.152099609375,0.5439999999999999
2.16793893129771,1.0229007633587786,-1.3282442748091603,-0.463623046875,-0.01025390625,-0.15185546875,0.5457
2.1068702290076335,0.9770992366412213,-1.4961832061068703,-0.460693359375,-0.010986328125,-0.154052734375,0.5474
2.1068702290076335,0.9312977099236641,-1.450381679389313,-0.4658203125,-0.01220703125,-0.152099609375,0.5490999999999999
2.1526717557251906,1.1603053435114503,-1.3893129770992367,-0.461181640625,-0.00927734375,-0.146728515625,0.5508
2.0,1.0076335877862594,-1.465648854961832,-0.464599609375,-0.010009765625,-0.153076171875,0.5525
2.1526717557251906,1.1450381679389312,-1.3740458015267176,-0.46923828125,-0.010498046875,-0.14794921875,0.5541999999999999
1.9694656488549618,1.0229007633587786,-1.297709923664122,-0.466064453125,-0.0087890625,-0.159423828125,0.5559
1.9541984732824427,0.9007633587786259,-1.2366412213740459,-0.46533203125,-0.0146484375,-0.158447265625,0.5576
2.122137404580153,1.083969465648855,-1.3282442748091603,-0.466064453125,-0.00537109375,-0.157470703125,0.5593
2.030534351145038,1.1603053435114503,-1.2061068702290076,-0.46826171875,-0.00927734375,-0.15478515625,0.5609999999999999
2.0610687022900764,1.0229007633587786,-1.1450381679389312,-0.46435546875,-0.005859375,-0.164794921875,0.5627
1.9389312977099236,1.1755725190839694,-1.1297709923664123,-0.467529296875,-0.015380859375,-0.156982421875,0.5644
1.8625954198473282,1.3740458015267176,-1.1755725190839694,-0.467041015625,-0.0146484375,-0.152587890625,0.5660999999999999
1.786259541984733,1.0534351145038168,-1.2366412213740459,-0.46435546875,-0.010498046875,-0.152587890625,0.5678
1.816793893129771,1.1603053435114503,-1.2366412213740459,-0.46533203125,-0.00927734375,-0.1591796875,0.5695
1.8778625954198473,1.3893129770992367,-1.2366412213740459,-0.467529296875,-0.009765625,-0.152587890625,0.5711999999999999
1.9541984732824427,1.465648854961832,-1.1908396946564885,-0.470703125,-0.0078125,-0.153564453125,0.5729
1.5877862595419847,1.3587786259541985,-1.2671755725190839,-0.46728515625,-0.00732421875,-0.156982421875,0.5746
1.8931297709923665,1.4809160305343512,-1.1908396946564885,-0.460693359375,-0.00830078125,-0.157958984375,0.5762999999999999
1.816793893129771,1.5572519083969465,-1.3587786259541985,-0.466064453125,-0.01318359375,-0.1533203125,0.578
1.7404580152671756,1.3587786259541985,-1.1450381679389312,-0.47119140625,-0.013671875,-0.15234375,0.5797
1.6793893129770991,1.5114503816793894,-1.0534351145038168,-0.469482421875,-0.004638671875,-0.1474609375,0.5813999999999999
1.6793893129770991,1.7404580152671756,-1.1908396946564885,-0.46875,-0.01513671875,-0.15625,0.5831
1.5877862595419847,1.816793893129771,-1.083969465648855,-0.461669921875,-0.013427734375,-0.154296875,0.5848
1.6641221374045803,1.8625954198473282,-1.083969465648855,-0.469482421875,-0.01513671875,-0.155029296875,0.5865
1.4961832061068703,1.7557251908396947,-1.1297709923664123,-0.464599609375,-0.0087890625,-0.159912109375,0.5882
1.5114503816793894,1.9694656488549618,-1.0534351145038168,-0.462890625,-0.010498046875,-0.155029296875,0.5899
1.6946564885496183,1.816793893129771,-1.1145038167938932,-0.46533203125,-0.009765625,-0.154296875,0.5916
1.5267175572519085,1.6946564885496183,-1.099236641221374,-0.46142578125,-0.011962890625,-0.157470703125,0.5932999999999999
1.297709923664122,1.618320610687023,-1.3587786259541985,-0.464599609375,-0.010009765625,-0.154296875,0.595
1.3587786259541985,1.786259541984733,-1.1450381679389312,-0.460205078125,-0.010498046875,-0.154541015625,0.5967
1.2671755725190839,1.633587786259542,-1.2061068702290076,-0.461181640625,-0.01123046875,-0.15087890625,0.5983999999999999
1.2213740458015268,1.6488549618320612,-1.1603053435114503,-0.46142578125,-0.012939453125,-0.15380859375,0.6001
1.282442748091603,1.4351145038167938,-1.0687022900763359,-0.461669921875,-0.01171875,-0.1533203125,0.6018
1.465648854961832,1.7251908396946565,-1.0381679389312977,-0.459716796875,-0.012451171875,-0.1513671875,0.6034999999999999
1.282442748091603,1.633587786259542,-1.1145038167938932,-0.465087890625,-0.01123046875,-0.1572265625,0.6052
1.2061068702290076,1.5419847328244274,-1.083969465648855,-0.468505859375,-0.013671875,-0.158935546875,0.6069
1.2671755725190839,1.5114503816793894,-1.0534351145038168,-0.466552734375,-0.006103515625,-0.158203125,0.6085999999999999
1.2366412213740459,1.5572519083969465,-1.0229007633587786,-0.4619140625,-0.009033203125,-0.154541015625,0.6103
1.3740458015267176,1.5267175572519085,-1.1145038167938932,-0.462158203125,-0.01513671875,-0.160400390625,0.612
1.3129770992366412,1.5877862595419847,-0.8244274809160306,-0.4619140625,-0.01318359375,-0.1650390625,0.6136999999999999
1.2671755725190839,1.6641221374045803,-0.8854961832061069,-0.466552734375,-0.00634765625,-0.155029296875,0.6154
1.1755725190839694,1.5877862595419847,-0.8244274809160306,-0.46142578125,-0.01416015625,-0.161865234375,0.6171
1.1603053435114503,1.5572519083969465,-0.8396946564885496,-0.462158203125,-0.0146484375,-0.156005859375,0.6188
1.0076335877862594,1.465648854961832,-0.9312977099236641,-0.46484375,-0.00927734375,-0.15478515625,0.6204999999999999
1.1297709923664123,1.5114503816793894,-0.7480916030534351,-0.46142578125,-0.01513671875,-0.149658203125,0.6222
1.4351145038167938,1.450381679389313,-0.7175572519083969,-0.460693359375,-0.011474609375,-0.15234375,0.6239
1.083969465648855,1.4351145038167938,-0.9770992366412213,-0.46484375,-0.011474609375,-0.149169921875,0.6255999999999999
1.251908396946565,1.2366412213740459,-0.6870229007633588,-0.46435546875,-0.0126953125,-0.156005859375,0.6273
0.9007633587786259,1.2366412213740459,-0.6106870229007634,-0.466552734375,-0.011962890625,-0.148193359375,0.629
1.0687022900763359,1.282442748091603,-0.6870229007633588,-0.463134765625,-0.00634765625,-0.15185546875,0.6306999999999999
1.0229007633587786,1.0229007633587786,-0.5954198473282443,-0.465576171875,-0.004638671875,-0.154052734375,0.6324
0.9312977099236641,0.9312977099236641,-0.5648854961832062,-0.4609375,-0.007568359375,-0.158203125,0.6341
1.083969465648855,1.1145038167938932,-0.4732824427480916,-0.462646484375,-0.010498046875,-0.15869140625,0.6357999999999999
1.1908396946564885,1.2366412213740459,-0.4122137404580153,-0.466552734375,-0.008544921875,-0.147705078125,0.6375
1.0534351145038168,1.2213740458015268,-0.5343511450381679,-0.4658203125,-0.00732421875,-0.162353515625,0.6392
1.0076335877862594,1.297709923664122,-0.3511450381679389,-0.464599609375,-0.009521484375,-0.156494140625,0.6408999999999999
1.0687022900763359,1.1908396946564885,-0.5954198473282443,-0.466064453125,-0.007568359375,-0.15283203125,0.6426
1.0229007633587786,1.282442748091603,-0.5343511450381679,-0.472900390625,-0.012939453125,-0.156494140625,0.6443
0.9312977099236641,1.633587786259542,-0.366412213740458,-0.463134765625,-0.00146484375,-0.16357421875,0.646
1.0381679389312977,1.633587786259542,-0.5038167938931297,-0.463623046875,-0.003662109375,-0.156982421875,0.6476999999999999
1.1908396946564885,1.8015267175572518,-0.6564885496183206,-0.469970703125,-0.00634765625,-0.161376953125,0.6494
1.0687022900763359,1.83206106870229,-0.5801526717557252,-0.473388671875,-0.003173828125,-0.160400390625,0.6511
1.0229007633587786,1.9541984732824427,-0.6564885496183206,-0.47119140625,-0.0087890625,-0.158203125,0.6527999999999999
1.1145038167938932,1.9236641221374047,-0.6412213740458015,-0.464111328125,-0.005859375,-0.157958984375,0.6545
1.2366412213740459,1.9694656488549618,-0.8702290076335878,-0.467041015625,-0.007080078125,-0.153076171875,0.6562
1.1603053435114503,1.8625954198473282,-0.9923664122137404,-0.462158203125,-0.00830078125,-0.150634765625,0.6578999999999999
1.3282442748091603,1.8015267175572518,-1.2213740458015268,-0.462890625,-0.006591796875,-0.15185546875,0.6596
1.450381679389313,1.8625954198473282,-1.0229007633587786,-0.46826171875,0.00048828125,-0.155029296875,0.6613
1.251908396946565,1.8473282442748091,-1.1755725190839694,-0.464111328125,-0.003662109375,-0.157470703125,0.6629999999999999
1.5572519083969465,1.8015267175572518,-1.1603053435114503,-0.463623046875,-0.003662109375,-0.151123046875,0.6647
1.465648854961832,1.618320610687023,-1.3282442748091603,-0.46484375,-0.006591796875,-0.155517578125,0.6664
1.7251908396946565,1.786259541984733,-1.4045801526717556,-0.466064453125,-0.00048828125,-0.1591796875,0.6680999999999999
1.5725190839694656,1.83206106870229,-1.6488549618320612,-0.463134765625,-0.002197265625,-0.1640625,0.6698
1.9389312977099236,1.5725190839694656,-1.450381679389313,-0.465087890625,-0.0078125,-0.15673828125,0.6715
1.8778625954198473,1.633587786259542,-1.618320610687023,-0.466796875,-0.005859375,-0.156494140625,0.6731999999999999
1.8931297709923665,1.5267175572519085,-1.6946564885496183,-0.466796875,-0.006103515625,-0.152099609375,0.6748999999999999
1.8625954198473282,1.5877862595419847,-1.6793893129770991,-0.463134765625,-0.00830078125,-0.155029296875,0.6766
1.6946564885496183,1.5877862595419847,-1.5114503816793894,-0.46240234375,-0.00537109375,-0.149658203125,0.6783
1.9541984732824427,1.618320610687023,-1.8015267175572518,-0.46875,-0.0068359375,-0.158935546875,0.6799999999999999
1.8931297709923665,1.5572519083969465,-1.6488549618320612,-0.46826171875,-0.0048828125,-0.1513671875,0.6817
2.045801526717557,1.5267175572519085,-1.7557251908396947,-0.45947265625,-0.0048828125,-0.158447265625,0.6834
1.8625954198473282,1.5877862595419847,-1.5877862595419847,-0.46630859375,-0.01025390625,-0.156005859375,0.6850999999999999
2.030534351145038,1.450381679389313,-1.6488549618320612,-0.464599609375,-0.009033203125,-0.15283203125,0.6868
1.7099236641221374,1.3282442748091603,-1.5267175572519085,-0.46728515625,-0.00927734375,-0.158935546875,0.6885
1.816793893129771,1.465648854961832,-1.5419847328244274,-0.466796875,-0.0068359375,-0.161865234375,0.6901999999999999
1.9389312977099236,1.1755725190839694,-1.5419847328244274,-0.46435546875,-0.00927734375,-0.15771484375,0.6919
1.9236641221374047,1.099236641221374,-1.5725190839694656,-0.46923828125,-0.00634765625,-0.15478515625,0.6936
1.9694656488549618,1.297709923664122,-1.465648854961832,-0.461181640625,-0.003662109375,-0.149169921875,0.6952999999999999
1.8931297709923665,1.251908396946565,-1.5725190839694656,-0.4599609375,-0.01025390625,-0.1533203125,0.697
1.83206106870229,0.9770992366412213,-1.4351145038167938,-0.46435546875,-0.004150390625,-0.157470703125,0.6987
2.1068702290076335,0.8396946564885496,-1.4351145038167938,-0.4716796875,-0.00634765625,-0.158447265625,0.7003999999999999
2.045801526717557,0.916030534351145,-1.4961832061068703,-0.466796875,-0.005859375,-0.156494140625,0.7021
1.9694656488549618,0.9312977099236641,-1.4198473282442747,-0.46630859375,-0.007080078125,-0.154052734375,0.7038
1.8778625954198473,0.8244274809160306,-1.3740458015267176,-0.46484375,-0.0126953125,-0.162353515625,0.7055
2.0,0.7480916030534351,-1.3893129770992367,-0.461669921875,-0.01025390625,-0.164306640625,0.7071999999999999
1.9541984732824427,0.9465648854961832,-1.3129770992366412,-0.46630859375,-0.0068359375,-0.1611328125,0.7089
2.0610687022900764,0.8549618320610687,-1.251908396946565,-0.461669921875,-0.015625,-0.156005859375,0.7106
2.0916030534351147,0.9007633587786259,-1.4351145038167938,-0.46142578125,-0.0078125,-0.159423828125,0.7122999999999999
1.9236641221374047,1.0381679389312977,-1.5572519083969465,-0.46435546875,-0.009765625,-0.1484375,0.714
2.0,0.8549618320610687,-1.3740458015267176,-0.46044921875,-0.009765625,-0.153564453125,0.7157
1.9083969465648856,0.9007633587786259,-1.3587786259541985,-0.46337890625,-0.00732421875,-0.15625,0.7173999999999999
1.8931297709923665,0.8244274809160306,-1.282442748091603,-0.46240234375,-0.0048828125,-0.1533203125,0.7191
1.786259541984733,0.9465648854961832,-1.6641221374045803,-0.46044921875,-0.006103515625,-0.1552734375,0.7208
1.8625954198473282,1.0076335877862594,-1.1908396946564885,-0.463623046875,-0.009033203125,-0.15869140625,0.7224999999999999
2.1526717557251906,0.8702290076335878,-1.282442748091603,-0.4658203125,-0.008544921875,-0.158447265625,0.7242
1.984732824427481,0.8549618320610687,-1.1755725190839694,-0.465576171875,-0.00341796875,-0.155517578125,0.7259
2.122137404580153,0.9465648854961832,-1.3587786259541985,-0.4638671875,-0.01025390625,-0.157958984375,0.7275999999999999
2.015267175572519,0.7633587786259542,-1.2671755725190839,-0.46240234375,-0.01220703125,-0.1630859375,0.7293
1.8778625954198473,0.8702290076335878,-1.2366412213740459,-0.45654296875,-0.010498046875,-0.160400390625,0.731
2.0610687022900764,0.8244274809160306,-1.1603053435114503,-0.4638671875,-0.005615234375,-0.15771484375,0.7326999999999999
1.9236641221374047,0.916030534351145,-1.297709923664122,-0.4638671875,-0.006591796875,-0.156494140625,0.7343999999999999
2.0763358778625953,0.7786259541984732,-1.297709923664122,-0.45849609375,-0.00537109375,-0.15771484375,0.7361
1.9083969465648856,0.5954198473282443,-1.3587786259541985,-0.464111328125,-0.011474609375,-0.155029296875,0.7378
1.9694656488549618,0.7480916030534351,-1.2671755725190839,-0.4599609375,-0.005859375,-0.1611328125,0.7394999999999999
1.83206106870229,0.7633587786259542,-1.297709923664122,-0.46435546875,-0.004638671875,-0.15869140625,0.7412
2.0,0.8091603053435115,-1.1908396946564885,-0.463134765625,-0.00927734375,-0.14599609375,0.7429
1.9083969465648856,0.732824427480916,-1.3129770992366412,-0.46435546875,-0.0068359375,-0.160400390625,0.7445999999999999
1.8625954198473282,0.8549618320610687,-1.1450381679389312,-0.46484375,-0.011474609375,-0.154296875,0.7463
1.9236641221374047,0.9312977099236641,-1.1908396946564885,-0.46142578125,-0.011962890625,-0.15283203125,0.748
1.6946564885496183,0.8396946564885496,-1.0687022900763359,-0.463623046875,-0.008544921875,-0.153564453125,0.7496999999999999
1.816793893129771,0.7022900763358778,-1.1145038167938932,-0.45654296875,-0.005859375,-0.154296875,0.7514
1.618320610687023,0.8396946564885496,-1.0229007633587786,-0.45556640625,-0.009765625,-0.160400390625,0.7531
1.4809160305343512,0.7786259541984732,-0.916030534351145,-0.461669921875,-0.01025390625,-0.155029296875,0.7547999999999999
1.6488549618320612,0.7633587786259542,-0.9923664122137404,-0.462890625,-0.0126953125,-0.15625,0.7565
1.816793893129771,0.8396946564885496,-1.2213740458015268,-0.462646484375,-0.0107421875,-0.154296875,0.7582
1.6793893129770991,0.8396946564885496,-1.1145038167938932,-0.456787109375,-0.01025390625,-0.15673828125,0.7598999999999999
1.618320610687023,0.7786259541984732,-1.0687022900763359,-0.46484375,-0.012939453125,-0.147705078125,0.7615999999999999
1.6946564885496183,0.6717557251908397,-1.1145038167938932,-0.464599609375,-0.009521484375,-0.159912109375,0.7633
1.5419847328244274,0.5038167938931297,-0.9770992366412213,-0.466552734375,-0.014892578125,-0.16015625,0.7649999999999999
1.3740458015267176,0.6564885496183206,-0.9007633587786259,-0.463623046875,-0.006591796875,-0.14794921875,0.7666999999999999
1.618320610687023,0.6259541984732825,-1.0687022900763359,-0.46533203125,-0.00927734375,-0.1552734375,0.7684
1.450381679389313,0.6412213740458015,-0.8244274809160306,-0.462158203125,-0.009765625,-0.151611328125,0.7701
1.5267175572519085,0.7175572519083969,-0.9618320610687023,-0.465576171875,-0.011962890625,-0.15283203125,0.7717999999999999
1.4045801526717556,0.8396946564885496,-1.0534351145038168,-0.4609375,-0.0126953125,-0.15966796875,0.7735
1.297709923664122,0.8244274809160306,-1.099236641221374,-0.4658203125,-0.010986328125,-0.160888671875,0.7752
1.3587786259541985,0.8549618320610687,-0.9465648854961832,-0.46484375,-0.008544921875,-0.156982421875,0.7768999999999999
1.4198473282442747,0.8244274809160306,-1.0687022900763359,-0.461181640625,-0.01025390625,-0.1572265625,0.7786
1.297709923664122,1.0534351145038168,-0.9465648854961832,-0.464111328125,-0.0048828125,-0.15625,0.7803
1.3129770992366412,1.083969465648855,-1.0534351145038168,-0.46142578125,-0.009033203125,-0.151611328125,0.7819999999999999
1.5114503816793894,0.9312977099236641,-0.9770992366412213,-0.462646484375,-0.0107421875,-0.152587890625,0.7837
1.0534351145038168,1.0229007633587786,-1.2061068702290076,-0.4619140625,-0.007568359375,-0.149169921875,0.7854
1.3587786259541985,1.1145038167938932,-0.9770992366412213,-0.464599609375,-0.00927734375,-0.150634765625,0.7870999999999999
1.3587786259541985,0.9770992366412213,-1.2061068702290076,-0.466064453125,-0.01025390625,-0.156494140625,0.7888
1.1297709923664123,0.7938931297709924,-1.0687022900763359,-0.46728515625,-0.007080078125,-0.151611328125,0.7905
1.2213740458015268,1.0076335877862594,-1.1755725190839694,-0.4609375,-0.010986328125,-0.156494140625,0.7921999999999999
1.1603053435114503,1.083969465648855,-1.1603053435114503,-0.46435546875,-0.000244140625,-0.16259765625,0.7938999999999999
1.3129770992366412,0.9770992366412213,-1.1297709923664123,-0.46142578125,-0.008056640625,-0.149169921875,0.7956
1.3587786259541985,1.0381679389312977,-1.1450381679389312,-0.4638671875,-0.00927734375,-0.157958984375,0.7973
1.083969465648855,1.0381679389312977,-1.1145038167938932,-0.45947265625,-0.007568359375,-0.1474609375,0.7989999999999999
0.9618320610687023,1.2061068702290076,-1.1297709923664123,-0.467041015625,-0.00634765625,-0.150390625,0.8007
1.0381679389312977,1.1755725190839694,-1.2671755725190839,-0.463623046875,-0.00390625,-0.14892578125,0.8024
1.0229007633587786,1.2061068702290076,-1.282442748091603,-0.464111328125,-0.00341796875,-0.161865234375,0.8040999999999999
1.3282442748091603,1.1145038167938932,-1.251908396946565,-0.4599609375,-0.012451171875,-0.15625,0.8058
0.9923664122137404,1.083969465648855,-1.251908396946565,-0.468017578125,-0.00537109375,-0.152099609375,0.8075
0.8854961832061069,1.099236641221374,-1.297709923664122,-0.467041015625,-0.008544921875,-0.15673828125,0.8091999999999999
0.9465648854961832,1.1297709923664123,-1.282442748091603,-0.462646484375,-0.00830078125,-0.162841796875,0.8109
0.8396946564885496,1.1908396946564885,-1.465648854961832,-0.463623046875,-0.01171875,-0.155517578125,0.8126
0.7175572519083969,1.1297709923664123,-1.3893129770992367,-0.464599609375,-0.01025390625,-0.1552734375,0.8142999999999999
0.732824427480916,1.4198473282442747,-1.450381679389313,-0.46435546875,-0.008056640625,-0.154296875,0.816
0.9007633587786259,1.3435114503816794,-1.6030534351145038,-0.467529296875,-0.006103515625,-0.14892578125,0.8177
1.0076335877862594,1.1145038167938932,-1.5419847328244274,-0.465576171875,-0.007080078125,-0.159912109375,0.8193999999999999
0.9465648854961832,1.1145038167938932,-1.251908396946565,-0.46337890625,-0.004150390625,-0.1611328125,0.8210999999999999
0.8244274809160306,1.2366412213740459,-1.4351145038167938,-0.4638671875,-0.012451171875,-0.154296875,0.8228
0.8854961832061069,1.1908396946564885,-1.3435114503816794,-0.4638671875,-0.0087890625,-0.148681640625,0.8244999999999999
0.6564885496183206,1.282442748091603,-1.6641221374045803,-0.46142578125,-0.012451171875,-0.154541015625,0.8261999999999999
0.5343511450381679,1.282442748091603,-1.6641221374045803,-0.463134765625,-0.0078125,-0.15673828125,0.8279
0.9465648854961832,1.2366412213740459,-1.6030534351145038,-0.46337890625,-0.009521484375,-0.149658203125,0.8296
0.9007633587786259,1.297709923664122,-1.618320610687023,-0.464599609375,-0.004150390625,-0.156005859375,0.8312999999999999
0.5648854961832062,1.1908396946564885,-1.816793893129771,-0.466064453125,-0.005615234375,-0.156982421875,0.833
0.6870229007633588,1.2671755725190839,-1.633587786259542,-0.465087890625,-0.00537109375,-0.158447265625,0.8347
0.9923664122137404,1.1450381679389312,-1.6641221374045803,-0.460693359375,-0.00830078125,-0.156005859375,0.8363999999999999
0.9312977099236641,1.1603053435114503,-1.786259541984733,-0.460205078125,-0.006103515625,-0.14990234375,0.8381
0.5801526717557252,1.282442748091603,-1.83206106870229,-0.4677734375,-0.0029296875,-0.157958984375,0.8398
0.7175572519083969,1.1145038167938932,-1.83206106870229,-0.4658203125,-0.00732421875,-0.157958984375,0.8414999999999999
0.6870229007633588,0.9923664122137404,-1.7099236641221374,-0.46044921875,-0.009033203125,-0.16015625,0.8432
0.9007633587786259,1.1145038167938932,-1.8625954198473282,-0.465087890625,-0.00341796875,-0.158203125,0.8449
1.099236641221374,1.1450381679389312,-1.8625954198473282,-0.467041015625,-0.0078125,-0.15478515625,0.8465999999999999
0.9770992366412213,1.1450381679389312,-2.0610687022900764,-0.465576171875,-0.01025390625,-0.157470703125,0.8482999999999999
0.9007633587786259,1.1450381679389312,-2.1526717557251906,-0.468505859375,-0.00927734375,-0.15966796875,0.85
0.8396946564885496,1.1755725190839694,-2.0916030534351147,-0.464599609375,-0.004150390625,-0.158447265625,0.8516999999999999
0.8396946564885496,0.9770992366412213,-2.0,-0.466796875,-0.0048828125,-0.160888671875,0.8533999999999999
1.0381679389312977,1.1603053435114503,-2.2290076335877864,-0.4677734375,-0.00341796875,-0.154541015625,0.8551
1.2213740458015268,1.1145038167938932,-2.2748091603053435,-0.4638671875,-0.008544921875,-0.15625,0.8568
1.0534351145038168,1.2671755725190839,-2.1374045801526718,-0.4599609375,-0.007568359375,-0.162109375,0.8584999999999999
1.0076335877862594,1.2671755725190839,-2.16793893129771,-0.463623046875,-0.0078125,-0.1494140625,0.8602
1.099236641221374,1.1603053435114503,-2.16793893129771,-0.465576171875,-0.007568359375,-0.15966796875,0.8619
1.3282442748091603,1.282442748091603,-2.1526717557251906,-0.46435546875,-0.00439453125,-0.153564453125,0.8635999999999999
1.1450381679389312,1.4198473282442747,-2.198473282442748,-0.46240234375,-0.002197265625,-0.161865234375,0.8653
1.1450381679389312,0.9465648854961832,-2.0763358778625953,-0.45947265625,-0.005615234375,-0.146240234375,0.867
1.1755725190839694,0.916030534351145,-2.122137404580153,-0.46484375,-0.004150390625,-0.150146484375,0.8686999999999999
1.282442748091603,0.8091603053435115,-1.8931297709923665,-0.465087890625,-0.0087890625,-0.156005859375,0.8704
1.282442748091603,0.5801526717557252,-1.9694656488549618,-0.4619140625,-0.012451171875,-0.15185546875,0.8721
1.1603053435114503,0.6106870229007634,-1.9236641221374047,-0.4609375,-0.009033203125,-0.1572265625,0.8737999999999999
1.465648854961832,0.48854961832061067,-2.0,-0.4619140625,-0.003662109375,-0.158447265625,0.8755
1.5114503816793894,0.21374045801526717,-1.9389312977099236,-0.456787109375,-0.00439453125,-0.16064453125,0.8772
1.5419847328244274,0.21374045801526717,-1.9083969465648856,-0.466552734375,-0.007080078125,-0.157958984375,0.8788999999999999
1.618320610687023,0.42748091603053434,-1.7709923664122138,-0.460693359375,-0.002685546875,-0.156982421875,0.8805999999999999
1.3435114503816794,0.21374045801526717,-1.6641221374045803,-0.4638671875,-0.00146484375,-0.15576171875,0.8823
1.5877862595419847,0.366412213740458,-1.6946564885496183,-0.46533203125,-0.00830078125,-0.14794921875,0.8839999999999999
1.7404580152671756,0.4732824427480916,-1.5877862595419847,-0.46826171875,-0.005859375,-0.151611328125,0.8856999999999999
1.6946564885496183,0.4732824427480916,-1.4809160305343512,-0.4638671875,-0.004638671875,-0.155029296875,0.8874
1.6030534351145038,0.4580152671755725,-1.618320610687023,-0.468994140625,-0.001708984375,-0.14990234375,0.8891
1.5419847328244274,0.5801526717557252,-1.4045801526717556,-0.463623046875,-0.00439453125,-0.16015625,0.8907999999999999
1.8473282442748091,0.3969465648854962,-1.465648854961832,-0.464111328125,-0.0068359375,-0.157958984375,0.8925
1.83206106870229,0.42748091603053434,-1.2671755725190839,-0.4638671875,-0.00537109375,-0.159423828125,0.8942
2.1374045801526718,0.3053435114503817,-1.5419847328244274,-0.46240234375,-0.009033203125,-0.14892578125,0.8958999999999999
1.7709923664122138,0.3969465648854962,-1.3587786259541985,-0.4638671875,-0.0068359375,-0.152587890625,0.8976
1.8931297709923665,0.42748091603053434,-1.3893129770992367,-0.4716796875,-0.0078125,-0.155029296875,0.8993
2.2290076335877864,0.3053435114503817,-1.4961832061068703,-0.468994140625,-0.00146484375,-0.153076171875,0.9009999999999999
2.1068702290076335,0.366412213740458,-1.5877862595419847,-0.4677734375,-0.00927734375,-0.15283203125,0.9027
2.2442748091603053,0.5343511450381679,-1.3129770992366412,-0.468017578125,-0.00537109375,-0.155029296875,0.9044
2.381679389312977,0.366412213740458,-1.4809160305343512,-0.462890625,-0.000244140625,-0.15673828125,0.9060999999999999
2.549618320610687,0.1984732824427481,-1.6946564885496183,-0.466552734375,-0.0029296875,-0.15673828125,0.9077999999999999
2.4580152671755724,0.16793893129770993,-1.6641221374045803,-0.4638671875,-0.00732421875,-0.155029296875,0.9095
2.564885496183206,0.12213740458015267,-1.5725190839694656,-0.470458984375,-0.002197265625,-0.14990234375,0.9111999999999999
2.7022900763358777,0.21374045801526717,-1.5877862595419847,-0.472900390625,0.000244140625,-0.151611328125,0.9128999999999999
2.7786259541984735,0.33587786259541985,-1.6488549618320612,-0.46728515625,-0.003662109375,-0.15673828125,0.9146
2.8396946564885495,0.3511450381679389,-1.9541984732824427,-0.470703125,-0.00146484375,-0.14697265625,0.9163
2.900763358778626,0.3511450381679389,-1.7404580152671756,-0.45751953125,-0.006103515625,-0.158447265625,0.9179999999999999
2.931297709923664,0.22900763358778625,-1.618320610687023,-0.4658203125,-0.00146484375,-0.156494140625,0.9197
2.854961832061069,0.4122137404580153,-1.83206106870229,-0.463623046875,-0.005859375,-0.153076171875,0.9214
3.068702290076336,0.366412213740458,-1.7251908396946565,-0.46826171875,-0.008544921875,-0.15087890625,0.9230999999999999
2.900763358778626,0.3511450381679389,-1.5572519083969465,-0.46533203125,-0.004150390625,-0.1572265625,0.9248
3.0229007633587788,0.4732824427480916,-1.6641221374045803,-0.467041015625,-0.00048828125,-0.162109375,0.9265
3.0076335877862594,0.5801526717557252,-1.618320610687023,-0.466064453125,-0.0048828125,-0.15673828125,0.9281999999999999
2.9923664122137406,0.4580152671755725,-1.6030534351145038,-0.46142578125,-0.00830078125,-0.150146484375,0.9299
3.145038167938931,0.3816793893129771,-1.3740458015267176,-0.46142578125,-0.00830078125,-0.14794921875,0.9316
3.312977099236641,0.6106870229007634,-1.618320610687023,-0.47216796875,-0.004150390625,-0.152099609375,0.9332999999999999
3.099236641221374,0.4732824427480916,-1.4351145038167938,-0.4677734375,-0.00634765625,-0.164306640625,0.9349999999999999
3.1755725190839694,0.5343511450381679,-1.5267175572519085,-0.467529296875,-0.007568359375,-0.157470703125,0.9367
3.1603053435114505,0.3969465648854962,-1.4809160305343512,-0.46484375,-0.008056640625,-0.157958984375,0.9383999999999999
3.1603053435114505,0.5190839694656488,-1.465648854961832,-0.471435546875,-0.007568359375,-0.159912109375,0.9400999999999999
3.3282442748091605,0.6717557251908397,-1.3587786259541985,-0.466796875,-0.007568359375,-0.16015625,0.9418
3.236641221374046,0.5801526717557252,-1.5877862595419847,-0.46728515625,-0.010009765625,-0.15234375,0.9434999999999999
3.099236641221374,0.7022900763358778,-1.3893129770992367,-0.468017578125,-0.01171875,-0.1611328125,0.9451999999999999
3.1755725190839694,0.549618320610687,-1.4809160305343512,-0.46826171875,-0.006591796875,-0.16015625,0.9469
3.1755725190839694,0.8244274809160306,-1.450381679389313,-0.462158203125,-0.006591796875,-0.150390625,0.9486
3.1755725190839694,0.7022900763358778,-1.3129770992366412,-0.465576171875,-0.0087890625,-0.157470703125,0.9502999999999999
3.282442748091603,0.6870229007633588,-1.3587786259541985,-0.46923828125,-0.012451171875,-0.155517578125,0.952
3.2977099236641223,0.6259541984732825,-1.450381679389313,-0.470458984375,-0.007568359375,-0.156005859375,0.9537
3.2977099236641223,0.732824427480916,-1.3587786259541985,-0.4658203125,-0.00537109375,-0.143798828125,0.9553999999999999
3.2977099236641223,0.7786259541984732,-1.5267175572519085,-0.465576171875,-0.008056640625,-0.147216796875,0.9571
3.5267175572519083,0.9923664122137404,-1.5877862595419847,-0.467041015625,-0.010009765625,-0.15625,0.9588
3.3740458015267176,1.0076335877862594,-1.5267175572519085,-0.46728515625,-0.00732421875,-0.1552734375,0.9604999999999999
3.4656488549618323,0.8396946564885496,-1.3740458015267176,-0.46484375,-0.010986328125,-0.154052734375,0.9621999999999999
3.3282442748091605,1.0381679389312977,-1.618320610687023,-0.46630859375,-0.006103515625,-0.1494140625,0.9639
3.4656488549618323,1.2061068702290076,-1.5572519083969465,-0.465576171875,-0.008056640625,-0.155029296875,0.9655999999999999
3.5419847328244276,1.251908396946565,-1.450381679389313,-0.474609375,-0.015869140625,-0.153076171875,0.9672999999999999
3.4656488549618323,1.2366412213740459,-1.465648854961832,-0.466064453125,-0.008056640625,-0.153564453125,0.969
3.5419847328244276,1.2213740458015268,-1.618320610687023,-0.465087890625,-0.00830078125,-0.14404296875,0.9706999999999999
3.3435114503816794,1.3587786259541985,-1.6030534351145038,-0.46435546875,-0.00634765625,-0.143798828125,0.9723999999999999
3.1755725190839694,1.3435114503816794,-1.6488549618320612,-0.47265625,-0.0087890625,-0.15576171875,0.9741
3.4198473282442747,1.3587786259541985,-1.4351145038167938,-0.465576171875,-0.010498046875,-0.152587890625,0.9758
3.435114503816794,1.450381679389313,-1.6641221374045803,-0.470458984375,-0.00830078125,-0.163818359375,0.9774999999999999
3.3893129770992365,1.6641221374045803,-1.3740458015267176,-0.46630859375,-0.0107421875,-0.1552734375,0.9792
3.66412213740458,1.618320610687023,-1.5572519083969465,-0.46728515625,-0.00390625,-0.146484375,0.9809
3.4198473282442747,1.6030534351145038,-1.4961832061068703,-0.464599609375,-0.009765625,-0.14697265625,0.9825999999999999
3.6030534351145036,1.5114503816793894,-1.7099236641221374,-0.462158203125,-0.0126953125,-0.14892578125,0.9843
3.2061068702290076,1.7404580152671756,-1.633587786259542,-0.46435546875,-0.003173828125,-0.158935546875,0.986
3.282442748091603,1.618320610687023,-1.7251908396946565,-0.464599609375,-0.008056640625,-0.158447265625,0.9876999999999999
3.5419847328244276,1.5267175572519085,-1.6488549618320612,-0.465576171875,-0.009521484375,-0.150634765625,0.9894
3.5267175572519083,1.633587786259542,-1.9236641221374047,-0.4697265625,-0.00927734375,-0.153564453125,0.9911
3.435114503816794,1.6488549618320612,-1.7709923664122138,-0.464599609375,-0.001953125,-0.155029296875,0.9927999999999999
3.5114503816793894,1.9236641221374047,-1.9236641221374047,-0.4580078125,-0.007568359375,-0.148193359375,0.9944999999999999
3.633587786259542,2.0916030534351147,-1.786259541984733,-0.463623046875,-0.006103515625,-0.146728515625,0.9962
3.5877862595419847,2.0763358778625953,-1.8778625954198473,-0.4638671875,-0.007080078125,-0.155029296875,0.9978999999999999
3.312977099236641,2.030534351145038,-1.7404580152671756,-0.469482421875,-0.009033203125,-0.156005859375,0.9995999999999999
3.66412213740458,2.183206106870229,-1.8931297709923665,-0.467041015625,-0.0087890625,-0.154541015625,1.0012999999999999
3.1297709923664123,2.33587786259542,-1.8625954198473282,-0.47021484375,-0.01025390625,-0.158447265625,1.003
3.1603053435114505,2.213740458015267,-2.030534351145038,-0.471923828125,-0.01220703125,-0.15966796875,1.0047
3.236641221374046,2.2442748091603053,-2.1068702290076335,-0.47021484375,-0.008544921875,-0.156005859375,1.0064
3.267175572519084,2.2442748091603053,-1.984732824427481,-0.4658203125,-0.010009765625,-0.15625,1.0081
3.312977099236641,2.3053435114503817,-2.0,-0.468017578125,-0.013427734375,-0.158935546875,1.0098
3.2977099236641223,2.33587786259542,-2.0916030534351147,-0.466064453125,-0.00537109375,-0.1494140625,1.0114999999999998
3.2061068702290076,2.427480916030534,-2.1526717557251906,-0.468505859375,-0.01123046875,-0.15234375,1.0131999999999999
3.1603053435114505,2.366412213740458,-2.2442748091603053,-0.46728515625,-0.010009765625,-0.14453125,1.0149
3.068702290076336,2.427480916030534,-2.1068702290076335,-0.465576171875,-0.01171875,-0.154296875,1.0166
2.900763358778626,2.564885496183206,-2.045801526717557,-0.466064453125,-0.00439453125,-0.159912109375,1.0183
2.9923664122137406,2.4885496183206106,-1.9694656488549618,-0.464111328125,-0.009033203125,-0.159912109375,1.02
3.1908396946564888,2.5801526717557253,-2.2595419847328246,-0.465087890625,-0.007568359375,-0.157470703125,1.0217
3.1297709923664123,2.519083969465649,-2.366412213740458,-0.462646484375,-0.0078125,-0.156982421875,1.0233999999999999
2.900763358778626,2.5801526717557253,-2.2595419847328246,-0.457763671875,-0.014404296875,-0.165283203125,1.0251
2.7938931297709924,2.7022900763358777,-2.183206106870229,-0.464599609375,-0.0107421875,-0.158447265625,1.0268
2.8396946564885495,2.6259541984732824,-2.0610687022900764,-0.4619140625,-0.01025390625,-0.15771484375,1.0285
2.7480916030534353,2.7022900763358777,-2.015267175572519,-0.46337890625,-0.009765625,-0.152099609375,1.0302
2.7786259541984735,2.7022900763358777,-2.1526717557251906,-0.458984375,-0.01123046875,-0.158935546875,1.0319
2.763358778625954,2.564885496183206,-2.183206106870229,-0.46044921875,-0.011474609375,-0.162109375,1.0335999999999999
2.2748091603053435,2.6259541984732824,-2.1068702290076335,-0.465087890625,-0.0087890625,-0.157958984375,1.0352999999999999
2.5801526717557253,2.6412213740458017,-1.9694656488549618,-0.465576171875,-0.014404296875,-0.155517578125,1.037
2.4122137404580153,2.6717557251908395,-1.9694656488549618,-0.4609375,-0.018798828125,-0.154296875,1.0387
2.4885496183206106,2.4885496183206106,-2.030534351145038,-0.45556640625,-0.012451171875,-0.157958984375,1.0404
2.2290076335877864,2.427480916030534,-1.984732824427481,-0.46240234375,-0.01220703125,-0.161865234375,1.0421
2.198473282442748,2.5801526717557253,-2.015267175572519,-0.462158203125,-0.015380859375,-0.15625,1.0437999999999998
2.351145038167939,2.564885496183206,-2.0916030534351147,-0.466552734375,-0.013427734375,-0.157470703125,1.0454999999999999
2.1374045801526718,2.5343511450381677,-1.9083969465648856,-0.46728515625,-0.01611328125,-0.16552734375,1.0472
2.0610687022900764,2.4427480916030535,-1.9236641221374047,-0.466796875,-0.013427734375,-0.16162109375,1.0489
2.0,2.50381679389313,-1.786259541984733,-0.470947265625,-0.01806640625,-0.156005859375,1.0506
1.8778625954198473,2.5801526717557253,-2.015267175572519,-0.463134765625,-0.01123046875,-0.156982421875,1.0523
1.8931297709923665,2.6564885496183206,-1.9389312977099236,-0.46435546875,-0.012451171875,-0.14892578125,1.054
1.6641221374045803,2.5343511450381677,-1.9541984732824427,-0.46533203125,-0.013671875,-0.15576171875,1.0556999999999999
1.83206106870229,2.564885496183206,-1.8931297709923665,-0.463134765625,-0.01318359375,-0.152587890625,1.0574
1.8473282442748091,2.4427480916030535,-1.984732824427481,-0.464599609375,-0.012939453125,-0.14990234375,1.0591
1.5114503816793894,2.549618320610687,-1.8931297709923665,-0.463623046875,-0.011962890625,-0.158203125,1.0608
1.633587786259542,2.717557251908397,-2.030534351145038,-0.46826171875,-0.01513671875,-0.1640625,1.0625
1.7404580152671756,2.6717557251908395,-1.8778625954198473,-0.462890625,-0.012451171875,-0.158447265625,1.0642
1.3587786259541985,2.595419847328244,-2.0,-0.463623046875,-0.010498046875,-0.1591796875,1.0658999999999998
1.3740458015267176,2.3969465648854964,-1.9389312977099236,-0.46142578125,-0.014892578125,-0.16064453125,1.0675999999999999
1.4809160305343512,2.366412213740458,-1.8931297709923665,-0.4638671875,-0.013916015625,-0.158203125,1.0693
1.282442748091603,2.6106870229007635,-1.9389312977099236,-0.4677734375,-0.01318359375,-0.1572265625,1.071
1.3435114503816794,2.6564885496183206,-2.2442748091603053,-0.463623046875,-0.012451171875,-0.1552734375,1.0727
1.3893129770992367,2.4122137404580153,-2.0,-0.46728515625,-0.012939453125,-0.154296875,1.0744
1.282442748091603,2.3969465648854964,-2.0610687022900764,-0.4609375,-0.010986328125,-0.159912109375,1.0760999999999998
1.251908396946565,2.3969465648854964,-2.0610687022900764,-0.46484375,-0.0126953125,-0.157958984375,1.0777999999999999
1.2061068702290076,2.50381679389313,-2.030534351145038,-0.464599609375,-0.012939453125,-0.153076171875,1.0795
1.1145038167938932,2.4427480916030535,-2.0916030534351147,-0.469482421875,-0.011474609375,-0.157958984375,1.0812
1.0076335877862594,2.5801526717557253,-2.0763358778625953,-0.466552734375,-0.00732421875,-0.16064453125,1.0829
1.2213740458015268,2.4122137404580153,-2.030534351145038,-0.4599609375,-0.010498046875,-0.154296875,1.0846
1.1755725190839694,2.4122137404580153,-2.045801526717557,-0.46337890625,-0.01025390625,-0.15625,1.0863
0.9770992366412213,2.3206106870229006,-1.984732824427481,-0.463623046875,-0.01220703125,-0.15625,1.0879999999999999
0.9923664122137404,2.381679389312977,-2.1374045801526718,-0.4609375,-0.012939453125,-0.15966796875,1.0897
0.9618320610687023,2.4885496183206106,-1.9541984732824427,-0.4619140625,-0.010986328125,-0.157470703125,1.0914
1.0381679389312977,2.2595419847328246,-2.183206106870229,-0.461669921875,-0.010986328125,-0.1611328125,1.0931
1.0076335877862594,2.16793893129771,-2.1374045801526718,-0.460205078125,-0.00830078125,-0.1552734375,1.0948
0.9465648854961832,2.2748091603053435,-1.9389312977099236,-0.460205078125,-0.00927734375,-0.15771484375,1.0965
0.9007633587786259,2.122137404580153,-1.984732824427481,-0.4638671875,-0.011474609375,-0.157470703125,1.0981999999999998
0.9770992366412213,2.1374045801526718,-2.0,-0.464111328125,-0.010009765625,-0.15576171875,1.0998999999999999
0.9770992366412213,1.9694656488549618,-2.2442748091603053,-0.460693359375,-0.008056640625,-0.161376953125,1.1016
0.8091603053435115,1.9694656488549618,-2.2442748091603053,-0.46142578125,-0.013671875,-0.165283203125,1.1033
1.099236641221374,1.9083969465648856,-2.0916030534351147,-0.462158203125,-0.014892578125,-0.16650390625,1.105
0.9770992366412213,1.8931297709923665,-2.0763358778625953,-0.46240234375,-0.011474609375,-0.160400390625,1.1067
0.9312977099236641,1.816793893129771,-2.2595419847328246,-0.459228515625,-0.00830078125,-0.160888671875,1.1083999999999998
0.9923664122137404,1.7404580152671756,-2.3206106870229006,-0.45947265625,-0.0126953125,-0.154296875,1.1100999999999999
1.1755725190839694,1.633587786259542,-2.1068702290076335,-0.460693359375,-0.015625,-0.158447265625,1.1118
1.1755725190839694,1.633587786259542,-2.198473282442748,-0.461669921875,-0.013427734375,-0.160888671875,1.1135
1.099236641221374,1.5419847328244274,-2.16793893129771,-0.45751953125,-0.01025390625,-0.1611328125,1.1152
1.2213740458015268,1.3435114503816794,-2.0763358778625953,-0.46337890625,-0.0078125,-0.158935546875,1.1169
1.0229007633587786,1.5267175572519085,-2.1374045801526718,-0.46044921875,-0.012939453125,-0.160888671875,1.1186
1.099236641221374,1.4351145038167938,-2.015267175572519,-0.46240234375,-0.009033203125,-0.152587890625,1.1202999999999999
1.083969465648855,1.1908396946564885,-1.8778625954198473,-0.462158203125,-0.0087890625,-0.15625,1.1219999999999999
1.2366412213740459,1.4198473282442747,-1.7709923664122138,-0.4677734375,-0.007568359375,-0.15380859375,1.1237
1.3129770992366412,1.3282442748091603,-2.045801526717557,-0.463134765625,-0.008056640625,-0.156005859375,1.1254
1.3282442748091603,1.1755725190839694,-1.8473282442748091,-0.46484375,-0.006591796875,-0.166748046875,1.1271
1.3587786259541985,1.1450381679389312,-1.786259541984733,-0.461669921875,-0.011962890625,-0.155517578125,1.1288
1.3435114503816794,1.1755725190839694,-1.9236641221374047,-0.466064453125,-0.00927734375,-0.169189453125,1.1304999999999998
1.1908396946564885,1.099236641221374,-1.83206106870229,-0.461181640625,-0.009765625,-0.1650390625,1.1321999999999999
1.1755725190839694,1.0687022900763359,-1.7404580152671756,-0.466552734375,-0.012939453125,-0.15234375,1.1339
1.2061068702290076,1.1908396946564885,-1.7557251908396947,-0.46142578125,-0.01318359375,-0.164306640625,1.1356
1.3282442748091603,1.0229007633587786,-1.7099236641221374,-0.4599609375,-0.0078125,-0.158203125,1.1373
1.4198473282442747,0.9923664122137404,-1.786259541984733,-0.462646484375,-0.010009765625,-0.166259765625,1.139
1.3740458015267176,0.8549618320610687,-1.8473282442748091,-0.460205078125,-0.01171875,-0.158447265625,1.1407
1.2061068702290076,0.7786259541984732,-1.7099236641221374,-0.464111328125,-0.01220703125,-0.15380859375,1.1423999999999999
1.4961832061068703,0.8854961832061069,-1.6946564885496183,-0.456787109375,-0.012451171875,-0.154541015625,1.1441
1.4045801526717556,0.6564885496183206,-1.5877862595419847,-0.46240234375,-0.013916015625,-0.164306640625,1.1458
1.4809160305343512,0.7022900763358778,-1.4809160305343512,-0.460693359375,-0.01123046875,-0.154296875,1.1475
1.6030534351145038,0.6564885496183206,-1.633587786259542,-0.4638671875,-0.01318359375,-0.159912109375,1.1492
1.5877862595419847,0.6564885496183206,-1.4809160305343512,-0.460693359375,-0.010009765625,-0.166259765625,1.1509
1.5572519083969465,0.6106870229007634,-1.3893129770992367,-0.46435546875,-0.010986328125,-0.156982421875,1.1525999999999998
1.4961832061068703,0.6259541984732825,-1.3587786259541985,-0.46728515625,-0.014892578125,-0.159423828125,1.1542999999999999
1.7404580152671756,0.48854961832061067,-1.6030534351145038,-0.461181640625,-0.011962890625,-0.153076171875,1.156
1.4961832061068703,0.44274809160305345,-1.4809160305343512,-0.4619140625,-0.009765625,-0.158447265625,1.1577
1.7404580152671756,0.6717557251908397,-1.5267175572519085,-0.460205078125,-0.0087890625,-0.150390625,1.1594
1.5877862595419847,0.549618320610687,-1.4198473282442747,-0.46630859375,-0.010009765625,-0.154296875,1.1611
1.5877862595419847,0.4580152671755725,-1.5572519083969465,-0.463134765625,-0.010986328125,-0.16357421875,1.1627999999999998
1.6946564885496183,0.21374045801526717,-1.282442748091603,-0.466552734375,-0.010009765625,-0.158203125,1.1644999999999999
1.618320610687023,0.21374045801526717,-1.3129770992366412,-0.4609375,-0.008056640625,-0.156005859375,1.1662
1.633587786259542,0.32061068702290074,-1.3435114503816794,-0.459228515625,-0.012451171875,-0.16064453125,1.1679
1.8015267175572518,0.0,-1.1603053435114503,-0.463134765625,-0.009521484375,-0.154541015625,1.1696
1.7404580152671756,0.15267175572519084,-1.0687022900763359,-0.463623046875,-0.0087890625,-0.154541015625,1.1713
1.8625954198473282,0.0,-1.0381679389312977,-0.464599609375,-0.0087890625,-0.15869140625,1.173
1.7404580152671756,-0.183206106870229,-0.9618320610687023,-0.465576171875,-0.009033203125,-0.15576171875,1.1746999999999999
1.618320610687023,-0.10687022900763359,-1.1603053435114503,-0.45849609375,-0.00537109375,-0.16015625,1.1764
1.7709923664122138,-0.24427480916030533,-0.9465648854961832,-0.460693359375,-0.01171875,-0.15380859375,1.1781
1.8015267175572518,-0.1984732824427481,-0.9923664122137404,-0.461181640625,-0.01025390625,-0.151611328125,1.1798
1.6488549618320612,-0.24427480916030533,-0.7786259541984732,-0.46435546875,-0.013427734375,-0.14990234375,1.1815
1.7709923664122138,-0.3816793893129771,-0.9618320610687023,-0.458740234375,-0.007568359375,-0.158203125,1.1832
1.7557251908396947,-0.3053435114503817,-0.8396946564885496,-0.464599609375,-0.010498046875,-0.15966796875,1.1848999999999998
1.83206106870229,-0.2595419847328244,-0.7786259541984732,-0.468505859375,-0.010009765625,-0.16064453125,1.1865999999999999
1.816793893129771,-0.44274809160305345,-0.8091603053435115,-0.468017578125,-0.013671875,-0.15625,1.1883
1.6488549618320612,-0.48854961832061067,-0.732824427480916,-0.463134765625,-0.00927734375,-0.16259765625,1.19
1.6793893129770991,-0.48854961832061067,-0.7480916030534351,-0.468505859375,-0.012451171875,-0.156982421875,1.1917
1.816793893129771,-0.5648854961832062,-0.7633587786259542,-0.466796875,-0.009765625,-0.15771484375,1.1934
1.5877862595419847,-0.3053435114503817,-0.5190839694656488,-0.46875,-0.008544921875,-0.154296875,1.1950999999999998
1.6793893129770991,-0.5190839694656488,-0.8854961832061069,-0.466796875,-0.011474609375,-0.154296875,1.1967999999999999
1.6030534351145038,-0.5343511450381679,-0.6412213740458015,-0.46337890625,-0.008056640625,-0.1533203125,1.1985
1.6946564885496183,-0.5648854961832062,-0.6106870229007634,-0.460693359375,-0.00927734375,-0.152587890625,1.2002
1.633587786259542,-0.5038167938931297,-0.5190839694656488,-0.46728515625,-0.0107421875,-0.148193359375,1.2019
1.5725190839694656,-0.33587786259541985,-0.6717557251908397,-0.46337890625,-0.012451171875,-0.146728515625,1.2036
1.816793893129771,-0.6259541984732825,-0.4580152671755725,-0.463623046875,-0.017578125,-0.154296875,1.2053
1.7709923664122138,-0.6412213740458015,-0.6412213740458015,-0.46484375,-0.01513671875,-0.163818359375,1.2069999999999999
1.816793893129771,-0.24427480916030533,-0.5343511450381679,-0.462646484375,-0.010498046875,-0.150634765625,1.2086999999999999
1.6030534351145038,-0.5190839694656488,-0.44274809160305345,-0.4599609375,-0.006591796875,-0.1513671875,1.2104
1.450381679389313,-0.6412213740458015,-0.366412213740458,-0.46435546875,-0.009765625,-0.16015625,1.2121
1.5419847328244274,-0.42748091603053434,-0.5343511450381679,-0.464111328125,-0.0126953125,-0.15576171875,1.2138
1.5572519083969465,-0.48854961832061067,-0.4580152671755725,-0.465087890625,-0.013671875,-0.1455078125,1.2155
1.7709923664122138,-0.549618320610687,-0.6564885496183206,-0.46728515625,-0.009765625,-0.16064453125,1.2171999999999998
1.8015267175572518,-0.4732824427480916,-0.44274809160305345,-0.464599609375,-0.01220703125,-0.155517578125,1.2188999999999999
1.7099236641221374,-0.42748091603053434,-0.44274809160305345,-0.46533203125,-0.0078125,-0.15478515625,1.2206
1.7099236641221374,-0.366412213740458,-0.3053435114503817,-0.4609375,-0.013671875,-0.154052734375,1.2223
1.6030534351145038,-0.4122137404580153,-0.24427480916030533,-0.466552734375,-0.01220703125,-0.154296875,1.224
1.6946564885496183,-0.24427480916030533,-0.2900763358778626,-0.467041015625,-0.010009765625,-0.154541015625,1.2257
1.5725190839694656,-0.3816793893129771,-0.4580152671755725,-0.46923828125,-0.0107421875,-0.154541015625,1.2273999999999998
1.6488549618320612,-0.5038167938931297,-0.2595419847328244,-0.4677734375,-0.0126953125,-0.146240234375,1.2290999999999999
1.5725190839694656,-0.3053435114503817,-0.2748091603053435,-0.465087890625,-0.0087890625,-0.1494140625,1.2308
1.5572519083969465,-0.2595419847328244,-0.3053435114503817,-0.46728515625,-0.009521484375,-0.163818359375,1.2325
1.6030534351145038,-0.13740458015267176,-0.33587786259541985,-0.465576171875,-0.009033203125,-0.16064453125,1.2342
1.5572519083969465,-0.04580152671755725,-0.32061068702290074,-0.468994140625,-0.01025390625,-0.154296875,1.2359
1.4961832061068703,-0.04580152671755725,-0.4580152671755725,-0.467041015625,-0.009033203125,-0.161376953125,1.2376
1.5725190839694656,0.015267175572519083,-0.183206106870229,-0.464599609375,-0.0048828125,-0.15625,1.2392999999999998
1.5725190839694656,0.030534351145038167,-0.32061068702290074,-0.471435546875,-0.00927734375,-0.156982421875,1.2409999999999999
1.465648854961832,0.04580152671755725,-0.4122137404580153,-0.47216796875,-0.00927734375,-0.154296875,1.2427
1.5114503816793894,0.32061068702290074,-0.44274809160305345,-0.466552734375,-0.007568359375,-0.141357421875,1.2444
1.4045801526717556,0.44274809160305345,-0.1984732824427481,-0.472412109375,-0.011962890625,-0.151611328125,1.2461
1.5419847328244274,0.5038167938931297,-0.44274809160305345,-0.466552734375,-0.009033203125,-0.151611328125,1.2478
1.450381679389313,0.6717557251908397,-0.32061068702290074,-0.46630859375,-0.010986328125,-0.1552734375,1.2494999999999998
1.4351145038167938,0.916030534351145,-0.32061068702290074,-0.46435546875,-0.003173828125,-0.15185546875,1.2511999999999999
1.3282442748091603,0.7175572519083969,-0.33587786259541985,-0.460693359375,-0.00830078125,-0.15625,1.2529
1.297709923664122,0.6412213740458015,-0.5190839694656488,-0.463134765625,-0.010986328125,-0.156494140625,1.2546
1.3282442748091603,0.8396946564885496,-0.44274809160305345,-0.4619140625,-0.0087890625,-0.15771484375,1.2563
1.2213740458015268,0.7633587786259542,-0.549618320610687,-0.460205078125,-0.00927734375,-0.156005859375,1.258
1.5114503816793894,0.7480916030534351,-0.21374045801526717,-0.459228515625,-0.01611328125,-0.152099609375,1.2596999999999998
1.3587786259541985,0.5801526717557252,-0.48854961832061067,-0.458740234375,-0.009033203125,-0.157470703125,1.2613999999999999
1.1603053435114503,0.7022900763358778,-0.44274809160305345,-0.4599609375,-0.01171875,-0.161376953125,1.2631
1.297709923664122,0.5648854961832062,-0.5648854961832062,-0.4609375,-0.0078125,-0.146484375,1.2648
1.251908396946565,0.3816793893129771,-0.3511450381679389,-0.4638671875,-0.00439453125,-0.148681640625,1.2665
1.2213740458015268,0.3511450381679389,-0.5954198473282443,-0.464599609375,-0.009521484375,-0.142578125,1.2682
1.2366412213740459,0.5038167938931297,-0.4732824427480916,-0.46630859375,-0.009521484375,-0.1533203125,1.2699
1.3282442748091603,0.5648854961832062,-0.5648854961832062,-0.463623046875,-0.0068359375,-0.159423828125,1.2715999999999998
1.251908396946565,0.5648854961832062,-0.4122137404580153,-0.466552734375,-0.00634765625,-0.14990234375,1.2732999999999999
0.9618320610687023,0.6106870229007634,-0.48854961832061067,-0.460205078125,-0.010498046875,-0.159912109375,1.275
1.251908396946565,0.732824427480916,-0.24427480916030533,-0.461669921875,-0.01025390625,-0.15625,1.2767
1.2366412213740459,0.916030534351145,-0.21374045801526717,-0.46728515625,-0.011962890625,-0.162353515625,1.2784
1.3282442748091603,1.0381679389312977,-0.15267175572519084,-0.464111328125,-0.012451171875,-0.1533203125,1.2801
1.1450381679389312,1.1450381679389312,-0.15267175572519084,-0.46630859375,-0.00927734375,-0.15478515625,1.2817999999999998
0.9618320610687023,1.2061068702290076,-0.07633587786259542,-0.46142578125,-0.0048828125,-0.15673828125,1.2834999999999999
1.083969465648855,1.099236641221374,-0.10687022900763359,-0.457275390625,-0.00732421875,-0.158935546875,1.2852
0.9312977099236641,1.450381679389313,0.0,-0.464599609375,-0.009765625,-0.158203125,1.2869
1.083969465648855,1.251908396946565,-0.2595419847328244,-0.461181640625,-0.007080078125,-0.158935546875,1.2886
1.2671755725190839,1.4198473282442747,-0.22900763358778625,-0.460205078125,-0.0078125,-0.13427734375,1.2903
1.4198473282442747,1.2671755725190839,-0.24427480916030533,-0.459716796875,-0.00927734375,-0.153076171875,1.292
1.083969465648855,1.1755725190839694,-0.366412213740458,-0.46044921875,-0.00830078125,-0.15576171875,1.2936999999999999
0.916030534351145,1.0381679389312977,-0.549618320610687,-0.459716796875,-0.0087890625,-0.156005859375,1.2953999999999999
1.0534351145038168,0.9465648854961832,-0.3511450381679389,-0.4580078125,-0.01123046875,-0.150390625,1.2971
1.0534351145038168,1.0687022900763359,-0.5801526717557252,-0.461181640625,-0.005126953125,-0.1533203125,1.2988
1.1603053435114503,0.9312977099236641,-0.366412213740458,-0.46240234375,-0.002197265625,-0.15625,1.3005
1.297709923664122,0.8091603053435115,-0.48854961832061067,-0.46240234375,-0.0068359375,-0.15380859375,1.3022
1.083969465648855,0.7633587786259542,-0.3816793893129771,-0.46728515625,-0.002685546875,-0.150634765625,1.3038999999999998
1.3282442748091603,0.9923664122137404,-0.2900763358778626,-0.468505859375,-0.00732421875,-0.1494140625,1.3055999999999999
1.3740458015267176,1.099236641221374,-0.33587786259541985,-0.47216796875,-0.0068359375,-0.15283203125,1.3073
1.3740458015267176,1.0534351145038168,-0.4732824427480916,-0.475830078125,-0.006591796875,-0.152099609375,1.309
1.1755725190839694,1.3282442748091603,-0.32061068702290074,-0.4697265625,-0.002685546875,-0.155029296875,1.3107
1.4351145038167938,1.4045801526717556,-0.48854961832061067,-0.47216796875,-0.012939453125,-0.15576171875,1.3124
1.1908396946564885,1.5725190839694656,-0.6412213740458015,-0.4677734375,-0.004638671875,-0.149658203125,1.3140999999999998
1.5114503816793894,1.8015267175572518,-0.5954198473282443,-0.47119140625,-0.010009765625,-0.15625,1.3157999999999999
1.3435114503816794,2.0763358778625953,-0.916030534351145,-0.474365234375,-0.01025390625,-0.1572265625,1.3175
1.3282442748091603,1.984732824427481,-1.1908396946564885,-0.473876953125,-0.006103515625,-0.15283203125,1.3192
1.5725190839694656,2.3206106870229006,-1.1450381679389312,-0.4716796875,-0.001708984375,-0.15966796875,1.3209
1.4351145038167938,2.427480916030534,-1.3435114503816794,-0.469970703125,-0.007080078125,-0.15673828125,1.3226
1.3740458015267176,2.595419847328244,-1.3740458015267176,-0.470458984375,-0.00341796875,-0.15380859375,1.3243
1.3587786259541985,2.854961832061069,-1.3435114503816794,-0.465576171875,-0.004150390625,-0.153564453125,1.3259999999999998
1.6030534351145038,2.8702290076335877,-1.4961832061068703,-0.470703125,-0.000244140625,-0.155029296875,1.3276999999999999
1.6030534351145038,2.8091603053435112,-1.3587786259541985,-0.46875,-0.000244140625,-0.157958984375,1.3294
1.6793893129770991,2.564885496183206,-1.4198473282442747,-0.466796875,-0.006103515625,-0.1552734375,1.3311
1.6946564885496183,2.5343511450381677,-1.6030534351145038,-0.46826171875,-0.001708984375,-0.1494140625,1.3328
1.6946564885496183,2.595419847328244,-1.6793893129770991,-0.46923828125,-0.00439453125,-0.145751953125,1.3345
2.0,2.50381679389313,-1.4961832061068703,-0.466796875,-0.00390625,-0.16015625,1.3361999999999998
1.8778625954198473,2.366412213740458,-1.5572519083969465,-0.467529296875,-0.009765625,-0.15966796875,1.3378999999999999
1.7557251908396947,2.2595419847328246,-1.7557251908396947,-0.4677734375,-0.010498046875,-0.16162109375,1.3396
1.9236641221374047,2.198473282442748,-1.83206106870229,-0.459228515625,-0.009521484375,-0.1591796875,1.3413
2.122137404580153,2.2748091603053435,-1.9541984732824427,-0.46875,-0.00634765625,-0.15234375,1.343
1.984732824427481,2.198473282442748,-2.0916030534351147,-0.46484375,-0.005859375,-0.15087890625,1.3447
1.8931297709923665,2.198473282442748,-2.045801526717557,-0.464599609375,-0.011962890625,-0.155517578125,1.3463999999999998
1.5572519083969465,2.16793893129771,-2.1068702290076335,-0.465576171875,-0.005859375,-0.15869140625,1.3480999999999999
1.6793893129770991,2.183206106870229,-2.1068702290076335,-0.467041015625,-0.015380859375,-0.154541015625,1.3497999999999999
1.9389312977099236,2.0916030534351147,-2.122137404580153,-0.46435546875,-0.01220703125,-0.15966796875,1.3515
1.9389312977099236,2.183206106870229,-2.0610687022900764,-0.4658203125,-0.002197265625,-0.158447265625,1.3532
1.7557251908396947,2.122137404580153,-1.6641221374045803,-0.46435546875,-0.01220703125,-0.15478515625,1.3549
1.633587786259542,2.1526717557251906,-1.786259541984733,-0.46533203125,-0.011962890625,-0.15380859375,1.3566
1.7099236641221374,2.198473282442748,-1.7557251908396947,-0.47119140625,-0.00732421875,-0.1591796875,1.3582999999999998
1.9236641221374047,1.984732824427481,-1.7099236641221374,-0.46240234375,-0.00439453125,-0.157958984375,1.3599999999999999
1.9694656488549618,1.984732824427481,-1.6641221374045803,-0.4638671875,-0.00732421875,-0.15576171875,1.3617
1.9083969465648856,1.7404580152671756,-1.6030534351145038,-0.465576171875,-0.004638671875,-0.15869140625,1.3634
1.8778625954198473,1.816793893129771,-1.618320610687023,-0.4638671875,-0.0087890625,-0.151611328125,1.3651
1.816793893129771,1.8778625954198473,-1.5725190839694656,-0.45947265625,-0.0107421875,-0.1474609375,1.3668
1.9389312977099236,1.5572519083969465,-1.6641221374045803,-0.466552734375,-0.006103515625,-0.156982421875,1.3684999999999998
1.9541984732824427,1.6641221374045803,-1.5877862595419847,-0.4619140625,-0.006591796875,-0.15283203125,1.3701999999999999
1.786259541984733,1.7099236641221374,-1.5725190839694656,-0.462890625,-0.009033203125,-0.15234375,1.3719
1.7709923664122138,1.633587786259542,-1.786259541984733,-0.46337890625,-0.00537109375,-0.151123046875,1.3736
1.8625954198473282,1.4961832061068703,-1.6946564885496183,-0.460205078125,-0.005615234375,-0.161865234375,1.3753
1.8015267175572518,1.5725190839694656,-1.6793893129770991,-0.46435546875,-0.007568359375,-0.156005859375,1.377
1.7099236641221374,1.4961832061068703,-1.8931297709923665,-0.45458984375,-0.01171875,-0.15576171875,1.3786999999999998
1.7404580152671756,1.5572519083969465,-1.7251908396946565,-0.458984375,-0.008056640625,-0.164306640625,1.3803999999999998
2.122137404580153,1.4045801526717556,-1.6946564885496183,-0.466064453125,-0.00634765625,-0.15673828125,1.3820999999999999
1.9083969465648856,1.4809160305343512,-1.7099236641221374,-0.46435546875,-0.0068359375,-0.15576171875,1.3838
1.9541984732824427,1.3282442748091603,-1.7251908396946565,-0.46484375,-0.005615234375,-0.16162109375,1.3855
1.83206106870229,1.3893129770992367,-1.7099236641221374,-0.461669921875,-0.0048828125,-0.157470703125,1.3872
1.7251908396946565,1.4351145038167938,-1.9389312977099236,-0.45849609375,-0.004150390625,-0.154296875,1.3889
1.816793893129771,1.5267175572519085,-1.7099236641221374,-0.46533203125,-0.00537109375,-0.15380859375,1.3905999999999998
1.9389312977099236,1.4351145038167938,-1.7251908396946565,-0.4638671875,-0.00927734375,-0.154541015625,1.3922999999999999
1.9236641221374047,1.4351145038167938,-1.7709923664122138,-0.4599609375,-0.01025390625,-0.155029296875,1.394
1.9236641221374047,1.3893129770992367,-1.9083969465648856,-0.463623046875,-0.0078125,-0.16357421875,1.3957
1.9083969465648856,1.4045801526717556,-1.633587786259542,-0.463134765625,-0.008056640625,-0.16162109375,1.3974
1.83206106870229,1.2671755725190839,-1.786259541984733,-0.46337890625,-0.00732421875,-0.16015625,1.3991
2.122137404580153,1.2671755725190839,-1.9694656488549618,-0.46044921875,-0.008056640625,-0.156982421875,1.4007999999999998
2.122137404580153,1.4045801526717556,-2.030534351145038,-0.458740234375,-0.005615234375,-0.157470703125,1.4024999999999999
1.984732824427481,1.297709923664122,-2.015267175572519,-0.457763671875,-0.009765625,-0.158203125,1.4042
2.0,1.2671755725190839,-2.0610687022900764,-0.457275390625,-0.003662109375,-0.150634765625,1.4059
1.984732824427481,1.2061068702290076,-1.9083969465648856,-0.458740234375,-0.009521484375,-0.156982421875,1.4076
1.9083969465648856,1.2366412213740459,-1.9236641221374047,-0.46337890625,-0.009765625,-0.15234375,1.4093
2.045801526717557,1.1145038167938932,-2.0,-0.465087890625,-0.012939453125,-0.154052734375,1.411
1.984732824427481,1.1145038167938932,-2.0610687022900764,-0.458984375,-0.010986328125,-0.15576171875,1.4126999999999998
1.7557251908396947,1.1908396946564885,-1.9541984732824427,-0.46533203125,-0.01171875,-0.16259765625,1.4143999999999999
1.8931297709923665,1.2061068702290076,-2.045801526717557,-0.458984375,-0.009765625,-0.157470703125,1.4161
1.9236641221374047,1.0534351145038168,-1.8778625954198473,-0.459716796875,-0.012451171875,-0.162353515625,1.4178
2.0610687022900764,1.1908396946564885,-1.8778625954198473,-0.467529296875,-0.00732421875,-0.15576171875,1.4195
2.0916030534351147,1.1603053435114503,-1.8015267175572518,-0.459716796875,-0.009521484375,-0.152587890625,1.4212
1.8473282442748091,1.1908396946564885,-1.786259541984733,-0.46240234375,-0.004150390625,-0.1591796875,1.4228999999999998
1.8625954198473282,0.9312977099236641,-1.8931297709923665,-0.4638671875,-0.00927734375,-0.157958984375,1.4245999999999999
1.8778625954198473,1.0076335877862594,-1.9694656488549618,-0.45947265625,-0.01513671875,-0.15380859375,1.4263
2.015267175572519,1.099236641221374,-1.7709923664122138,-0.461669921875,-0.008544921875,-0.149169921875,1.428
1.9236641221374047,1.0229007633587786,-1.8015267175572518,-0.46142578125,-0.0068359375,-0.154296875,1.4297
1.9541984732824427,1.0381679389312977,-1.6793893129770991,-0.46240234375,-0.007080078125,-0.1484375,1.4314
2.0610687022900764,1.099236641221374,-1.8778625954198473,-0.45947265625,-0.011474609375,-0.16162109375,1.4330999999999998
1.9541984732824427,1.0076335877862594,-1.633587786259542,-0.463134765625,-0.015869140625,-0.16259765625,1.4347999999999999
1.9541984732824427,1.0381679389312977,-1.6946564885496183,-0.459228515625,-0.01123046875,-0.16162109375,1.4364999999999999
1.8625954198473282,0.8854961832061069,-1.618320610687023,-0.462646484375,-0.010009765625,-0.156982421875,1.4382
1.9236641221374047,0.7175572519083969,-1.618320610687023,-0.459716796875,-0.009033203125,-0.1533203125,1.4399
1.6946564885496183,0.9923664122137404,-1.633587786259542,-0.458984375,-0.017333984375,-0.145263671875,1.4416
1.9236641221374047,0.9770992366412213,-1.7557251908396947,-0.46630859375,-0.01123046875,-0.153564453125,1.4433
1.9389312977099236,0.8549618320610687,-1.3893129770992367,-0.46240234375,-0.011474609375,-0.156494140625,1.4449999999999998
1.7099236641221374,0.8854961832061069,-1.6488549618320612,-0.46142578125,-0.005859375,-0.151123046875,1.4466999999999999
1.83206106870229,0.7786259541984732,-1.6641221374045803,-0.460693359375,-0.008056640625,-0.15673828125,1.4484
2.0,0.9312977099236641,-1.6488549618320612,-0.46484375,-0.009521484375,-0.15966796875,1.4501
1.6641221374045803,0.9618320610687023,-1.4961832061068703,-0.462646484375,-0.01318359375,-0.157958984375,1.4518
1.8778625954198473,0.9312977099236641,-1.7099236641221374,-0.46533203125,-0.007568359375,-0.1640625,1.4535
1.816793893129771,0.8702290076335878,-1.4045801526717556,-0.46630859375,-0.007080078125,-0.152099609375,1.4551999999999998
1.618320610687023,0.9923664122137404,-1.4351145038167938,-0.46044921875,-0.00732421875,-0.154052734375,1.4568999999999999
1.816793893129771,1.0076335877862594,-1.3282442748091603,-0.464111328125,-0.0126953125,-0.16943359375,1.4586
1.6641221374045803,1.0076335877862594,-1.3740458015267176,-0.465576171875,-0.008544921875,-0.152587890625,1.4603
1.6030534351145038,0.8244274809160306,-1.4351145038167938,-0.463623046875,-0.011962890625,-0.155029296875,1.462
1.816793893129771,0.9923664122137404,-1.6030534351145038,-0.466552734375,-0.013671875,-0.149658203125,1.4637
1.618320610687023,0.9312977099236641,-1.3435114503816794,-0.467041015625,-0.008056640625,-0.160400390625,1.4653999999999998
1.633587786259542,0.8396946564885496,-1.7099236641221374,-0.461669921875,-0.009033203125,-0.162353515625,1.4670999999999998
1.5725190839694656,0.9465648854961832,-1.282442748091603,-0.46240234375,-0.010986328125,-0.164306640625,1.4687999999999999
1.5572519083969465,0.8244274809160306,-1.1297709923664123,-0.4658203125,-0.0087890625,-0.1669921875,1.4705
1.4809160305343512,0.8854961832061069,-1.282442748091603,-0.462158203125,-0.008544921875,-0.1552734375,1.4722
1.5572519083969465,0.8549618320610687,-1.3740458015267176,-0.462158203125,-0.01171875,-0.14794921875,1.4739
1.450381679389313,0.7175572519083969,-1.2366412213740459,-0.46484375,-0.01025390625,-0.16259765625,1.4756
1.5419847328244274,0.8702290076335878,-1.4045801526717556,-0.462646484375,-0.005859375,-0.15673828125,1.4772999999999998
1.5877862595419847,0.7480916030534351,-1.1908396946564885,-0.464599609375,-0.01123046875,-0.15966796875,1.4789999999999999
1.4045801526717556,0.9007633587786259,-1.297709923664122,-0.468017578125,-0.01171875,-0.1513671875,1.4807
1.2366412213740459,0.6717557251908397,-1.1755725190839694,-0.462158203125,-0.01025390625,-0.153076171875,1.4824
1.4961832061068703,0.9007633587786259,-1.1908396946564885,-0.46142578125,-0.007568359375,-0.154052734375,1.4841
1.4351145038167938,0.8396946564885496,-0.9923664122137404,-0.462158203125,-0.014892578125,-0.158935546875,1.4858
1.099236641221374,0.732824427480916,-1.1297709923664123,-0.460693359375,-0.005859375,-0.15478515625,1.4874999999999998
1.1450381679389312,0.7480916030534351,-1.282442748091603,-0.463623046875,-0.009521484375,-0.159423828125,1.4891999999999999
0.9618320610687023,0.8396946564885496,-1.297709923664122,-0.4638671875,-0.011474609375,-0.15673828125,1.4909
1.0687022900763359,0.7480916030534351,-1.251908396946565,-0.467041015625,-0.0107421875,-0.1591796875,1.4926
1.2671755725190839,0.7786259541984732,-1.2671755725190839,-0.463134765625,-0.008544921875,-0.1533203125,1.4943
1.1297709923664123,0.9465648854961832,-1.1908396946564885,-0.4677734375,-0.014892578125,-0.1591796875,1.496
1.0076335877862594,0.7786259541984732,-1.3587786259541985,-0.461669921875,-0.01025390625,-0.157470703125,1.4976999999999998
1.282442748091603,0.8702290076335878,-1.1755725190839694,-0.462158203125,-0.00732421875,-0.1572265625,1.4993999999999998
1.2366412213740459,0.8244274809160306,-1.297709923664122,-0.460693359375,-0.009765625,-0.161376953125,1.5010999999999999
1.0381679389312977,0.7633587786259542,-1.251908396946565,-0.467041015625,-0.0048828125,-0.16162109375,1.5028
0.9923664122137404,0.8549618320610687,-1.282442748091603,-0.462646484375,-0.005126953125,-0.162353515625,1.5045
0.8549618320610687,0.7938931297709924,-1.099236641221374,-0.466796875,-0.01171875,-0.166015625,1.5062
1.2671755725190839,0.8854961832061069,-1.3893129770992367,-0.4638671875,-0.009765625,-0.16357421875,1.5079
1.099236641221374,0.8244274809160306,-1.2213740458015268,-0.4638671875,-0.009765625,-0.16064453125,1.5095999999999998
0.916030534351145,0.8396946564885496,-1.3893129770992367,-0.468994140625,-0.007568359375,-0.156982421875,1.5112999999999999
0.8854961832061069,0.7786259541984732,-1.2671755725190839,-0.466064453125,-0.010498046875,-0.15771484375,1.513
0.8091603053435115,0.8702290076335878,-1.282442748091603,-0.46484375,-0.00634765625,-0.159912109375,1.5147
1.0381679389312977,0.6717557251908397,-1.3435114503816794,-0.467529296875,-0.010986328125,-0.156494140625,1.5164
0.7938931297709924,0.7175572519083969,-1.6793893129770991,-0.467041015625,-0.0087890625,-0.154052734375,1.5181
0.8244274809160306,0.7786259541984732,-1.297709923664122,-0.465087890625,-0.010009765625,-0.16015625,1.5197999999999998
0.9618320610687023,0.732824427480916,-1.5877862595419847,-0.45947265625,-0.009033203125,-0.153564453125,1.5214999999999999
0.7633587786259542,0.8244274809160306,-1.450381679389313,-0.465576171875,-0.009033203125,-0.15966796875,1.5231999999999999
0.6106870229007634,1.0381679389312977,-1.4809160305343512,-0.46142578125,-0.007568359375,-0.154541015625,1.5249
0.9465648854961832,1.0381679389312977,-1.282442748091603,-0.4638671875,-0.010498046875,-0.156005859375,1.5266
0.7786259541984732,1.0687022900763359,-1.5114503816793894,-0.45849609375,-0.010986328125,-0.16162109375,1.5283
0.6106870229007634,0.9618320610687023,-1.5419847328244274,-0.46142578125,-0.01025390625,-0.158203125,1.5299999999999998
0.549618320610687,0.9007633587786259,-1.7099236641221374,-0.459716796875,-0.0107421875,-0.155029296875,1.5316999999999998
0.6870229007633588,0.9770992366412213,-1.5419847328244274,-0.4619140625,-0.012939453125,-0.1513671875,1.5333999999999999
0.8091603053435115,0.8854961832061069,-1.6641221374045803,-0.45947265625,-0.00439453125,-0.154296875,1.5351
0.6870229007633588,0.549618320610687,-1.6488549618320612,-0.462890625,-0.000244140625,-0.156982421875,1.5368
0.5648854961832062,0.3053435114503817,-1.633587786259542,-0.456787109375,-0.00634765625,-0.154541015625,1.5385
0.5801526717557252,0.1984732824427481,-1.5725190839694656,-0.45849609375,-0.00537109375,-0.161376953125,1.5402
0.6259541984732825,0.21374045801526717,-1.5572519083969465,-0.461669921875,-0.01318359375,-0.15625,1.5418999999999998
0.5954198473282443,0.183206106870229,-1.4045801526717556,-0.457275390625,-0.00927734375,-0.1572265625,1.5435999999999999
0.5801526717557252,0.22900763358778625,-1.4045801526717556,-0.460693359375,-0.010009765625,-0.1455078125,1.5453
0.44274809160305345,0.13740458015267176,-1.0534351145038168,-0.462158203125,-0.014404296875,-0.143798828125,1.547
0.1984732824427481,0.16793893129770993,-1.1908396946564885,-0.4677734375,-0.00634765625,-0.157470703125,1.5487
0.48854961832061067,0.32061068702290074,-1.282442748091603,-0.46533203125,-0.010986328125,-0.151123046875,1.5504
0.2748091603053435,0.3969465648854962,-1.1908396946564885,-0.4697265625,-0.0107421875,-0.156494140625,1.5520999999999998
0.22900763358778625,0.3816793893129771,-0.9770992366412213,-0.46728515625,-0.005859375,-0.1591796875,1.5537999999999998
0.33587786259541985,0.5648854961832062,-1.1145038167938932,-0.467529296875,-0.010498046875,-0.161376953125,1.5554999999999999
0.24427480916030533,0.366412213740458,-0.9312977099236641,-0.46826171875,-0.0078125,-0.15771484375,1.5572
0.04580152671755725,0.48854961832061067,-0.9007633587786259,-0.465087890625,-0.0087890625,-0.146728515625,1.5589
0.13740458015267176,0.5801526717557252,-0.9770992366412213,-0.46484375,-0.009521484375,-0.158935546875,1.5606
0.1984732824427481,0.5038167938931297,-1.0381679389312977,-0.46240234375,-0.008544921875,-0.155517578125,1.5623
0.15267175572519084,0.549618320610687,-0.916030534351145,-0.46142578125,-0.010009765625,-0.15966796875,1.5639999999999998
0.10687022900763359,0.48854961832061067,-0.8854961832061069,-0.46533203125,-0.0048828125,-0.158935546875,1.5656999999999999
0.061068702290076333,0.33587786259541985,-0.9312977099236641,-0.46630859375,-0.002685546875,-0.16064453125,1.5674
0.1984732824427481,0.4122137404580153,-1.0229007633587786,-0.46728515625,-0.00830078125,-0.150634765625,1.5691
0.44274809160305345,0.33587786259541985,-1.1145038167938932,-0.46630859375,-0.007080078125,-0.14599609375,1.5708
0.3816793893129771,0.2900763358778626,-1.099236641221374,-0.465576171875,-0.0029296875,-0.159423828125,1.5725
0.366412213740458,0.2748091603053435,-1.2061068702290076,-0.462158203125,-0.009033203125,-0.15478515625,1.5741999999999998
0.44274809160305345,0.16793893129770993,-1.297709923664122,-0.46533203125,-0.007568359375,-0.150390625,1.5758999999999999
0.4580152671755725,0.12213740458015267,-1.4045801526717556,-0.46533203125,-0.005859375,-0.166259765625,1.5776
0.42748091603053434,0.04580152671755725,-1.3740458015267176,-0.465087890625,-0.007568359375,-0.15673828125,1.5793
0.3969465648854962,-0.015267175572519083,-1.3740458015267176,-0.463134765625,-0.00537109375,-0.16162109375,1.581
0.6564885496183206,0.0,-1.3435114503816794,-0.4619140625,-0.00634765625,-0.16455078125,1.5827
0.5954198473282443,0.15267175572519084,-1.4351145038167938,-0.466064453125,-0.008544921875,-0.151123046875,1.5843999999999998
0.6412213740458015,0.12213740458015267,-1.4045801526717556,-0.46484375,-0.009521484375,-0.1484375,1.5860999999999998
0.5343511450381679,0.12213740458015267,-1.5419847328244274,-0.464599609375,-0.007080078125,-0.1533203125,1.5877999999999999
0.7938931297709924,0.24427480916030533,-1.5419847328244274,-0.46533203125,-0.005126953125,-0.16015625,1.5895
0.6870229007633588,0.3511450381679389,-1.4198473282442747,-0.469970703125,-0.00439453125,-0.15869140625,1.5912
0.8244274809160306,0.16793893129770993,-1.465648854961832,-0.462158203125,-0.003662109375,-0.15087890625,1.5929
0.3511450381679389,0.183206106870229,-1.4045801526717556,-0.462158203125,-0.008056640625,-0.153564453125,1.5946
0.3969465648854962,0.3816793893129771,-1.4961832061068703,-0.463134765625,-0.005859375,-0.1533203125,1.5962999999999998
0.6412213740458015,0.3511450381679389,-1.2671755725190839,-0.46875,-0.008056640625,-0.1552734375,1.5979999999999999
0.549618320610687,0.4122137404580153,-1.297709923664122,-0.462158203125,-0.006591796875,-0.14794921875,1.5997
0.48854961832061067,0.1984732824427481,-1.2671755725190839,-0.4619140625,-0.00634765625,-0.152587890625,1.6014
0.5954198473282443,0.21374045801526717,-1.1755725190839694,-0.463134765625,-0.009033203125,-0.162841796875,1.6031
0.5038167938931297,0.183206106870229,-1.3129770992366412,-0.464111328125,-0.008056640625,-0.155517578125,1.6048
0.3053435114503817,0.21374045801526717,-1.1297709923664123,-0.466064453125,-0.006103515625,-0.150390625,1.6064999999999998
0.4580152671755725,0.21374045801526717,-1.1297709923664123,-0.469970703125,-0.01318359375,-0.156982421875,1.6081999999999999
0.5801526717557252,0.183206106870229,-1.251908396946565,-0.462158203125,-0.0087890625,-0.150634765625,1.6098999999999999
0.5801526717557252,0.16793893129770993,-1.2213740458015268,-0.468017578125,-0.0068359375,-0.160400390625,1.6116
0.5954198473282443,0.12213740458015267,-1.083969465648855,-0.463623046875,-0.006591796875,-0.154296875,1.6133
0.42748091603053434,0.030534351145038167,-0.9923664122137404,-0.465087890625,-0.008544921875,-0.15869140625,1.615
0.3816793893129771,0.07633587786259542,-1.0076335877862594,-0.460693359375,-0.01220703125,-0.148193359375,1.6166999999999998
0.3816793893129771,0.22900763358778625,-0.9618320610687023,-0.46142578125,-0.007568359375,-0.155517578125,1.6183999999999998
0.5190839694656488,0.183206106870229,-0.9312977099236641,-0.462646484375,-0.0087890625,-0.159912109375,1.6200999999999999
0.33587786259541985,0.16793893129770993,-0.9465648854961832,-0.4755859375,-0.010498046875,-0.154296875,1.6218
0.21374045801526717,0.2595419847328244,-0.7022900763358778,-0.46728515625,-0.00830078125,-0.159423828125,1.6235
0.2748091603053435,0.3816793893129771,-0.6717557251908397,-0.468017578125,-0.011962890625,-0.16259765625,1.6252
0.2595419847328244,0.3053435114503817,-0.5343511450381679,-0.47021484375,-0.009033203125,-0.152099609375,1.6269
0.1984732824427481,0.4122137404580153,-0.8244274809160306,-0.472412109375,-0.0078125,-0.148193359375,1.6285999999999998
0.3053435114503817,0.366412213740458,-0.6412213740458015,-0.465087890625,-0.0087890625,-0.15673828125,1.6302999999999999
0.15267175572519084,0.44274809160305345,-0.5954198473282443,-0.464599609375,-0.00927734375,-0.162841796875,1.632
0.015267175572519083,0.3969465648854962,-0.6259541984732825,-0.467041015625,-0.00927734375,-0.161376953125,1.6337
0.061068702290076333,0.3969465648854962,-0.732824427480916,-0.466796875,-0.00830078125,-0.159912109375,1.6354
0.0,0.44274809160305345,-0.7633587786259542,-0.4638671875,-0.009765625,-0.1630859375,1.6371
-0.183206106870229,0.4580152671755725,-0.6412213740458015,-0.468505859375,-0.012939453125,-0.16064453125,1.6387999999999998
-0.2595419847328244,0.3816793893129771,-0.6870229007633588,-0.471435546875,-0.015380859375,-0.156982421875,1.6404999999999998
-0.4580152671755725,0.5343511450381679,-0.5648854961832062,-0.467041015625,-0.00927734375,-0.154296875,1.6421999999999999
-0.7175572519083969,0.6564885496183206,-0.48854961832061067,-0.46533203125,-0.0107421875,-0.161376953125,1.6439
-0.5954198473282443,0.7938931297709924,-0.183206106870229,-0.460693359375,-0.018798828125,-0.14990234375,1.6456
-0.9618320610687023,0.7175572519083969,-0.3053435114503817,-0.462890625,-0.0146484375,-0.15576171875,1.6473
-1.0381679389312977,0.916030534351145,-0.32061068702290074,-0.464111328125,-0.01806640625,-0.1484375,1.6489999999999998
-1.2061068702290076,1.099236641221374,-0.2748091603053435,-0.467529296875,-0.02001953125,-0.1533203125,1.6506999999999998
-1.8015267175572518,1.1450381679389312,-0.030534351145038167,-0.468994140625,-0.02099609375,-0.148193359375,1.6523999999999999
-2.2290076335877864,1.1908396946564885,-0.2595419847328244,-0.4697265625,-0.02001953125,-0.157470703125,1.6541
-2.351145038167939,1.3587786259541985,-0.07633587786259542,-0.464111328125,-0.023193359375,-0.155517578125,1.6558
-2.946564885496183,1.3893129770992367,-0.2748091603053435,-0.466064453125,-0.02197265625,-0.157958984375,1.6575
-3.5267175572519083,1.5114503816793894,-0.6259541984732825,-0.471435546875,-0.023681640625,-0.158447265625,1.6592
-3.9236641221374047,1.450381679389313,-0.5190839694656488,-0.47509765625,-0.03369140625,-0.1611328125,1.6608999999999998
-4.854961832061068,1.5114503816793894,-0.5954198473282443,-0.473876953125,-0.034912109375,-0.15185546875,1.6625999999999999
-5.816793893129771,1.7251908396946565,-0.6259541984732825,-0.47021484375,-0.037353515625,-0.158447265625,1.6643
-6.748091603053435,1.9236641221374047,-0.8091603053435115,-0.470703125,-0.03271484375,-0.16259765625,1.666
-7.862595419847328,2.16793893129771,-0.9465648854961832,-0.47119140625,-0.03662109375,-0.15771484375,1.6677
-8.80916030534351,2.2900763358778624,-0.9923664122137404,-0.4736328125,-0.037353515625,-0.156982421875,1.6694
-10.0,2.427480916030534,-1.1755725190839694,-0.477294921875,-0.04541015625,-0.16650390625,1.6710999999999998
-11.007633587786259,2.6717557251908395,-1.2213740458015268,-0.470947265625,-0.044677734375,-0.1611328125,1.6727999999999998
-11.98473282442748,2.8702290076335877,-1.3435114503816794,-0.474853515625,-0.0400390625,-0.160400390625,1.6744999999999999
-13.068702290076336,3.114503816793893,-1.3893129770992367,-0.47314453125,-0.051513671875,-0.161865234375,1.6762
-13.954198473282442,3.435114503816794,-1.4809160305343512,-0.466796875,-0.046875,-0.164306640625,1.6779
-15.114503816793894,3.3282442748091605,-1.5725190839694656,-0.47314453125,-0.04736328125,-0.16455078125,1.6796
-16.30534351145038,3.7404580152671754,-1.5877862595419847,-0.471923828125,-0.044921875,-0.165771484375,1.6813
-17.404580152671755,3.816793893129771,-1.8778625954198473,-0.46923828125,-0.04931640625,-0.164306640625,1.6829999999999998
-18.702290076335878,4.0458015267175576,-1.9694656488549618,-0.45947265625,-0.051513671875,-0.164794921875,1.6846999999999999
-19.862595419847327,4.3816793893129775,-2.0763358778625953,-0.465087890625,-0.051513671875,-0.164794921875,1.6864
-20.85496183206107,4.427480916030534,-2.33587786259542,-0.465576171875,-0.055419921875,-0.165771484375,1.6881
-22.137404580152673,4.2748091603053435,-3.053435114503817,-0.4697265625,-0.05322265625,-0.17333984375,1.6898
-23.328244274809162,4.290076335877862,-3.5114503816793894,-0.463134765625,-0.058837890625,-0.16357421875,1.6915
-24.778625954198475,4.198473282442748,-3.9083969465648853,-0.457763671875,-0.057861328125,-0.173583984375,1.6931999999999998
-25.984732824427482,3.9389312977099236,-4.305343511450381,-0.46142578125,-0.05322265625,-0.16064453125,1.6948999999999999
-27.282442748091604,3.969465648854962,-4.916030534351145,-0.460693359375,-0.053466796875,-0.1689453125,1.6965999999999999
-28.50381679389313,3.9236641221374047,-5.206106870229007,-0.457763671875,-0.060546875,-0.165283203125,1.6983
-29.709923664122137,3.7709923664122136,-5.541984732824427,-0.460205078125,-0.064453125,-0.167236328125,1.7
-31.099236641221374,3.66412213740458,-5.9541984732824424,-0.46044921875,-0.061279296875,-0.16845703125,1.7017
-32.13740458015267,3.6793893129770994,-6.1679389312977095,-0.459716796875,-0.0595703125,-0.163330078125,1.7033999999999998
-33.52671755725191,3.4198473282442747,-6.396946564885496,-0.456298828125,-0.059326171875,-0.16796875,1.7050999999999998
-34.900763358778626,3.435114503816794,-6.748091603053435,-0.45751953125,-0.06494140625,-0.1689453125,1.7067999999999999
-36.213740458015266,3.3587786259541983,-6.854961832061068,-0.45849609375,-0.068115234375,-0.176513671875,1.7085
-37.32824427480916,2.9618320610687023,-7.099236641221374,-0.45703125,-0.061279296875,-0.168212890625,1.7102
-38.717557251908396,3.099236641221374,-7.022900763358779,-0.453857421875,-0.060791015625,-0.171630859375,1.7119
-39.847328244274806,2.7022900763358777,-7.587786259541985,-0.45849609375,-0.05908203125,-0.16796875,1.7136
-40.99236641221374,2.6412213740458017,-7.480916030534351,-0.459716796875,-0.059326171875,-0.178955078125,1.7152999999999998
-42.458015267175576,2.7022900763358777,-7.877862595419847,-0.454833984375,-0.059326171875,-0.171630859375,1.7169999999999999
-43.87786259541985,2.427480916030534,-7.984732824427481,-0.456298828125,-0.0625,-0.167236328125,1.7187
-45.31297709923664,2.1068702290076335,-8.274809160305344,-0.451416015625,-0.06103515625,-0.172119140625,1.7204
-46.38167938931298,1.7709923664122138,-8.458015267175572,-0.452392578125,-0.063720703125,-0.1728515625,1.7221
-47.69465648854962,1.7099236641221374,-8.641221374045802,-0.453125,-0.067626953125,-0.167236328125,1.7238
-48.916030534351144,1.4198473282442747,-8.931297709923664,-0.453369140625,-0.067138671875,-0.1728515625,1.7254999999999998
-50.19847328244275,1.2213740458015268,-9.206106870229007,-0.457275390625,-0.066650390625,-0.166259765625,1.7271999999999998
-51.37404580152672,0.8702290076335878,-9.221374045801527,-0.451416015625,-0.06298828125,-0.174072265625,1.7288999999999999
-52.458015267175576,0.5954198473282443,-9.419847328244275,-0.44921875,-0.0615234375,-0.172119140625,1.7306
-53.969465648854964,0.3816793893129771,-9.450381679389313,-0.453369140625,-0.0615234375,-0.16796875,1.7323
-55.06870229007634,0.10687022900763359,-9.648854961832061,-0.45849609375,-0.0615234375,-0.169189453125,1.734
-56.091603053435115,-0.04580152671755725,-9.435114503816793,-0.45556640625,-0.0634765625,-0.173095703125,1.7356999999999998
-57.51145038167939,-0.2748091603053435,-9.526717557251908,-0.45361328125,-0.06298828125,-0.167724609375,1.7373999999999998
-58.916030534351144,-0.366412213740458,-9.572519083969466,-0.46044921875,-0.060302734375,-0.170654296875,1.7390999999999999
-60.18320610687023,-0.5343511450381679,-9.618320610687023,-0.456298828125,-0.06591796875,-0.169921875,1.7408
-61.267175572519086,-0.6412213740458015,-9.709923664122137,-0.45654296875,-0.067626953125,-0.168212890625,1.7425
-62.35114503816794,-0.8244274809160306,-9.816793893129772,-0.458251953125,-0.066162109375,-0.163330078125,1.7442
-63.7557251908397,-0.7633587786259542,-9.816793893129772,-0.45556640625,-0.062744140625,-0.16748046875,1.7459
-64.76335877862596,-0.8091603053435115,-10.045801526717558,-0.46142578125,-0.06298828125,-0.163818359375,1.7475999999999998
-65.90839694656489,-1.0229007633587786,-10.259541984732824,-0.45556640625,-0.0634765625,-0.1640625,1.7492999999999999
-67.08396946564885,-1.083969465648855,-10.351145038167939,-0.457763671875,-0.06103515625,-0.17138671875,1.751
-68.44274809160305,-1.3893129770992367,-10.259541984732824,-0.4541015625,-0.072021484375,-0.174072265625,1.7527
-69.52671755725191,-1.633587786259542,-10.244274809160306,-0.4541015625,-0.061279296875,-0.166748046875,1.7544
-70.4885496183206,-1.6793893129770991,-10.259541984732824,-0.454833984375,-0.06298828125,-0.163818359375,1.7561
-71.6030534351145,-1.7251908396946565,-10.625954198473282,-0.459228515625,-0.064697265625,-0.159912109375,1.7577999999999998
-73.08396946564885,-1.9236641221374047,-10.213740458015268,-0.45947265625,-0.056396484375,-0.16845703125,1.7594999999999998
-74.0,-2.381679389312977,-10.595419847328245,-0.45654296875,-0.060302734375,-0.16748046875,1.7611999999999999
-74.76335877862596,-2.6717557251908395,-10.549618320610687,-0.455810546875,-0.066650390625,-0.169921875,1.7629
-75.96946564885496,-2.9923664122137406,-10.50381679389313,-0.460693359375,-0.063720703125,-0.166748046875,1.7646
-77.02290076335878,-3.1755725190839694,-10.335877862595419,-0.4599609375,-0.0625,-0.161376953125,1.7663
-78.03053435114504,-3.3893129770992365,-10.412213740458014,-0.45703125,-0.064453125,-0.169677734375,1.7679999999999998
-79.05343511450381,-3.618320610687023,-10.595419847328245,-0.46337890625,-0.063232421875,-0.158935546875,1.7696999999999998
-80.01526717557252,-4.015267175572519,-10.625954198473282,-0.46044921875,-0.06591796875,-0.156494140625,1.7713999999999999
-81.0381679389313,-3.954198473282443,-10.305343511450381,-0.46826171875,-0.06396484375,-0.162353515625,1.7731
-82.35114503816794,-3.984732824427481,-10.412213740458014,-0.46435546875,-0.0625,-0.157958984375,1.7748
-83.26717557251908,-4.030534351145038,-10.16793893129771,-0.46044921875,-0.065673828125,-0.162841796875,1.7765
-84.33587786259542,-3.9236641221374047,-10.229007633587786,-0.46484375,-0.065673828125,-0.166748046875,1.7782
-85.25190839694656,-3.83206106870229,-10.091603053435115,-0.464599609375,-0.06396484375,-0.158935546875,1.7798999999999998
-86.44274809160305,-3.8625954198473282,-10.13740458015267,-0.464111328125,-0.066162109375,-0.151611328125,1.7815999999999999
-87.6030534351145,-3.6946564885496183,-9.84732824427481,-0.459716796875,-0.062744140625,-0.1630859375,1.7832999999999999
-88.42748091603053,-3.9236641221374047,-9.786259541984732,-0.46142578125,-0.068603515625,-0.1494140625,1.785
-89.57251908396947,-3.66412213740458,-9.526717557251908,-0.463623046875,-0.065185546875,-0.15478515625,1.7867
-90.36641221374046,-3.8931297709923665,-9.435114503816793,-0.466552734375,-0.070068359375,-0.152587890625,1.7884
-91.2824427480916,-4.015267175572519,-9.053435114503817,-0.4609375,-0.06884765625,-0.16064453125,1.7900999999999998
-92.4885496183206,-3.9389312977099236,-9.099236641221374,-0.463623046875,-0.067626953125,-0.1552734375,1.7917999999999998
