gyrox1,gyroy1,gyroz1,accelx1,accely1,accelz1,Time
-6.3816793893129775,-10.50381679389313,-9.679389312977099,0.04931640625,0.003173828125,-0.59814453125,0.0
-6.229007633587786,-10.458015267175572,-9.84732824427481,0.050537109375,0.0078125,-0.59912109375,0.0017
-6.396946564885496,-10.51908396946565,-9.725190839694656,0.04736328125,0.006591796875,-0.6064453125,0.0034
-6.229007633587786,-10.763358778625955,-9.816793893129772,0.04833984375,0.00830078125,-0.604736328125,0.0050999999999999995
-6.366412213740458,-10.534351145038167,-9.770992366412214,0.049072265625,0.009033203125,-0.59814453125,0.0068
-6.442748091603053,-10.549618320610687,-9.709923664122137,0.0498046875,0.009765625,-0.594482421875,0.008499999999999999
-6.732824427480916,-10.67175572519084,-9.709923664122137,0.05224609375,0.0126953125,-0.60205078125,0.010199999999999999
-6.885496183206107,-10.687022900763358,-9.923664122137405,0.0517578125,0.0107421875,-0.6005859375,0.011899999999999999
-7.038167938931298,-10.65648854961832,-9.83206106870229,0.046875,0.0126953125,-0.6025390625,0.0136
-7.267175572519084,-10.610687022900763,-9.786259541984732,0.048828125,0.0068359375,-0.600830078125,0.0153
-7.480916030534351,-10.67175572519084,-9.465648854961833,0.05029296875,0.005859375,-0.60205078125,0.016999999999999998
-7.358778625954199,-10.473282442748092,-9.770992366412214,0.0498046875,0.0068359375,-0.59033203125,0.018699999999999998
-7.526717557251908,-10.595419847328245,-9.48091603053435,0.051513671875,0.0068359375,-0.60205078125,0.020399999999999998
-7.679389312977099,-10.67175572519084,-9.709923664122137,0.051025390625,0.010009765625,-0.598876953125,0.022099999999999998
-7.984732824427481,-10.67175572519084,-9.435114503816793,0.05224609375,0.007080078125,-0.599365234375,0.023799999999999998
-7.770992366412214,-10.442748091603054,-9.404580152671755,0.048583984375,0.008056640625,-0.59423828125,0.0255
-8.0,-10.641221374045802,-9.48091603053435,0.054931640625,0.000244140625,-0.602294921875,0.0272
-8.01526717557252,-10.595419847328245,-9.49618320610687,0.047119140625,0.011474609375,-0.598876953125,0.0289
-7.603053435114504,-10.641221374045802,-9.099236641221374,0.04833984375,0.0068359375,-0.598388671875,0.0306
-7.8320610687022905,-10.549618320610687,-9.282442748091603,0.052734375,0.0068359375,-0.6015625,0.032299999999999995
-7.877862595419847,-10.65648854961832,-9.16030534351145,0.052001953125,-0.00146484375,-0.5966796875,0.033999999999999996
-7.6183206106870225,-10.67175572519084,-9.114503816793894,0.05224609375,0.003662109375,-0.593505859375,0.035699999999999996
-7.526717557251908,-10.442748091603054,-8.687022900763358,0.049072265625,0.0087890625,-0.6015625,0.037399999999999996
-7.404580152671755,-10.595419847328245,-8.763358778625955,0.051025390625,0.009033203125,-0.592529296875,0.039099999999999996
-7.480916030534351,-10.51908396946565,-8.610687022900763,0.055419921875,0.0078125,-0.59765625,0.040799999999999996
-7.282442748091603,-10.244274809160306,-8.732824427480915,0.05517578125,0.008056640625,-0.591552734375,0.042499999999999996
-7.236641221374046,-10.213740458015268,-8.488549618320612,0.053955078125,0.01025390625,-0.596923828125,0.044199999999999996
-7.221374045801527,-10.488549618320612,-8.045801526717558,0.0517578125,0.00927734375,-0.59619140625,0.045899999999999996
-6.9465648854961835,-10.183206106870228,-7.9541984732824424,0.052734375,0.011962890625,-0.595458984375,0.047599999999999996
-7.068702290076335,-10.045801526717558,-8.076335877862595,0.051025390625,0.014404296875,-0.60107421875,0.0493
-7.068702290076335,-10.183206106870228,-7.984732824427481,0.049072265625,0.010986328125,-0.59521484375,0.051
-6.549618320610687,-10.244274809160306,-7.816793893129771,0.047607421875,0.01220703125,-0.589599609375,0.0527
-6.67175572519084,-10.13740458015267,-7.648854961832061,0.05224609375,0.01220703125,-0.59619140625,0.0544
-6.198473282442748,-10.213740458015268,-7.8320610687022905,0.054443359375,0.01025390625,-0.592041015625,0.0561
-5.9541984732824424,-10.076335877862595,-7.633587786259542,0.050537109375,0.01708984375,-0.590087890625,0.0578
-5.66412213740458,-10.061068702290076,-7.419847328244275,0.048583984375,0.010986328125,-0.5986328125,0.0595
-5.435114503816794,-10.198473282442748,-7.6183206106870225,0.052490234375,0.013916015625,-0.6025390625,0.0612
-4.961832061068702,-10.01526717557252,-7.435114503816794,0.0478515625,0.01318359375,-0.594482421875,0.0629
-4.763358778625954,-10.045801526717558,-7.587786259541985,0.052001953125,0.01708984375,-0.59765625,0.06459999999999999
-4.5038167938931295,-9.801526717557252,-7.648854961832061,0.047607421875,0.0146484375,-0.6044921875,0.0663
-4.061068702290076,-9.84732824427481,-7.374045801526718,0.04931640625,0.01708984375,-0.6025390625,0.06799999999999999
-3.969465648854962,-9.755725190839694,-7.526717557251908,0.04638671875,0.022216796875,-0.597412109375,0.0697
-3.404580152671756,-9.740458015267176,-7.404580152671755,0.048095703125,0.01708984375,-0.59423828125,0.07139999999999999
-3.5114503816793894,-9.83206106870229,-7.404580152671755,0.046142578125,0.019287109375,-0.601806640625,0.0731
-2.885496183206107,-9.557251908396946,-7.312977099236641,0.049072265625,0.01953125,-0.60205078125,0.07479999999999999
-2.4732824427480917,-9.511450381679388,-7.282442748091603,0.046875,0.02099609375,-0.5966796875,0.0765
-2.381679389312977,-9.435114503816793,-7.358778625954199,0.0537109375,0.018798828125,-0.599853515625,0.07819999999999999
-1.633587786259542,-9.236641221374045,-7.465648854961832,0.05029296875,0.022216796875,-0.60791015625,0.0799
-1.2671755725190839,-9.297709923664122,-7.312977099236641,0.048583984375,0.021728515625,-0.602783203125,0.08159999999999999
-0.916030534351145,-9.236641221374045,-7.511450381679389,0.04150390625,0.02001953125,-0.59765625,0.0833
-0.7633587786259542,-9.068702290076336,-7.1603053435114505,0.048583984375,0.02099609375,-0.5947265625,0.08499999999999999
-0.366412213740458,-9.053435114503817,-7.32824427480916,0.04345703125,0.02392578125,-0.596923828125,0.0867
0.07633587786259542,-8.900763358778626,-6.977099236641221,0.043701171875,0.023193359375,-0.593505859375,0.08839999999999999
0.732824427480916,-8.992366412213741,-6.732824427480916,0.044677734375,0.018310546875,-0.603759765625,0.0901
0.732824427480916,-8.702290076335878,-6.717557251908397,0.044189453125,0.019775390625,-0.598876953125,0.09179999999999999
1.3587786259541985,-8.534351145038167,-6.595419847328245,0.04150390625,0.018798828125,-0.591064453125,0.0935
1.9236641221374047,-8.580152671755725,-6.366412213740458,0.0478515625,0.01904296875,-0.601806640625,0.09519999999999999
1.9389312977099236,-8.580152671755725,-6.290076335877862,0.046875,0.0244140625,-0.593994140625,0.0969
2.2290076335877864,-8.290076335877863,-6.198473282442748,0.042236328125,0.021484375,-0.605224609375,0.0986
2.8244274809160306,-7.969465648854962,-6.015267175572519,0.039306640625,0.019287109375,-0.596923828125,0.1003
2.900763358778626,-8.045801526717558,-5.8320610687022905,0.04296875,0.01708984375,-0.598876953125,0.102
3.2213740458015265,-7.938931297709924,-5.740458015267175,0.04833984375,0.020263671875,-0.60400390625,0.1037
3.3893129770992365,-7.7251908396946565,-5.465648854961832,0.04150390625,0.014892578125,-0.60205078125,0.1054
3.5267175572519083,-7.404580152671755,-5.404580152671755,0.0400390625,0.015380859375,-0.601318359375,0.1071
3.3740458015267176,-7.251908396946565,-5.282442748091603,0.03759765625,0.0205078125,-0.598876953125,0.1088
3.450381679389313,-7.221374045801527,-5.206106870229007,0.0390625,0.01806640625,-0.59912109375,0.11049999999999999
3.450381679389313,-7.00763358778626,-5.129770992366412,0.041748046875,0.0126953125,-0.5986328125,0.1122
3.6030534351145036,-6.732824427480916,-5.099236641221374,0.04541015625,0.018798828125,-0.594482421875,0.11389999999999999
3.4198473282442747,-6.564885496183206,-4.885496183206107,0.046142578125,0.0126953125,-0.600830078125,0.1156
3.5267175572519083,-6.473282442748092,-4.854961832061068,0.04296875,0.009033203125,-0.6005859375,0.11729999999999999
3.7709923664122136,-6.015267175572519,-4.534351145038168,0.04296875,0.009765625,-0.60546875,0.119
3.83206106870229,-5.694656488549619,-4.534351145038168,0.038818359375,0.0068359375,-0.59375,0.12069999999999999
3.801526717557252,-5.679389312977099,-4.244274809160306,0.039306640625,0.007080078125,-0.597900390625,0.1224
3.954198473282443,-5.679389312977099,-4.213740458015267,0.04345703125,0.004150390625,-0.59521484375,0.12409999999999999
4.015267175572519,-5.32824427480916,-3.8625954198473282,0.03955078125,0.011962890625,-0.605224609375,0.1258
3.8931297709923665,-5.343511450381679,-3.816793893129771,0.04248046875,0.00390625,-0.602294921875,0.1275
3.6030534351145036,-5.00763358778626,-3.633587786259542,0.038818359375,0.005859375,-0.60693359375,0.12919999999999998
3.480916030534351,-4.8396946564885495,-3.3893129770992365,0.041015625,0.006103515625,-0.606689453125,0.1309
3.1908396946564888,-4.6106870229007635,-3.099236641221374,0.03955078125,0.01171875,-0.60400390625,0.1326
2.931297709923664,-4.564885496183206,-3.0381679389312977,0.0419921875,0.007080078125,-0.604736328125,0.1343
2.885496183206107,-4.3816793893129775,-2.8091603053435112,0.03955078125,0.005615234375,-0.605224609375,0.13599999999999998
2.595419847328244,-4.488549618320611,-2.687022900763359,0.03564453125,0.005859375,-0.60595703125,0.1377
2.2595419847328246,-4.122137404580153,-2.4885496183206106,0.038818359375,0.006103515625,-0.611572265625,0.1394
1.786259541984733,-4.091603053435114,-2.381679389312977,0.03515625,0.0068359375,-0.605712890625,0.1411
1.618320610687023,-3.8473282442748094,-2.33587786259542,0.03857421875,0.00439453125,-0.60205078125,0.14279999999999998
1.6488549618320612,-3.877862595419847,-2.0610687022900764,0.04541015625,0.010009765625,-0.611328125,0.1445
1.4198473282442747,-3.7099236641221376,-2.045801526717557,0.04248046875,0.0087890625,-0.597412109375,0.1462
0.9923664122137404,-3.572519083969466,-1.9083969465648856,0.044921875,0.00537109375,-0.597900390625,0.1479
0.7938931297709924,-3.633587786259542,-1.7557251908396947,0.036376953125,0.001708984375,-0.605224609375,0.14959999999999998
0.8091603053435115,-3.5877862595419847,-1.5419847328244274,0.042236328125,0.004150390625,-0.609130859375,0.1513
0.732824427480916,-3.5419847328244276,-1.4961832061068703,0.0400390625,0.0068359375,-0.607666015625,0.153
0.8244274809160306,-3.450381679389313,-1.3282442748091603,0.03955078125,0.00927734375,-0.616455078125,0.1547
0.366412213740458,-3.2213740458015265,-1.450381679389313,0.04248046875,0.00537109375,-0.619384765625,0.15639999999999998
0.4122137404580153,-3.3587786259541983,-1.3129770992366412,0.03662109375,0.01123046875,-0.612060546875,0.1581
0.33587786259541985,-3.2519083969465647,-1.5572519083969465,0.042236328125,0.01318359375,-0.601318359375,0.1598
0.15267175572519084,-3.2977099236641223,-1.3129770992366412,0.041259765625,0.015869140625,-0.60986328125,0.1615
-0.07633587786259542,-3.2213740458015265,-1.465648854961832,0.041015625,0.015380859375,-0.608154296875,0.16319999999999998
0.16793893129770993,-2.7022900763358777,-1.2213740458015268,0.0400390625,0.014892578125,-0.61328125,0.1649
0.5648854961832062,-2.763358778625954,-1.450381679389313,0.0390625,0.015380859375,-0.606201171875,0.1666
0.366412213740458,-2.595419847328244,-1.5267175572519085,0.03759765625,0.01953125,-0.604736328125,0.16829999999999998
0.7480916030534351,-2.519083969465649,-1.7099236641221374,0.037841796875,0.021240234375,-0.605224609375,0.16999999999999998
1.3282442748091603,-2.3969465648854964,-1.633587786259542,0.04296875,0.01904296875,-0.610107421875,0.1717
1.5877862595419847,-2.351145038167939,-1.6488549618320612,0.031982421875,0.015380859375,-0.61279296875,0.1734
1.6793893129770991,-1.984732824427481,-1.816793893129771,0.0341796875,0.02294921875,-0.613525390625,0.17509999999999998
2.3206106870229006,-2.045801526717557,-1.8931297709923665,0.03271484375,0.025390625,-0.611572265625,0.17679999999999998
2.8396946564885495,-1.83206106870229,-1.8931297709923665,0.03466796875,0.018310546875,-0.59521484375,0.1785
3.114503816793893,-1.6793893129770991,-1.9236641221374047,0.038818359375,0.028564453125,-0.603759765625,0.1802
3.312977099236641,-1.633587786259542,-1.9694656488549618,0.03564453125,0.024169921875,-0.609619140625,0.18189999999999998
3.9236641221374047,-1.1297709923664123,-1.984732824427481,0.035400390625,0.024658203125,-0.60791015625,0.18359999999999999
4.305343511450381,-0.9923664122137404,-1.9389312977099236,0.027587890625,0.0263671875,-0.61181640625,0.1853
4.763358778625954,-0.7633587786259542,-2.2442748091603053,0.0341796875,0.023681640625,-0.606689453125,0.187
5.129770992366412,-0.6870229007633588,-1.9541984732824427,0.032470703125,0.02587890625,-0.608154296875,0.18869999999999998
5.526717557251908,-0.48854961832061067,-1.9541984732824427,0.036376953125,0.026123046875,-0.61083984375,0.19039999999999999
5.7251908396946565,-0.13740458015267176,-2.213740458015267,0.03662109375,0.02197265625,-0.609130859375,0.1921
6.0458015267175576,-0.061068702290076333,-2.030534351145038,0.03759765625,0.0263671875,-0.6201171875,0.1938
6.412213740458015,0.0916030534351145,-1.786259541984733,0.037353515625,0.02197265625,-0.622802734375,0.19549999999999998
6.6106870229007635,0.183206106870229,-1.9236641221374047,0.03662109375,0.02490234375,-0.61767578125,0.1972
6.625954198473282,0.3816793893129771,-1.7404580152671756,0.04443359375,0.024169921875,-0.613037109375,0.1989
7.038167938931298,0.4580152671755725,-1.8015267175572518,0.036865234375,0.019775390625,-0.618408203125,0.2006
7.038167938931298,0.6564885496183206,-1.816793893129771,0.037353515625,0.02392578125,-0.610107421875,0.20229999999999998
6.8396946564885495,0.8244274809160306,-1.9083969465648856,0.031982421875,0.01806640625,-0.611328125,0.204
7.099236641221374,0.8549618320610687,-1.786259541984733,0.037841796875,0.020263671875,-0.604248046875,0.2057
6.778625954198473,1.0229007633587786,-1.5725190839694656,0.041748046875,0.010986328125,-0.613525390625,0.2074
7.0534351145038165,0.9465648854961832,-1.3587786259541985,0.03857421875,0.01708984375,-0.612060546875,0.20909999999999998
6.9465648854961835,1.099236641221374,-1.5267175572519085,0.04150390625,0.01171875,-0.61865234375,0.2108
6.549618320610687,1.2061068702290076,-1.4809160305343512,0.0419921875,0.015625,-0.608154296875,0.2125
6.229007633587786,0.916030534351145,-1.5877862595419847,0.0390625,0.01123046875,-0.6064453125,0.2142
5.908396946564886,0.9465648854961832,-1.3129770992366412,0.03369140625,0.01220703125,-0.60986328125,0.21589999999999998
5.847328244274809,1.2366412213740459,-1.465648854961832,0.042236328125,0.0166015625,-0.612060546875,0.2176
5.358778625954199,1.251908396946565,-1.3587786259541985,0.037841796875,0.01708984375,-0.614501953125,0.2193
4.900763358778626,1.099236641221374,-1.6030534351145038,0.04052734375,0.0146484375,-0.6142578125,0.22099999999999997
4.900763358778626,1.1145038167938932,-1.3587786259541985,0.03759765625,0.009521484375,-0.61474609375,0.22269999999999998
4.3816793893129775,1.1755725190839694,-1.4351145038167938,0.041015625,0.010986328125,-0.61865234375,0.2244
4.030534351145038,0.9618320610687023,-1.297709923664122,0.0419921875,0.0166015625,-0.619384765625,0.2261
3.8931297709923665,0.916030534351145,-1.633587786259542,0.03955078125,0.011474609375,-0.61572265625,0.22779999999999997
3.5114503816793894,1.2061068702290076,-1.5419847328244274,0.039794921875,0.010498046875,-0.61376953125,0.22949999999999998
2.946564885496183,1.297709923664122,-1.5114503816793894,0.039794921875,0.011474609375,-0.613525390625,0.2312
2.9618320610687023,1.2061068702290076,-1.6641221374045803,0.04248046875,0.013671875,-0.61865234375,0.2329
2.4885496183206106,0.9923664122137404,-1.633587786259542,0.037353515625,0.01904296875,-0.609375,0.23459999999999998
2.519083969465649,0.9770992366412213,-1.6030534351145038,0.03955078125,0.01171875,-0.610107421875,0.23629999999999998
2.0610687022900764,1.1603053435114503,-1.633587786259542,0.041015625,0.009033203125,-0.621337890625,0.238
1.5419847328244274,1.2213740458015268,-1.6641221374045803,0.031494140625,0.016357421875,-0.622314453125,0.2397
1.6641221374045803,1.099236641221374,-1.984732824427481,0.0390625,0.019287109375,-0.62060546875,0.24139999999999998
1.3435114503816794,1.2366412213740459,-2.0916030534351147,0.038818359375,0.017578125,-0.6201171875,0.24309999999999998
1.282442748091603,1.4198473282442747,-2.015267175572519,0.039794921875,0.018798828125,-0.615478515625,0.2448
0.6870229007633588,1.2213740458015268,-2.0763358778625953,0.04150390625,0.020751953125,-0.604248046875,0.2465
0.8396946564885496,1.1603053435114503,-2.519083969465649,0.039306640625,0.017333984375,-0.606201171875,0.24819999999999998
0.6717557251908397,1.1450381679389312,-2.1068702290076335,0.038330078125,0.0166015625,-0.618896484375,0.24989999999999998
0.5190839694656488,1.251908396946565,-2.3053435114503817,0.04052734375,0.023193359375,-0.6181640625,0.2516
0.7633587786259542,1.2061068702290076,-2.3053435114503817,0.03662109375,0.021484375,-0.61279296875,0.25329999999999997
0.2595419847328244,1.2213740458015268,-2.564885496183206,0.038818359375,0.019287109375,-0.607666015625,0.255
0.33587786259541985,1.5572519083969465,-2.4427480916030535,0.03662109375,0.018310546875,-0.612548828125,0.2567
0.366412213740458,1.3282442748091603,-2.7022900763358777,0.03759765625,0.020751953125,-0.616943359375,0.25839999999999996
0.24427480916030533,1.2671755725190839,-2.4885496183206106,0.035888671875,0.024658203125,-0.614013671875,0.2601
0.3969465648854962,1.3587786259541985,-2.549618320610687,0.035888671875,0.027099609375,-0.60693359375,0.2618
0.6564885496183206,1.3282442748091603,-2.549618320610687,0.041748046875,0.028076171875,-0.59912109375,0.2635
0.7022900763358778,1.2671755725190839,-2.5801526717557253,0.040283203125,0.0302734375,-0.603759765625,0.2652
0.5801526717557252,1.251908396946565,-2.3969465648854964,0.04345703125,0.025146484375,-0.622802734375,0.26689999999999997
0.5801526717557252,1.3129770992366412,-2.717557251908397,0.037353515625,0.023681640625,-0.613037109375,0.2686
0.7938931297709924,1.099236641221374,-2.549618320610687,0.0390625,0.0263671875,-0.613037109375,0.2703
0.8549618320610687,1.0381679389312977,-2.4885496183206106,0.044189453125,0.023681640625,-0.61328125,0.27199999999999996
1.0687022900763359,1.1145038167938932,-2.6106870229007635,0.043701171875,0.029052734375,-0.615234375,0.2737
1.2061068702290076,0.8702290076335878,-2.6106870229007635,0.0390625,0.027587890625,-0.612060546875,0.2754
1.099236641221374,1.0534351145038168,-2.4732824427480917,0.04052734375,0.022705078125,-0.60986328125,0.27709999999999996
1.1145038167938932,0.9618320610687023,-2.5343511450381677,0.038330078125,0.0234375,-0.62451171875,0.2788
1.3282442748091603,0.7633587786259542,-2.366412213740458,0.037841796875,0.023193359375,-0.6201171875,0.28049999999999997
1.4961832061068703,0.549618320610687,-2.5801526717557253,0.03662109375,0.0263671875,-0.615966796875,0.2822
1.6793893129770991,0.6717557251908397,-2.564885496183206,0.04296875,0.025634765625,-0.60791015625,0.2839
1.6793893129770991,0.5038167938931297,-2.595419847328244,0.044189453125,0.023193359375,-0.6064453125,0.28559999999999997
2.16793893129771,0.5343511450381679,-2.687022900763359,0.03955078125,0.024169921875,-0.6103515625,0.2873
1.9541984732824427,0.3511450381679389,-2.7480916030534353,0.037109375,0.023193359375,-0.615478515625,0.289
2.0610687022900764,0.24427480916030533,-2.732824427480916,0.0439453125,0.01708984375,-0.607177734375,0.29069999999999996
2.50381679389313,0.2595419847328244,-2.8396946564885495,0.038818359375,0.022705078125,-0.615966796875,0.2924
2.8244274809160306,0.16793893129770993,-2.8702290076335877,0.038330078125,0.023193359375,-0.616455078125,0.2941
2.4732824427480917,0.24427480916030533,-2.9923664122137406,0.03564453125,0.0234375,-0.603759765625,0.2958
2.4427480916030535,0.030534351145038167,-3.0076335877862594,0.03271484375,0.023681640625,-0.60986328125,0.2975
2.5343511450381677,0.04580152671755725,-3.1755725190839694,0.036865234375,0.02099609375,-0.611328125,0.29919999999999997
2.7022900763358777,0.16793893129770993,-3.2061068702290076,0.037353515625,0.016357421875,-0.608642578125,0.3009
2.7480916030534353,0.030534351145038167,-3.2213740458015265,0.035400390625,0.019287109375,-0.61083984375,0.3026
2.4427480916030535,0.061068702290076333,-3.3282442748091605,0.0341796875,0.015380859375,-0.61474609375,0.30429999999999996
2.3969465648854964,0.0916030534351145,-3.3282442748091605,0.039306640625,0.019775390625,-0.616455078125,0.306
2.3053435114503817,0.22900763358778625,-3.0839694656488548,0.0400390625,0.022216796875,-0.621337890625,0.3077
2.2442748091603053,0.061068702290076333,-3.0229007633587788,0.034423828125,0.019287109375,-0.6220703125,0.3094
1.7251908396946565,-0.13740458015267176,-2.9770992366412212,0.0380859375,0.01904296875,-0.614990234375,0.3111
1.3893129770992367,-0.015267175572519083,-3.145038167938931,0.037109375,0.0185546875,-0.611328125,0.31279999999999997
1.633587786259542,-0.2900763358778626,-3.099236641221374,0.033935546875,0.018310546875,-0.614990234375,0.3145
1.1755725190839694,-0.3053435114503817,-2.9618320610687023,0.0341796875,0.02294921875,-0.61083984375,0.3162
1.0687022900763359,-0.3816793893129771,-2.8702290076335877,0.03662109375,0.018310546875,-0.61767578125,0.31789999999999996
1.0534351145038168,-0.3816793893129771,-3.0839694656488548,0.039306640625,0.018798828125,-0.6201171875,0.3196
0.7480916030534351,-0.5343511450381679,-2.900763358778626,0.0380859375,0.01708984375,-0.622314453125,0.3213
0.5343511450381679,-0.3511450381679389,-3.068702290076336,0.034912109375,0.015380859375,-0.60693359375,0.323
0.6870229007633588,-0.549618320610687,-2.885496183206107,0.037841796875,0.017578125,-0.60986328125,0.3247
0.48854961832061067,-0.5648854961832062,-3.0076335877862594,0.034912109375,0.022216796875,-0.6044921875,0.32639999999999997
0.4122137404580153,-0.7175572519083969,-3.053435114503817,0.034912109375,0.017578125,-0.6064453125,0.3281
0.15267175572519084,-0.6259541984732825,-2.946564885496183,0.03564453125,0.011962890625,-0.61279296875,0.3298
0.07633587786259542,-0.7633587786259542,-2.946564885496183,0.0390625,0.01220703125,-0.615234375,0.33149999999999996
0.12213740458015267,-0.6564885496183206,-2.9618320610687023,0.03759765625,0.01708984375,-0.6142578125,0.3332
0.030534351145038167,-0.7786259541984732,-2.7022900763358777,0.039794921875,0.017333984375,-0.616455078125,0.3349
-0.13740458015267176,-0.9465648854961832,-2.854961832061069,0.0361328125,0.01611328125,-0.6181640625,0.33659999999999995
-0.2595419847328244,-1.0076335877862594,-3.0076335877862594,0.035888671875,0.0166015625,-0.602783203125,0.3383
-0.183206106870229,-1.1755725190839694,-2.7022900763358777,0.035400390625,0.023193359375,-0.615478515625,0.33999999999999997
-0.16793893129770993,-1.0687022900763359,-3.0381679389312977,0.037109375,0.017333984375,-0.61279296875,0.3417
-0.183206106870229,-1.1603053435114503,-2.9618320610687023,0.037353515625,0.0244140625,-0.611328125,0.3434
-0.2900763358778626,-1.1145038167938932,-2.8702290076335877,0.03369140625,0.024169921875,-0.612060546875,0.34509999999999996
-0.2748091603053435,-1.2366412213740459,-2.885496183206107,0.03564453125,0.02099609375,-0.608154296875,0.3468
-0.3511450381679389,-1.2671755725190839,-2.8091603053435112,0.03759765625,0.019287109375,-0.602783203125,0.3485
-0.3511450381679389,-1.1755725190839694,-3.1755725190839694,0.039306640625,0.01708984375,-0.61865234375,0.35019999999999996
-0.22900763358778625,-1.1603053435114503,-3.0229007633587788,0.035888671875,0.01806640625,-0.619140625,0.3519
-0.2595419847328244,-1.1297709923664123,-3.145038167938931,0.03759765625,0.016357421875,-0.617431640625,0.35359999999999997
-0.2748091603053435,-1.3435114503816794,-3.114503816793893,0.034423828125,0.02294921875,-0.60791015625,0.3553
-0.061068702290076333,-1.1450381679389312,-3.1297709923664123,0.033203125,0.01708984375,-0.611083984375,0.357
-0.030534351145038167,-1.3587786259541985,-3.1908396946564888,0.032470703125,0.019775390625,-0.60302734375,0.35869999999999996
0.183206106870229,-1.3587786259541985,-3.312977099236641,0.037109375,0.023193359375,-0.609375,0.3604
0.3816793893129771,-1.3740458015267176,-3.312977099236641,0.0322265625,0.020751953125,-0.60302734375,0.3621
0.2748091603053435,-1.1755725190839694,-3.114503816793893,0.03466796875,0.019775390625,-0.611328125,0.36379999999999996
0.5954198473282443,-1.3435114503816794,-3.1908396946564888,0.035888671875,0.025390625,-0.61181640625,0.3655
0.9770992366412213,-1.633587786259542,-3.2061068702290076,0.035400390625,0.023193359375,-0.60888671875,0.36719999999999997
0.8702290076335878,-1.6030534351145038,-3.053435114503817,0.036376953125,0.018798828125,-0.60986328125,0.3689
1.2671755725190839,-1.450381679389313,-3.099236641221374,0.0361328125,0.02294921875,-0.61376953125,0.3706
1.2671755725190839,-1.4961832061068703,-3.145038167938931,0.034423828125,0.020751953125,-0.606201171875,0.37229999999999996
1.083969465648855,-1.3893129770992367,-2.9770992366412212,0.034912109375,0.02001953125,-0.612548828125,0.374
1.2061068702290076,-1.6793893129770991,-2.9770992366412212,0.03466796875,0.02294921875,-0.614013671875,0.3757
1.0687022900763359,-1.8015267175572518,-2.9770992366412212,0.035400390625,0.01318359375,-0.60986328125,0.37739999999999996
0.9465648854961832,-1.8015267175572518,-3.0076335877862594,0.032470703125,0.015380859375,-0.60888671875,0.3791
0.7786259541984732,-1.8473282442748091,-2.946564885496183,0.031005859375,0.018798828125,-0.61328125,0.38079999999999997
0.6106870229007634,-1.8625954198473282,-2.900763358778626,0.031982421875,0.020263671875,-0.610595703125,0.38249999999999995
0.4122137404580153,-1.816793893129771,-2.9618320610687023,0.033447265625,0.013916015625,-0.608642578125,0.3842
-0.13740458015267176,-2.015267175572519,-3.0076335877862594,0.03076171875,0.01953125,-0.6015625,0.38589999999999997
-0.12213740458015267,-1.8931297709923665,-3.099236641221374,0.033935546875,0.01611328125,-0.601806640625,0.3876
-0.015267175572519083,-2.0,-3.1297709923664123,0.029052734375,0.017578125,-0.60595703125,0.3893
-0.366412213740458,-1.984732824427481,-2.9618320610687023,0.031005859375,0.017822265625,-0.60693359375,0.39099999999999996
-0.24427480916030533,-2.045801526717557,-2.9770992366412212,0.036865234375,0.01123046875,-0.61376953125,0.3927
-0.4732824427480916,-2.381679389312977,-2.9770992366412212,0.033203125,0.01171875,-0.60693359375,0.3944
-0.549618320610687,-2.564885496183206,-3.1603053435114505,0.031005859375,0.0107421875,-0.611083984375,0.39609999999999995
-0.42748091603053434,-2.3969465648854964,-3.282442748091603,0.031982421875,0.009521484375,-0.608154296875,0.3978
-0.3816793893129771,-2.4732824427480917,-3.236641221374046,0.03466796875,0.0087890625,-0.609375,0.39949999999999997
-0.42748091603053434,-2.6106870229007635,-3.2061068702290076,0.038330078125,0.010498046875,-0.605712890625,0.4012
-0.04580152671755725,-2.5343511450381677,-3.2213740458015265,0.039306640625,0.015380859375,-0.607666015625,0.4029
-0.4580152671755725,-2.6259541984732824,-3.236641221374046,0.033447265625,0.01220703125,-0.611083984375,0.40459999999999996
-0.42748091603053434,-2.6564885496183206,-3.3740458015267176,0.034912109375,0.016845703125,-0.60400390625,0.4063
-0.4580152671755725,-2.7938931297709924,-3.3587786259541983,0.03076171875,0.01904296875,-0.600830078125,0.408
-0.5343511450381679,-2.8396946564885495,-3.480916030534351,0.03369140625,0.0166015625,-0.6083984375,0.40969999999999995
-0.7480916030534351,-2.885496183206107,-3.3587786259541983,0.02978515625,0.011474609375,-0.605224609375,0.4114
-1.099236641221374,-2.9160305343511452,-3.5114503816793894,0.03515625,0.013916015625,-0.605224609375,0.41309999999999997
-1.297709923664122,-3.267175572519084,-3.5114503816793894,0.03125,0.0166015625,-0.599609375,0.4148
-1.5419847328244274,-3.053435114503817,-3.816793893129771,0.032470703125,0.010986328125,-0.61279296875,0.4165
-1.5267175572519085,-3.0839694656488548,-3.480916030534351,0.03369140625,0.017333984375,-0.610107421875,0.41819999999999996
-2.0763358778625953,-3.267175572519084,-3.7251908396946565,0.02880859375,0.01806640625,-0.609619140625,0.4199
-1.984732824427481,-3.068702290076336,-3.6793893129770994,0.03271484375,0.017822265625,-0.607421875,0.4216
-2.0610687022900764,-3.1297709923664123,-3.969465648854962,0.033935546875,0.018310546875,-0.61181640625,0.42329999999999995
-2.015267175572519,-3.282442748091603,-4.0,0.0302734375,0.017578125,-0.6083984375,0.425
-2.122137404580153,-3.114503816793893,-3.786259541984733,0.02978515625,0.0185546875,-0.605712890625,0.42669999999999997
-2.1526717557251906,-3.1297709923664123,-3.9083969465648853,0.0361328125,0.018310546875,-0.6064453125,0.4284
-2.3053435114503817,-3.267175572519084,-4.030534351145038,0.035888671875,0.01171875,-0.6064453125,0.4301
-2.0916030534351147,-3.450381679389313,-3.877862595419847,0.033447265625,0.01123046875,-0.605224609375,0.43179999999999996
-1.816793893129771,-3.282442748091603,-4.0,0.03515625,0.020751953125,-0.61279296875,0.4335
-1.8778625954198473,-3.3282442748091605,-3.7251908396946565,0.0341796875,0.0185546875,-0.612060546875,0.4352
-1.83206106870229,-3.5419847328244276,-3.7404580152671754,0.036376953125,0.015625,-0.60693359375,0.43689999999999996
-1.6488549618320612,-3.404580152671756,-3.633587786259542,0.03662109375,0.017578125,-0.608642578125,0.4386
-1.6641221374045803,-3.5114503816793894,-3.7404580152671754,0.03173828125,0.02392578125,-0.60498046875,0.44029999999999997
-1.6641221374045803,-3.6793893129770994,-3.7404580152671754,0.0341796875,0.02001953125,-0.607177734375,0.44199999999999995
-1.3740458015267176,-3.801526717557252,-3.3893129770992365,0.037353515625,0.023681640625,-0.60595703125,0.4437
-1.5419847328244274,-3.816793893129771,-3.2977099236641223,0.0283203125,0.02001953125,-0.607177734375,0.44539999999999996
-1.5419847328244274,-3.618320610687023,-3.312977099236641,0.032470703125,0.024169921875,-0.6044921875,0.4471
-1.3740458015267176,-3.984732824427481,-3.2213740458015265,0.032470703125,0.018310546875,-0.607421875,0.4488
-1.4045801526717556,-4.061068702290076,-3.5114503816793894,0.03564453125,0.01611328125,-0.606201171875,0.45049999999999996
-1.3435114503816794,-3.9083969465648853,-3.3587786259541983,0.03076171875,0.017333984375,-0.603271484375,0.4522
-1.1145038167938932,-3.83206106870229,-3.2519083969465647,0.03125,0.022705078125,-0.603759765625,0.45389999999999997
-1.1755725190839694,-3.49618320610687,-3.2061068702290076,0.028564453125,0.015869140625,-0.60302734375,0.45559999999999995
-1.282442748091603,-3.8931297709923665,-3.2977099236641223,0.0302734375,0.017822265625,-0.609619140625,0.4573
-1.1755725190839694,-3.816793893129771,-3.267175572519084,0.03271484375,0.0205078125,-0.607421875,0.45899999999999996
-1.3740458015267176,-3.3435114503816794,-3.3893129770992365,0.029052734375,0.018310546875,-0.60986328125,0.4607
-1.465648854961832,-3.3740458015267176,-3.1908396946564888,0.032958984375,0.02197265625,-0.610107421875,0.4624
-1.465648854961832,-3.618320610687023,-3.282442748091603,0.029296875,0.011474609375,-0.613525390625,0.46409999999999996
-1.2213740458015268,-3.5114503816793894,-3.3740458015267176,0.03125,0.018310546875,-0.615478515625,0.4658
-1.4045801526717556,-3.450381679389313,-3.5267175572519083,0.030517578125,0.019287109375,-0.60595703125,0.46749999999999997
-1.2366412213740459,-3.3282442748091605,-3.099236641221374,0.033203125,0.014404296875,-0.611083984375,0.46919999999999995
-1.3587786259541985,-3.1755725190839694,-3.2977099236641223,0.03173828125,0.018310546875,-0.61474609375,0.4709
-1.083969465648855,-3.3740458015267176,-3.236641221374046,0.031005859375,0.01611328125,-0.60595703125,0.47259999999999996
-1.099236641221374,-3.49618320610687,-3.3282442748091605,0.0302734375,0.018798828125,-0.596923828125,0.4743
-1.282442748091603,-3.2977099236641223,-3.0076335877862594,0.03173828125,0.015380859375,-0.602294921875,0.476
-1.2061068702290076,-3.099236641221374,-3.2977099236641223,0.031982421875,0.017333984375,-0.617431640625,0.47769999999999996
-1.3740458015267176,-2.900763358778626,-3.068702290076336,0.030517578125,0.01123046875,-0.604248046875,0.4794
-1.282442748091603,-2.946564885496183,-3.0381679389312977,0.03369140625,0.01904296875,-0.616943359375,0.48109999999999997
-1.1755725190839694,-2.900763358778626,-3.053435114503817,0.03369140625,0.017578125,-0.61279296875,0.48279999999999995
-0.9618320610687023,-2.931297709923664,-2.946564885496183,0.03076171875,0.01318359375,-0.609130859375,0.4845
-1.1450381679389312,-3.0839694656488548,-2.564885496183206,0.03369140625,0.014404296875,-0.6083984375,0.48619999999999997
-1.2213740458015268,-2.9160305343511452,-2.8396946564885495,0.028076171875,0.01220703125,-0.60498046875,0.4879
-1.3129770992366412,-2.8244274809160306,-2.7938931297709924,0.02880859375,0.018798828125,-0.61376953125,0.4896
-0.8702290076335878,-2.7938931297709924,-2.6259541984732824,0.0302734375,0.00830078125,-0.61279296875,0.49129999999999996
-1.099236641221374,-2.519083969465649,-2.381679389312977,0.029296875,0.010986328125,-0.6005859375,0.493
-1.2366412213740459,-2.5801526717557253,-2.732824427480916,0.0283203125,0.01416015625,-0.60302734375,0.4947
-1.0381679389312977,-2.6564885496183206,-2.5343511450381677,0.030517578125,0.015380859375,-0.599609375,0.49639999999999995
-1.2061068702290076,-2.5801526717557253,-2.687022900763359,0.028076171875,0.01806640625,-0.60888671875,0.4981
-1.0534351145038168,-2.3053435114503817,-2.5801526717557253,0.02880859375,0.018310546875,-0.59619140625,0.49979999999999997
-0.9465648854961832,-2.030534351145038,-2.6412213740458017,0.03076171875,0.010498046875,-0.6044921875,0.5015
-1.083969465648855,-2.1374045801526718,-2.6412213740458017,0.029052734375,0.02001953125,-0.6103515625,0.5032
-1.1297709923664123,-1.8778625954198473,-2.519083969465649,0.02490234375,0.0205078125,-0.610595703125,0.5049
-0.916030534351145,-1.984732824427481,-2.3206106870229006,0.031494140625,0.018310546875,-0.6083984375,0.5065999999999999
-1.1908396946564885,-1.8625954198473282,-2.351145038167939,0.033447265625,0.013916015625,-0.613525390625,0.5083
-0.9312977099236641,-1.9389312977099236,-2.030534351145038,0.030517578125,0.014404296875,-0.605224609375,0.51
-0.7786259541984732,-1.618320610687023,-2.0610687022900764,0.029541015625,0.0146484375,-0.60595703125,0.5116999999999999
-0.8549618320610687,-1.6946564885496183,-2.0763358778625953,0.031005859375,0.01708984375,-0.59912109375,0.5134
-0.7938931297709924,-1.618320610687023,-2.2442748091603053,0.029052734375,0.020263671875,-0.598876953125,0.5151
-0.7633587786259542,-1.633587786259542,-1.7404580152671756,0.03076171875,0.013916015625,-0.598388671875,0.5167999999999999
-0.6870229007633588,-1.6488549618320612,-1.7099236641221374,0.026123046875,0.01708984375,-0.6015625,0.5185
-0.5648854961832062,-1.6488549618320612,-1.6488549618320612,0.030029296875,0.02099609375,-0.60107421875,0.5202
-0.6717557251908397,-1.6641221374045803,-1.816793893129771,0.033447265625,0.0205078125,-0.601806640625,0.5218999999999999
-0.9312977099236641,-1.7251908396946565,-1.7557251908396947,0.029296875,0.02099609375,-0.60205078125,0.5236
-0.5648854961832062,-1.7099236641221374,-1.5725190839694656,0.027099609375,0.013427734375,-0.607177734375,0.5253
-0.9465648854961832,-1.6488549618320612,-1.6030534351145038,0.029541015625,0.02001953125,-0.61376953125,0.527
-1.0229007633587786,-1.5572519083969465,-1.7251908396946565,0.02392578125,0.017822265625,-0.610595703125,0.5287
-0.9923664122137404,-1.5419847328244274,-1.7404580152671756,0.02685546875,0.02197265625,-0.61279296875,0.5304
-0.8549618320610687,-1.6793893129770991,-1.5267175572519085,0.027587890625,0.023193359375,-0.60888671875,0.5321
-1.1908396946564885,-1.5725190839694656,-1.5267175572519085,0.025634765625,0.021484375,-0.611083984375,0.5337999999999999
-1.2671755725190839,-1.5267175572519085,-1.7404580152671756,0.02685546875,0.027099609375,-0.625,0.5355
-1.1908396946564885,-1.5419847328244274,-1.7557251908396947,0.02978515625,0.029296875,-0.620849609375,0.5372
-1.4961832061068703,-1.6793893129770991,-1.9083969465648856,0.026611328125,0.02490234375,-0.610107421875,0.5388999999999999
-1.5877862595419847,-1.5419847328244274,-2.0610687022900764,0.03076171875,0.023681640625,-0.618896484375,0.5406
-1.4045801526717556,-1.6641221374045803,-1.816793893129771,0.028564453125,0.024169921875,-0.620849609375,0.5423
-1.5419847328244274,-1.8625954198473282,-1.9694656488549618,0.0244140625,0.02392578125,-0.61328125,0.5439999999999999
-1.8473282442748091,-1.83206106870229,-2.16793893129771,0.024658203125,0.027587890625,-0.612548828125,0.5457
-2.122137404580153,-1.984732824427481,-2.2290076335877864,0.0234375,0.021484375,-0.609375,0.5474
-2.122137404580153,-2.0916030534351147,-2.381679389312977,0.021728515625,0.0283203125,-0.611328125,0.5490999999999999
-2.2290076335877864,-1.9541984732824427,-2.351145038167939,0.023681640625,0.0302734375,-0.611572265625,0.5508
-2.4122137404580153,-2.16793893129771,-2.3053435114503817,0.02880859375,0.0244140625,-0.618896484375,0.5525
-2.351145038167939,-2.1068702290076335,-2.717557251908397,0.0263671875,0.0234375,-0.617431640625,0.5541999999999999
-2.50381679389313,-2.2900763358778624,-2.4427480916030535,0.02490234375,0.027099609375,-0.614501953125,0.5559
-2.854961832061069,-2.33587786259542,-2.595419847328244,0.0263671875,0.03369140625,-0.6162109375,0.5576
-2.564885496183206,-2.2900763358778624,-2.6106870229007635,0.027099609375,0.028564453125,-0.61767578125,0.5593
-2.885496183206107,-2.427480916030534,-2.7480916030534353,0.026611328125,0.025634765625,-0.619873046875,0.5609999999999999
-3.0229007633587788,-2.2595419847328246,-2.9618320610687023,0.029296875,0.03271484375,-0.617431640625,0.5627
-3.053435114503817,-2.4580152671755724,-2.7786259541984735,0.031494140625,0.03125,-0.61328125,0.5644
-3.236641221374046,-2.6259541984732824,-2.7022900763358777,0.029052734375,0.033447265625,-0.6201171875,0.5660999999999999
-3.480916030534351,-2.6412213740458017,-3.068702290076336,0.029296875,0.0283203125,-0.608642578125,0.5678
-3.618320610687023,-2.4885496183206106,-2.7938931297709924,0.02880859375,0.032470703125,-0.620361328125,0.5695
-3.572519083969466,-2.6564885496183206,-2.931297709923664,0.032958984375,0.031982421875,-0.622802734375,0.5711999999999999
-4.0458015267175576,-2.763358778625954,-2.931297709923664,0.029052734375,0.03076171875,-0.62158203125,0.5729
-4.1679389312977095,-2.9618320610687023,-2.9160305343511452,0.029052734375,0.037109375,-0.61376953125,0.5746
-4.198473282442748,-2.9160305343511452,-2.7786259541984735,0.02587890625,0.031494140625,-0.6171875,0.5762999999999999
-4.396946564885496,-3.145038167938931,-2.717557251908397,0.027099609375,0.031982421875,-0.6220703125,0.578
-4.717557251908397,-3.2519083969465647,-2.6717557251908395,0.028564453125,0.031494140625,-0.6142578125,0.5797
-4.977099236641221,-3.4656488549618323,-2.6259541984732824,0.026123046875,0.0361328125,-0.611328125,0.5813999999999999
-5.480916030534351,-3.5419847328244276,-2.763358778625954,0.031494140625,0.031494140625,-0.610595703125,0.5831
-5.740458015267175,-3.5877862595419847,-2.519083969465649,0.032958984375,0.035888671875,-0.624755859375,0.5848
-5.908396946564886,-3.8473282442748094,-2.366412213740458,0.036865234375,0.02880859375,-0.615966796875,0.5865
-6.244274809160306,-4.152671755725191,-2.595419847328244,0.03076171875,0.0322265625,-0.6201171875,0.5882
-6.656488549618321,-4.458015267175573,-2.5343511450381677,0.03369140625,0.031494140625,-0.61962890625,0.5899
-6.900763358778626,-4.5038167938931295,-2.687022900763359,0.037353515625,0.035400390625,-0.623291015625,0.5916
-7.282442748091603,-4.931297709923665,-2.564885496183206,0.037841796875,0.03515625,-0.61083984375,0.5932999999999999
-7.450381679389313,-5.221374045801527,-2.732824427480916,0.039306640625,0.03173828125,-0.61279296875,0.595
-7.8320610687022905,-5.450381679389313,-2.7938931297709924,0.03466796875,0.03466796875,-0.6142578125,0.5967
-8.122137404580153,-5.862595419847328,-3.0076335877862594,0.0380859375,0.033447265625,-0.615966796875,0.5983999999999999
-8.564885496183207,-6.1679389312977095,-2.9618320610687023,0.032470703125,0.031982421875,-0.619384765625,0.6001
-8.870229007633588,-6.458015267175573,-3.282442748091603,0.034423828125,0.035400390625,-0.615966796875,0.6018
-8.977099236641221,-6.809160305343512,-3.282442748091603,0.03955078125,0.033447265625,-0.633056640625,0.6034999999999999
-9.267175572519085,-7.1603053435114505,-3.404580152671756,0.034423828125,0.0302734375,-0.624755859375,0.6052
-9.267175572519085,-7.526717557251908,-3.1755725190839694,0.0322265625,0.035888671875,-0.62158203125,0.6069
-9.572519083969466,-7.694656488549619,-3.633587786259542,0.0322265625,0.036376953125,-0.623046875,0.6085999999999999
-9.587786259541986,-7.893129770992366,-3.7251908396946565,0.029296875,0.04052734375,-0.632080078125,0.6103
-9.969465648854962,-8.320610687022901,-3.7709923664122136,0.033203125,0.035888671875,-0.621826171875,0.612
-9.98473282442748,-8.351145038167939,-3.8473282442748094,0.03173828125,0.0341796875,-0.61865234375,0.6136999999999999
-9.86259541984733,-8.946564885496183,-3.984732824427481,0.029052734375,0.0380859375,-0.628662109375,0.6154
-9.908396946564885,-9.221374045801527,-4.030534351145038,0.02880859375,0.03759765625,-0.61962890625,0.6171
-9.83206106870229,-9.297709923664122,-4.061068702290076,0.029052734375,0.040771484375,-0.620361328125,0.6188
-10.030534351145038,-9.694656488549619,-4.229007633587786,0.024658203125,0.03515625,-0.62353515625,0.6204999999999999
-9.938931297709924,-9.557251908396946,-4.351145038167939,0.026123046875,0.0380859375,-0.621826171875,0.6222
-9.83206106870229,-9.84732824427481,-4.442748091603053,0.02197265625,0.0419921875,-0.623046875,0.6239
-9.770992366412214,-10.106870229007633,-4.519083969465649,0.01806640625,0.04052734375,-0.62744140625,0.6255999999999999
-9.893129770992367,-10.229007633587786,-4.488549618320611,0.021484375,0.03857421875,-0.626708984375,0.6273
-9.679389312977099,-10.442748091603054,-4.931297709923665,0.01904296875,0.0439453125,-0.62060546875,0.629
-9.618320610687023,-10.396946564885496,-5.114503816793893,0.01708984375,0.046142578125,-0.62548828125,0.6306999999999999
-9.893129770992367,-10.641221374045802,-5.099236641221374,0.01611328125,0.0478515625,-0.627197265625,0.6324
-10.183206106870228,-10.641221374045802,-5.267175572519084,0.019287109375,0.04541015625,-0.62109375,0.6341
-10.030534351145038,-10.854961832061068,-5.3893129770992365,0.0166015625,0.04736328125,-0.622802734375,0.6357999999999999
-10.16793893129771,-10.793893129770993,-5.419847328244275,0.0205078125,0.050048828125,-0.624755859375,0.6375
-10.274809160305344,-11.114503816793894,-5.969465648854962,0.01953125,0.046630859375,-0.616943359375,0.6392
-10.106870229007633,-11.145038167938932,-5.740458015267175,0.020751953125,0.0390625,-0.6171875,0.6408999999999999
-10.122137404580153,-11.34351145038168,-6.0,0.01953125,0.044677734375,-0.629150390625,0.6426
-10.183206106870228,-11.511450381679388,-6.030534351145038,0.0166015625,0.042724609375,-0.625244140625,0.6443
-10.122137404580153,-11.633587786259541,-6.396946564885496,0.017333984375,0.044189453125,-0.621337890625,0.646
-10.030534351145038,-11.694656488549619,-6.351145038167939,0.012451171875,0.041259765625,-0.616455078125,0.6476999999999999
-9.801526717557252,-12.061068702290076,-6.625954198473282,0.01806640625,0.040283203125,-0.613037109375,0.6494
-9.816793893129772,-12.396946564885496,-6.580152671755725,0.0224609375,0.037841796875,-0.621826171875,0.6511
-9.587786259541986,-12.290076335877863,-6.916030534351145,0.022705078125,0.037353515625,-0.6240234375,0.6527999999999999
-9.541984732824428,-12.381679389312977,-6.916030534351145,0.021240234375,0.03369140625,-0.6142578125,0.6545
-9.389312977099237,-12.854961832061068,-7.00763358778626,0.019775390625,0.034912109375,-0.61328125,0.6562
-9.389312977099237,-12.961832061068701,-7.175572519083969,0.01904296875,0.038818359375,-0.621337890625,0.6578999999999999
-9.404580152671755,-12.961832061068701,-7.358778625954199,0.017822265625,0.03759765625,-0.61865234375,0.6596
-9.282442748091603,-13.251908396946565,-7.129770992366412,0.017333984375,0.040283203125,-0.6123046875,0.6613
-9.251908396946565,-13.419847328244275,-7.419847328244275,0.02197265625,0.03515625,-0.611572265625,0.6629999999999999
-9.282442748091603,-13.648854961832061,-7.267175572519084,0.019775390625,0.031494140625,-0.6103515625,0.6647
-9.389312977099237,-13.770992366412214,-7.374045801526718,0.02001953125,0.03466796875,-0.618896484375,0.6664
-9.389312977099237,-13.740458015267176,-7.32824427480916,0.017822265625,0.037109375,-0.61083984375,0.6680999999999999
-9.404580152671755,-14.305343511450381,-7.526717557251908,0.0126953125,0.03125,-0.613525390625,0.6698
-9.755725190839694,-14.351145038167939,-7.282442748091603,0.01611328125,0.02783203125,-0.6123046875,0.6715
-9.740458015267176,-14.50381679389313,-7.3893129770992365,0.014892578125,0.028564453125,-0.607177734375,0.6731999999999999
-9.938931297709924,-14.595419847328245,-7.3893129770992365,0.01904296875,0.030029296875,-0.60986328125,0.6748999999999999
-10.259541984732824,-14.641221374045802,-7.221374045801527,0.01416015625,0.035888671875,-0.605224609375,0.6766
-10.15267175572519,-14.793893129770993,-7.312977099236641,0.0185546875,0.02978515625,-0.60400390625,0.6783
-10.580152671755725,-14.732824427480915,-7.358778625954199,0.018310546875,0.025146484375,-0.603515625,0.6799999999999999
-10.854961832061068,-15.022900763358779,-7.236641221374046,0.01416015625,0.02392578125,-0.60791015625,0.6817
-10.870229007633588,-15.053435114503817,-7.175572519083969,0.011962890625,0.020751953125,-0.603271484375,0.6834
-11.038167938931299,-15.206106870229007,-7.297709923664122,0.012939453125,0.0244140625,-0.607421875,0.6850999999999999
-11.267175572519085,-15.312977099236642,-7.206106870229007,0.015380859375,0.021728515625,-0.603759765625,0.6868
-11.34351145038168,-15.16030534351145,-7.068702290076335,0.014892578125,0.021728515625,-0.6064453125,0.6885
-11.633587786259541,-15.17557251908397,-7.00763358778626,0.01220703125,0.02099609375,-0.606689453125,0.6901999999999999
-11.816793893129772,-14.992366412213741,-7.00763358778626,0.013916015625,0.01953125,-0.596923828125,0.6919
-11.709923664122137,-14.870229007633588,-6.900763358778626,0.015625,0.024169921875,-0.603271484375,0.6936
-11.86259541984733,-14.854961832061068,-6.870229007633588,0.010498046875,0.024658203125,-0.614013671875,0.6952999999999999
-11.98473282442748,-14.702290076335878,-6.732824427480916,0.010009765625,0.02099609375,-0.604736328125,0.697
-12.0,-14.687022900763358,-6.885496183206107,0.0009765625,0.017822265625,-0.607666015625,0.6987
-12.16793893129771,-14.641221374045802,-6.885496183206107,0.008056640625,0.021240234375,-0.603271484375,0.7003999999999999
-12.13740458015267,-14.366412213740459,-6.564885496183206,0.006103515625,0.021728515625,-0.60498046875,0.7021
-12.213740458015268,-14.259541984732824,-6.564885496183206,0.010986328125,0.01953125,-0.6064453125,0.7038
-12.274809160305344,-14.091603053435115,-6.427480916030534,0.012451171875,0.02197265625,-0.610595703125,0.7055
-12.381679389312977,-13.893129770992367,-6.3816793893129775,0.007080078125,0.02392578125,-0.604736328125,0.7071999999999999
-12.396946564885496,-13.648854961832061,-6.320610687022901,0.0107421875,0.023681640625,-0.595947265625,0.7089
-12.045801526717558,-13.48091603053435,-6.290076335877862,0.010009765625,0.028076171875,-0.605712890625,0.7106
-12.091603053435115,-13.435114503816793,-6.076335877862595,0.00341796875,0.0322265625,-0.596923828125,0.7122999999999999
-11.755725190839694,-13.206106870229007,-6.061068702290076,0.005615234375,0.0224609375,-0.603759765625,0.714
-11.84732824427481,-13.038167938931299,-6.122137404580153,0.004150390625,0.02197265625,-0.60009765625,0.7157
-11.786259541984732,-12.83969465648855,-5.740458015267175,0.0048828125,0.019775390625,-0.59326171875,0.7173999999999999
-11.633587786259541,-12.549618320610687,-5.847328244274809,0.007080078125,0.024169921875,-0.595458984375,0.7191
-11.17557251908397,-12.732824427480915,-5.786259541984733,0.009765625,0.01611328125,-0.600830078125,0.7208
-10.961832061068701,-12.335877862595419,-5.786259541984733,0.008056640625,0.01953125,-0.6044921875,0.7224999999999999
-10.82442748091603,-12.183206106870228,-5.709923664122138,0.005126953125,0.018798828125,-0.598388671875,0.7242
-10.595419847328245,-12.13740458015267,-5.633587786259542,0.0078125,0.02734375,-0.596923828125,0.7259
-10.549618320610687,-11.969465648854962,-5.587786259541985,0.005126953125,0.027587890625,-0.592041015625,0.7275999999999999
-10.030534351145038,-11.83206106870229,-5.603053435114504,0.004638671875,0.0244140625,-0.59619140625,0.7293
-9.84732824427481,-11.587786259541986,-5.557251908396947,0.0029296875,0.023193359375,-0.59423828125,0.731
-9.603053435114504,-11.557251908396946,-5.32824427480916,0.0029296875,0.02734375,-0.586669921875,0.7326999999999999
-9.404580152671755,-11.557251908396946,-5.419847328244275,0.001708984375,0.02880859375,-0.589599609375,0.7343999999999999
-9.16030534351145,-11.465648854961833,-5.435114503816794,0.009765625,0.02734375,-0.597900390625,0.7361
-9.099236641221374,-11.206106870229007,-5.297709923664122,0.00537109375,0.0283203125,-0.59521484375,0.7378
-8.82442748091603,-11.267175572519085,-5.190839694656488,0.005126953125,0.03076171875,-0.593994140625,0.7394999999999999
-8.763358778625955,-11.083969465648854,-5.114503816793893,0.00146484375,0.029541015625,-0.5927734375,0.7412
-8.50381679389313,-10.793893129770993,-5.312977099236641,0.007080078125,0.0234375,-0.5966796875,0.7429
-8.381679389312977,-10.778625954198473,-5.221374045801527,0.007568359375,0.022705078125,-0.594970703125,0.7445999999999999
-7.694656488549619,-10.595419847328245,-5.267175572519084,0.0078125,0.02685546875,-0.59423828125,0.7463
-7.4961832061068705,-10.50381679389313,-5.129770992366412,0.00390625,0.02587890625,-0.59228515625,0.748
-7.404580152671755,-10.534351145038167,-5.206106870229007,0.004638671875,0.024658203125,-0.590087890625,0.7496999999999999
-6.763358778625954,-10.305343511450381,-5.175572519083969,0.005126953125,0.02392578125,-0.5888671875,0.7514
-6.33587786259542,-10.16793893129771,-5.1603053435114505,0.006591796875,0.028564453125,-0.58984375,0.7531
-6.1679389312977095,-10.198473282442748,-4.809160305343512,0.00390625,0.028564453125,-0.590087890625,0.7547999999999999
-5.633587786259542,-9.938931297709924,-5.206106870229007,-0.000732421875,0.02880859375,-0.59814453125,0.7565
-5.419847328244275,-9.618320610687023,-5.145038167938932,-0.000732421875,0.0263671875,-0.59326171875,0.7582
-5.0534351145038165,-9.679389312977099,-5.221374045801527,0.004150390625,0.027587890625,-0.58837890625,0.7598999999999999
-4.732824427480916,-9.435114503816793,-5.175572519083969,0.001953125,0.025390625,-0.590087890625,0.7615999999999999
-4.549618320610687,-9.435114503816793,-5.129770992366412,0.006103515625,0.0302734375,-0.59130859375,0.7633
-4.3816793893129775,-9.251908396946565,-5.129770992366412,0.005859375,0.025634765625,-0.59521484375,0.7649999999999999
-4.3816793893129775,-9.206106870229007,-5.145038167938932,0.00537109375,0.02587890625,-0.593505859375,0.7666999999999999
-4.152671755725191,-9.404580152671755,-5.129770992366412,0.001708984375,0.0234375,-0.59765625,0.7684
-3.7709923664122136,-9.206106870229007,-5.251908396946565,0.00390625,0.024658203125,-0.60205078125,0.7701
-3.49618320610687,-9.17557251908397,-5.282442748091603,0.00244140625,0.02001953125,-0.59423828125,0.7717999999999999
-3.6793893129770994,-9.251908396946565,-5.404580152671755,0.004638671875,0.023193359375,-0.592041015625,0.7735
-3.450381679389313,-8.885496183206106,-5.145038167938932,0.003173828125,0.026123046875,-0.5908203125,0.7752
-3.2519083969465647,-9.129770992366412,-5.312977099236641,0.00390625,0.02197265625,-0.590576171875,0.7768999999999999
-3.312977099236641,-9.083969465648854,-5.1603053435114505,0.001953125,0.027587890625,-0.593017578125,0.7786
-3.312977099236641,-9.236641221374045,-5.038167938931298,0.00146484375,0.0224609375,-0.5986328125,0.7803
-3.450381679389313,-9.511450381679388,-5.0534351145038165,0.003173828125,0.026123046875,-0.596923828125,0.7819999999999999
-3.5419847328244276,-9.358778625954198,-5.1603053435114505,0.004150390625,0.022705078125,-0.585693359375,0.7837
-3.267175572519084,-9.435114503816793,-4.8396946564885495,0.00244140625,0.021728515625,-0.58740234375,0.7854
-3.2977099236641223,-9.450381679389313,-5.00763358778626,0.010009765625,0.022705078125,-0.58837890625,0.7870999999999999
-3.450381679389313,-9.435114503816793,-4.900763358778626,0.0107421875,0.017578125,-0.5810546875,0.7888
-3.49618320610687,-9.49618320610687,-4.809160305343512,0.0009765625,0.0263671875,-0.59326171875,0.7905
-3.099236641221374,-9.603053435114504,-4.778625954198473,0.006103515625,0.021484375,-0.592529296875,0.7921999999999999
-3.2061068702290076,-9.419847328244275,-4.549618320610687,0.001220703125,0.024169921875,-0.5947265625,0.7938999999999999
-3.404580152671756,-9.526717557251908,-4.488549618320611,0.00341796875,0.01708984375,-0.58154296875,0.7956
-3.0381679389312977,-9.648854961832061,-4.290076335877862,0.000732421875,0.02783203125,-0.593017578125,0.7973
-3.0229007633587788,-9.557251908396946,-4.259541984732825,-0.000244140625,0.0224609375,-0.595458984375,0.7989999999999999
-2.9923664122137406,-9.557251908396946,-4.305343511450381,0.00634765625,0.02197265625,-0.59521484375,0.8007
-2.9618320610687023,-9.34351145038168,-4.122137404580153,-0.001220703125,0.024658203125,-0.5927734375,0.8024
-3.114503816793893,-9.465648854961833,-4.290076335877862,0.004150390625,0.023681640625,-0.5869140625,0.8040999999999999
-2.885496183206107,-9.251908396946565,-3.8931297709923665,0.00390625,0.026611328125,-0.59423828125,0.8058
-2.717557251908397,-9.282442748091603,-4.015267175572519,0.002197265625,0.025390625,-0.587890625,0.8075
-3.0229007633587788,-9.068702290076336,-3.969465648854962,0.004638671875,0.035400390625,-0.587646484375,0.8091999999999999
-3.0229007633587788,-8.977099236641221,-3.8931297709923665,0.00341796875,0.02880859375,-0.586181640625,0.8109
-2.931297709923664,-9.038167938931299,-3.83206106870229,0.00244140625,0.029541015625,-0.58837890625,0.8126
-3.099236641221374,-8.977099236641221,-3.786259541984733,0.00390625,0.029296875,-0.591796875,0.8142999999999999
-2.9618320610687023,-8.687022900763358,-3.5572519083969465,0.002685546875,0.02978515625,-0.592041015625,0.816
-3.236641221374046,-8.564885496183207,-3.9389312977099236,0.001953125,0.031005859375,-0.593505859375,0.8177
-3.1755725190839694,-8.564885496183207,-3.8625954198473282,0.00732421875,0.03466796875,-0.590576171875,0.8193999999999999
-3.3282442748091605,-8.274809160305344,-4.0,0.0068359375,0.035400390625,-0.590576171875,0.8210999999999999
-3.49618320610687,-7.969465648854962,-3.633587786259542,0.005126953125,0.029541015625,-0.579833984375,0.8228
-3.145038167938931,-8.076335877862595,-3.6946564885496183,0.00439453125,0.036865234375,-0.597412109375,0.8244999999999999
-3.1755725190839694,-7.938931297709924,-3.6030534351145036,0.00537109375,0.040283203125,-0.585205078125,0.8261999999999999
-3.2519083969465647,-7.786259541984733,-3.572519083969466,0.002685546875,0.03857421875,-0.588623046875,0.8279
-2.9618320610687023,-7.755725190839694,-3.1297709923664123,0.005126953125,0.035400390625,-0.590576171875,0.8296
-3.0839694656488548,-7.66412213740458,-3.099236641221374,0.008056640625,0.02880859375,-0.59423828125,0.8312999999999999
-3.0381679389312977,-7.572519083969466,-3.1908396946564888,0.003173828125,0.03662109375,-0.5947265625,0.833
-2.717557251908397,-7.526717557251908,-3.3282442748091605,0.00634765625,0.033447265625,-0.591064453125,0.8347
-2.351145038167939,-7.236641221374046,-3.0229007633587788,0.004150390625,0.03271484375,-0.59033203125,0.8363999999999999
-2.3206106870229006,-7.221374045801527,-2.946564885496183,0.009765625,0.034423828125,-0.59228515625,0.8381
-2.1068702290076335,-7.038167938931298,-2.732824427480916,0.0068359375,0.03076171875,-0.59521484375,0.8398
-1.8625954198473282,-6.870229007633588,-2.8091603053435112,0.004150390625,0.03125,-0.59521484375,0.8414999999999999
-1.3587786259541985,-6.595419847328245,-2.6106870229007635,0.01318359375,0.035400390625,-0.59033203125,0.8432
-1.282442748091603,-6.458015267175573,-2.8091603053435112,0.00439453125,0.035400390625,-0.59619140625,0.8449
-1.0076335877862594,-6.458015267175573,-2.3969465648854964,0.00634765625,0.031982421875,-0.593017578125,0.8465999999999999
-0.44274809160305345,-6.259541984732825,-2.5343511450381677,0.006591796875,0.03662109375,-0.585205078125,0.8482999999999999
-0.183206106870229,-6.2748091603053435,-2.381679389312977,0.01025390625,0.036865234375,-0.5966796875,0.85
-0.1984732824427481,-6.229007633587786,-2.366412213740458,0.015380859375,0.0361328125,-0.591552734375,0.8516999999999999
0.3511450381679389,-5.923664122137405,-2.1374045801526718,0.01123046875,0.034912109375,-0.593994140625,0.8533999999999999
0.6259541984732825,-5.755725190839694,-2.16793893129771,0.009521484375,0.032470703125,-0.593017578125,0.8551
0.6717557251908397,-5.7251908396946565,-1.8015267175572518,0.0078125,0.03564453125,-0.592041015625,0.8568
1.0381679389312977,-5.847328244274809,-1.9389312977099236,0.0068359375,0.033203125,-0.591552734375,0.8584999999999999
1.1603053435114503,-5.740458015267175,-1.7099236641221374,0.009521484375,0.035888671875,-0.59619140625,0.8602
1.3282442748091603,-5.572519083969466,-1.7709923664122138,0.005615234375,0.0361328125,-0.595458984375,0.8619
1.5267175572519085,-5.480916030534351,-1.6641221374045803,0.01171875,0.0439453125,-0.5966796875,0.8635999999999999
1.6488549618320612,-5.511450381679389,-1.4045801526717556,0.009521484375,0.038818359375,-0.59375,0.8653
1.5419847328244274,-5.3893129770992365,-1.465648854961832,0.01171875,0.041748046875,-0.5966796875,0.867
1.8931297709923665,-5.175572519083969,-1.297709923664122,0.011474609375,0.0380859375,-0.599609375,0.8686999999999999
2.0610687022900764,-5.251908396946565,-0.8702290076335878,0.01220703125,0.039306640625,-0.597412109375,0.8704
2.213740458015267,-4.885496183206107,-0.9770992366412213,0.00927734375,0.03857421875,-0.6025390625,0.8721
2.366412213740458,-5.145038167938932,-0.916030534351145,0.0107421875,0.040283203125,-0.59912109375,0.8737999999999999
2.4580152671755724,-5.022900763358779,-0.8702290076335878,0.0078125,0.036376953125,-0.596923828125,0.8755
2.4885496183206106,-4.9465648854961835,-0.6412213740458015,0.0087890625,0.0361328125,-0.588623046875,0.8772
2.8702290076335877,-4.778625954198473,-0.6717557251908397,0.0146484375,0.0380859375,-0.5888671875,0.8788999999999999
3.0839694656488548,-4.885496183206107,-0.5038167938931297,0.011962890625,0.041259765625,-0.590576171875,0.8805999999999999
3.2977099236641223,-4.687022900763359,-0.7633587786259542,0.0107421875,0.037353515625,-0.59912109375,0.8823
3.5877862595419847,-4.519083969465649,-0.48854961832061067,0.00732421875,0.037109375,-0.594482421875,0.8839999999999999
3.648854961832061,-4.3816793893129775,-0.6564885496183206,0.0087890625,0.04052734375,-0.594970703125,0.8856999999999999
4.0,-4.442748091603053,-0.6870229007633588,0.01318359375,0.04345703125,-0.59033203125,0.8874
4.015267175572519,-4.351145038167939,-0.6259541984732825,0.010009765625,0.04052734375,-0.60107421875,0.8891
4.290076335877862,-4.122137404580153,-0.5343511450381679,0.006591796875,0.039794921875,-0.6015625,0.8907999999999999
4.748091603053435,-3.9389312977099236,-0.732824427480916,0.00732421875,0.038818359375,-0.597900390625,0.8925
4.809160305343512,-3.9389312977099236,-0.5954198473282443,0.00830078125,0.04150390625,-0.598876953125,0.8942
4.977099236641221,-3.969465648854962,-0.5954198473282443,0.011474609375,0.039306640625,-0.605224609375,0.8958999999999999
5.190839694656488,-3.450381679389313,-0.7175572519083969,0.00732421875,0.04248046875,-0.599365234375,0.8976
5.786259541984733,-3.480916030534351,-0.8244274809160306,0.006591796875,0.04443359375,-0.60107421875,0.8993
6.259541984732825,-3.3282442748091605,-0.6259541984732825,0.00390625,0.04443359375,-0.598388671875,0.9009999999999999
6.061068702290076,-3.0839694656488548,-0.8854961832061069,0.011962890625,0.037109375,-0.598388671875,0.9027
6.152671755725191,-3.114503816793893,-0.8396946564885496,0.00439453125,0.041748046875,-0.605224609375,0.9044
6.351145038167939,-2.8244274809160306,-0.7786259541984732,0.008056640625,0.040283203125,-0.60595703125,0.9060999999999999
6.67175572519084,-2.8091603053435112,-0.7175572519083969,0.002197265625,0.041748046875,-0.60693359375,0.9077999999999999
6.931297709923665,-2.519083969465649,-0.7938931297709924,0.01025390625,0.0380859375,-0.602783203125,0.9095
6.99236641221374,-2.4885496183206106,-0.732824427480916,0.009765625,0.03564453125,-0.598876953125,0.9111999999999999
7.129770992366412,-2.427480916030534,-0.8702290076335878,0.006591796875,0.040283203125,-0.608642578125,0.9128999999999999
7.1603053435114505,-1.9541984732824427,-0.6870229007633588,0.004150390625,0.0380859375,-0.599365234375,0.9146
7.267175572519084,-1.83206106870229,-0.6106870229007634,0.008544921875,0.033203125,-0.59912109375,0.9163
7.312977099236641,-1.7557251908396947,-0.6564885496183206,0.007568359375,0.0400390625,-0.605224609375,0.9179999999999999
7.282442748091603,-1.450381679389313,-0.48854961832061067,0.0068359375,0.037109375,-0.6083984375,0.9197
7.480916030534351,-1.251908396946565,-0.13740458015267176,0.00634765625,0.0390625,-0.601806640625,0.9214
7.435114503816794,-1.0229007633587786,-0.3969465648854962,0.0029296875,0.03955078125,-0.599609375,0.9230999999999999
7.175572519083969,-0.8702290076335878,-0.1984732824427481,0.0068359375,0.037353515625,-0.61181640625,0.9248
7.206106870229007,-0.6870229007633588,-0.04580152671755725,0.00390625,0.03857421875,-0.611328125,0.9265
7.129770992366412,-0.48854961832061067,-0.22900763358778625,0.00341796875,0.041015625,-0.60595703125,0.9281999999999999
6.854961832061068,-0.5801526717557252,0.030534351145038167,0.003662109375,0.0361328125,-0.605224609375,0.9299
6.67175572519084,-0.42748091603053434,0.061068702290076333,0.010498046875,0.031982421875,-0.606689453125,0.9316
6.427480916030534,-0.48854961832061067,0.015267175572519083,0.0087890625,0.0361328125,-0.611328125,0.9332999999999999
6.076335877862595,-0.33587786259541985,0.24427480916030533,0.00537109375,0.03369140625,-0.6103515625,0.9349999999999999
5.9541984732824424,-0.44274809160305345,0.24427480916030533,0.011962890625,0.03857421875,-0.61279296875,0.9367
5.541984732824427,-0.2748091603053435,0.10687022900763359,0.006103515625,0.026611328125,-0.60595703125,0.9383999999999999
5.465648854961832,-0.15267175572519084,0.3511450381679389,0.0126953125,0.031982421875,-0.609619140625,0.9400999999999999
5.00763358778626,-0.6106870229007634,0.2595419847328244,0.010986328125,0.0302734375,-0.605224609375,0.9418
4.885496183206107,-0.3969465648854962,0.21374045801526717,0.01318359375,0.031005859375,-0.6123046875,0.9434999999999999
4.519083969465649,-0.3816793893129771,0.366412213740458,0.01025390625,0.0302734375,-0.609130859375,0.9451999999999999
4.366412213740458,-0.13740458015267176,0.4580152671755725,0.007080078125,0.03271484375,-0.608154296875,0.9469
4.1679389312977095,-0.2595419847328244,0.33587786259541985,0.00537109375,0.0322265625,-0.612060546875,0.9486
3.7404580152671754,-0.2595419847328244,0.3053435114503817,0.011962890625,0.035400390625,-0.6171875,0.9502999999999999
3.7404580152671754,-0.2900763358778626,0.1984732824427481,0.015625,0.03662109375,-0.61767578125,0.952
3.8625954198473282,-0.15267175572519084,0.6106870229007634,0.009521484375,0.033203125,-0.6064453125,0.9537
3.5877862595419847,-0.07633587786259542,0.24427480916030533,0.006103515625,0.03076171875,-0.61181640625,0.9553999999999999
3.435114503816794,-0.061068702290076333,0.13740458015267176,0.00439453125,0.0322265625,-0.612548828125,0.9571
3.312977099236641,-0.030534351145038167,0.10687022900763359,0.0107421875,0.037109375,-0.61181640625,0.9588
3.618320610687023,-0.061068702290076333,0.16793893129770993,0.009521484375,0.0322265625,-0.607666015625,0.9604999999999999
3.66412213740458,0.16793893129770993,0.0,0.011474609375,0.031982421875,-0.610107421875,0.9621999999999999
3.648854961832061,0.16793893129770993,-0.24427480916030533,0.00537109375,0.029296875,-0.6142578125,0.9639
3.5267175572519083,0.4122137404580153,-0.3511450381679389,0.0029296875,0.03759765625,-0.61181640625,0.9655999999999999
3.66412213740458,0.4122137404580153,-0.33587786259541985,0.00732421875,0.041259765625,-0.6201171875,0.9672999999999999
3.5267175572519083,0.3969465648854962,-0.22900763358778625,0.0029296875,0.038330078125,-0.615966796875,0.969
3.7709923664122136,0.4122137404580153,-0.42748091603053434,0.009521484375,0.04736328125,-0.61474609375,0.9706999999999999
3.6030534351145036,0.6870229007633588,-0.6259541984732825,0.009521484375,0.044189453125,-0.610595703125,0.9723999999999999
3.648854961832061,0.5801526717557252,-0.5648854961832062,0.00830078125,0.04638671875,-0.609130859375,0.9741
3.7557251908396947,0.6564885496183206,-0.732824427480916,0.00537109375,0.042236328125,-0.61767578125,0.9758
3.8625954198473282,0.7480916030534351,-0.5954198473282443,0.010498046875,0.044921875,-0.61767578125,0.9774999999999999
3.877862595419847,0.6412213740458015,-0.7022900763358778,0.00927734375,0.043212890625,-0.614990234375,0.9792
3.786259541984733,0.6259541984732825,-0.7480916030534351,0.008056640625,0.052734375,-0.610107421875,0.9809
4.076335877862595,0.9618320610687023,-0.7633587786259542,0.008056640625,0.0439453125,-0.608642578125,0.9825999999999999
3.8473282442748094,0.8244274809160306,-0.9618320610687023,0.00634765625,0.046630859375,-0.60693359375,0.9843
3.8625954198473282,0.8396946564885496,-0.916030534351145,0.003662109375,0.041259765625,-0.60009765625,0.986
4.213740458015267,0.916030534351145,-0.9007633587786259,0.006103515625,0.04296875,-0.612548828125,0.9876999999999999
4.106870229007634,0.9618320610687023,-1.0687022900763359,0.011474609375,0.039306640625,-0.615234375,0.9894
4.137404580152672,1.0076335877862594,-1.0076335877862594,0.007080078125,0.041015625,-0.609619140625,0.9911
4.3816793893129775,0.8396946564885496,-1.465648854961832,0.00537109375,0.040771484375,-0.61181640625,0.9927999999999999
4.5038167938931295,0.7480916030534351,-1.5419847328244274,0.007568359375,0.0478515625,-0.620849609375,0.9944999999999999
4.67175572519084,0.8396946564885496,-1.5114503816793894,0.008056640625,0.046142578125,-0.618896484375,0.9962
4.916030534351145,0.8396946564885496,-1.786259541984733,0.007568359375,0.044677734375,-0.619140625,0.9978999999999999
4.99236641221374,0.8091603053435115,-1.9236641221374047,0.00634765625,0.0419921875,-0.60888671875,0.9995999999999999
4.977099236641221,0.7480916030534351,-2.015267175572519,0.003173828125,0.040771484375,-0.614013671875,1.0012999999999999
5.374045801526718,0.8854961832061069,-2.198473282442748,0.009033203125,0.042724609375,-0.6142578125,1.003
5.32824427480916,0.9770992366412213,-2.0763358778625953,0.00732421875,0.041015625,-0.61572265625,1.0047
5.175572519083969,0.7633587786259542,-2.4122137404580153,0.00244140625,0.04052734375,-0.61083984375,1.0064
5.32824427480916,0.7480916030534351,-2.519083969465649,0.0029296875,0.03955078125,-0.60888671875,1.0081
5.648854961832061,0.8091603053435115,-2.381679389312977,0.0029296875,0.038330078125,-0.6181640625,1.0098
5.4961832061068705,0.7175572519083969,-2.3206106870229006,-0.000244140625,0.039794921875,-0.6181640625,1.0114999999999998
5.557251908396947,0.9770992366412213,-2.5343511450381677,0.004638671875,0.0400390625,-0.621826171875,1.0131999999999999
5.419847328244275,0.5954198473282443,-2.50381679389313,0.010009765625,0.03857421875,-0.62548828125,1.0149
5.6183206106870225,0.8244274809160306,-2.687022900763359,0.0048828125,0.038330078125,-0.622802734375,1.0166
5.4961832061068705,0.8396946564885496,-2.2900763358778624,0.005859375,0.034912109375,-0.615478515625,1.0183
5.3893129770992365,1.0229007633587786,-2.6259541984732824,0.0078125,0.037109375,-0.610107421875,1.02
5.374045801526718,0.8702290076335878,-2.717557251908397,0.010986328125,0.04248046875,-0.607421875,1.0217
5.282442748091603,0.9312977099236641,-2.6564885496183206,0.0078125,0.037109375,-0.6142578125,1.0233999999999999
5.175572519083969,0.916030534351145,-2.4580152671755724,0.005126953125,0.036376953125,-0.60986328125,1.0251
4.977099236641221,0.7022900763358778,-2.6259541984732824,0.004638671875,0.038818359375,-0.61279296875,1.0268
4.809160305343512,0.9770992366412213,-2.687022900763359,0.00439453125,0.041015625,-0.61181640625,1.0285
4.534351145038168,1.0076335877862594,-2.6717557251908395,0.007080078125,0.037353515625,-0.61767578125,1.0302
4.320610687022901,0.9007633587786259,-2.6412213740458017,0.00732421875,0.037841796875,-0.610595703125,1.0319
4.122137404580153,0.9465648854961832,-2.732824427480916,0.007080078125,0.03662109375,-0.615234375,1.0335999999999999
3.7709923664122136,1.1450381679389312,-2.6564885496183206,0.009521484375,0.037109375,-0.616455078125,1.0352999999999999
3.312977099236641,1.1908396946564885,-2.9160305343511452,0.001220703125,0.039306640625,-0.60791015625,1.037
3.2061068702290076,1.1145038167938932,-2.931297709923664,0.008056640625,0.033203125,-0.6025390625,1.0387
2.9160305343511452,1.1603053435114503,-2.7786259541984735,0.00439453125,0.035888671875,-0.613525390625,1.0404
2.33587786259542,1.099236641221374,-2.8396946564885495,0.008056640625,0.033935546875,-0.61376953125,1.0421
2.3969465648854964,1.2366412213740459,-2.763358778625954,0.010498046875,0.032470703125,-0.60888671875,1.0437999999999998
2.0,1.2671755725190839,-2.717557251908397,0.004638671875,0.032470703125,-0.618408203125,1.0454999999999999
1.7251908396946565,1.1755725190839694,-2.763358778625954,0.008544921875,0.03662109375,-0.613525390625,1.0472
1.7709923664122138,1.2213740458015268,-2.7938931297709924,0.004150390625,0.030517578125,-0.6142578125,1.0489
1.4198473282442747,1.1908396946564885,-2.931297709923664,0.006103515625,0.036865234375,-0.618896484375,1.0506
1.1908396946564885,1.2366412213740459,-2.7022900763358777,0.009521484375,0.033203125,-0.60791015625,1.0523
0.9923664122137404,1.2366412213740459,-2.687022900763359,0.0107421875,0.03466796875,-0.618408203125,1.054
1.1450381679389312,1.282442748091603,-2.6259541984732824,0.009033203125,0.039306640625,-0.61083984375,1.0556999999999999
1.0076335877862594,1.2213740458015268,-2.7938931297709924,0.004638671875,0.037353515625,-0.615234375,1.0574
0.8396946564885496,1.1755725190839694,-2.8702290076335877,0.00146484375,0.036865234375,-0.61181640625,1.0591
0.6106870229007634,1.4198473282442747,-2.717557251908397,0.00244140625,0.03466796875,-0.61181640625,1.0608
0.33587786259541985,1.4198473282442747,-2.5801526717557253,0.0068359375,0.035888671875,-0.612060546875,1.0625
0.7633587786259542,1.6641221374045803,-2.7786259541984735,0.00244140625,0.035888671875,-0.609375,1.0642
0.6106870229007634,1.633587786259542,-2.717557251908397,0.006103515625,0.033203125,-0.6142578125,1.0658999999999998
0.21374045801526717,1.4961832061068703,-2.900763358778626,-0.002197265625,0.034912109375,-0.611083984375,1.0675999999999999
0.4122137404580153,1.6946564885496183,-2.8244274809160306,0.001953125,0.03466796875,-0.609619140625,1.0693
0.6106870229007634,1.8473282442748091,-2.8244274809160306,0.001220703125,0.03955078125,-0.602294921875,1.071
0.4122137404580153,2.0610687022900764,-2.7022900763358777,0.00146484375,0.03271484375,-0.6044921875,1.0727
0.5801526717557252,2.0,-2.885496183206107,-0.002197265625,0.036865234375,-0.6103515625,1.0744
0.7786259541984732,2.122137404580153,-3.099236641221374,-0.00244140625,0.0390625,-0.6123046875,1.0760999999999998
0.7022900763358778,2.2442748091603053,-3.0839694656488548,0.0029296875,0.03564453125,-0.60986328125,1.0777999999999999
0.6717557251908397,2.366412213740458,-3.114503816793893,0.00390625,0.035400390625,-0.620849609375,1.0795
1.0381679389312977,2.549618320610687,-3.0381679389312977,0.0,0.0390625,-0.6083984375,1.0812
1.0229007633587786,2.549618320610687,-3.053435114503817,-0.000732421875,0.040283203125,-0.61572265625,1.0829
1.1145038167938932,2.5801526717557253,-3.1755725190839694,0.001220703125,0.0400390625,-0.612548828125,1.0846
1.083969465648855,2.717557251908397,-2.946564885496183,-0.000732421875,0.03955078125,-0.6123046875,1.0863
1.2671755725190839,2.8702290076335877,-3.2213740458015265,-0.000244140625,0.037841796875,-0.611083984375,1.0879999999999999
1.3740458015267176,2.931297709923664,-2.931297709923664,-0.0009765625,0.04296875,-0.610595703125,1.0897
1.4198473282442747,3.0229007633587788,-2.9923664122137406,-0.00341796875,0.0390625,-0.61767578125,1.0914
1.5725190839694656,3.053435114503817,-3.099236641221374,0.00146484375,0.037353515625,-0.603271484375,1.0931
1.6030534351145038,3.099236641221374,-3.1603053435114505,0.006591796875,0.03955078125,-0.6123046875,1.0948
1.7557251908396947,3.1908396946564888,-3.0076335877862594,0.000732421875,0.036865234375,-0.6083984375,1.0965
1.786259541984733,3.0076335877862594,-3.0229007633587788,-0.001220703125,0.04345703125,-0.611328125,1.0981999999999998
1.7404580152671756,3.2519083969465647,-3.053435114503817,0.001220703125,0.039306640625,-0.60693359375,1.0998999999999999
1.7404580152671756,3.1908396946564888,-3.099236641221374,0.001220703125,0.041748046875,-0.61376953125,1.1016
1.9236641221374047,3.1755725190839694,-2.9923664122137406,0.00146484375,0.039794921875,-0.60205078125,1.1033
2.33587786259542,3.145038167938931,-2.7938931297709924,-0.003662109375,0.03564453125,-0.614013671875,1.105
2.427480916030534,3.236641221374046,-3.0381679389312977,0.00146484375,0.03515625,-0.609619140625,1.1067
2.8091603053435112,3.2519083969465647,-3.0076335877862594,-0.000732421875,0.0361328125,-0.609130859375,1.1083999999999998
2.717557251908397,3.435114503816794,-3.0076335877862594,0.001220703125,0.037353515625,-0.6025390625,1.1100999999999999
2.900763358778626,3.3282442748091605,-2.931297709923664,0.001220703125,0.0390625,-0.60693359375,1.1118
3.1908396946564888,3.1755725190839694,-2.9923664122137406,-0.00390625,0.03662109375,-0.60546875,1.1135
3.5877862595419847,3.2213740458015265,-3.2977099236641223,-0.00390625,0.03564453125,-0.611328125,1.1152
3.5114503816793894,3.312977099236641,-3.0839694656488548,-0.00537109375,0.037353515625,-0.606689453125,1.1169
3.4656488549618323,3.3282442748091605,-3.1603053435114505,-0.004638671875,0.041015625,-0.606689453125,1.1186
3.435114503816794,3.3740458015267176,-3.114503816793893,-0.006103515625,0.035888671875,-0.611328125,1.1202999999999999
3.4198473282442747,3.4656488549618323,-2.8702290076335877,-0.00390625,0.045654296875,-0.610595703125,1.1219999999999999
3.3893129770992365,3.099236641221374,-2.854961832061069,-0.002197265625,0.037353515625,-0.607177734375,1.1237
3.267175572519084,3.3282442748091605,-2.885496183206107,-0.004150390625,0.0380859375,-0.60009765625,1.1254
2.946564885496183,3.3282442748091605,-2.9770992366412212,-0.005859375,0.037109375,-0.6103515625,1.1271
2.9923664122137406,3.3587786259541983,-3.0076335877862594,0.00048828125,0.0341796875,-0.605224609375,1.1288
3.0839694656488548,3.450381679389313,-2.9923664122137406,-0.000732421875,0.03369140625,-0.601806640625,1.1304999999999998
2.885496183206107,3.450381679389313,-2.7786259541984735,-0.008056640625,0.0380859375,-0.60986328125,1.1321999999999999
2.9160305343511452,3.435114503816794,-2.9770992366412212,-0.00341796875,0.03564453125,-0.599853515625,1.1339
3.0381679389312977,3.4198473282442747,-3.099236641221374,-0.0087890625,0.033447265625,-0.611083984375,1.1356
2.8396946564885495,3.6793893129770994,-2.885496183206107,0.001708984375,0.035888671875,-0.603515625,1.1373
2.6717557251908395,3.816793893129771,-2.7938931297709924,-0.00390625,0.02880859375,-0.6083984375,1.139
2.6259541984732824,3.49618320610687,-2.763358778625954,-0.004638671875,0.037109375,-0.60205078125,1.1407
2.351145038167939,3.5572519083969465,-2.7480916030534353,0.00048828125,0.034912109375,-0.598876953125,1.1423999999999999
2.3206106870229006,3.618320610687023,-2.717557251908397,-0.006591796875,0.03466796875,-0.61279296875,1.1441
2.4122137404580153,3.6946564885496183,-2.7022900763358777,-0.003662109375,0.032470703125,-0.609619140625,1.1458
2.183206106870229,3.9083969465648853,-2.549618320610687,-0.008056640625,0.0341796875,-0.60400390625,1.1475
2.16793893129771,3.7099236641221376,-2.519083969465649,-0.00537109375,0.032470703125,-0.599365234375,1.1492
1.7404580152671756,3.7709923664122136,-2.213740458015267,-0.0078125,0.036376953125,-0.60302734375,1.1509
1.6488549618320612,3.9389312977099236,-2.4427480916030535,-0.0029296875,0.03271484375,-0.59716796875,1.1525999999999998
1.3893129770992367,3.9236641221374047,-2.4122137404580153,-0.003662109375,0.033203125,-0.599609375,1.1542999999999999
1.1755725190839694,3.8473282442748094,-2.3053435114503817,-0.00439453125,0.031982421875,-0.60888671875,1.156
1.1297709923664123,3.7557251908396947,-2.2290076335877864,-0.006591796875,0.0341796875,-0.59326171875,1.1577
0.8702290076335878,3.9236641221374047,-2.015267175572519,-0.0068359375,0.0322265625,-0.599609375,1.1594
0.6717557251908397,3.816793893129771,-2.33587786259542,-0.007568359375,0.036376953125,-0.6025390625,1.1611
0.4732824427480916,3.83206106870229,-2.198473282442748,-0.006591796875,0.035400390625,-0.60400390625,1.1627999999999998
0.3511450381679389,3.801526717557252,-2.3206106870229006,-0.006591796875,0.032958984375,-0.607666015625,1.1644999999999999
0.3816793893129771,4.030534351145038,-2.2595419847328246,-0.0048828125,0.03564453125,-0.60888671875,1.1662
0.5190839694656488,4.061068702290076,-2.0,-0.005126953125,0.036865234375,-0.601806640625,1.1679
0.1984732824427481,3.9083969465648853,-2.16793893129771,-0.00634765625,0.039794921875,-0.608154296875,1.1696
0.4732824427480916,4.015267175572519,-2.213740458015267,-0.007080078125,0.035400390625,-0.606201171875,1.1713
0.6106870229007634,3.954198473282443,-2.33587786259542,-0.00244140625,0.0361328125,-0.599609375,1.173
0.6564885496183206,4.030534351145038,-2.3053435114503817,-0.002197265625,0.03564453125,-0.605224609375,1.1746999999999999
0.5343511450381679,3.9236641221374047,-2.0763358778625953,-0.008056640625,0.033203125,-0.61376953125,1.1764
0.5801526717557252,3.969465648854962,-2.2290076335877864,-0.006591796875,0.036376953125,-0.6044921875,1.1781
0.549618320610687,3.954198473282443,-2.2748091603053435,0.00048828125,0.03466796875,-0.612548828125,1.1798
0.6564885496183206,3.83206106870229,-1.9694656488549618,-0.002197265625,0.033203125,-0.609619140625,1.1815
0.7480916030534351,3.648854961832061,-2.0916030534351147,-0.003662109375,0.03662109375,-0.5966796875,1.1832
0.7938931297709924,3.633587786259542,-2.2900763358778624,-0.00439453125,0.037841796875,-0.599609375,1.1848999999999998
0.8244274809160306,3.7709923664122136,-2.045801526717557,0.000732421875,0.035888671875,-0.6064453125,1.1865999999999999
0.7480916030534351,3.5877862595419847,-2.015267175572519,-0.000244140625,0.03466796875,-0.600341796875,1.1883
0.9312977099236641,3.648854961832061,-1.83206106870229,-0.005126953125,0.0361328125,-0.607666015625,1.19
0.9312977099236641,3.5114503816793894,-1.786259541984733,-0.003173828125,0.035400390625,-0.611328125,1.1917
0.9007633587786259,3.5419847328244276,-1.786259541984733,-0.000732421875,0.03759765625,-0.609619140625,1.1934
1.0076335877862594,3.435114503816794,-1.7557251908396947,-0.006591796875,0.035888671875,-0.603271484375,1.1950999999999998
1.3129770992366412,3.5267175572519083,-1.4351145038167938,-0.006591796875,0.033935546875,-0.603515625,1.1967999999999999
1.2061068702290076,3.633587786259542,-1.633587786259542,-0.002685546875,0.03955078125,-0.603271484375,1.1985
1.450381679389313,3.480916030534351,-1.5572519083969465,-0.0068359375,0.0390625,-0.600341796875,1.2002
1.4809160305343512,3.5114503816793894,-1.8015267175572518,-0.009765625,0.037109375,-0.60595703125,1.2019
1.618320610687023,3.3587786259541983,-1.618320610687023,-0.004150390625,0.040771484375,-0.602783203125,1.2036
1.8473282442748091,3.435114503816794,-1.618320610687023,-0.006591796875,0.040283203125,-0.598876953125,1.2053
2.1526717557251906,3.3893129770992365,-1.9389312977099236,-0.003173828125,0.037353515625,-0.600341796875,1.2069999999999999
2.351145038167939,3.480916030534351,-2.2595419847328246,-0.002685546875,0.037353515625,-0.587890625,1.2086999999999999
2.2595419847328246,3.3282442748091605,-1.816793893129771,-0.006103515625,0.036376953125,-0.598876953125,1.2104
2.687022900763359,3.2519083969465647,-2.183206106870229,-0.000732421875,0.0390625,-0.600830078125,1.2121
2.9923664122137406,3.1908396946564888,-2.213740458015267,-0.00048828125,0.035400390625,-0.60498046875,1.2138
3.099236641221374,3.0381679389312977,-2.3053435114503817,0.000732421875,0.038330078125,-0.59765625,1.2155
3.0839694656488548,3.0839694656488548,-2.183206106870229,-0.00732421875,0.0390625,-0.596923828125,1.2171999999999998
3.236641221374046,2.8244274809160306,-2.2290076335877864,-0.00634765625,0.04248046875,-0.6015625,1.2188999999999999
3.450381679389313,2.7938931297709924,-2.0763358778625953,-0.004638671875,0.0361328125,-0.604736328125,1.2206
3.236641221374046,2.732824427480916,-2.122137404580153,-0.00244140625,0.03662109375,-0.606201171875,1.2223
3.2213740458015265,2.4732824427480917,-1.9694656488549618,-0.00146484375,0.038818359375,-0.605224609375,1.224
3.3587786259541983,2.50381679389313,-2.0610687022900764,-0.005615234375,0.03759765625,-0.601806640625,1.2257
3.1908396946564888,2.4580152671755724,-1.9236641221374047,-0.001220703125,0.04248046875,-0.600341796875,1.2273999999999998
3.1297709923664123,2.4580152671755724,-2.1068702290076335,-0.0048828125,0.037353515625,-0.60302734375,1.2290999999999999
3.1755725190839694,2.4427480916030535,-1.8473282442748091,-0.003173828125,0.035888671875,-0.5986328125,1.2308
3.114503816793893,2.1526717557251906,-1.8473282442748091,-0.00341796875,0.039794921875,-0.599365234375,1.2325
2.8702290076335877,2.427480916030534,-1.6488549618320612,-0.005615234375,0.038330078125,-0.60400390625,1.2342
2.7938931297709924,2.183206106870229,-1.6641221374045803,-0.002197265625,0.033935546875,-0.606689453125,1.2359
3.0381679389312977,2.1068702290076335,-1.5877862595419847,-0.0048828125,0.037353515625,-0.603271484375,1.2376
3.236641221374046,2.16793893129771,-1.6946564885496183,-0.00537109375,0.040771484375,-0.600341796875,1.2392999999999998
3.2519083969465647,1.9541984732824427,-1.7099236641221374,-0.00732421875,0.03662109375,-0.599609375,1.2409999999999999
3.2213740458015265,1.83206106870229,-1.6488549618320612,-0.00634765625,0.035888671875,-0.60107421875,1.2427
3.2061068702290076,2.0,-1.7099236641221374,-0.004638671875,0.036376953125,-0.602783203125,1.2444
3.3587786259541983,1.9694656488549618,-1.83206106870229,-0.0048828125,0.037109375,-0.613037109375,1.2461
3.6946564885496183,2.0,-1.8625954198473282,-0.00244140625,0.033935546875,-0.604736328125,1.2478
3.633587786259542,1.9541984732824427,-1.8931297709923665,-0.00048828125,0.032470703125,-0.6015625,1.2494999999999998
3.6030534351145036,2.0916030534351147,-1.8625954198473282,-0.004638671875,0.031494140625,-0.607421875,1.2511999999999999
3.5877862595419847,2.030534351145038,-2.0610687022900764,-0.001220703125,0.03857421875,-0.598388671875,1.2529
3.3587786259541983,2.015267175572519,-1.9236641221374047,-0.004150390625,0.03076171875,-0.5986328125,1.2546
3.480916030534351,2.030534351145038,-2.0763358778625953,-0.002197265625,0.03515625,-0.60302734375,1.2563
3.3282442748091605,2.198473282442748,-1.9236641221374047,-0.00341796875,0.033203125,-0.60595703125,1.258
3.3893129770992365,1.9694656488549618,-2.0,-0.008056640625,0.032958984375,-0.603271484375,1.2596999999999998
3.3435114503816794,1.9389312977099236,-1.7709923664122138,-0.003662109375,0.03857421875,-0.610595703125,1.2613999999999999
3.1755725190839694,2.1526717557251906,-2.045801526717557,-0.006591796875,0.032470703125,-0.611572265625,1.2631
3.1297709923664123,1.9694656488549618,-1.7099236641221374,-0.005615234375,0.0302734375,-0.602294921875,1.2648
2.931297709923664,1.8015267175572518,-1.5877862595419847,-0.0048828125,0.03076171875,-0.599365234375,1.2665
2.900763358778626,1.9389312977099236,-1.5267175572519085,-0.004150390625,0.033203125,-0.60009765625,1.2682
3.0839694656488548,1.8931297709923665,-1.5572519083969465,-0.001220703125,0.03369140625,-0.59814453125,1.2699
2.732824427480916,2.183206106870229,-1.251908396946565,-0.0048828125,0.0341796875,-0.60546875,1.2715999999999998
2.519083969465649,2.045801526717557,-1.2671755725190839,0.002685546875,0.03076171875,-0.60205078125,1.2732999999999999
2.5801526717557253,1.9694656488549618,-1.099236641221374,-0.0029296875,0.03515625,-0.593017578125,1.275
2.6564885496183206,1.83206106870229,-1.1755725190839694,0.00048828125,0.0380859375,-0.598876953125,1.2767
2.8244274809160306,1.984732824427481,-0.8854961832061069,-0.006591796875,0.03662109375,-0.595703125,1.2784
2.900763358778626,1.9541984732824427,-1.0229007633587786,-0.000732421875,0.035888671875,-0.60693359375,1.2801
2.763358778625954,1.83206106870229,-0.916030534351145,0.00146484375,0.03662109375,-0.599609375,1.2817999999999998
2.9160305343511452,1.9083969465648856,-0.916030534351145,-0.00048828125,0.032470703125,-0.602294921875,1.2834999999999999
2.717557251908397,1.7404580152671756,-0.9312977099236641,-0.006591796875,0.035400390625,-0.600341796875,1.2852
2.8396946564885495,1.618320610687023,-0.8396946564885496,-0.00439453125,0.033203125,-0.5986328125,1.2869
2.885496183206107,1.465648854961832,-0.8091603053435115,-0.004638671875,0.03125,-0.603515625,1.2886
2.763358778625954,1.633587786259542,-0.8549618320610687,0.00341796875,0.034912109375,-0.610107421875,1.2903
2.7022900763358777,1.5114503816793894,-0.8854961832061069,0.00341796875,0.033935546875,-0.604736328125,1.292
2.7022900763358777,1.465648854961832,-0.9923664122137404,0.0009765625,0.03466796875,-0.605712890625,1.2936999999999999
2.7938931297709924,1.450381679389313,-0.916030534351145,0.0009765625,0.036376953125,-0.598876953125,1.2953999999999999
2.717557251908397,1.282442748091603,-1.0076335877862594,-0.000732421875,0.0361328125,-0.593505859375,1.2971
2.717557251908397,1.1755725190839694,-1.1755725190839694,-0.005615234375,0.0390625,-0.597900390625,1.2988
2.3206106870229006,1.282442748091603,-1.1450381679389312,-0.002197265625,0.03173828125,-0.595703125,1.3005
2.564885496183206,1.083969465648855,-1.0687022900763359,0.001220703125,0.042236328125,-0.607177734375,1.3022
2.3969465648854964,1.0534351145038168,-1.2366412213740459,0.001220703125,0.03857421875,-0.6005859375,1.3038999999999998
2.0763358778625953,1.1297709923664123,-1.3435114503816794,-0.001708984375,0.030029296875,-0.60986328125,1.3055999999999999
2.122137404580153,0.8702290076335878,-1.1603053435114503,-0.004150390625,0.039794921875,-0.594482421875,1.3073
1.816793893129771,0.7938931297709924,-1.2366412213740459,-0.0029296875,0.0380859375,-0.6015625,1.309
1.7709923664122138,0.916030534351145,-1.2061068702290076,-0.003662109375,0.036376953125,-0.60107421875,1.3107
1.9083969465648856,0.8244274809160306,-1.2366412213740459,-0.00390625,0.041259765625,-0.60791015625,1.3124
1.5877862595419847,0.732824427480916,-1.2671755725190839,-0.00244140625,0.036376953125,-0.60400390625,1.3140999999999998
1.8931297709923665,0.8854961832061069,-1.1908396946564885,-0.002197265625,0.04052734375,-0.605224609375,1.3157999999999999
2.2290076335877864,0.8702290076335878,-1.2671755725190839,-0.008544921875,0.03466796875,-0.603759765625,1.3175
1.9541984732824427,0.7480916030534351,-1.1603053435114503,-0.0009765625,0.03466796875,-0.613037109375,1.3192
2.381679389312977,0.732824427480916,-1.4045801526717556,-0.001708984375,0.0400390625,-0.6064453125,1.3209
2.3206106870229006,0.8091603053435115,-1.251908396946565,-0.008544921875,0.033447265625,-0.600341796875,1.3226
2.5343511450381677,0.6259541984732825,-1.2366412213740459,0.0,0.033935546875,-0.614990234375,1.3243
2.564885496183206,0.5190839694656488,-1.3587786259541985,-0.001708984375,0.0302734375,-0.611083984375,1.3259999999999998
2.8244274809160306,0.6259541984732825,-1.4198473282442747,-0.00244140625,0.04345703125,-0.60205078125,1.3276999999999999
3.1755725190839694,0.7175572519083969,-1.3587786259541985,-0.00732421875,0.03369140625,-0.603759765625,1.3294
2.900763358778626,0.6717557251908397,-1.297709923664122,-0.00634765625,0.033203125,-0.602294921875,1.3311
3.267175572519084,0.549618320610687,-1.3282442748091603,-0.006591796875,0.035888671875,-0.609130859375,1.3328
3.0076335877862594,0.7022900763358778,-1.4351145038167938,-0.003173828125,0.0380859375,-0.6044921875,1.3345
3.0229007633587788,0.8549618320610687,-1.5419847328244274,-0.00341796875,0.041015625,-0.6083984375,1.3361999999999998
3.0839694656488548,0.7938931297709924,-1.4961832061068703,-0.00048828125,0.0390625,-0.6015625,1.3378999999999999
3.0381679389312977,0.8549618320610687,-1.4198473282442747,-0.00439453125,0.03173828125,-0.606689453125,1.3396
3.3740458015267176,0.9923664122137404,-1.5419847328244274,-0.006591796875,0.0361328125,-0.60791015625,1.3413
2.9770992366412212,0.7786259541984732,-1.633587786259542,-0.00244140625,0.032958984375,-0.60595703125,1.343
3.0076335877862594,0.8854961832061069,-1.5114503816793894,0.000244140625,0.03955078125,-0.60498046875,1.3447
3.0229007633587788,0.6106870229007634,-1.7099236641221374,-0.005859375,0.0322265625,-0.59619140625,1.3463999999999998
2.9923664122137406,0.9618320610687023,-1.5725190839694656,-0.00634765625,0.03369140625,-0.592041015625,1.3480999999999999
3.053435114503817,1.1908396946564885,-1.4198473282442747,0.003662109375,0.03125,-0.602294921875,1.3497999999999999
2.900763358778626,0.7022900763358778,-1.282442748091603,0.0,0.02978515625,-0.599853515625,1.3515
2.885496183206107,0.8702290076335878,-1.2061068702290076,0.001708984375,0.0341796875,-0.59130859375,1.3532
2.8244274809160306,0.7786259541984732,-1.2061068702290076,0.00244140625,0.037353515625,-0.60498046875,1.3549
2.687022900763359,0.8549618320610687,-0.9770992366412213,-0.001953125,0.03125,-0.611083984375,1.3566
2.8244274809160306,0.5801526717557252,-0.916030534351145,0.002685546875,0.03369140625,-0.609619140625,1.3582999999999998
2.7786259541984735,0.6259541984732825,-1.0076335877862594,0.00244140625,0.0322265625,-0.601806640625,1.3599999999999999
2.6717557251908395,0.6564885496183206,-0.9007633587786259,0.000732421875,0.032470703125,-0.599853515625,1.3617
2.6412213740458017,0.6717557251908397,-0.8702290076335878,0.002197265625,0.031005859375,-0.60498046875,1.3634
2.4885496183206106,0.5038167938931297,-0.7022900763358778,0.00244140625,0.0302734375,-0.604736328125,1.3651
2.2748091603053435,0.33587786259541985,-0.6106870229007634,0.001953125,0.034423828125,-0.603759765625,1.3668
2.549618320610687,0.3816793893129771,-0.549618320610687,0.004638671875,0.02978515625,-0.601806640625,1.3684999999999998
2.427480916030534,0.2900763358778626,-0.7022900763358778,0.001953125,0.02880859375,-0.60791015625,1.3701999999999999
2.595419847328244,0.3969465648854962,-0.5801526717557252,0.000732421875,0.03369140625,-0.602294921875,1.3719
2.5343511450381677,0.183206106870229,-0.48854961832061067,0.000732421875,0.031982421875,-0.606201171875,1.3736
2.16793893129771,0.2595419847328244,-0.5038167938931297,0.001220703125,0.026611328125,-0.59912109375,1.3753
2.4122137404580153,0.32061068702290074,-0.48854961832061067,0.002197265625,0.029052734375,-0.60009765625,1.377
2.381679389312977,0.2748091603053435,-0.5343511450381679,0.00390625,0.032958984375,-0.608154296875,1.3786999999999998
2.122137404580153,0.366412213740458,-0.5954198473282443,0.00048828125,0.034912109375,-0.607421875,1.3803999999999998
1.9236641221374047,0.4732824427480916,-0.4732824427480916,-0.0009765625,0.037109375,-0.60888671875,1.3820999999999999
2.3053435114503817,0.2900763358778626,-0.5190839694656488,-0.00048828125,0.031982421875,-0.608642578125,1.3838
2.2748091603053435,0.3053435114503817,-0.4122137404580153,-0.005615234375,0.033935546875,-0.595703125,1.3855
2.030534351145038,0.33587786259541985,-0.4580152671755725,-0.00244140625,0.0302734375,-0.6005859375,1.3872
2.0610687022900764,0.22900763358778625,-0.4122137404580153,-0.006103515625,0.029052734375,-0.611083984375,1.3889
1.7099236641221374,0.22900763358778625,-0.5190839694656488,-0.0048828125,0.033935546875,-0.6064453125,1.3905999999999998
1.9083969465648856,0.15267175572519084,-0.48854961832061067,-0.00830078125,0.0322265625,-0.603759765625,1.3922999999999999
1.83206106870229,0.48854961832061067,-0.6564885496183206,-0.00390625,0.036376953125,-0.60546875,1.394
1.4961832061068703,0.3053435114503817,-0.4732824427480916,-0.00146484375,0.035400390625,-0.60400390625,1.3957
1.8625954198473282,0.2900763358778626,-0.732824427480916,-0.00341796875,0.032958984375,-0.602783203125,1.3974
1.7709923664122138,0.2748091603053435,-0.8854961832061069,-0.002685546875,0.0341796875,-0.6005859375,1.3991
1.633587786259542,0.42748091603053434,-0.8091603053435115,-0.001220703125,0.03271484375,-0.609130859375,1.4007999999999998
1.786259541984733,0.3511450381679389,-0.6106870229007634,0.0029296875,0.037841796875,-0.59228515625,1.4024999999999999
1.7404580152671756,0.16793893129770993,-0.6870229007633588,0.0009765625,0.033447265625,-0.5947265625,1.4042
1.786259541984733,0.366412213740458,-0.7938931297709924,-0.00341796875,0.0380859375,-0.592529296875,1.4059
1.8473282442748091,0.366412213740458,-1.1145038167938932,-0.00048828125,0.03564453125,-0.607421875,1.4076
2.1374045801526718,0.16793893129770993,-0.6412213740458015,-0.000244140625,0.0380859375,-0.603271484375,1.4093
2.198473282442748,0.2748091603053435,-0.8549618320610687,-0.00830078125,0.034423828125,-0.599609375,1.411
2.1374045801526718,0.13740458015267176,-0.8244274809160306,-0.0048828125,0.02587890625,-0.603759765625,1.4126999999999998
2.351145038167939,0.2748091603053435,-0.7175572519083969,0.00341796875,0.02978515625,-0.6064453125,1.4143999999999999
2.6717557251908395,0.13740458015267176,-0.7480916030534351,0.0,0.030517578125,-0.60107421875,1.4161
2.519083969465649,0.22900763358778625,-0.7633587786259542,-0.0029296875,0.034912109375,-0.6044921875,1.4178
2.717557251908397,0.0,-0.48854961832061067,0.001220703125,0.03466796875,-0.601318359375,1.4195
2.763358778625954,-0.16793893129770993,-0.6106870229007634,-0.000732421875,0.03125,-0.609619140625,1.4212
3.0076335877862594,-0.04580152671755725,-0.3511450381679389,0.0,0.02880859375,-0.605224609375,1.4228999999999998
3.0229007633587788,-0.10687022900763359,-0.5801526717557252,-0.001953125,0.03369140625,-0.609619140625,1.4245999999999999
2.9160305343511452,0.0,-0.3053435114503817,0.00146484375,0.029296875,-0.61279296875,1.4263
2.9618320610687023,-0.030534351145038167,-0.6717557251908397,0.00439453125,0.037353515625,-0.61181640625,1.428
3.114503816793893,-0.24427480916030533,-0.44274809160305345,0.002685546875,0.03564453125,-0.606689453125,1.4297
2.854961832061069,-0.0916030534351145,-0.22900763358778625,0.000732421875,0.034912109375,-0.603271484375,1.4314
2.900763358778626,-0.12213740458015267,-0.030534351145038167,0.000244140625,0.036865234375,-0.6044921875,1.4330999999999998
2.7938931297709924,-0.13740458015267176,-0.3511450381679389,-0.003662109375,0.0322265625,-0.610107421875,1.4347999999999999
2.7938931297709924,-0.16793893129770993,-0.16793893129770993,0.0029296875,0.03466796875,-0.602783203125,1.4364999999999999
2.732824427480916,-0.030534351145038167,-0.1984732824427481,0.0,0.032470703125,-0.6142578125,1.4382
2.9770992366412212,-0.2748091603053435,0.061068702290076333,-0.002685546875,0.03662109375,-0.608642578125,1.4399
2.854961832061069,-0.1984732824427481,-0.15267175572519084,0.000244140625,0.0341796875,-0.60791015625,1.4416
2.6412213740458017,0.07633587786259542,-0.07633587786259542,-0.002685546875,0.03662109375,-0.609375,1.4433
2.7022900763358777,-0.07633587786259542,-0.2595419847328244,0.0009765625,0.0419921875,-0.602294921875,1.4449999999999998
2.549618320610687,-0.015267175572519083,-0.12213740458015267,-0.002685546875,0.032958984375,-0.602294921875,1.4466999999999999
2.519083969465649,0.04580152671755725,-0.32061068702290074,0.001708984375,0.03076171875,-0.605712890625,1.4484
2.732824427480916,-0.030534351145038167,-0.3053435114503817,0.003173828125,0.0380859375,-0.605712890625,1.4501
2.6564885496183206,-0.015267175572519083,-0.2900763358778626,0.001220703125,0.034423828125,-0.6025390625,1.4518
2.6717557251908395,-0.030534351145038167,-0.32061068702290074,0.0009765625,0.04150390625,-0.609130859375,1.4535
2.4732824427480917,0.061068702290076333,-0.2595419847328244,0.001953125,0.031982421875,-0.609130859375,1.4551999999999998
2.6564885496183206,0.04580152671755725,-0.366412213740458,-0.001953125,0.033203125,-0.603759765625,1.4568999999999999
2.4580152671755724,0.015267175572519083,-0.48854961832061067,0.004638671875,0.03271484375,-0.59765625,1.4586
2.4885496183206106,-0.12213740458015267,-0.3969465648854962,-0.000732421875,0.036865234375,-0.6064453125,1.4603
2.4580152671755724,-0.22900763358778625,-0.48854961832061067,-0.00048828125,0.036376953125,-0.602783203125,1.462
2.3969465648854964,0.13740458015267176,-0.5343511450381679,0.002685546875,0.034912109375,-0.608154296875,1.4637
2.3053435114503817,0.21374045801526717,-0.32061068702290074,-0.000732421875,0.0361328125,-0.606201171875,1.4653999999999998
2.4732824427480917,0.04580152671755725,-0.3053435114503817,0.000244140625,0.036376953125,-0.60595703125,1.4670999999999998
2.2748091603053435,0.030534351145038167,-0.42748091603053434,0.001953125,0.0380859375,-0.608154296875,1.4687999999999999
2.0610687022900764,0.3511450381679389,-0.4122137404580153,0.0029296875,0.040771484375,-0.60498046875,1.4705
2.0916030534351147,0.33587786259541985,-0.6870229007633588,0.003662109375,0.036865234375,-0.606689453125,1.4722
2.183206106870229,0.183206106870229,-0.4122137404580153,0.001220703125,0.0390625,-0.61083984375,1.4739
2.4885496183206106,0.22900763358778625,-0.6564885496183206,-0.00048828125,0.040771484375,-0.60302734375,1.4756
2.2748091603053435,0.2900763358778626,-0.6259541984732825,0.00048828125,0.04443359375,-0.60791015625,1.4772999999999998
2.50381679389313,0.44274809160305345,-0.8244274809160306,0.001953125,0.0361328125,-0.611572265625,1.4789999999999999
2.7022900763358777,0.5190839694656488,-0.7938931297709924,0.00439453125,0.038330078125,-0.606689453125,1.4807
2.732824427480916,0.44274809160305345,-1.0229007633587786,0.0009765625,0.036865234375,-0.60888671875,1.4824
2.595419847328244,0.5648854961832062,-0.916030534351145,0.000732421875,0.032958984375,-0.598876953125,1.4841
2.6564885496183206,0.5648854961832062,-0.9465648854961832,0.0009765625,0.037109375,-0.608154296875,1.4858
2.6412213740458017,0.4122137404580153,-0.7480916030534351,0.0009765625,0.035400390625,-0.603271484375,1.4874999999999998
2.854961832061069,0.48854961832061067,-0.8702290076335878,0.00048828125,0.035400390625,-0.606689453125,1.4891999999999999
2.854961832061069,0.6412213740458015,-0.916030534351145,0.005615234375,0.032470703125,-0.6123046875,1.4909
2.5343511450381677,0.7938931297709924,-1.0534351145038168,0.0048828125,0.033935546875,-0.60791015625,1.4926
2.549618320610687,0.6412213740458015,-0.6259541984732825,0.003662109375,0.041259765625,-0.606201171875,1.4943
2.4885496183206106,0.6564885496183206,-0.7175572519083969,0.003173828125,0.0390625,-0.61767578125,1.496
2.549618320610687,0.7480916030534351,-0.7022900763358778,0.002197265625,0.03466796875,-0.606689453125,1.4976999999999998
2.3053435114503817,1.083969465648855,-0.7786259541984732,0.00244140625,0.0361328125,-0.6044921875,1.4993999999999998
2.1068702290076335,0.9618320610687023,-0.5801526717557252,-0.000244140625,0.03759765625,-0.608642578125,1.5010999999999999
2.0916030534351147,0.916030534351145,-0.6717557251908397,0.0029296875,0.04248046875,-0.608154296875,1.5028
2.2290076335877864,0.9618320610687023,-0.5648854961832062,0.00048828125,0.0400390625,-0.60595703125,1.5045
2.0610687022900764,0.8549618320610687,-0.5648854961832062,0.0,0.035400390625,-0.60595703125,1.5062
1.984732824427481,0.9465648854961832,-0.2748091603053435,0.002685546875,0.0341796875,-0.60986328125,1.5079
2.183206106870229,1.099236641221374,-0.5038167938931297,0.001220703125,0.034912109375,-0.610107421875,1.5095999999999998
2.015267175572519,1.1297709923664123,-0.3969465648854962,0.0029296875,0.0400390625,-0.605224609375,1.5112999999999999
2.3053435114503817,1.0534351145038168,-0.44274809160305345,0.00537109375,0.0361328125,-0.61279296875,1.513
2.1068702290076335,1.0229007633587786,-0.5801526717557252,0.006103515625,0.0361328125,-0.606201171875,1.5147
2.1526717557251906,1.1450381679389312,-0.32061068702290074,0.002685546875,0.03564453125,-0.6064453125,1.5164
1.9389312977099236,1.1145038167938932,-0.3816793893129771,0.000244140625,0.03857421875,-0.614501953125,1.5181
1.8015267175572518,1.1603053435114503,-0.48854961832061067,-0.004150390625,0.035888671875,-0.614990234375,1.5197999999999998
1.8778625954198473,1.3740458015267176,-0.4732824427480916,-0.001708984375,0.036376953125,-0.607177734375,1.5214999999999999
2.0916030534351147,1.5267175572519085,-0.42748091603053434,0.00439453125,0.033203125,-0.615966796875,1.5231999999999999
1.6793893129770991,1.5877862595419847,-0.32061068702290074,0.0048828125,0.0419921875,-0.60302734375,1.5249
2.030534351145038,1.5267175572519085,-0.3511450381679389,0.001953125,0.04150390625,-0.60693359375,1.5266
2.183206106870229,1.6641221374045803,-0.1984732824427481,0.0,0.040771484375,-0.60986328125,1.5283
2.045801526717557,1.6030534351145038,-0.2900763358778626,-0.001953125,0.0390625,-0.604248046875,1.5299999999999998
1.7099236641221374,1.633587786259542,-0.061068702290076333,-0.000732421875,0.035888671875,-0.60693359375,1.5316999999999998
2.1526717557251906,1.9541984732824427,-0.3053435114503817,0.001953125,0.033447265625,-0.603515625,1.5333999999999999
1.8931297709923665,1.9541984732824427,-0.16793893129770993,0.007080078125,0.032470703125,-0.61083984375,1.5351
1.7557251908396947,1.83206106870229,-0.15267175572519084,0.00048828125,0.036376953125,-0.609130859375,1.5368
2.16793893129771,1.7557251908396947,-0.04580152671755725,0.001708984375,0.032470703125,-0.607177734375,1.5385
2.2442748091603053,1.9389312977099236,0.061068702290076333,-0.0029296875,0.032958984375,-0.608642578125,1.5402
2.2748091603053435,1.8931297709923665,-0.21374045801526717,-0.00244140625,0.031982421875,-0.610595703125,1.5418999999999998
1.9389312977099236,2.0916030534351147,0.030534351145038167,0.001953125,0.03076171875,-0.614990234375,1.5435999999999999
2.0916030534351147,2.351145038167939,0.030534351145038167,-0.003173828125,0.03369140625,-0.611328125,1.5453
2.4427480916030535,2.2748091603053435,-0.061068702290076333,0.002197265625,0.03466796875,-0.603759765625,1.547
2.366412213740458,2.4122137404580153,-0.04580152671755725,0.00048828125,0.03515625,-0.612060546875,1.5487
2.4885496183206106,2.564885496183206,-0.0916030534351145,-0.00048828125,0.03271484375,-0.603759765625,1.5504
2.7938931297709924,2.8396946564885495,-0.030534351145038167,0.00341796875,0.0302734375,-0.60693359375,1.5520999999999998
2.6717557251908395,2.885496183206107,-0.10687022900763359,0.006103515625,0.0341796875,-0.60693359375,1.5537999999999998
2.8396946564885495,2.854961832061069,0.015267175572519083,-0.001708984375,0.03466796875,-0.605712890625,1.5554999999999999
3.0076335877862594,2.8396946564885495,0.1984732824427481,0.001953125,0.03125,-0.602783203125,1.5572
3.0076335877862594,2.854961832061069,0.13740458015267176,0.003662109375,0.032470703125,-0.60400390625,1.5589
2.9160305343511452,3.099236641221374,0.2900763358778626,-0.00048828125,0.03515625,-0.611572265625,1.5606
3.0229007633587788,2.885496183206107,0.3053435114503817,-0.0029296875,0.02880859375,-0.612060546875,1.5623
3.2213740458015265,3.3435114503816794,0.5648854961832062,-0.00244140625,0.032470703125,-0.615966796875,1.5639999999999998
3.1908396946564888,3.2213740458015265,0.6717557251908397,0.003662109375,0.0322265625,-0.610595703125,1.5656999999999999
3.1755725190839694,3.1603053435114505,0.9770992366412213,-0.00244140625,0.03369140625,-0.607177734375,1.5674
2.900763358778626,3.1908396946564888,0.7938931297709924,0.000732421875,0.02978515625,-0.606689453125,1.5691
2.885496183206107,3.1603053435114505,0.7786259541984732,0.00146484375,0.02734375,-0.602294921875,1.5708
2.8244274809160306,3.0381679389312977,0.7480916030534351,0.00341796875,0.031494140625,-0.614990234375,1.5725
2.7786259541984735,3.267175572519084,1.0229007633587786,-0.002197265625,0.031005859375,-0.60205078125,1.5741999999999998
2.595419847328244,3.3282442748091605,0.7938931297709924,-0.00341796875,0.033203125,-0.6064453125,1.5758999999999999
2.6106870229007635,3.2213740458015265,0.6412213740458015,-0.002197265625,0.025634765625,-0.608642578125,1.5776
2.595419847328244,3.2213740458015265,0.6564885496183206,0.0029296875,0.02587890625,-0.607421875,1.5793
2.8244274809160306,3.3435114503816794,0.8702290076335878,-0.00439453125,0.025390625,-0.613525390625,1.581
2.9160305343511452,3.2977099236641223,0.7786259541984732,0.00390625,0.026123046875,-0.60791015625,1.5827
2.9160305343511452,3.2977099236641223,0.6106870229007634,0.00390625,0.029541015625,-0.610595703125,1.5843999999999998
2.9923664122137406,3.5572519083969465,0.7633587786259542,0.00048828125,0.031005859375,-0.60546875,1.5860999999999998
3.312977099236641,3.618320610687023,0.6717557251908397,0.002685546875,0.03759765625,-0.604736328125,1.5877999999999999
3.3587786259541983,3.49618320610687,0.6259541984732825,0.001953125,0.032470703125,-0.603271484375,1.5895
3.2977099236641223,3.450381679389313,1.0534351145038168,-0.00146484375,0.031494140625,-0.599365234375,1.5912
3.2213740458015265,3.480916030534351,0.7633587786259542,0.00634765625,0.02880859375,-0.60595703125,1.5929
3.5572519083969465,3.618320610687023,0.8549618320610687,0.002197265625,0.027099609375,-0.60888671875,1.5946
3.480916030534351,3.450381679389313,0.8549618320610687,0.008544921875,0.0380859375,-0.6103515625,1.5962999999999998
3.480916030534351,3.618320610687023,0.9465648854961832,0.00341796875,0.031494140625,-0.606201171875,1.5979999999999999
3.4656488549618323,3.816793893129771,1.083969465648855,0.002685546875,0.03271484375,-0.6044921875,1.5997
3.3740458015267176,3.9083969465648853,1.083969465648855,0.003662109375,0.02880859375,-0.604736328125,1.6014
3.4198473282442747,3.7557251908396947,1.251908396946565,-0.004638671875,0.032470703125,-0.609130859375,1.6031
3.480916030534351,4.030534351145038,1.6641221374045803,0.000244140625,0.033447265625,-0.605712890625,1.6048
3.3435114503816794,3.9389312977099236,1.4198473282442747,-0.001953125,0.0361328125,-0.604736328125,1.6064999999999998
3.2061068702290076,4.015267175572519,1.7251908396946565,0.0,0.029541015625,-0.608154296875,1.6081999999999999
3.0381679389312977,3.984732824427481,1.4198473282442747,0.00439453125,0.033203125,-0.607421875,1.6098999999999999
3.0076335877862594,4.076335877862595,1.3740458015267176,0.0029296875,0.032470703125,-0.602294921875,1.6116
3.1603053435114505,4.320610687022901,1.450381679389313,0.001708984375,0.0322265625,-0.60302734375,1.6133
3.3740458015267176,4.213740458015267,1.3740458015267176,0.007568359375,0.028564453125,-0.604248046875,1.615
3.404580152671756,4.366412213740458,1.3740458015267176,0.005126953125,0.0234375,-0.611083984375,1.6166999999999998
3.5114503816793894,4.1679389312977095,1.4045801526717556,0.005126953125,0.033447265625,-0.603759765625,1.6183999999999998
3.49618320610687,4.1679389312977095,1.282442748091603,0.00146484375,0.02685546875,-0.609375,1.6200999999999999
3.236641221374046,4.183206106870229,1.465648854961832,0.0048828125,0.02734375,-0.602783203125,1.6218
3.5419847328244276,4.106870229007634,1.2671755725190839,0.007568359375,0.031005859375,-0.61083984375,1.6235
3.2519083969465647,3.969465648854962,1.4351145038167938,0.0048828125,0.029541015625,-0.60595703125,1.6252
3.282442748091603,4.198473282442748,1.282442748091603,0.01025390625,0.027587890625,-0.607421875,1.6269
3.4198473282442747,4.229007633587786,1.5267175572519085,0.006103515625,0.033935546875,-0.602783203125,1.6285999999999998
3.1755725190839694,3.969465648854962,1.5572519083969465,0.003662109375,0.03759765625,-0.614990234375,1.6302999999999999
3.2213740458015265,4.106870229007634,1.4809160305343512,0.0,0.0341796875,-0.60888671875,1.632
3.0076335877862594,4.0458015267175576,1.2061068702290076,0.0029296875,0.03076171875,-0.6044921875,1.6337
2.931297709923664,3.8931297709923665,1.5572519083969465,0.009521484375,0.03466796875,-0.602783203125,1.6354
2.885496183206107,3.8473282442748094,1.4961832061068703,0.00537109375,0.03466796875,-0.60595703125,1.6371
2.946564885496183,3.7557251908396947,1.465648854961832,0.001953125,0.03564453125,-0.60986328125,1.6387999999999998
2.8091603053435112,3.6946564885496183,1.3587786259541985,0.00048828125,0.03076171875,-0.604736328125,1.6404999999999998
2.6564885496183206,3.7251908396946565,1.3129770992366412,0.00537109375,0.0322265625,-0.606689453125,1.6421999999999999
2.6717557251908395,3.5572519083969465,1.4809160305343512,0.006103515625,0.031494140625,-0.60888671875,1.6439
3.0839694656488548,3.633587786259542,1.3893129770992367,0.004150390625,0.031982421875,-0.6123046875,1.6456
3.0839694656488548,3.572519083969466,1.083969465648855,0.00537109375,0.031005859375,-0.603515625,1.6473
3.282442748091603,3.572519083969466,1.297709923664122,0.00341796875,0.02783203125,-0.6015625,1.6489999999999998
3.236641221374046,3.282442748091603,1.4198473282442747,0.006103515625,0.0302734375,-0.60498046875,1.6506999999999998
3.404580152671756,3.3282442748091605,1.5419847328244274,0.009765625,0.02734375,-0.60107421875,1.6523999999999999
3.3435114503816794,2.9923664122137406,1.3587786259541985,0.003662109375,0.0302734375,-0.607666015625,1.6541
3.5419847328244276,3.0229007633587788,1.465648854961832,0.0068359375,0.032470703125,-0.6025390625,1.6558
3.7557251908396947,2.9923664122137406,1.2213740458015268,0.005859375,0.02880859375,-0.607421875,1.6575
3.5572519083969465,2.854961832061069,1.3282442748091603,0.007080078125,0.029541015625,-0.605712890625,1.6592
3.6946564885496183,2.8702290076335877,1.1450381679389312,0.003662109375,0.030029296875,-0.611083984375,1.6608999999999998
3.6030534351145036,2.6412213740458017,1.3435114503816794,0.003662109375,0.033203125,-0.60205078125,1.6625999999999999
3.7557251908396947,2.6564885496183206,1.3435114503816794,0.00244140625,0.0341796875,-0.608154296875,1.6643
3.8625954198473282,2.427480916030534,1.3740458015267176,0.001220703125,0.038330078125,-0.605712890625,1.666
3.6793893129770994,2.2595419847328246,0.8702290076335878,0.0029296875,0.029296875,-0.6044921875,1.6677
3.786259541984733,2.717557251908397,1.1755725190839694,0.00341796875,0.035888671875,-0.61181640625,1.6694
3.7099236641221376,2.198473282442748,1.1145038167938932,-0.001953125,0.030029296875,-0.60888671875,1.6710999999999998
3.5267175572519083,2.198473282442748,1.251908396946565,-0.000732421875,0.0380859375,-0.61376953125,1.6727999999999998
3.5419847328244276,2.183206106870229,1.1297709923664123,0.005615234375,0.0322265625,-0.61181640625,1.6744999999999999
3.404580152671756,2.0916030534351147,0.9465648854961832,0.005126953125,0.031494140625,-0.610107421875,1.6762
3.404580152671756,2.122137404580153,1.0381679389312977,0.0078125,0.031494140625,-0.606201171875,1.6779
3.236641221374046,2.0610687022900764,1.1145038167938932,-0.001220703125,0.030029296875,-0.603759765625,1.6796
3.114503816793893,1.9236641221374047,0.8702290076335878,-0.000732421875,0.029052734375,-0.607421875,1.6813
3.145038167938931,2.122137404580153,0.8702290076335878,0.003173828125,0.029541015625,-0.60498046875,1.6829999999999998
3.2061068702290076,2.1526717557251906,0.7022900763358778,-0.0009765625,0.02783203125,-0.613037109375,1.6846999999999999
2.931297709923664,2.0610687022900764,0.732824427480916,0.0029296875,0.031005859375,-0.598388671875,1.6864
2.885496183206107,1.9236641221374047,0.5648854961832062,0.00048828125,0.02978515625,-0.60693359375,1.6881
2.931297709923664,2.0610687022900764,0.5038167938931297,0.000732421875,0.031982421875,-0.607421875,1.6898
2.854961832061069,1.816793893129771,0.366412213740458,0.001708984375,0.02783203125,-0.609130859375,1.6915
2.9923664122137406,1.83206106870229,0.32061068702290074,-0.004638671875,0.03125,-0.602783203125,1.6931999999999998
2.8091603053435112,1.6488549618320612,0.10687022900763359,0.001708984375,0.032470703125,-0.606689453125,1.6948999999999999
2.595419847328244,1.5877862595419847,0.10687022900763359,-0.00048828125,0.0302734375,-0.6025390625,1.6965999999999999
2.427480916030534,1.3740458015267176,0.07633587786259542,-0.00146484375,0.034423828125,-0.613037109375,1.6983
2.4122137404580153,1.7099236641221374,-0.2595419847328244,0.000244140625,0.037841796875,-0.616455078125,1.7
2.2290076335877864,1.5419847328244274,-0.21374045801526717,-0.0048828125,0.033935546875,-0.6103515625,1.7017
2.1526717557251906,1.3740458015267176,-0.12213740458015267,0.000244140625,0.0302734375,-0.6064453125,1.7033999999999998
2.213740458015267,1.4045801526717556,-0.32061068702290074,0.00244140625,0.028564453125,-0.611572265625,1.7050999999999998
1.8931297709923665,1.450381679389313,-0.3053435114503817,-0.00244140625,0.029541015625,-0.607177734375,1.7067999999999999
1.8778625954198473,1.3740458015267176,-0.4122137404580153,-0.001220703125,0.026611328125,-0.60986328125,1.7085
1.9541984732824427,1.2366412213740459,-0.549618320610687,-0.000732421875,0.031494140625,-0.6142578125,1.7102
1.7251908396946565,1.3435114503816794,-0.5343511450381679,0.001220703125,0.031982421875,-0.60986328125,1.7119
1.83206106870229,1.2671755725190839,-0.4732824427480916,-0.00341796875,0.03515625,-0.615966796875,1.7136
1.6793893129770991,1.1145038167938932,-0.8244274809160306,-0.00146484375,0.033203125,-0.609130859375,1.7152999999999998
1.3587786259541985,1.1450381679389312,-0.9465648854961832,0.00048828125,0.030517578125,-0.60107421875,1.7169999999999999
1.099236641221374,1.099236641221374,-0.7480916030534351,0.00439453125,0.032958984375,-0.6123046875,1.7187
1.3740458015267176,1.1908396946564885,-0.8091603053435115,-0.0029296875,0.034423828125,-0.617431640625,1.7204
1.3587786259541985,0.8854961832061069,-0.916030534351145,0.00146484375,0.0302734375,-0.6083984375,1.7221
1.2366412213740459,0.48854961832061067,-1.0229007633587786,0.006103515625,0.033447265625,-0.607666015625,1.7238
1.297709923664122,0.6870229007633588,-1.083969465648855,0.001220703125,0.029541015625,-0.605712890625,1.7254999999999998
1.1297709923664123,0.7786259541984732,-1.0534351145038168,-0.002685546875,0.0302734375,-0.603271484375,1.7271999999999998
1.099236641221374,0.5648854961832062,-1.2366412213740459,-0.005126953125,0.031494140625,-0.605712890625,1.7288999999999999
0.9770992366412213,0.22900763358778625,-1.099236641221374,-0.0009765625,0.031494140625,-0.62109375,1.7306
0.7938931297709924,0.2748091603053435,-1.083969465648855,0.005859375,0.030029296875,-0.614013671875,1.7323
0.5190839694656488,0.366412213740458,-1.2671755725190839,0.002197265625,0.025390625,-0.61572265625,1.734
0.7938931297709924,0.07633587786259542,-1.297709923664122,0.00244140625,0.03125,-0.614990234375,1.7356999999999998
0.5343511450381679,-0.10687022900763359,-1.2213740458015268,0.001220703125,0.029296875,-0.6103515625,1.7373999999999998
0.3969465648854962,-0.04580152671755725,-1.0229007633587786,0.001953125,0.030029296875,-0.6103515625,1.7390999999999999
0.5038167938931297,-0.16793893129770993,-1.3435114503816794,0.00390625,0.03076171875,-0.612060546875,1.7408
0.32061068702290074,-0.183206106870229,-1.5114503816793894,0.002197265625,0.031005859375,-0.60791015625,1.7425
0.4122137404580153,-0.32061068702290074,-1.3740458015267176,0.001953125,0.02783203125,-0.601806640625,1.7442
0.1984732824427481,-0.24427480916030533,-1.2671755725190839,-0.00048828125,0.033935546875,-0.597412109375,1.7459
0.16793893129770993,-0.2900763358778626,-1.3893129770992367,0.001708984375,0.029541015625,-0.614990234375,1.7475999999999998
0.366412213740458,-0.42748091603053434,-1.3282442748091603,0.003662109375,0.0263671875,-0.618896484375,1.7492999999999999
0.4732824427480916,-0.48854961832061067,-1.3587786259541985,0.003173828125,0.0263671875,-0.615234375,1.751
0.4580152671755725,-0.5343511450381679,-1.251908396946565,0.00390625,0.028564453125,-0.6044921875,1.7527
0.366412213740458,-0.5954198473282443,-1.2366412213740459,0.00146484375,0.031982421875,-0.60546875,1.7544
0.3511450381679389,-0.2595419847328244,-1.1603053435114503,-0.002197265625,0.031982421875,-0.606201171875,1.7561
0.2595419847328244,-0.549618320610687,-1.3893129770992367,0.003173828125,0.031982421875,-0.60986328125,1.7577999999999998
0.015267175572519083,-0.3969465648854962,-1.282442748091603,0.00439453125,0.02880859375,-0.61279296875,1.7594999999999998
0.366412213740458,-0.2900763358778626,-1.2671755725190839,-0.00048828125,0.03369140625,-0.601806640625,1.7611999999999999
0.42748091603053434,-0.6717557251908397,-1.2366412213740459,0.004150390625,0.031494140625,-0.6123046875,1.7629
0.061068702290076333,-0.549618320610687,-1.2366412213740459,0.003662109375,0.03271484375,-0.605712890625,1.7646
0.42748091603053434,-0.33587786259541985,-0.9923664122137404,0.002685546875,0.032958984375,-0.610107421875,1.7663
0.12213740458015267,-0.5190839694656488,-1.0381679389312977,-0.0029296875,0.03515625,-0.608154296875,1.7679999999999998
0.22900763358778625,0.0,-1.0534351145038168,0.001708984375,0.02880859375,-0.61181640625,1.7696999999999998
0.2748091603053435,-0.24427480916030533,-1.1297709923664123,0.003173828125,0.029296875,-0.60498046875,1.7713999999999999
0.48854961832061067,-0.21374045801526717,-1.0076335877862594,-0.001953125,0.031494140625,-0.609375,1.7731
0.4732824427480916,-0.21374045801526717,-1.1145038167938932,-0.00146484375,0.0361328125,-0.607177734375,1.7748
0.48854961832061067,0.0,-1.3435114503816794,0.005126953125,0.032470703125,-0.609619140625,1.7765
0.366412213740458,0.061068702290076333,-1.0687022900763359,0.001708984375,0.031005859375,-0.60791015625,1.7782
0.6259541984732825,0.0916030534351145,-1.1297709923664123,-0.0048828125,0.03466796875,-0.61181640625,1.7798999999999998
0.7175572519083969,0.183206106870229,-1.1755725190839694,0.001220703125,0.0302734375,-0.60888671875,1.7815999999999999
0.44274809160305345,0.2900763358778626,-1.3740458015267176,0.00341796875,0.029296875,-0.609130859375,1.7832999999999999
0.3053435114503817,0.48854961832061067,-1.0381679389312977,-0.00341796875,0.03515625,-0.609375,1.785
0.4122137404580153,0.5343511450381679,-0.9923664122137404,0.001220703125,0.0380859375,-0.605712890625,1.7867
0.2748091603053435,0.2748091603053435,-1.1145038167938932,0.001953125,0.030029296875,-0.608154296875,1.7884
0.3816793893129771,0.48854961832061067,-0.8091603053435115,0.001708984375,0.02978515625,-0.61083984375,1.7900999999999998
0.24427480916030533,0.549618320610687,-0.9465648854961832,-0.00439453125,0.030517578125,-0.6025390625,1.7917999999999998
0.13740458015267176,0.5190839694656488,-0.7633587786259542,0.006103515625,0.02880859375,-0.610107421875,1.7934999999999999
0.13740458015267176,0.44274809160305345,-0.9312977099236641,0.005859375,0.03271484375,-0.608154296875,1.7952
0.24427480916030533,0.5038167938931297,-1.0076335877862594,0.001953125,0.033203125,-0.610595703125,1.7969
0.10687022900763359,0.9007633587786259,-0.9465648854961832,-0.000244140625,0.031494140625,-0.605224609375,1.7986
0.5648854961832062,0.7175572519083969,-0.6412213740458015,0.00146484375,0.029296875,-0.606689453125,1.8002999999999998
0.4732824427480916,0.5801526717557252,-0.7022900763358778,0.001708984375,0.034912109375,-0.609619140625,1.8019999999999998
0.5038167938931297,0.8091603053435115,-0.6412213740458015,0.00048828125,0.031494140625,-0.607421875,1.8036999999999999
0.7480916030534351,0.7022900763358778,-0.3969465648854962,0.002685546875,0.029541015625,-0.60546875,1.8054
0.732824427480916,0.7786259541984732,-0.42748091603053434,0.00048828125,0.0322265625,-0.605224609375,1.8071
0.8854961832061069,0.8091603053435115,-0.3511450381679389,0.000732421875,0.03076171875,-0.603515625,1.8088
1.1755725190839694,0.7633587786259542,-0.33587786259541985,0.00390625,0.027587890625,-0.60302734375,1.8105
1.1145038167938932,0.8244274809160306,-0.21374045801526717,0.004638671875,0.029541015625,-0.60498046875,1.8121999999999998
1.5267175572519085,1.1603053435114503,0.015267175572519083,0.004638671875,0.02783203125,-0.60498046875,1.8138999999999998
