gyrox1,gyroy1,gyroz1,accelx1,accely1,accelz1,Time
-0.10687022900763359,0.6717557251908397,-0.6870229007633588,-0.472412109375,-0.073486328125,-0.1044921875,0.0
-0.4580152671755725,0.7022900763358778,-0.6106870229007634,-0.475341796875,-0.07470703125,-0.104248046875,0.0017
-0.2595419847328244,0.7786259541984732,-0.5343511450381679,-0.473388671875,-0.072509765625,-0.10693359375,0.0034
-0.16793893129770993,0.9770992366412213,-0.5190839694656488,-0.46728515625,-0.072998046875,-0.11279296875,0.0050999999999999995
-0.4122137404580153,1.099236641221374,-0.44274809160305345,-0.468994140625,-0.073486328125,-0.107666015625,0.0068
-0.4122137404580153,1.1755725190839694,-0.5801526717557252,-0.468994140625,-0.07958984375,-0.1123046875,0.008499999999999999
-0.5343511450381679,1.1297709923664123,-0.4580152671755725,-0.469482421875,-0.078369140625,-0.108642578125,0.010199999999999999
-0.5801526717557252,1.5114503816793894,-0.2900763358778626,-0.47412109375,-0.079345703125,-0.109130859375,0.011899999999999999
-0.5648854961832062,1.1450381679389312,-0.2595419847328244,-0.47412109375,-0.075439453125,-0.106201171875,0.0136
-0.7175572519083969,1.3435114503816794,-0.44274809160305345,-0.470703125,-0.07373046875,-0.1103515625,0.0153
-0.8549618320610687,1.4351145038167938,-0.4122137404580153,-0.47216796875,-0.072509765625,-0.11376953125,0.016999999999999998
-0.9618320610687023,1.297709923664122,-0.32061068702290074,-0.470703125,-0.078369140625,-0.095458984375,0.018699999999999998
-1.251908396946565,1.465648854961832,-0.48854961832061067,-0.4638671875,-0.075439453125,-0.102783203125,0.020399999999999998
-1.3282442748091603,1.450381679389313,-0.5954198473282443,-0.474365234375,-0.07470703125,-0.104736328125,0.022099999999999998
-1.6030534351145038,1.4809160305343512,-0.3511450381679389,-0.4677734375,-0.071533203125,-0.113037109375,0.023799999999999998
-1.618320610687023,1.4198473282442747,-0.3053435114503817,-0.4697265625,-0.07568359375,-0.112548828125,0.0255
-1.9694656488549618,1.3893129770992367,-0.21374045801526717,-0.4638671875,-0.07763671875,-0.104248046875,0.0272
-2.015267175572519,1.4198473282442747,-0.5038167938931297,-0.466552734375,-0.0732421875,-0.107666015625,0.0289
-2.122137404580153,1.3282442748091603,-0.33587786259541985,-0.466064453125,-0.076904296875,-0.110107421875,0.0306
-2.381679389312977,1.5267175572519085,-0.21374045801526717,-0.468505859375,-0.076904296875,-0.1083984375,0.032299999999999995
-2.6106870229007635,1.3435114503816794,-0.3511450381679389,-0.46728515625,-0.069580078125,-0.113525390625,0.033999999999999996
-2.5801526717557253,1.2061068702290076,-0.4122137404580153,-0.468505859375,-0.076416015625,-0.109130859375,0.035699999999999996
-2.9618320610687023,1.3282442748091603,-0.2595419847328244,-0.472412109375,-0.074462890625,-0.120361328125,0.037399999999999996
-3.1603053435114505,1.0076335877862594,-0.366412213740458,-0.4677734375,-0.0693359375,-0.11767578125,0.039099999999999996
-3.1297709923664123,0.9770992366412213,-0.4580152671755725,-0.465576171875,-0.07275390625,-0.10595703125,0.040799999999999996
-3.3587786259541983,1.0229007633587786,-0.4580152671755725,-0.466064453125,-0.07177734375,-0.1142578125,0.042499999999999996
-3.7099236641221376,0.9618320610687023,-0.3816793893129771,-0.471435546875,-0.072509765625,-0.116455078125,0.044199999999999996
-3.66412213740458,1.0687022900763359,-0.42748091603053434,-0.467041015625,-0.070556640625,-0.121337890625,0.045899999999999996
-3.801526717557252,0.9618320610687023,-0.4732824427480916,-0.468994140625,-0.066162109375,-0.12158203125,0.047599999999999996
-3.9389312977099236,0.9007633587786259,-0.366412213740458,-0.470458984375,-0.07177734375,-0.1181640625,0.0493
-4.229007633587786,1.0381679389312977,-0.5343511450381679,-0.467041015625,-0.06591796875,-0.10595703125,0.051
-4.244274809160306,1.083969465648855,-0.5038167938931297,-0.470458984375,-0.071533203125,-0.108642578125,0.0527
-4.488549618320611,0.9007633587786259,-0.3053435114503817,-0.467529296875,-0.072509765625,-0.1103515625,0.0544
-4.427480916030534,0.9770992366412213,-0.3816793893129771,-0.464599609375,-0.069580078125,-0.11328125,0.0561
-4.458015267175573,1.0687022900763359,-0.7022900763358778,-0.466064453125,-0.069580078125,-0.1142578125,0.0578
-4.580152671755725,1.099236641221374,-0.7938931297709924,-0.470458984375,-0.0703125,-0.117431640625,0.0595
-4.641221374045801,0.9312977099236641,-0.6412213740458015,-0.47021484375,-0.0634765625,-0.11083984375,0.0612
-4.656488549618321,1.0076335877862594,-0.5190839694656488,-0.465087890625,-0.0615234375,-0.10888671875,0.0629
-4.564885496183206,0.9618320610687023,-0.8244274809160306,-0.469970703125,-0.06640625,-0.117431640625,0.06459999999999999
-4.534351145038168,1.0534351145038168,-0.8244274809160306,-0.47216796875,-0.071533203125,-0.114501953125,0.0663
-4.6106870229007635,1.1603053435114503,-0.6870229007633588,-0.470947265625,-0.06103515625,-0.109375,0.06799999999999999
-4.580152671755725,1.2061068702290076,-0.5343511450381679,-0.46533203125,-0.062744140625,-0.103759765625,0.0697
-4.458015267175573,1.1297709923664123,-0.6564885496183206,-0.47216796875,-0.05908203125,-0.102783203125,0.07139999999999999
-4.549618320610687,1.4351145038167938,-0.9618320610687023,-0.468994140625,-0.060791015625,-0.1083984375,0.0731
-4.519083969465649,1.786259541984733,-0.7786259541984732,-0.466552734375,-0.064208984375,-0.109619140625,0.07479999999999999
-4.183206106870229,1.7709923664122138,-0.916030534351145,-0.47216796875,-0.0654296875,-0.1123046875,0.0765
-4.320610687022901,1.4809160305343512,-0.9923664122137404,-0.4677734375,-0.069580078125,-0.108642578125,0.07819999999999999
-3.83206106870229,1.7709923664122138,-0.8549618320610687,-0.470947265625,-0.06787109375,-0.105712890625,0.0799
-3.7709923664122136,1.7251908396946565,-0.7480916030534351,-0.468017578125,-0.063232421875,-0.114501953125,0.08159999999999999
-3.984732824427481,2.0763358778625953,-0.8396946564885496,-0.46435546875,-0.063232421875,-0.11181640625,0.0833
-3.801526717557252,2.198473282442748,-1.0381679389312977,-0.472900390625,-0.05712890625,-0.110107421875,0.08499999999999999
-3.7099236641221376,2.1068702290076335,-0.8244274809160306,-0.46484375,-0.061279296875,-0.110107421875,0.0867
-3.7099236641221376,2.1374045801526718,-0.9465648854961832,-0.467529296875,-0.0625,-0.1083984375,0.08839999999999999
-3.6030534351145036,2.2442748091603053,-0.7175572519083969,-0.46826171875,-0.060791015625,-0.10693359375,0.0901
-3.3893129770992365,2.427480916030534,-0.8702290076335878,-0.46435546875,-0.062255859375,-0.103515625,0.09179999999999999
-3.2977099236641223,2.351145038167939,-0.9312977099236641,-0.458984375,-0.068603515625,-0.099609375,0.0935
-3.3587786259541983,2.4427480916030535,-0.8244274809160306,-0.46044921875,-0.0546875,-0.112548828125,0.09519999999999999
-3.053435114503817,2.4427480916030535,-0.8091603053435115,-0.460693359375,-0.061767578125,-0.110595703125,0.0969
-3.2213740458015265,2.366412213740458,-0.8702290076335878,-0.464111328125,-0.064208984375,-0.11181640625,0.0986
-2.8244274809160306,2.549618320610687,-0.7633587786259542,-0.464111328125,-0.058349609375,-0.10400390625,0.1003
-2.9160305343511452,2.4427480916030535,-0.9923664122137404,-0.462158203125,-0.061279296875,-0.10498046875,0.102
-2.6564885496183206,2.4580152671755724,-0.8854961832061069,-0.459228515625,-0.059326171875,-0.111083984375,0.1037
-2.7022900763358777,2.4732824427480917,-0.916030534351145,-0.4599609375,-0.06494140625,-0.109130859375,0.1054
-2.717557251908397,2.366412213740458,-0.8244274809160306,-0.45947265625,-0.06103515625,-0.117919921875,0.1071
-2.564885496183206,2.366412213740458,-1.083969465648855,-0.45849609375,-0.06103515625,-0.110107421875,0.1088
-2.854961832061069,2.2595419847328246,-1.1450381679389312,-0.459228515625,-0.062255859375,-0.106689453125,0.11049999999999999
-2.6412213740458017,2.183206106870229,-1.0687022900763359,-0.455322265625,-0.062255859375,-0.113525390625,0.1122
-2.5801526717557253,2.183206106870229,-1.0229007633587786,-0.453857421875,-0.06005859375,-0.108154296875,0.11389999999999999
-2.6259541984732824,2.045801526717557,-1.251908396946565,-0.45361328125,-0.06201171875,-0.107666015625,0.1156
-2.4885496183206106,2.1526717557251906,-1.099236641221374,-0.457275390625,-0.065673828125,-0.1162109375,0.11729999999999999
-2.4732824427480917,2.1068702290076335,-1.2213740458015268,-0.45947265625,-0.05615234375,-0.111083984375,0.119
-2.351145038167939,2.198473282442748,-1.282442748091603,-0.451904296875,-0.058349609375,-0.108642578125,0.12069999999999999
-2.183206106870229,1.8625954198473282,-1.282442748091603,-0.455322265625,-0.056884765625,-0.117431640625,0.1224
-2.2290076335877864,1.9236641221374047,-1.2061068702290076,-0.458984375,-0.05908203125,-0.110595703125,0.12409999999999999
-2.2290076335877864,2.0610687022900764,-1.4351145038167938,-0.455078125,-0.054443359375,-0.109375,0.1258
-2.122137404580153,1.9083969465648856,-1.6030534351145038,-0.45947265625,-0.055419921875,-0.1171875,0.1275
-1.83206106870229,1.8473282442748091,-1.7557251908396947,-0.4609375,-0.060546875,-0.113525390625,0.12919999999999998
-1.984732824427481,2.213740458015267,-1.450381679389313,-0.460693359375,-0.057861328125,-0.118408203125,0.1309
-1.7557251908396947,2.122137404580153,-1.7251908396946565,-0.45849609375,-0.059814453125,-0.113525390625,0.1326
-1.6488549618320612,2.1526717557251906,-1.618320610687023,-0.459716796875,-0.0625,-0.11279296875,0.1343
-1.465648854961832,2.030534351145038,-1.984732824427481,-0.461669921875,-0.060791015625,-0.112548828125,0.13599999999999998
-1.4198473282442747,2.1068702290076335,-2.045801526717557,-0.460205078125,-0.058349609375,-0.11474609375,0.1377
-1.5572519083969465,2.2900763358778624,-2.183206106870229,-0.46240234375,-0.06494140625,-0.12109375,0.1394
-1.5114503816793894,2.366412213740458,-2.183206106870229,-0.46044921875,-0.0556640625,-0.12060546875,0.1411
-1.3740458015267176,2.3206106870229006,-2.16793893129771,-0.465576171875,-0.05419921875,-0.121826171875,0.14279999999999998
-1.3740458015267176,2.3053435114503817,-1.9694656488549618,-0.466064453125,-0.0537109375,-0.113525390625,0.1445
-1.3893129770992367,2.3053435114503817,-2.2442748091603053,-0.465087890625,-0.051025390625,-0.10888671875,0.1462
-1.282442748091603,2.4732824427480917,-2.3206106870229006,-0.46826171875,-0.05908203125,-0.118896484375,0.1479
-1.2213740458015268,2.595419847328244,-2.381679389312977,-0.46435546875,-0.06103515625,-0.116943359375,0.14959999999999998
-1.1908396946564885,2.5801526717557253,-2.2290076335877864,-0.46142578125,-0.060791015625,-0.120849609375,0.1513
-1.282442748091603,2.7786259541984735,-2.381679389312977,-0.46044921875,-0.054931640625,-0.117431640625,0.153
-0.8396946564885496,2.9770992366412212,-2.2442748091603053,-0.4658203125,-0.052734375,-0.1162109375,0.1547
-0.7480916030534351,3.053435114503817,-2.2748091603053435,-0.46875,-0.062744140625,-0.113037109375,0.15639999999999998
-0.6412213740458015,3.0381679389312977,-2.5343511450381677,-0.46630859375,-0.057861328125,-0.11767578125,0.1581
-0.5801526717557252,3.1755725190839694,-2.4732824427480917,-0.465576171875,-0.055908203125,-0.10791015625,0.1598
-0.4732824427480916,3.282442748091603,-2.2900763358778624,-0.467529296875,-0.056640625,-0.112548828125,0.1615
-0.366412213740458,3.236641221374046,-2.564885496183206,-0.46484375,-0.054443359375,-0.116455078125,0.16319999999999998
-0.5190839694656488,3.2519083969465647,-2.366412213740458,-0.469970703125,-0.05859375,-0.115478515625,0.1649
-0.2595419847328244,3.267175572519084,-2.595419847328244,-0.463134765625,-0.058349609375,-0.1162109375,0.1666
-0.030534351145038167,3.236641221374046,-2.4427480916030535,-0.463134765625,-0.056640625,-0.116943359375,0.16829999999999998
-0.32061068702290074,3.3282442748091605,-2.7786259541984735,-0.466064453125,-0.05859375,-0.11572265625,0.16999999999999998
0.030534351145038167,3.2213740458015265,-2.6564885496183206,-0.46240234375,-0.0556640625,-0.11669921875,0.1717
0.16793893129770993,3.5267175572519083,-2.6106870229007635,-0.462890625,-0.05908203125,-0.107421875,0.1734
0.061068702290076333,3.3740458015267176,-2.4427480916030535,-0.466552734375,-0.05517578125,-0.112060546875,0.17509999999999998
0.061068702290076333,3.3282442748091605,-2.8396946564885495,-0.462890625,-0.05810546875,-0.112060546875,0.17679999999999998
0.061068702290076333,3.2519083969465647,-2.6106870229007635,-0.46337890625,-0.057373046875,-0.11181640625,0.1785
-0.061068702290076333,3.3435114503816794,-2.763358778625954,-0.4638671875,-0.06494140625,-0.10546875,0.1802
0.2595419847328244,3.2213740458015265,-2.6412213740458017,-0.4609375,-0.0576171875,-0.1005859375,0.18189999999999998
0.15267175572519084,3.0076335877862594,-2.8396946564885495,-0.465576171875,-0.0595703125,-0.10888671875,0.18359999999999999
0.061068702290076333,2.946564885496183,-2.6717557251908395,-0.46044921875,-0.05615234375,-0.10791015625,0.1853
0.13740458015267176,2.900763358778626,-2.6564885496183206,-0.46240234375,-0.058837890625,-0.102783203125,0.187
0.1984732824427481,2.8702290076335877,-2.6564885496183206,-0.4638671875,-0.05615234375,-0.10888671875,0.18869999999999998
-0.015267175572519083,2.763358778625954,-2.7022900763358777,-0.4619140625,-0.059326171875,-0.109375,0.19039999999999999
0.13740458015267176,2.717557251908397,-2.8091603053435112,-0.4599609375,-0.05712890625,-0.1162109375,0.1921
0.42748091603053434,2.519083969465649,-2.900763358778626,-0.460205078125,-0.06103515625,-0.10986328125,0.1938
0.3816793893129771,2.4580152671755724,-2.6106870229007635,-0.45849609375,-0.0595703125,-0.111328125,0.19549999999999998
0.5038167938931297,2.2595419847328246,-2.717557251908397,-0.458251953125,-0.05712890625,-0.112060546875,0.1972
0.5038167938931297,2.2290076335877864,-2.854961832061069,-0.461669921875,-0.055908203125,-0.11328125,0.1989
0.33587786259541985,2.0916030534351147,-3.099236641221374,-0.45947265625,-0.064697265625,-0.114013671875,0.2006
0.1984732824427481,1.9389312977099236,-2.717557251908397,-0.4580078125,-0.056396484375,-0.1025390625,0.20229999999999998
0.2900763358778626,1.7709923664122138,-2.885496183206107,-0.46337890625,-0.060791015625,-0.11376953125,0.204
0.48854961832061067,1.6793893129770991,-2.9770992366412212,-0.46044921875,-0.06005859375,-0.110107421875,0.2057
0.7175572519083969,1.7557251908396947,-2.9923664122137406,-0.457763671875,-0.060546875,-0.112548828125,0.2074
0.6564885496183206,1.5267175572519085,-2.885496183206107,-0.457275390625,-0.0615234375,-0.110595703125,0.20909999999999998
0.6259541984732825,1.5877862595419847,-2.8396946564885495,-0.46142578125,-0.06103515625,-0.106689453125,0.2108
1.0076335877862594,1.5877862595419847,-2.7786259541984735,-0.459228515625,-0.0576171875,-0.117919921875,0.2125
1.0076335877862594,1.3893129770992367,-3.0076335877862594,-0.46044921875,-0.058349609375,-0.1083984375,0.2142
0.9007633587786259,1.6488549618320612,-2.687022900763359,-0.462646484375,-0.060791015625,-0.113037109375,0.21589999999999998
0.8549618320610687,1.5572519083969465,-2.8702290076335877,-0.4580078125,-0.05517578125,-0.11669921875,0.2176
1.1908396946564885,1.6641221374045803,-2.763358778625954,-0.46142578125,-0.059326171875,-0.119873046875,0.2193
1.0381679389312977,1.5114503816793894,-2.7480916030534353,-0.461181640625,-0.0576171875,-0.118896484375,0.22099999999999997
1.465648854961832,1.4809160305343512,-2.7938931297709924,-0.462890625,-0.051025390625,-0.112060546875,0.22269999999999998
1.4961832061068703,1.6030534351145038,-2.8244274809160306,-0.462158203125,-0.059326171875,-0.1181640625,0.2244
1.4351145038167938,1.7099236641221374,-2.8396946564885495,-0.461181640625,-0.0537109375,-0.1181640625,0.2261
1.6030534351145038,1.786259541984733,-2.8091603053435112,-0.4638671875,-0.059326171875,-0.11962890625,0.22779999999999997
2.015267175572519,1.6946564885496183,-2.8091603053435112,-0.46337890625,-0.0556640625,-0.1123046875,0.22949999999999998
1.8931297709923665,1.633587786259542,-2.9160305343511452,-0.459228515625,-0.056640625,-0.11865234375,0.2312
2.2290076335877864,2.0,-2.7480916030534353,-0.45849609375,-0.057861328125,-0.115478515625,0.2329
2.351145038167939,1.8931297709923665,-2.931297709923664,-0.46044921875,-0.0595703125,-0.127197265625,0.23459999999999998
2.3053435114503817,1.9541984732824427,-2.9160305343511452,-0.462158203125,-0.056884765625,-0.1162109375,0.23629999999999998
2.4427480916030535,2.015267175572519,-2.885496183206107,-0.45947265625,-0.05517578125,-0.10693359375,0.238
2.6412213740458017,2.015267175572519,-2.8244274809160306,-0.46337890625,-0.055908203125,-0.119384765625,0.2397
2.717557251908397,2.1374045801526718,-2.900763358778626,-0.464599609375,-0.055908203125,-0.116455078125,0.24139999999999998
2.763358778625954,2.198473282442748,-2.885496183206107,-0.461669921875,-0.054931640625,-0.115234375,0.24309999999999998
3.1908396946564888,2.198473282442748,-2.7786259541984735,-0.463134765625,-0.058349609375,-0.120849609375,0.2448
3.1297709923664123,2.3206106870229006,-2.6717557251908395,-0.458740234375,-0.057861328125,-0.116455078125,0.2465
2.9770992366412212,2.4427480916030535,-3.145038167938931,-0.462890625,-0.056640625,-0.120361328125,0.24819999999999998
3.1603053435114505,2.4732824427480917,-2.8091603053435112,-0.463623046875,-0.05859375,-0.125,0.24989999999999998
3.2061068702290076,2.549618320610687,-2.946564885496183,-0.460205078125,-0.0615234375,-0.109130859375,0.2516
3.1755725190839694,2.4427480916030535,-3.0076335877862594,-0.4658203125,-0.055419921875,-0.1142578125,0.25329999999999997
3.1297709923664123,2.549618320610687,-3.0229007633587788,-0.4658203125,-0.05322265625,-0.12255859375,0.255
3.3893129770992365,2.6259541984732824,-3.1297709923664123,-0.459716796875,-0.055419921875,-0.12109375,0.2567
3.3893129770992365,2.732824427480916,-2.9923664122137406,-0.459716796875,-0.061279296875,-0.11572265625,0.25839999999999996
3.3587786259541983,2.7480916030534353,-3.1603053435114505,-0.462890625,-0.056884765625,-0.117919921875,0.2601
3.435114503816794,2.9923664122137406,-3.0076335877862594,-0.461669921875,-0.05810546875,-0.12451171875,0.2618
3.114503816793893,3.0229007633587788,-2.9923664122137406,-0.46337890625,-0.06201171875,-0.117431640625,0.2635
3.1297709923664123,2.946564885496183,-3.053435114503817,-0.463134765625,-0.05908203125,-0.12109375,0.2652
3.1908396946564888,2.885496183206107,-3.145038167938931,-0.459228515625,-0.060791015625,-0.12158203125,0.26689999999999997
3.068702290076336,2.8702290076335877,-3.114503816793893,-0.458984375,-0.058837890625,-0.110107421875,0.2686
3.2061068702290076,2.9160305343511452,-3.145038167938931,-0.462646484375,-0.054443359375,-0.1201171875,0.2703
3.1603053435114505,3.053435114503817,-2.9618320610687023,-0.462890625,-0.06103515625,-0.111328125,0.27199999999999996
3.2213740458015265,2.8244274809160306,-3.053435114503817,-0.459228515625,-0.06298828125,-0.120849609375,0.2737
2.9160305343511452,2.8244274809160306,-3.0839694656488548,-0.4619140625,-0.062744140625,-0.112060546875,0.2754
2.732824427480916,2.6412213740458017,-3.145038167938931,-0.45654296875,-0.06005859375,-0.11181640625,0.27709999999999996
2.7938931297709924,2.885496183206107,-3.1755725190839694,-0.463623046875,-0.060791015625,-0.111083984375,0.2788
2.687022900763359,2.6564885496183206,-3.1908396946564888,-0.45556640625,-0.067138671875,-0.110107421875,0.28049999999999997
2.5343511450381677,2.4732824427480917,-3.099236641221374,-0.459228515625,-0.06298828125,-0.117431640625,0.2822
2.7786259541984735,2.366412213740458,-2.854961832061069,-0.46044921875,-0.064697265625,-0.110595703125,0.2839
2.33587786259542,2.4885496183206106,-2.8702290076335877,-0.4560546875,-0.0615234375,-0.118408203125,0.28559999999999997
2.427480916030534,2.2442748091603053,-3.0381679389312977,-0.459228515625,-0.06298828125,-0.117919921875,0.2873
2.427480916030534,2.2290076335877864,-2.8702290076335877,-0.458984375,-0.06494140625,-0.118896484375,0.289
2.16793893129771,2.122137404580153,-2.900763358778626,-0.455078125,-0.064453125,-0.1083984375,0.29069999999999996
1.8931297709923665,2.122137404580153,-2.8396946564885495,-0.45947265625,-0.060791015625,-0.11474609375,0.2924
2.015267175572519,1.9694656488549618,-3.068702290076336,-0.45947265625,-0.060791015625,-0.116943359375,0.2941
2.0,1.8778625954198473,-2.946564885496183,-0.453857421875,-0.065673828125,-0.11328125,0.2958
1.7557251908396947,1.9083969465648856,-2.732824427480916,-0.452880859375,-0.0625,-0.114990234375,0.2975
1.7251908396946565,1.6641221374045803,-2.549618320610687,-0.4609375,-0.060302734375,-0.1142578125,0.29919999999999997
1.8778625954198473,1.633587786259542,-2.7022900763358777,-0.457763671875,-0.062744140625,-0.1201171875,0.3009
1.6946564885496183,1.618320610687023,-2.6717557251908395,-0.4501953125,-0.065673828125,-0.114990234375,0.3026
1.4961832061068703,1.4961832061068703,-2.6564885496183206,-0.456787109375,-0.06298828125,-0.114501953125,0.30429999999999996
1.5419847328244274,1.3435114503816794,-2.6564885496183206,-0.4580078125,-0.05712890625,-0.11279296875,0.306
1.3129770992366412,1.3129770992366412,-2.7480916030534353,-0.455078125,-0.064697265625,-0.114501953125,0.3077
1.3282442748091603,1.2671755725190839,-2.564885496183206,-0.447265625,-0.061279296875,-0.110107421875,0.3094
1.3435114503816794,1.3587786259541985,-2.519083969465649,-0.45458984375,-0.06201171875,-0.111328125,0.3111
1.3740458015267176,0.9618320610687023,-2.3206106870229006,-0.45263671875,-0.06298828125,-0.11572265625,0.31279999999999997
1.4961832061068703,1.0076335877862594,-2.4885496183206106,-0.4580078125,-0.0634765625,-0.110107421875,0.3145
1.2366412213740459,1.0534351145038168,-2.3206106870229006,-0.455810546875,-0.0595703125,-0.110595703125,0.3162
1.1450381679389312,1.099236641221374,-2.3206106870229006,-0.454345703125,-0.066162109375,-0.120849609375,0.31789999999999996
1.297709923664122,0.7786259541984732,-2.183206106870229,-0.45703125,-0.062255859375,-0.108642578125,0.3196
1.3587786259541985,0.7480916030534351,-2.3053435114503817,-0.46240234375,-0.066650390625,-0.114501953125,0.3213
1.1908396946564885,0.7938931297709924,-2.122137404580153,-0.45849609375,-0.06396484375,-0.11474609375,0.323
1.251908396946565,0.6717557251908397,-2.183206106870229,-0.45654296875,-0.065185546875,-0.1201171875,0.3247
1.3435114503816794,0.4732824427480916,-1.9694656488549618,-0.457763671875,-0.0625,-0.10546875,0.32639999999999997
1.4045801526717556,0.5343511450381679,-2.0916030534351147,-0.45654296875,-0.0615234375,-0.108642578125,0.3281
1.3129770992366412,0.5038167938931297,-1.8015267175572518,-0.45751953125,-0.06298828125,-0.110595703125,0.3298
1.2061068702290076,0.6259541984732825,-1.984732824427481,-0.460693359375,-0.060546875,-0.120849609375,0.33149999999999996
1.4809160305343512,0.48854961832061067,-1.9083969465648856,-0.456787109375,-0.060791015625,-0.114501953125,0.3332
1.465648854961832,0.5648854961832062,-2.0,-0.455322265625,-0.0576171875,-0.11083984375,0.3349
1.4809160305343512,0.5190839694656488,-1.6641221374045803,-0.460693359375,-0.0615234375,-0.116455078125,0.33659999999999995
1.5725190839694656,0.4580152671755725,-1.7404580152671756,-0.45458984375,-0.06201171875,-0.11865234375,0.3383
1.6488549618320612,0.4732824427480916,-1.7404580152671756,-0.46044921875,-0.062744140625,-0.10595703125,0.33999999999999997
1.7099236641221374,0.6259541984732825,-1.7099236641221374,-0.450927734375,-0.06201171875,-0.113525390625,0.3417
1.5572519083969465,0.6412213740458015,-1.6946564885496183,-0.461181640625,-0.060791015625,-0.102783203125,0.3434
1.7557251908396947,0.7175572519083969,-1.6793893129770991,-0.46044921875,-0.065673828125,-0.1142578125,0.34509999999999996
1.9083969465648856,0.5954198473282443,-1.7099236641221374,-0.465576171875,-0.06396484375,-0.109619140625,0.3468
1.83206106870229,0.5343511450381679,-1.618320610687023,-0.459716796875,-0.061279296875,-0.116455078125,0.3485
2.0610687022900764,0.7633587786259542,-1.618320610687023,-0.4619140625,-0.060302734375,-0.11669921875,0.35019999999999996
2.3206106870229006,0.8091603053435115,-1.5877862595419847,-0.4638671875,-0.06787109375,-0.10546875,0.3519
2.0763358778625953,0.9618320610687023,-1.4045801526717556,-0.463623046875,-0.0615234375,-0.114990234375,0.35359999999999997
2.2290076335877864,0.9770992366412213,-1.6488549618320612,-0.461181640625,-0.06103515625,-0.115478515625,0.3553
2.4580152671755724,0.9007633587786259,-1.4961832061068703,-0.46142578125,-0.060302734375,-0.107666015625,0.357
2.564885496183206,1.1450381679389312,-1.7099236641221374,-0.463623046875,-0.064453125,-0.121337890625,0.35869999999999996
2.687022900763359,1.099236641221374,-1.618320610687023,-0.45703125,-0.0595703125,-0.1171875,0.3604
2.6717557251908395,1.099236641221374,-1.816793893129771,-0.458251953125,-0.055419921875,-0.1162109375,0.3621
2.7480916030534353,1.2213740458015268,-1.618320610687023,-0.46240234375,-0.05810546875,-0.099853515625,0.36379999999999996
2.8091603053435112,0.9007633587786259,-1.6793893129770991,-0.46826171875,-0.0615234375,-0.119384765625,0.3655
2.7938931297709924,1.0229007633587786,-1.5114503816793894,-0.467529296875,-0.06201171875,-0.11279296875,0.36719999999999997
2.763358778625954,1.0534351145038168,-1.618320610687023,-0.46435546875,-0.0625,-0.109375,0.3689
3.0381679389312977,1.099236641221374,-1.3893129770992367,-0.46533203125,-0.060302734375,-0.122802734375,0.3706
2.885496183206107,0.916030534351145,-1.465648854961832,-0.467041015625,-0.06201171875,-0.11474609375,0.37229999999999996
3.099236641221374,1.0229007633587786,-1.6946564885496183,-0.46728515625,-0.06396484375,-0.125732421875,0.374
3.2061068702290076,0.9007633587786259,-1.6488549618320612,-0.46337890625,-0.065185546875,-0.113037109375,0.3757
2.687022900763359,0.9923664122137404,-1.5114503816793894,-0.464599609375,-0.0634765625,-0.120361328125,0.37739999999999996
2.7938931297709924,0.8091603053435115,-1.7404580152671756,-0.4599609375,-0.0654296875,-0.1162109375,0.3791
2.7786259541984735,0.7480916030534351,-1.633587786259542,-0.46142578125,-0.0654296875,-0.1123046875,0.38079999999999997
2.7022900763358777,0.5954198473282443,-1.7404580152671756,-0.46435546875,-0.066162109375,-0.115234375,0.38249999999999995
2.732824427480916,0.5190839694656488,-1.4961832061068703,-0.4677734375,-0.067626953125,-0.116943359375,0.3842
2.6106870229007635,0.4122137404580153,-1.6030534351145038,-0.463623046875,-0.061767578125,-0.115234375,0.38589999999999997
2.6106870229007635,0.33587786259541985,-1.5267175572519085,-0.462890625,-0.06591796875,-0.117431640625,0.3876
2.595419847328244,0.42748091603053434,-1.6946564885496183,-0.462158203125,-0.064697265625,-0.1171875,0.3893
2.6259541984732824,0.21374045801526717,-1.7099236641221374,-0.46142578125,-0.0625,-0.118408203125,0.39099999999999996
2.213740458015267,0.12213740458015267,-1.8625954198473282,-0.465576171875,-0.0673828125,-0.113525390625,0.3927
2.2290076335877864,0.16793893129770993,-1.618320610687023,-0.462890625,-0.065673828125,-0.121826171875,0.3944
2.50381679389313,0.12213740458015267,-1.5572519083969465,-0.462890625,-0.058349609375,-0.114013671875,0.39609999999999995
2.2748091603053435,0.030534351145038167,-1.5114503816793894,-0.45849609375,-0.0654296875,-0.102294921875,0.3978
2.2900763358778624,-0.0916030534351145,-1.7557251908396947,-0.4658203125,-0.06201171875,-0.111572265625,0.39949999999999997
2.4885496183206106,-0.0916030534351145,-1.7557251908396947,-0.46142578125,-0.060791015625,-0.115966796875,0.4012
2.213740458015267,-0.2595419847328244,-1.7099236641221374,-0.465576171875,-0.06298828125,-0.116943359375,0.4029
2.381679389312977,-0.22900763358778625,-1.5877862595419847,-0.466552734375,-0.0673828125,-0.114013671875,0.40459999999999996
2.198473282442748,-0.2900763358778626,-1.5419847328244274,-0.46337890625,-0.06396484375,-0.113037109375,0.4063
2.351145038167939,-0.5648854961832062,-1.4961832061068703,-0.466552734375,-0.068115234375,-0.116943359375,0.408
2.3053435114503817,-0.4580152671755725,-1.633587786259542,-0.46826171875,-0.056884765625,-0.114501953125,0.40969999999999995
2.045801526717557,-0.33587786259541985,-1.4961832061068703,-0.46630859375,-0.059326171875,-0.116455078125,0.4114
2.381679389312977,-0.5343511450381679,-1.6030534351145038,-0.46728515625,-0.0625,-0.1220703125,0.41309999999999997
2.3053435114503817,-0.48854961832061067,-1.5419847328244274,-0.464599609375,-0.06298828125,-0.117919921875,0.4148
2.33587786259542,-0.549618320610687,-1.4809160305343512,-0.46337890625,-0.06396484375,-0.1142578125,0.4165
2.381679389312977,-0.5343511450381679,-1.4351145038167938,-0.46875,-0.06298828125,-0.11376953125,0.41819999999999996
2.366412213740458,-0.6259541984732825,-1.633587786259542,-0.46875,-0.059326171875,-0.112060546875,0.4199
2.5343511450381677,-0.6717557251908397,-1.4351145038167938,-0.46875,-0.06787109375,-0.11376953125,0.4216
2.4427480916030535,-0.6259541984732825,-1.282442748091603,-0.46826171875,-0.06591796875,-0.109375,0.42329999999999995
2.3053435114503817,-0.7022900763358778,-1.465648854961832,-0.4697265625,-0.06396484375,-0.11669921875,0.425
2.549618320610687,-0.732824427480916,-1.465648854961832,-0.463623046875,-0.060546875,-0.112548828125,0.42669999999999997
2.4732824427480917,-0.8396946564885496,-1.282442748091603,-0.4677734375,-0.06689453125,-0.113525390625,0.4284
2.931297709923664,-0.6564885496183206,-1.2671755725190839,-0.46826171875,-0.06103515625,-0.109130859375,0.4301
2.732824427480916,-0.5954198473282443,-0.9923664122137404,-0.473876953125,-0.064697265625,-0.1171875,0.43179999999999996
2.5801526717557253,-0.5954198473282443,-1.1450381679389312,-0.473876953125,-0.06396484375,-0.11279296875,0.4335
3.2213740458015265,-0.6106870229007634,-1.1145038167938932,-0.465576171875,-0.064208984375,-0.11181640625,0.4352
3.1603053435114505,-0.4732824427480916,-1.083969465648855,-0.464599609375,-0.06396484375,-0.111083984375,0.43689999999999996
3.282442748091603,-0.4122137404580153,-1.1755725190839694,-0.470458984375,-0.05908203125,-0.11328125,0.4386
3.3435114503816794,-0.21374045801526717,-0.9770992366412213,-0.46728515625,-0.064453125,-0.112548828125,0.44029999999999997
3.66412213740458,-0.5343511450381679,-0.916030534351145,-0.474365234375,-0.063720703125,-0.107666015625,0.44199999999999995
3.633587786259542,-0.48854961832061067,-0.8549618320610687,-0.468994140625,-0.06298828125,-0.112060546875,0.4437
3.816793893129771,-0.24427480916030533,-0.8396946564885496,-0.465576171875,-0.062255859375,-0.122314453125,0.44539999999999996
3.984732824427481,-0.33587786259541985,-0.8702290076335878,-0.47119140625,-0.067138671875,-0.122314453125,0.4471
4.091603053435114,-0.21374045801526717,-0.7022900763358778,-0.468505859375,-0.06640625,-0.10888671875,0.4488
4.0458015267175576,-0.33587786259541985,-0.8244274809160306,-0.471435546875,-0.065185546875,-0.110107421875,0.45049999999999996
4.061068702290076,-0.015267175572519083,-0.7633587786259542,-0.467041015625,-0.065185546875,-0.1142578125,0.4522
4.137404580152672,-0.030534351145038167,-0.6412213740458015,-0.472900390625,-0.060546875,-0.114501953125,0.45389999999999997
4.320610687022901,-0.4580152671755725,-0.6564885496183206,-0.466552734375,-0.063720703125,-0.120361328125,0.45559999999999995
4.122137404580153,-0.33587786259541985,-0.8854961832061069,-0.466796875,-0.06103515625,-0.12841796875,0.4573
4.137404580152672,-0.32061068702290074,-0.6564885496183206,-0.46630859375,-0.056884765625,-0.116455078125,0.45899999999999996
4.33587786259542,-0.3053435114503817,-0.5801526717557252,-0.466796875,-0.066162109375,-0.1064453125,0.4607
4.213740458015267,-0.3816793893129771,-0.8091603053435115,-0.468994140625,-0.06787109375,-0.108642578125,0.4624
4.061068702290076,-0.732824427480916,-0.7175572519083969,-0.46923828125,-0.064208984375,-0.1083984375,0.46409999999999996
4.122137404580153,-0.7175572519083969,-0.7175572519083969,-0.4619140625,-0.061767578125,-0.117431640625,0.4658
4.183206106870229,-0.7633587786259542,-0.8549618320610687,-0.460205078125,-0.058349609375,-0.11328125,0.46749999999999997
4.0458015267175576,-0.6259541984732825,-0.8702290076335878,-0.459228515625,-0.0615234375,-0.114990234375,0.46919999999999995
4.0458015267175576,-0.7175572519083969,-0.7938931297709924,-0.462158203125,-0.061279296875,-0.108642578125,0.4709
3.969465648854962,-1.0076335877862594,-0.8244274809160306,-0.460205078125,-0.06005859375,-0.107177734375,0.47259999999999996
3.954198473282443,-1.1450381679389312,-1.0381679389312977,-0.463623046875,-0.06298828125,-0.114501953125,0.4743
4.061068702290076,-1.251908396946565,-1.083969465648855,-0.4638671875,-0.05810546875,-0.119140625,0.476
3.6793893129770994,-1.3282442748091603,-0.9465648854961832,-0.460205078125,-0.06689453125,-0.11865234375,0.47769999999999996
3.7099236641221376,-1.4351145038167938,-1.083969465648855,-0.4580078125,-0.066650390625,-0.119384765625,0.4794
3.3282442748091605,-1.5114503816793894,-1.099236641221374,-0.459716796875,-0.0625,-0.115234375,0.48109999999999997
3.2977099236641223,-1.6641221374045803,-1.3282442748091603,-0.455078125,-0.064697265625,-0.1123046875,0.48279999999999995
3.3893129770992365,-1.9083969465648856,-1.3587786259541985,-0.458740234375,-0.063720703125,-0.10693359375,0.4845
3.2519083969465647,-1.786259541984733,-1.4045801526717556,-0.4541015625,-0.06201171875,-0.107421875,0.48619999999999997
3.1603053435114505,-2.030534351145038,-1.3435114503816794,-0.457763671875,-0.061767578125,-0.108154296875,0.4879
3.3740458015267176,-2.198473282442748,-1.4198473282442747,-0.458984375,-0.065673828125,-0.115966796875,0.4896
3.114503816793893,-2.0763358778625953,-1.4198473282442747,-0.46044921875,-0.064697265625,-0.1025390625,0.49129999999999996
3.053435114503817,-2.2290076335877864,-1.6641221374045803,-0.462646484375,-0.06201171875,-0.108154296875,0.493
3.1603053435114505,-2.4122137404580153,-1.3740458015267176,-0.4560546875,-0.060791015625,-0.100830078125,0.4947
3.0076335877862594,-2.2442748091603053,-1.5267175572519085,-0.45947265625,-0.06396484375,-0.107666015625,0.49639999999999995
3.099236641221374,-2.381679389312977,-1.7709923664122138,-0.45947265625,-0.064208984375,-0.110107421875,0.4981
3.2061068702290076,-2.33587786259542,-1.6793893129770991,-0.46142578125,-0.0625,-0.108642578125,0.49979999999999997
3.3282442748091605,-2.2748091603053435,-1.7251908396946565,-0.4619140625,-0.0625,-0.1083984375,0.5015
3.3587786259541983,-2.381679389312977,-2.0,-0.459716796875,-0.06005859375,-0.1044921875,0.5032
3.633587786259542,-2.2900763358778624,-1.83206106870229,-0.46142578125,-0.06201171875,-0.103515625,0.5049
3.618320610687023,-2.2595419847328246,-1.786259541984733,-0.466552734375,-0.062255859375,-0.11083984375,0.5065999999999999
4.0,-2.1068702290076335,-2.0916030534351147,-0.462890625,-0.0634765625,-0.105712890625,0.5083
3.8473282442748094,-1.984732824427481,-1.8931297709923665,-0.4609375,-0.061767578125,-0.109130859375,0.51
3.9389312977099236,-1.8015267175572518,-2.015267175572519,-0.46240234375,-0.063720703125,-0.1025390625,0.5116999999999999
4.244274809160306,-1.9694656488549618,-2.0,-0.45703125,-0.064453125,-0.1064453125,0.5134
4.396946564885496,-1.5419847328244274,-1.816793893129771,-0.46435546875,-0.059326171875,-0.107421875,0.5151
4.488549618320611,-1.633587786259542,-1.9694656488549618,-0.462890625,-0.0634765625,-0.106689453125,0.5167999999999999
4.9465648854961835,-1.450381679389313,-2.0763358778625953,-0.464599609375,-0.065185546875,-0.10400390625,0.5185
4.763358778625954,-1.2671755725190839,-2.0,-0.4619140625,-0.065673828125,-0.10791015625,0.5202
4.916030534351145,-1.1297709923664123,-1.9694656488549618,-0.461669921875,-0.06591796875,-0.111328125,0.5218999999999999
5.221374045801527,-1.3282442748091603,-2.0,-0.46533203125,-0.0615234375,-0.109619140625,0.5236
5.587786259541985,-1.0381679389312977,-1.8931297709923665,-0.466552734375,-0.061767578125,-0.101806640625,0.5253
5.3893129770992365,-0.9312977099236641,-1.8778625954198473,-0.462890625,-0.06201171875,-0.10791015625,0.527
5.282442748091603,-0.6717557251908397,-1.8015267175572518,-0.462890625,-0.065673828125,-0.10498046875,0.5287
5.786259541984733,-0.7175572519083969,-2.015267175572519,-0.460693359375,-0.0673828125,-0.105712890625,0.5304
5.816793893129771,-0.5954198473282443,-2.030534351145038,-0.466064453125,-0.068115234375,-0.113037109375,0.5321
5.694656488549619,-0.732824427480916,-1.9541984732824427,-0.463134765625,-0.068359375,-0.10498046875,0.5337999999999999
5.709923664122138,-0.732824427480916,-1.8473282442748091,-0.46240234375,-0.064453125,-0.10009765625,0.5355
5.862595419847328,-0.6412213740458015,-1.8625954198473282,-0.466796875,-0.064208984375,-0.114501953125,0.5372
6.0,-0.5648854961832062,-1.816793893129771,-0.46533203125,-0.063720703125,-0.110595703125,0.5388999999999999
5.969465648854962,-0.6259541984732825,-2.1068702290076335,-0.462646484375,-0.061279296875,-0.1142578125,0.5406
5.862595419847328,-0.7633587786259542,-1.7709923664122138,-0.461181640625,-0.066650390625,-0.119384765625,0.5423
5.893129770992366,-0.7175572519083969,-1.7251908396946565,-0.462890625,-0.061279296875,-0.10791015625,0.5439999999999999
5.755725190839694,-0.6564885496183206,-1.7251908396946565,-0.461181640625,-0.060546875,-0.120361328125,0.5457
5.6183206106870225,-0.7022900763358778,-1.8473282442748091,-0.465576171875,-0.062255859375,-0.119873046875,0.5474
5.6183206106870225,-0.6564885496183206,-1.618320610687023,-0.46484375,-0.064208984375,-0.10888671875,0.5490999999999999
5.343511450381679,-0.7175572519083969,-1.7557251908396947,-0.458740234375,-0.065185546875,-0.10986328125,0.5508
5.358778625954199,-1.099236641221374,-1.6946564885496183,-0.456298828125,-0.067138671875,-0.109619140625,0.5525
5.175572519083969,-1.1145038167938932,-1.816793893129771,-0.461181640625,-0.068115234375,-0.111083984375,0.5541999999999999
5.32824427480916,-1.099236641221374,-1.6488549618320612,-0.456298828125,-0.061279296875,-0.1103515625,0.5559
5.236641221374046,-1.3740458015267176,-1.7709923664122138,-0.461181640625,-0.063720703125,-0.109375,0.5576
5.0534351145038165,-1.6641221374045803,-1.8778625954198473,-0.45947265625,-0.065673828125,-0.108642578125,0.5593
4.870229007633588,-1.465648854961832,-2.183206106870229,-0.45849609375,-0.062744140625,-0.113525390625,0.5609999999999999
4.854961832061068,-1.618320610687023,-1.816793893129771,-0.461669921875,-0.06494140625,-0.10888671875,0.5627
4.870229007633588,-1.8473282442748091,-1.9083969465648856,-0.457763671875,-0.0615234375,-0.11328125,0.5644
4.519083969465649,-1.7251908396946565,-1.984732824427481,-0.4619140625,-0.068359375,-0.108642578125,0.5660999999999999
4.748091603053435,-1.8931297709923665,-1.8625954198473282,-0.46142578125,-0.066162109375,-0.113037109375,0.5678
4.549618320610687,-2.0610687022900764,-1.984732824427481,-0.462158203125,-0.0703125,-0.114990234375,0.5695
4.549618320610687,-1.9083969465648856,-1.9236641221374047,-0.46142578125,-0.06103515625,-0.1123046875,0.5711999999999999
4.717557251908397,-1.8931297709923665,-2.0610687022900764,-0.46142578125,-0.064208984375,-0.10791015625,0.5729
4.67175572519084,-2.030534351145038,-2.1526717557251906,-0.4599609375,-0.06298828125,-0.109619140625,0.5746
4.564885496183206,-1.83206106870229,-2.0,-0.462890625,-0.072021484375,-0.1142578125,0.5762999999999999
4.67175572519084,-1.7709923664122138,-2.16793893129771,-0.46142578125,-0.0634765625,-0.1142578125,0.578
4.412213740458015,-1.6946564885496183,-2.030534351145038,-0.46484375,-0.06298828125,-0.11474609375,0.5797
4.33587786259542,-1.5725190839694656,-1.984732824427481,-0.464111328125,-0.06396484375,-0.1103515625,0.5813999999999999
4.2748091603053435,-1.633587786259542,-2.0,-0.4609375,-0.071044921875,-0.11279296875,0.5831
4.320610687022901,-1.7099236641221374,-1.8931297709923665,-0.460693359375,-0.066650390625,-0.111572265625,0.5848
4.1679389312977095,-1.8015267175572518,-1.786259541984733,-0.4638671875,-0.0712890625,-0.108154296875,0.5865
4.244274809160306,-1.6641221374045803,-1.9236641221374047,-0.464599609375,-0.07275390625,-0.104248046875,0.5882
4.091603053435114,-1.465648854961832,-1.8778625954198473,-0.465087890625,-0.07177734375,-0.0986328125,0.5899
3.6793893129770994,-1.4351145038167938,-1.8625954198473282,-0.462890625,-0.0693359375,-0.11572265625,0.5916
3.66412213740458,-1.3282442748091603,-1.6946564885496183,-0.458984375,-0.068115234375,-0.114990234375,0.5932999999999999
3.7251908396946565,-1.1450381679389312,-1.6488549618320612,-0.46435546875,-0.06689453125,-0.111572265625,0.595
3.3740458015267176,-0.9770992366412213,-1.6030534351145038,-0.464111328125,-0.06591796875,-0.110595703125,0.5967
3.3740458015267176,-0.9618320610687023,-1.618320610687023,-0.463623046875,-0.065185546875,-0.1044921875,0.5983999999999999
3.3740458015267176,-1.1603053435114503,-1.4961832061068703,-0.45849609375,-0.072998046875,-0.111328125,0.6001
2.854961832061069,-0.9312977099236641,-1.7404580152671756,-0.46142578125,-0.067626953125,-0.10595703125,0.6018
2.8091603053435112,-0.7786259541984732,-1.5572519083969465,-0.461669921875,-0.070556640625,-0.11474609375,0.6034999999999999
2.595419847328244,-0.8854961832061069,-1.4809160305343512,-0.46240234375,-0.06640625,-0.1142578125,0.6052
2.366412213740458,-1.0381679389312977,-1.297709923664122,-0.46484375,-0.066162109375,-0.108642578125,0.6069
2.351145038167939,-0.5038167938931297,-1.4351145038167938,-0.46826171875,-0.068359375,-0.110107421875,0.6085999999999999
2.2748091603053435,-0.5801526717557252,-1.2671755725190839,-0.463134765625,-0.07080078125,-0.1123046875,0.6103
2.1526717557251906,-0.7480916030534351,-1.4809160305343512,-0.460205078125,-0.070068359375,-0.10400390625,0.612
2.0610687022900764,-0.6717557251908397,-1.2366412213740459,-0.456298828125,-0.06982421875,-0.10791015625,0.6136999999999999
1.9389312977099236,-0.5648854961832062,-1.4198473282442747,-0.46044921875,-0.0693359375,-0.104248046875,0.6154
2.0916030534351147,-0.48854961832061067,-1.1603053435114503,-0.464111328125,-0.06591796875,-0.11474609375,0.6171
1.7404580152671756,-0.5190839694656488,-1.282442748091603,-0.460205078125,-0.06884765625,-0.11083984375,0.6188
1.786259541984733,-0.4122137404580153,-0.9618320610687023,-0.46435546875,-0.0673828125,-0.10498046875,0.6204999999999999
1.6641221374045803,-0.6412213740458015,-1.1145038167938932,-0.464599609375,-0.066162109375,-0.1064453125,0.6222
1.786259541984733,-0.6106870229007634,-1.099236641221374,-0.46630859375,-0.069580078125,-0.1025390625,0.6239
1.9694656488549618,-0.4122137404580153,-0.9618320610687023,-0.45849609375,-0.06787109375,-0.11279296875,0.6255999999999999
1.7251908396946565,-0.5954198473282443,-1.1908396946564885,-0.454345703125,-0.0693359375,-0.109130859375,0.6273
1.7557251908396947,-0.5343511450381679,-1.251908396946565,-0.4560546875,-0.06982421875,-0.110107421875,0.629
1.7404580152671756,-0.48854961832061067,-1.1755725190839694,-0.4580078125,-0.072021484375,-0.11328125,0.6306999999999999
1.786259541984733,-0.42748091603053434,-1.282442748091603,-0.457275390625,-0.068603515625,-0.104736328125,0.6324
1.7557251908396947,-0.5038167938931297,-1.0229007633587786,-0.46240234375,-0.07080078125,-0.107177734375,0.6341
1.8778625954198473,-0.6564885496183206,-0.9923664122137404,-0.464599609375,-0.072998046875,-0.107177734375,0.6357999999999999
1.8473282442748091,-0.5343511450381679,-1.0381679389312977,-0.460205078125,-0.07177734375,-0.108154296875,0.6375
1.8931297709923665,-0.5190839694656488,-1.2213740458015268,-0.462890625,-0.069580078125,-0.105712890625,0.6392
1.7557251908396947,-0.6564885496183206,-1.099236641221374,-0.46240234375,-0.072021484375,-0.107666015625,0.6408999999999999
1.9541984732824427,-0.6717557251908397,-1.1603053435114503,-0.458251953125,-0.06396484375,-0.107666015625,0.6426
1.3740458015267176,-0.5954198473282443,-1.297709923664122,-0.46240234375,-0.06884765625,-0.109619140625,0.6443
1.83206106870229,-0.6564885496183206,-1.2213740458015268,-0.4638671875,-0.06591796875,-0.109130859375,0.646
2.030534351145038,-0.6106870229007634,-1.2671755725190839,-0.46435546875,-0.061767578125,-0.107666015625,0.6476999999999999
1.9236641221374047,-0.7938931297709924,-1.3435114503816794,-0.465087890625,-0.06689453125,-0.1044921875,0.6494
2.122137404580153,-0.8244274809160306,-1.3129770992366412,-0.465576171875,-0.072265625,-0.115234375,0.6511
2.015267175572519,-1.0381679389312977,-1.3587786259541985,-0.465087890625,-0.06591796875,-0.10546875,0.6527999999999999
2.0916030534351147,-0.6870229007633588,-1.1755725190839694,-0.460205078125,-0.060302734375,-0.10546875,0.6545
2.2900763358778624,-0.6717557251908397,-1.3893129770992367,-0.468017578125,-0.070068359375,-0.112060546875,0.6562
2.3053435114503817,-0.9618320610687023,-1.3740458015267176,-0.45849609375,-0.06640625,-0.11767578125,0.6578999999999999
2.1526717557251906,-0.7480916030534351,-1.251908396946565,-0.458251953125,-0.065673828125,-0.10791015625,0.6596
2.366412213740458,-0.8396946564885496,-1.1755725190839694,-0.460693359375,-0.064697265625,-0.112060546875,0.6613
2.6717557251908395,-0.7633587786259542,-1.3740458015267176,-0.460693359375,-0.066162109375,-0.111083984375,0.6629999999999999
2.564885496183206,-0.8396946564885496,-1.4809160305343512,-0.4638671875,-0.065673828125,-0.10791015625,0.6647
2.4732824427480917,-0.5954198473282443,-1.251908396946565,-0.46142578125,-0.06591796875,-0.11572265625,0.6664
2.763358778625954,-0.6259541984732825,-1.3893129770992367,-0.460205078125,-0.065185546875,-0.11279296875,0.6680999999999999
2.595419847328244,-0.8091603053435115,-1.450381679389313,-0.4638671875,-0.0625,-0.10595703125,0.6698
2.5801526717557253,-0.549618320610687,-1.5267175572519085,-0.462890625,-0.065185546875,-0.10205078125,0.6715
2.7786259541984735,-0.5954198473282443,-1.5267175572519085,-0.466552734375,-0.064697265625,-0.1123046875,0.6731999999999999
2.6717557251908395,-0.5343511450381679,-1.465648854961832,-0.463134765625,-0.065185546875,-0.1142578125,0.6748999999999999
2.6564885496183206,-0.5038167938931297,-1.4198473282442747,-0.463623046875,-0.064208984375,-0.105712890625,0.6766
2.7786259541984735,-0.4580152671755725,-1.4045801526717556,-0.465576171875,-0.064697265625,-0.109130859375,0.6783
3.1908396946564888,-0.366412213740458,-1.618320610687023,-0.466064453125,-0.067138671875,-0.105712890625,0.6799999999999999
3.0381679389312977,-0.549618320610687,-1.4809160305343512,-0.45849609375,-0.06787109375,-0.111083984375,0.6817
2.900763358778626,-0.5190839694656488,-1.4198473282442747,-0.461669921875,-0.066650390625,-0.10791015625,0.6834
2.9923664122137406,-0.5190839694656488,-1.282442748091603,-0.465576171875,-0.066162109375,-0.1181640625,0.6850999999999999
3.0381679389312977,-0.42748091603053434,-1.2366412213740459,-0.4658203125,-0.0673828125,-0.10205078125,0.6868
2.9618320610687023,-0.42748091603053434,-1.4961832061068703,-0.464111328125,-0.0654296875,-0.1005859375,0.6885
2.9923664122137406,-0.48854961832061067,-1.465648854961832,-0.4658203125,-0.06640625,-0.114013671875,0.6901999999999999
3.0076335877862594,-0.5190839694656488,-1.5725190839694656,-0.46142578125,-0.06884765625,-0.109130859375,0.6919
3.0229007633587788,-0.5190839694656488,-1.4809160305343512,-0.461669921875,-0.06787109375,-0.11328125,0.6936
3.0076335877862594,-0.42748091603053434,-1.5267175572519085,-0.46630859375,-0.072509765625,-0.10400390625,0.6952999999999999
3.068702290076336,-0.32061068702290074,-1.4198473282442747,-0.46240234375,-0.068603515625,-0.11181640625,0.697
3.145038167938931,-0.3053435114503817,-1.6030534351145038,-0.459716796875,-0.0625,-0.110595703125,0.6987
2.9923664122137406,-0.5343511450381679,-1.5267175572519085,-0.4697265625,-0.06884765625,-0.10498046875,0.7003999999999999
2.8396946564885495,-0.5038167938931297,-1.4809160305343512,-0.4638671875,-0.072998046875,-0.107666015625,0.7021
3.1603053435114505,-0.44274809160305345,-1.3740458015267176,-0.461181640625,-0.067626953125,-0.109375,0.7038
3.2519083969465647,-0.4122137404580153,-1.3893129770992367,-0.458740234375,-0.069091796875,-0.108642578125,0.7055
3.0839694656488548,-0.3053435114503817,-1.4198473282442747,-0.4599609375,-0.068603515625,-0.10595703125,0.7071999999999999
3.0076335877862594,-0.3816793893129771,-1.5114503816793894,-0.458251953125,-0.065673828125,-0.100341796875,0.7089
3.2977099236641223,-0.48854961832061067,-1.5877862595419847,-0.46044921875,-0.067626953125,-0.1044921875,0.7106
3.3282442748091605,-0.33587786259541985,-1.6793893129770991,-0.460693359375,-0.06591796875,-0.1025390625,0.7122999999999999
3.0076335877862594,-0.12213740458015267,-1.633587786259542,-0.45703125,-0.064697265625,-0.099609375,0.714
3.435114503816794,-0.33587786259541985,-1.633587786259542,-0.46142578125,-0.064453125,-0.1015625,0.7157
3.3587786259541983,-0.3053435114503817,-1.4809160305343512,-0.45751953125,-0.07177734375,-0.1123046875,0.7173999999999999
3.2977099236641223,-0.183206106870229,-1.5419847328244274,-0.464111328125,-0.067138671875,-0.11083984375,0.7191
3.480916030534351,-0.183206106870229,-1.251908396946565,-0.453857421875,-0.070556640625,-0.10009765625,0.7208
3.7557251908396947,-0.015267175572519083,-1.4351145038167938,-0.46142578125,-0.069091796875,-0.114990234375,0.7224999999999999
3.7099236641221376,-0.10687022900763359,-1.3282442748091603,-0.459716796875,-0.0712890625,-0.108154296875,0.7242
3.633587786259542,-0.183206106870229,-1.6793893129770991,-0.46337890625,-0.0693359375,-0.1103515625,0.7259
3.648854961832061,-0.04580152671755725,-1.5114503816793894,-0.46435546875,-0.064453125,-0.111083984375,0.7275999999999999
3.648854961832061,-0.13740458015267176,-1.6030534351145038,-0.45703125,-0.07080078125,-0.107177734375,0.7293
3.49618320610687,0.030534351145038167,-1.465648854961832,-0.4560546875,-0.064208984375,-0.106201171875,0.731
3.6793893129770994,-0.030534351145038167,-1.7099236641221374,-0.460693359375,-0.06689453125,-0.10546875,0.7326999999999999
3.5877862595419847,-0.10687022900763359,-1.6793893129770991,-0.4619140625,-0.0693359375,-0.10400390625,0.7343999999999999
3.3740458015267176,-0.15267175572519084,-1.5419847328244274,-0.4599609375,-0.0703125,-0.103759765625,0.7361
3.1755725190839694,0.07633587786259542,-1.251908396946565,-0.4619140625,-0.065673828125,-0.113525390625,0.7378
3.480916030534351,-0.07633587786259542,-1.4809160305343512,-0.45947265625,-0.070068359375,-0.108642578125,0.7394999999999999
3.4198473282442747,0.015267175572519083,-1.5114503816793894,-0.459228515625,-0.067626953125,-0.110595703125,0.7412
2.9618320610687023,-0.12213740458015267,-1.3740458015267176,-0.4638671875,-0.070068359375,-0.1142578125,0.7429
3.068702290076336,-0.15267175572519084,-1.1297709923664123,-0.462646484375,-0.074462890625,-0.111328125,0.7445999999999999
3.2061068702290076,-0.15267175572519084,-1.3435114503816794,-0.46435546875,-0.070556640625,-0.10546875,0.7463
2.8244274809160306,-0.12213740458015267,-1.4198473282442747,-0.45849609375,-0.076904296875,-0.1162109375,0.748
2.717557251908397,-0.2595419847328244,-1.282442748091603,-0.45947265625,-0.073486328125,-0.11376953125,0.7496999999999999
2.381679389312977,-0.061068702290076333,-1.1908396946564885,-0.4609375,-0.072021484375,-0.10595703125,0.7514
2.427480916030534,-0.15267175572519084,-1.282442748091603,-0.46240234375,-0.070556640625,-0.10693359375,0.7531
2.33587786259542,-0.48854961832061067,-1.0076335877862594,-0.4638671875,-0.0712890625,-0.10693359375,0.7547999999999999
2.198473282442748,-0.44274809160305345,-1.3435114503816794,-0.46142578125,-0.070068359375,-0.10009765625,0.7565
2.0763358778625953,-0.5343511450381679,-1.1603053435114503,-0.458740234375,-0.068603515625,-0.106201171875,0.7582
1.8473282442748091,-0.4580152671755725,-1.1755725190839694,-0.465576171875,-0.06884765625,-0.1123046875,0.7598999999999999
1.5877862595419847,-0.5801526717557252,-1.0076335877862594,-0.458984375,-0.0712890625,-0.10888671875,0.7615999999999999
1.6030534351145038,-0.5190839694656488,-1.1908396946564885,-0.459716796875,-0.06787109375,-0.104736328125,0.7633
1.6488549618320612,-0.8091603053435115,-0.9312977099236641,-0.456787109375,-0.07080078125,-0.1044921875,0.7649999999999999
1.4351145038167938,-0.8091603053435115,-1.2366412213740459,-0.45947265625,-0.06396484375,-0.116943359375,0.7666999999999999
1.1450381679389312,-0.7175572519083969,-0.9923664122137404,-0.46142578125,-0.073974609375,-0.106201171875,0.7684
1.1450381679389312,-0.6259541984732825,-1.0381679389312977,-0.456787109375,-0.070068359375,-0.10888671875,0.7701
0.9923664122137404,-0.5648854961832062,-0.8854961832061069,-0.463623046875,-0.074462890625,-0.109130859375,0.7717999999999999
1.0229007633587786,-0.732824427480916,-1.2061068702290076,-0.46240234375,-0.0703125,-0.1025390625,0.7735
0.8549618320610687,-0.8091603053435115,-0.9618320610687023,-0.46533203125,-0.06982421875,-0.11328125,0.7752
0.916030534351145,-0.7633587786259542,-0.8091603053435115,-0.46337890625,-0.069580078125,-0.1064453125,0.7768999999999999
0.7480916030534351,-0.5190839694656488,-0.9770992366412213,-0.45849609375,-0.067138671875,-0.108642578125,0.7786
0.9465648854961832,-0.7480916030534351,-1.2366412213740459,-0.45849609375,-0.067626953125,-0.102783203125,0.7803
0.7480916030534351,-0.6717557251908397,-1.0534351145038168,-0.458984375,-0.071533203125,-0.103759765625,0.7819999999999999
0.6259541984732825,-0.4580152671755725,-0.9770992366412213,-0.4619140625,-0.068115234375,-0.10595703125,0.7837
0.5801526717557252,-0.44274809160305345,-0.8702290076335878,-0.46533203125,-0.06787109375,-0.11376953125,0.7854
0.5038167938931297,-0.4580152671755725,-1.1603053435114503,-0.466552734375,-0.06640625,-0.11376953125,0.7870999999999999
0.32061068702290074,-0.3053435114503817,-1.0381679389312977,-0.467041015625,-0.06982421875,-0.111572265625,0.7888
0.5648854961832062,-0.2748091603053435,-0.9770992366412213,-0.46533203125,-0.069091796875,-0.118408203125,0.7905
0.6412213740458015,-0.366412213740458,-1.1145038167938932,-0.462646484375,-0.066650390625,-0.116943359375,0.7921999999999999
0.549618320610687,-0.24427480916030533,-1.1145038167938932,-0.45947265625,-0.063720703125,-0.1025390625,0.7938999999999999
0.3511450381679389,0.16793893129770993,-0.9618320610687023,-0.468505859375,-0.0693359375,-0.1083984375,0.7956
0.4122137404580153,-0.015267175572519083,-1.099236641221374,-0.469970703125,-0.0634765625,-0.098876953125,0.7973
0.3053435114503817,-0.0916030534351145,-1.0076335877862594,-0.465576171875,-0.064453125,-0.10498046875,0.7989999999999999
0.21374045801526717,0.0916030534351145,-0.8549618320610687,-0.465576171875,-0.0673828125,-0.103759765625,0.8007
0.12213740458015267,0.12213740458015267,-1.1450381679389312,-0.469970703125,-0.06689453125,-0.10205078125,0.8024
0.04580152671755725,0.0,-0.9007633587786259,-0.465087890625,-0.069091796875,-0.104248046875,0.8040999999999999
0.13740458015267176,0.16793893129770993,-0.8854961832061069,-0.466064453125,-0.065673828125,-0.100830078125,0.8058
-0.16793893129770993,0.3511450381679389,-1.1908396946564885,-0.46728515625,-0.0634765625,-0.10205078125,0.8075
-0.1984732824427481,0.3816793893129771,-1.1450381679389312,-0.461669921875,-0.06591796875,-0.097412109375,0.8091999999999999
-0.015267175572519083,0.3053435114503817,-1.2061068702290076,-0.465576171875,-0.072265625,-0.104736328125,0.8109
-0.13740458015267176,0.1984732824427481,-1.2213740458015268,-0.46923828125,-0.066162109375,-0.0966796875,0.8126
-0.24427480916030533,0.10687022900763359,-1.3435114503816794,-0.466552734375,-0.066650390625,-0.10302734375,0.8142999999999999
-0.15267175572519084,0.015267175572519083,-1.3740458015267176,-0.460693359375,-0.069091796875,-0.10595703125,0.816
-0.2595419847328244,0.015267175572519083,-1.3893129770992367,-0.458740234375,-0.065185546875,-0.11083984375,0.8177
0.061068702290076333,0.061068702290076333,-1.2671755725190839,-0.462890625,-0.06689453125,-0.109130859375,0.8193999999999999
-0.21374045801526717,-0.12213740458015267,-1.465648854961832,-0.468505859375,-0.066162109375,-0.104248046875,0.8210999999999999
-0.0916030534351145,-0.2900763358778626,-1.3129770992366412,-0.467041015625,-0.06396484375,-0.093017578125,0.8228
-0.10687022900763359,-0.2900763358778626,-1.5267175572519085,-0.4619140625,-0.062744140625,-0.093017578125,0.8244999999999999
-0.061068702290076333,-0.2900763358778626,-1.2671755725190839,-0.459716796875,-0.061767578125,-0.09765625,0.8261999999999999
-0.0916030534351145,-0.3511450381679389,-1.5267175572519085,-0.46728515625,-0.0595703125,-0.10400390625,0.8279
-0.24427480916030533,-0.3816793893129771,-1.5419847328244274,-0.462158203125,-0.06494140625,-0.09765625,0.8296
-0.183206106870229,-0.32061068702290074,-1.618320610687023,-0.459716796875,-0.061767578125,-0.1005859375,0.8312999999999999
-0.2748091603053435,-0.6106870229007634,-1.6641221374045803,-0.464599609375,-0.060546875,-0.096923828125,0.833
0.061068702290076333,-0.5038167938931297,-1.5572519083969465,-0.463134765625,-0.0625,-0.09619140625,0.8347
-0.16793893129770993,-0.6870229007633588,-1.6793893129770991,-0.462646484375,-0.059326171875,-0.096923828125,0.8363999999999999
-0.22900763358778625,-0.732824427480916,-1.7709923664122138,-0.463623046875,-0.060546875,-0.089599609375,0.8381
-0.3053435114503817,-0.8702290076335878,-1.7251908396946565,-0.469482421875,-0.059326171875,-0.099609375,0.8398
-0.4122137404580153,-0.8091603053435115,-1.9083969465648856,-0.467041015625,-0.06201171875,-0.098876953125,0.8414999999999999
-0.3511450381679389,-0.7938931297709924,-1.83206106870229,-0.463134765625,-0.063720703125,-0.101318359375,0.8432
-0.030534351145038167,-1.083969465648855,-1.8625954198473282,-0.46533203125,-0.060302734375,-0.095703125,0.8449
-0.10687022900763359,-0.9465648854961832,-1.8473282442748091,-0.472412109375,-0.065673828125,-0.095703125,0.8465999999999999
-0.24427480916030533,-0.916030534351145,-1.83206106870229,-0.4716796875,-0.06201171875,-0.09716796875,0.8482999999999999
0.061068702290076333,-0.9618320610687023,-2.0610687022900764,-0.464599609375,-0.054443359375,-0.0947265625,0.85
0.10687022900763359,-0.8702290076335878,-1.9236641221374047,-0.469482421875,-0.06005859375,-0.095947265625,0.8516999999999999
0.015267175572519083,-1.0076335877862594,-1.8625954198473282,-0.4658203125,-0.05615234375,-0.091552734375,0.8533999999999999
0.13740458015267176,-0.8854961832061069,-1.8778625954198473,-0.46826171875,-0.056884765625,-0.1005859375,0.8551
0.5038167938931297,-0.8549618320610687,-1.7099236641221374,-0.469970703125,-0.056884765625,-0.099365234375,0.8568
0.2748091603053435,-0.7938931297709924,-2.16793893129771,-0.468505859375,-0.055419921875,-0.105712890625,0.8584999999999999
0.3511450381679389,-0.6717557251908397,-2.213740458015267,-0.4697265625,-0.056884765625,-0.104248046875,0.8602
0.5038167938931297,-0.6717557251908397,-1.9389312977099236,-0.46728515625,-0.060791015625,-0.1005859375,0.8619
0.5954198473282443,-0.48854961832061067,-1.9236641221374047,-0.4677734375,-0.05908203125,-0.108154296875,0.8635999999999999
0.9312977099236641,-0.4122137404580153,-2.030534351145038,-0.468505859375,-0.061279296875,-0.10107421875,0.8653
0.8091603053435115,-0.24427480916030533,-2.183206106870229,-0.46875,-0.0615234375,-0.10595703125,0.867
0.9312977099236641,0.030534351145038167,-2.030534351145038,-0.468994140625,-0.06005859375,-0.1005859375,0.8686999999999999
0.7022900763358778,0.015267175572519083,-2.1068702290076335,-0.470703125,-0.060791015625,-0.099853515625,0.8704
0.9770992366412213,-0.015267175572519083,-2.045801526717557,-0.468017578125,-0.056640625,-0.111572265625,0.8721
1.0687022900763359,0.061068702290076333,-2.2290076335877864,-0.46826171875,-0.05810546875,-0.11181640625,0.8737999999999999
1.099236641221374,0.07633587786259542,-2.030534351145038,-0.469970703125,-0.06591796875,-0.1083984375,0.8755
1.083969465648855,0.2748091603053435,-1.8625954198473282,-0.466796875,-0.05810546875,-0.107177734375,0.8772
1.1450381679389312,0.44274809160305345,-1.9083969465648856,-0.468505859375,-0.060302734375,-0.10302734375,0.8788999999999999
1.3129770992366412,0.5954198473282443,-2.0610687022900764,-0.468505859375,-0.060791015625,-0.111328125,0.8805999999999999
1.297709923664122,0.44274809160305345,-2.2900763358778624,-0.469970703125,-0.064208984375,-0.106201171875,0.8823
1.5267175572519085,0.5801526717557252,-2.183206106870229,-0.470703125,-0.0634765625,-0.108642578125,0.8839999999999999
1.282442748091603,0.5648854961832062,-2.122137404580153,-0.46875,-0.068115234375,-0.103271484375,0.8856999999999999
1.3587786259541985,0.732824427480916,-2.2595419847328246,-0.467529296875,-0.0576171875,-0.1044921875,0.8874
1.5877862595419847,0.6259541984732825,-2.183206106870229,-0.472900390625,-0.061279296875,-0.108154296875,0.8891
1.450381679389313,0.6106870229007634,-2.381679389312977,-0.46533203125,-0.062255859375,-0.109130859375,0.8907999999999999
1.5572519083969465,0.7480916030534351,-2.427480916030534,-0.46826171875,-0.061279296875,-0.107177734375,0.8925
1.6030534351145038,0.6259541984732825,-2.4427480916030535,-0.46533203125,-0.065185546875,-0.109375,0.8942
1.6793893129770991,0.5038167938931297,-2.351145038167939,-0.460693359375,-0.061279296875,-0.112060546875,0.8958999999999999
1.7557251908396947,0.6106870229007634,-2.5343511450381677,-0.46240234375,-0.06396484375,-0.103759765625,0.8976
1.6641221374045803,0.4122137404580153,-2.4732824427480917,-0.469482421875,-0.06103515625,-0.10888671875,0.8993
1.7404580152671756,0.5343511450381679,-2.4732824427480917,-0.468994140625,-0.064208984375,-0.101806640625,0.9009999999999999
1.8625954198473282,0.5190839694656488,-2.50381679389313,-0.46142578125,-0.06494140625,-0.101806640625,0.9027
2.2442748091603053,0.3969465648854962,-2.6259541984732824,-0.46142578125,-0.06005859375,-0.095458984375,0.9044
1.9389312977099236,0.4122137404580153,-2.732824427480916,-0.468994140625,-0.0634765625,-0.09716796875,0.9060999999999999
2.045801526717557,0.4122137404580153,-2.6259541984732824,-0.466796875,-0.06201171875,-0.10107421875,0.9077999999999999
2.16793893129771,0.3969465648854962,-2.6564885496183206,-0.464599609375,-0.062744140625,-0.101318359375,0.9095
2.4122137404580153,0.1984732824427481,-2.854961832061069,-0.46630859375,-0.064697265625,-0.093017578125,0.9111999999999999
2.3053435114503817,0.3053435114503817,-2.763358778625954,-0.471923828125,-0.067138671875,-0.10546875,0.9128999999999999
2.030534351145038,0.24427480916030533,-2.763358778625954,-0.468505859375,-0.06640625,-0.1064453125,0.9146
2.2595419847328246,0.10687022900763359,-2.8091603053435112,-0.465576171875,-0.066650390625,-0.102783203125,0.9163
2.3053435114503817,0.2748091603053435,-2.9923664122137406,-0.466552734375,-0.064697265625,-0.10205078125,0.9179999999999999
2.351145038167939,0.2595419847328244,-2.5801526717557253,-0.46533203125,-0.06787109375,-0.107666015625,0.9197
2.33587786259542,0.183206106870229,-2.854961832061069,-0.468994140625,-0.060791015625,-0.099365234375,0.9214
2.519083969465649,0.3511450381679389,-2.763358778625954,-0.470947265625,-0.063720703125,-0.11279296875,0.9230999999999999
2.7022900763358777,0.21374045801526717,-2.717557251908397,-0.46484375,-0.06298828125,-0.10595703125,0.9248
2.595419847328244,0.5038167938931297,-2.6564885496183206,-0.466552734375,-0.059326171875,-0.10888671875,0.9265
2.519083969465649,0.5648854961832062,-2.763358778625954,-0.4638671875,-0.067626953125,-0.098876953125,0.9281999999999999
2.7022900763358777,0.4732824427480916,-2.7480916030534353,-0.46826171875,-0.062255859375,-0.099853515625,0.9299
2.900763358778626,0.5038167938931297,-2.5801526717557253,-0.466064453125,-0.066650390625,-0.099853515625,0.9316
2.7480916030534353,0.6106870229007634,-2.3969465648854964,-0.4638671875,-0.064208984375,-0.098388671875,0.9332999999999999
2.5343511450381677,0.48854961832061067,-2.5801526717557253,-0.465087890625,-0.06591796875,-0.099609375,0.9349999999999999
2.763358778625954,0.5648854961832062,-2.2290076335877864,-0.470458984375,-0.06298828125,-0.106201171875,0.9367
2.854961832061069,0.6564885496183206,-2.519083969465649,-0.4697265625,-0.06298828125,-0.095458984375,0.9383999999999999
2.900763358778626,0.6106870229007634,-2.351145038167939,-0.466552734375,-0.06396484375,-0.09765625,0.9400999999999999
2.519083969465649,0.7938931297709924,-2.3206106870229006,-0.46728515625,-0.06494140625,-0.10107421875,0.9418
2.595419847328244,0.6564885496183206,-2.3206106870229006,-0.464111328125,-0.066162109375,-0.10546875,0.9434999999999999
2.7786259541984735,0.8244274809160306,-2.0763358778625953,-0.4697265625,-0.06591796875,-0.10791015625,0.9451999999999999
2.763358778625954,0.9007633587786259,-2.427480916030534,-0.46728515625,-0.064697265625,-0.106689453125,0.9469
2.6259541984732824,1.0381679389312977,-2.1068702290076335,-0.47119140625,-0.06298828125,-0.092529296875,0.9486
2.8702290076335877,1.0229007633587786,-2.0916030534351147,-0.46484375,-0.067626953125,-0.107666015625,0.9502999999999999
2.6106870229007635,0.9312977099236641,-2.0916030534351147,-0.464111328125,-0.068603515625,-0.1064453125,0.952
2.549618320610687,0.9007633587786259,-2.1526717557251906,-0.463623046875,-0.06396484375,-0.09814453125,0.9537
2.427480916030534,1.0076335877862594,-2.183206106870229,-0.46533203125,-0.066162109375,-0.1064453125,0.9553999999999999
2.595419847328244,1.1145038167938932,-2.122137404580153,-0.46728515625,-0.0673828125,-0.09912109375,0.9571
2.2900763358778624,0.8702290076335878,-1.984732824427481,-0.468017578125,-0.068359375,-0.100830078125,0.9588
2.3969465648854964,0.9465648854961832,-1.984732824427481,-0.462158203125,-0.072265625,-0.10400390625,0.9604999999999999
2.122137404580153,1.0076335877862594,-2.1374045801526718,-0.467041015625,-0.07177734375,-0.10302734375,0.9621999999999999
2.183206106870229,1.099236641221374,-2.0,-0.456298828125,-0.069091796875,-0.1064453125,0.9639
2.030534351145038,1.0229007633587786,-1.9083969465648856,-0.461669921875,-0.072998046875,-0.11279296875,0.9655999999999999
1.8931297709923665,1.3129770992366412,-1.816793893129771,-0.4638671875,-0.068115234375,-0.106689453125,0.9672999999999999
1.7099236641221374,1.1908396946564885,-1.8931297709923665,-0.4619140625,-0.071533203125,-0.10693359375,0.969
1.7099236641221374,1.2213740458015268,-2.213740458015267,-0.461669921875,-0.07275390625,-0.1064453125,0.9706999999999999
1.9694656488549618,0.9312977099236641,-2.351145038167939,-0.45947265625,-0.06787109375,-0.11083984375,0.9723999999999999
1.7404580152671756,0.9465648854961832,-2.0610687022900764,-0.464111328125,-0.071044921875,-0.1064453125,0.9741
1.4961832061068703,1.1755725190839694,-2.045801526717557,-0.46533203125,-0.068603515625,-0.1142578125,0.9758
1.3587786259541985,1.1145038167938932,-1.984732824427481,-0.458984375,-0.06982421875,-0.107421875,0.9774999999999999
1.450381679389313,0.9923664122137404,-2.1526717557251906,-0.46630859375,-0.073974609375,-0.108154296875,0.9792
1.450381679389313,1.2213740458015268,-2.16793893129771,-0.4658203125,-0.073974609375,-0.108154296875,0.9809
1.6488549618320612,1.1450381679389312,-2.122137404580153,-0.466796875,-0.066650390625,-0.101806640625,0.9825999999999999
1.816793893129771,1.0687022900763359,-2.0916030534351147,-0.45751953125,-0.07177734375,-0.110595703125,0.9843
1.6946564885496183,1.0076335877862594,-2.198473282442748,-0.459228515625,-0.071533203125,-0.106201171875,0.986
1.5572519083969465,1.2671755725190839,-2.0610687022900764,-0.455078125,-0.067626953125,-0.107177734375,0.9876999999999999
1.3740458015267176,1.2366412213740459,-2.1068702290076335,-0.467041015625,-0.075927734375,-0.1064453125,0.9894
1.6030534351145038,1.099236641221374,-1.9694656488549618,-0.45703125,-0.069091796875,-0.10302734375,0.9911
1.5572519083969465,1.099236641221374,-2.045801526717557,-0.466064453125,-0.0732421875,-0.104248046875,0.9927999999999999
1.5877862595419847,1.297709923664122,-1.9389312977099236,-0.461669921875,-0.068603515625,-0.105224609375,0.9944999999999999
1.5419847328244274,1.4045801526717556,-2.16793893129771,-0.462646484375,-0.0751953125,-0.10400390625,0.9962
1.5725190839694656,1.1603053435114503,-2.1374045801526718,-0.4599609375,-0.072021484375,-0.11181640625,0.9978999999999999
1.6488549618320612,1.450381679389313,-1.8625954198473282,-0.466064453125,-0.068359375,-0.10888671875,0.9995999999999999
1.6641221374045803,1.4961832061068703,-1.9083969465648856,-0.46044921875,-0.071533203125,-0.106689453125,1.0012999999999999
1.8625954198473282,1.465648854961832,-2.183206106870229,-0.46484375,-0.07470703125,-0.10986328125,1.003
2.0916030534351147,1.3893129770992367,-1.9541984732824427,-0.458740234375,-0.069091796875,-0.11181640625,1.0047
2.015267175572519,1.6946564885496183,-2.0610687022900764,-0.460693359375,-0.06884765625,-0.096923828125,1.0064
1.9389312977099236,1.7251908396946565,-2.0916030534351147,-0.46240234375,-0.068359375,-0.100830078125,1.0081
2.1068702290076335,1.6641221374045803,-2.1068702290076335,-0.4697265625,-0.0703125,-0.102783203125,1.0098
2.366412213740458,1.8625954198473282,-1.9694656488549618,-0.46484375,-0.070068359375,-0.104736328125,1.0114999999999998
2.427480916030534,2.122137404580153,-2.0,-0.465576171875,-0.07373046875,-0.111572265625,1.0131999999999999
2.1526717557251906,2.045801526717557,-1.9694656488549618,-0.464111328125,-0.06640625,-0.110595703125,1.0149
2.427480916030534,1.9389312977099236,-2.1068702290076335,-0.4658203125,-0.072265625,-0.102783203125,1.0166
2.549618320610687,2.1526717557251906,-2.0610687022900764,-0.461669921875,-0.07177734375,-0.100341796875,1.0183
2.2442748091603053,2.2290076335877864,-1.8015267175572518,-0.456787109375,-0.0703125,-0.09619140625,1.02
2.16793893129771,2.3206106870229006,-1.7557251908396947,-0.46044921875,-0.071533203125,-0.097412109375,1.0217
2.198473282442748,2.50381679389313,-1.786259541984733,-0.462890625,-0.07177734375,-0.09619140625,1.0233999999999999
2.0916030534351147,2.2595419847328246,-1.7251908396946565,-0.46240234375,-0.06884765625,-0.10791015625,1.0251
2.015267175572519,2.4580152671755724,-1.816793893129771,-0.46240234375,-0.072509765625,-0.10009765625,1.0268
1.83206106870229,2.6717557251908395,-1.7709923664122138,-0.462158203125,-0.07470703125,-0.093505859375,1.0285
1.7099236641221374,2.732824427480916,-1.618320610687023,-0.463623046875,-0.06591796875,-0.097900390625,1.0302
1.5725190839694656,2.4732824427480917,-1.816793893129771,-0.46435546875,-0.066650390625,-0.099853515625,1.0319
1.5572519083969465,2.595419847328244,-1.7251908396946565,-0.4609375,-0.073486328125,-0.094482421875,1.0335999999999999
1.3893129770992367,2.5343511450381677,-1.5725190839694656,-0.463134765625,-0.068359375,-0.102294921875,1.0352999999999999
1.450381679389313,2.4427480916030535,-1.633587786259542,-0.462158203125,-0.06640625,-0.1005859375,1.037
1.2671755725190839,2.427480916030534,-1.6488549618320612,-0.468505859375,-0.07177734375,-0.103759765625,1.0387
1.0687022900763359,2.4580152671755724,-1.5572519083969465,-0.461669921875,-0.0673828125,-0.10693359375,1.0404
1.0534351145038168,2.5801526717557253,-1.4809160305343512,-0.465087890625,-0.07177734375,-0.1123046875,1.0421
1.2061068702290076,2.4732824427480917,-1.4351145038167938,-0.46533203125,-0.070068359375,-0.10302734375,1.0437999999999998
1.1145038167938932,2.33587786259542,-1.5572519083969465,-0.46923828125,-0.0732421875,-0.101806640625,1.0454999999999999
0.916030534351145,2.5343511450381677,-1.3435114503816794,-0.46728515625,-0.072509765625,-0.1015625,1.0472
0.8549618320610687,2.564885496183206,-1.450381679389313,-0.466064453125,-0.07421875,-0.1044921875,1.0489
0.916030534351145,2.6412213740458017,-1.3129770992366412,-0.463623046875,-0.06689453125,-0.096435546875,1.0506
0.8244274809160306,2.183206106870229,-1.2213740458015268,-0.46484375,-0.068603515625,-0.10498046875,1.0523
0.9007633587786259,2.1526717557251906,-1.1603053435114503,-0.46484375,-0.069580078125,-0.103515625,1.054
0.8702290076335878,2.4732824427480917,-1.2671755725190839,-0.46435546875,-0.070068359375,-0.096435546875,1.0556999999999999
1.1908396946564885,2.4427480916030535,-1.1603053435114503,-0.466064453125,-0.07568359375,-0.1083984375,1.0574
0.916030534351145,2.4580152671755724,-1.251908396946565,-0.464599609375,-0.0703125,-0.11376953125,1.0591
0.7786259541984732,2.4427480916030535,-1.0381679389312977,-0.4638671875,-0.07080078125,-0.104248046875,1.0608
0.9007633587786259,2.4427480916030535,-1.2366412213740459,-0.470458984375,-0.064697265625,-0.107666015625,1.0625
0.8702290076335878,2.4885496183206106,-1.0229007633587786,-0.462646484375,-0.072509765625,-0.09521484375,1.0642
1.2061068702290076,2.4427480916030535,-1.1450381679389312,-0.4599609375,-0.06640625,-0.101806640625,1.0658999999999998
0.9923664122137404,2.3969465648854964,-0.916030534351145,-0.467529296875,-0.073974609375,-0.108642578125,1.0675999999999999
0.9465648854961832,2.33587786259542,-1.450381679389313,-0.466552734375,-0.06689453125,-0.101806640625,1.0693
0.6717557251908397,2.4732824427480917,-1.3282442748091603,-0.465087890625,-0.069091796875,-0.10302734375,1.071
0.7633587786259542,2.4732824427480917,-1.3282442748091603,-0.458251953125,-0.069091796875,-0.102783203125,1.0727
0.9770992366412213,2.2442748091603053,-1.4351145038167938,-0.458984375,-0.070556640625,-0.103759765625,1.0744
1.0534351145038168,2.427480916030534,-1.3282442748091603,-0.458740234375,-0.068603515625,-0.109130859375,1.0760999999999998
0.8854961832061069,2.2442748091603053,-1.2061068702290076,-0.4638671875,-0.064697265625,-0.105224609375,1.0777999999999999
0.4732824427480916,2.0763358778625953,-1.2213740458015268,-0.462646484375,-0.06591796875,-0.1083984375,1.0795
0.8854961832061069,2.2595419847328246,-1.3129770992366412,-0.45703125,-0.0625,-0.107421875,1.0812
0.7786259541984732,1.8931297709923665,-1.2213740458015268,-0.46630859375,-0.06591796875,-0.111572265625,1.0829
0.5954198473282443,1.9083969465648856,-1.3282442748091603,-0.460693359375,-0.064697265625,-0.105224609375,1.0846
0.5801526717557252,1.9083969465648856,-1.450381679389313,-0.45849609375,-0.06396484375,-0.1064453125,1.0863
0.6259541984732825,1.786259541984733,-1.5877862595419847,-0.455078125,-0.061279296875,-0.1123046875,1.0879999999999999
0.44274809160305345,1.7709923664122138,-1.4351145038167938,-0.458740234375,-0.061767578125,-0.109619140625,1.0897
0.2900763358778626,1.3740458015267176,-1.3129770992366412,-0.4599609375,-0.063232421875,-0.1064453125,1.0914
0.48854961832061067,1.282442748091603,-1.4198473282442747,-0.46435546875,-0.0615234375,-0.105224609375,1.0931
0.5038167938931297,1.4198473282442747,-1.2213740458015268,-0.462890625,-0.061767578125,-0.104248046875,1.0948
0.6259541984732825,1.4198473282442747,-1.4045801526717556,-0.462158203125,-0.0654296875,-0.11328125,1.0965
0.6106870229007634,1.1603053435114503,-1.3129770992366412,-0.466796875,-0.069580078125,-0.1123046875,1.0981999999999998
0.5190839694656488,1.083969465648855,-1.3129770992366412,-0.4638671875,-0.064453125,-0.10107421875,1.0998999999999999
0.7633587786259542,1.1297709923664123,-1.3435114503816794,-0.4609375,-0.0625,-0.10498046875,1.1016
0.7633587786259542,1.1908396946564885,-1.6641221374045803,-0.465576171875,-0.064453125,-0.103759765625,1.1033
0.8549618320610687,1.0229007633587786,-1.3740458015267176,-0.466796875,-0.0634765625,-0.103759765625,1.105
1.0076335877862594,0.8396946564885496,-1.3740458015267176,-0.46826171875,-0.060546875,-0.109619140625,1.1067
1.0229007633587786,1.1908396946564885,-1.282442748091603,-0.46728515625,-0.06396484375,-0.1005859375,1.1083999999999998
1.0381679389312977,1.3282442748091603,-1.3282442748091603,-0.46923828125,-0.0634765625,-0.107421875,1.1100999999999999
1.0534351145038168,1.4809160305343512,-1.2061068702290076,-0.462158203125,-0.063720703125,-0.111328125,1.1118
1.1145038167938932,1.5114503816793894,-1.3587786259541985,-0.463134765625,-0.062744140625,-0.115966796875,1.1135
1.083969465648855,1.6488549618320612,-1.3129770992366412,-0.462646484375,-0.066650390625,-0.11376953125,1.1152
1.1450381679389312,1.6946564885496183,-1.2061068702290076,-0.4619140625,-0.063232421875,-0.107177734375,1.1169
1.4045801526717556,1.6946564885496183,-1.099236641221374,-0.466064453125,-0.062744140625,-0.108642578125,1.1186
1.282442748091603,1.7404580152671756,-1.2213740458015268,-0.46337890625,-0.064208984375,-0.11474609375,1.1202999999999999
1.099236641221374,1.8778625954198473,-1.0381679389312977,-0.46142578125,-0.061767578125,-0.109619140625,1.1219999999999999
1.5419847328244274,1.816793893129771,-1.4351145038167938,-0.464599609375,-0.064208984375,-0.116455078125,1.1237
1.3740458015267176,2.198473282442748,-1.1297709923664123,-0.46484375,-0.0673828125,-0.1123046875,1.1254
1.1450381679389312,2.2900763358778624,-1.099236641221374,-0.464599609375,-0.06884765625,-0.10693359375,1.1271
1.2213740458015268,2.2900763358778624,-1.1297709923664123,-0.466552734375,-0.0625,-0.1005859375,1.1288
1.1145038167938932,2.3053435114503817,-1.2061068702290076,-0.4716796875,-0.06103515625,-0.10302734375,1.1304999999999998
1.3129770992366412,2.3206106870229006,-0.9770992366412213,-0.471923828125,-0.063720703125,-0.1103515625,1.1321999999999999
1.3282442748091603,2.2748091603053435,-0.9312977099236641,-0.468505859375,-0.063720703125,-0.106201171875,1.1339
1.2213740458015268,2.3969465648854964,-0.8396946564885496,-0.4619140625,-0.06689453125,-0.10595703125,1.1356
0.8091603053435115,2.427480916030534,-0.9465648854961832,-0.46484375,-0.05908203125,-0.107421875,1.1373
0.9618320610687023,2.1068702290076335,-0.9770992366412213,-0.458251953125,-0.06005859375,-0.103271484375,1.139
0.8549618320610687,2.213740458015267,-1.0229007633587786,-0.466064453125,-0.059814453125,-0.10791015625,1.1407
1.083969465648855,2.2900763358778624,-0.8702290076335878,-0.462646484375,-0.0634765625,-0.103271484375,1.1423999999999999
0.8244274809160306,2.0610687022900764,-1.099236641221374,-0.46337890625,-0.062255859375,-0.10546875,1.1441
0.7938931297709924,1.984732824427481,-0.9465648854961832,-0.46142578125,-0.060546875,-0.111572265625,1.1458
0.9007633587786259,1.9389312977099236,-0.8396946564885496,-0.463623046875,-0.06982421875,-0.109619140625,1.1475
0.9312977099236641,1.83206106870229,-0.7786259541984732,-0.46533203125,-0.06787109375,-0.102783203125,1.1492
0.8396946564885496,1.8778625954198473,-0.7633587786259542,-0.460205078125,-0.062744140625,-0.10009765625,1.1509
0.8396946564885496,1.9083969465648856,-0.7633587786259542,-0.46044921875,-0.058349609375,-0.1015625,1.1525999999999998
0.7786259541984732,1.786259541984733,-0.9465648854961832,-0.4580078125,-0.06005859375,-0.105224609375,1.1542999999999999
0.8244274809160306,1.5725190839694656,-0.8702290076335878,-0.456787109375,-0.060546875,-0.1044921875,1.156
0.7022900763358778,1.6641221374045803,-0.7480916030534351,-0.463623046875,-0.0634765625,-0.107421875,1.1577
0.8091603053435115,1.5267175572519085,-0.7175572519083969,-0.458984375,-0.065673828125,-0.104736328125,1.1594
0.7786259541984732,1.5267175572519085,-0.7786259541984732,-0.46142578125,-0.067138671875,-0.104736328125,1.1611
0.6259541984732825,1.5725190839694656,-0.6106870229007634,-0.45703125,-0.06201171875,-0.10302734375,1.1627999999999998
0.9465648854961832,1.4809160305343512,-0.8549618320610687,-0.465087890625,-0.064453125,-0.107421875,1.1644999999999999
1.083969465648855,1.4809160305343512,-0.5801526717557252,-0.46484375,-0.06298828125,-0.10791015625,1.1662
1.0076335877862594,1.465648854961832,-0.6870229007633588,-0.4658203125,-0.0634765625,-0.104248046875,1.1679
1.083969465648855,1.465648854961832,-0.732824427480916,-0.464599609375,-0.0654296875,-0.091796875,1.1696
1.1450381679389312,1.450381679389313,-0.8091603053435115,-0.46435546875,-0.061767578125,-0.103759765625,1.1713
1.465648854961832,1.3893129770992367,-0.48854961832061067,-0.463623046875,-0.06298828125,-0.103759765625,1.173
1.3740458015267176,1.251908396946565,-0.7480916030534351,-0.465087890625,-0.06298828125,-0.1064453125,1.1746999999999999
1.3282442748091603,1.3435114503816794,-0.5343511450381679,-0.466552734375,-0.068603515625,-0.104736328125,1.1764
1.5725190839694656,1.6030534351145038,-0.7022900763358778,-0.458984375,-0.066650390625,-0.110107421875,1.1781
1.5877862595419847,1.6030534351145038,-0.7175572519083969,-0.46142578125,-0.06689453125,-0.1044921875,1.1798
1.7099236641221374,1.465648854961832,-0.8549618320610687,-0.460693359375,-0.0693359375,-0.10009765625,1.1815
1.786259541984733,1.4809160305343512,-0.549618320610687,-0.464111328125,-0.0634765625,-0.103759765625,1.1832
1.8778625954198473,1.4961832061068703,-0.6564885496183206,-0.458984375,-0.065185546875,-0.099609375,1.1848999999999998
1.786259541984733,1.618320610687023,-0.6412213740458015,-0.46533203125,-0.06298828125,-0.104736328125,1.1865999999999999
2.015267175572519,1.5114503816793894,-0.9007633587786259,-0.46484375,-0.066650390625,-0.099853515625,1.1883
2.0610687022900764,1.5419847328244274,-0.7786259541984732,-0.4619140625,-0.0673828125,-0.100830078125,1.19
2.1374045801526718,1.465648854961832,-0.7938931297709924,-0.461181640625,-0.061767578125,-0.105712890625,1.1917
2.198473282442748,1.5114503816793894,-0.6717557251908397,-0.464599609375,-0.06103515625,-0.102783203125,1.1934
2.1068702290076335,1.4045801526717556,-0.8702290076335878,-0.46337890625,-0.066650390625,-0.107421875,1.1950999999999998
2.198473282442748,1.5419847328244274,-0.8854961832061069,-0.459716796875,-0.0654296875,-0.09814453125,1.1967999999999999
2.381679389312977,1.6030534351145038,-1.0076335877862594,-0.462158203125,-0.070556640625,-0.097900390625,1.1985
2.5801526717557253,1.4045801526717556,-0.8396946564885496,-0.45849609375,-0.06640625,-0.098388671875,1.2002
2.198473282442748,1.3435114503816794,-0.7633587786259542,-0.46484375,-0.065185546875,-0.100341796875,1.2019
2.6259541984732824,1.5114503816793894,-0.8702290076335878,-0.460693359375,-0.0693359375,-0.103515625,1.2036
2.7022900763358777,1.3282442748091603,-1.0076335877862594,-0.466064453125,-0.06591796875,-0.106689453125,1.2053
2.351145038167939,1.3893129770992367,-0.6870229007633588,-0.45849609375,-0.068115234375,-0.103271484375,1.2069999999999999
2.519083969465649,1.251908396946565,-0.8091603053435115,-0.466552734375,-0.064453125,-0.099853515625,1.2086999999999999
2.595419847328244,1.1297709923664123,-1.0076335877862594,-0.4619140625,-0.063720703125,-0.0947265625,1.2104
2.213740458015267,1.1145038167938932,-0.7786259541984732,-0.465576171875,-0.06787109375,-0.0986328125,1.2121
2.2595419847328246,1.0381679389312977,-0.6564885496183206,-0.465576171875,-0.06103515625,-0.10595703125,1.2138
2.4122137404580153,1.3740458015267176,-0.8854961832061069,-0.464599609375,-0.0625,-0.1005859375,1.2155
2.2900763358778624,1.2061068702290076,-0.916030534351145,-0.467529296875,-0.068115234375,-0.1064453125,1.2171999999999998
2.4427480916030535,1.0229007633587786,-0.8091603053435115,-0.462158203125,-0.064697265625,-0.097412109375,1.2188999999999999
2.33587786259542,0.8396946564885496,-0.916030534351145,-0.46142578125,-0.068603515625,-0.105224609375,1.2206
2.1068702290076335,1.1908396946564885,-0.9007633587786259,-0.462646484375,-0.065185546875,-0.1015625,1.2223
2.198473282442748,0.9770992366412213,-1.0229007633587786,-0.46435546875,-0.06640625,-0.106689453125,1.224
2.4122137404580153,0.916030534351145,-1.0076335877862594,-0.460693359375,-0.06591796875,-0.09814453125,1.2257
1.9694656488549618,0.7786259541984732,-0.9312977099236641,-0.459716796875,-0.069091796875,-0.106689453125,1.2273999999999998
2.0763358778625953,0.6412213740458015,-0.8702290076335878,-0.457763671875,-0.068603515625,-0.1025390625,1.2290999999999999
2.015267175572519,0.9770992366412213,-0.9465648854961832,-0.463134765625,-0.06689453125,-0.100830078125,1.2308
1.786259541984733,0.7786259541984732,-0.7480916030534351,-0.46337890625,-0.07177734375,-0.099853515625,1.2325
1.6488549618320612,0.7022900763358778,-1.0687022900763359,-0.4609375,-0.0654296875,-0.106201171875,1.2342
1.786259541984733,1.0076335877862594,-1.0381679389312977,-0.4658203125,-0.066162109375,-0.106201171875,1.2359
1.816793893129771,0.7633587786259542,-0.8244274809160306,-0.459228515625,-0.063232421875,-0.103271484375,1.2376
1.7709923664122138,0.9465648854961832,-0.8702290076335878,-0.465087890625,-0.06591796875,-0.111328125,1.2392999999999998
1.7099236641221374,0.7480916030534351,-0.9312977099236641,-0.460205078125,-0.0634765625,-0.10693359375,1.2409999999999999
1.7099236641221374,0.732824427480916,-1.0229007633587786,-0.460205078125,-0.065185546875,-0.1044921875,1.2427
1.5725190839694656,0.5343511450381679,-0.9312977099236641,-0.460693359375,-0.065673828125,-0.10693359375,1.2444
1.4961832061068703,0.6106870229007634,-0.8396946564885496,-0.4609375,-0.066650390625,-0.104248046875,1.2461
1.5419847328244274,0.7480916030534351,-0.8244274809160306,-0.4638671875,-0.06494140625,-0.110107421875,1.2478
1.4809160305343512,0.5801526717557252,-0.8702290076335878,-0.464111328125,-0.065185546875,-0.104736328125,1.2494999999999998
1.3435114503816794,0.4580152671755725,-0.9618320610687023,-0.46240234375,-0.06884765625,-0.10400390625,1.2511999999999999
1.633587786259542,0.5954198473282443,-0.7786259541984732,-0.458251953125,-0.06201171875,-0.1123046875,1.2529
1.2213740458015268,0.3969465648854962,-1.0381679389312977,-0.45703125,-0.063720703125,-0.10205078125,1.2546
1.2213740458015268,0.48854961832061067,-0.8702290076335878,-0.46484375,-0.066650390625,-0.11669921875,1.2563
1.3893129770992367,0.3053435114503817,-1.0687022900763359,-0.459228515625,-0.0634765625,-0.10595703125,1.258
1.3435114503816794,0.33587786259541985,-0.8854961832061069,-0.455810546875,-0.06982421875,-0.10791015625,1.2596999999999998
1.1603053435114503,0.2748091603053435,-0.9618320610687023,-0.46044921875,-0.065673828125,-0.107421875,1.2613999999999999
1.4045801526717556,0.22900763358778625,-0.9007633587786259,-0.461669921875,-0.064208984375,-0.106201171875,1.2631
1.3282442748091603,0.32061068702290074,-1.0381679389312977,-0.4580078125,-0.067138671875,-0.10986328125,1.2648
1.1908396946564885,0.2900763358778626,-1.0076335877862594,-0.457763671875,-0.06298828125,-0.111572265625,1.2665
1.3282442748091603,0.15267175572519084,-0.9618320610687023,-0.45703125,-0.058349609375,-0.10205078125,1.2682
1.1450381679389312,0.2900763358778626,-1.0534351145038168,-0.45947265625,-0.0634765625,-0.103759765625,1.2699
1.3893129770992367,0.030534351145038167,-1.1297709923664123,-0.46044921875,-0.060546875,-0.112060546875,1.2715999999999998
1.1297709923664123,0.13740458015267176,-0.6870229007633588,-0.45703125,-0.064208984375,-0.1083984375,1.2732999999999999
1.2366412213740459,0.04580152671755725,-0.9312977099236641,-0.460693359375,-0.064208984375,-0.106689453125,1.275
0.9923664122137404,0.061068702290076333,-0.9770992366412213,-0.4619140625,-0.064697265625,-0.106201171875,1.2767
1.1145038167938932,0.15267175572519084,-1.0229007633587786,-0.46044921875,-0.064453125,-0.106689453125,1.2784
1.2061068702290076,0.061068702290076333,-0.8091603053435115,-0.463134765625,-0.070068359375,-0.106201171875,1.2801
1.2061068702290076,0.16793893129770993,-1.099236641221374,-0.462158203125,-0.059326171875,-0.105224609375,1.2817999999999998
0.8854961832061069,0.2748091603053435,-0.8702290076335878,-0.46484375,-0.0634765625,-0.104736328125,1.2834999999999999
0.9770992366412213,0.16793893129770993,-0.916030534351145,-0.46337890625,-0.05859375,-0.107421875,1.2852
1.3587786259541985,0.12213740458015267,-0.7633587786259542,-0.459716796875,-0.061279296875,-0.107421875,1.2869
1.099236641221374,0.3816793893129771,-0.9007633587786259,-0.4580078125,-0.063232421875,-0.1044921875,1.2886
0.916030534351145,0.3053435114503817,-0.6259541984732825,-0.456298828125,-0.060302734375,-0.09716796875,1.2903
1.1145038167938932,0.3053435114503817,-0.8091603053435115,-0.46142578125,-0.0615234375,-0.10546875,1.292
1.099236641221374,0.4122137404580153,-0.8549618320610687,-0.46240234375,-0.059814453125,-0.1044921875,1.2936999999999999
1.0687022900763359,0.5954198473282443,-0.9465648854961832,-0.4619140625,-0.06396484375,-0.1083984375,1.2953999999999999
1.1603053435114503,0.4580152671755725,-0.6870229007633588,-0.458984375,-0.06787109375,-0.0966796875,1.2971
1.099236641221374,0.4580152671755725,-0.6870229007633588,-0.4619140625,-0.066162109375,-0.10986328125,1.2988
1.099236641221374,0.48854961832061067,-0.8091603053435115,-0.463623046875,-0.0693359375,-0.10205078125,1.3005
1.450381679389313,0.5038167938931297,-0.8244274809160306,-0.462158203125,-0.063232421875,-0.111328125,1.3022
1.1450381679389312,0.5954198473282443,-0.7175572519083969,-0.4619140625,-0.062744140625,-0.102294921875,1.3038999999999998
1.0076335877862594,0.7022900763358778,-0.8396946564885496,-0.460205078125,-0.067138671875,-0.107177734375,1.3055999999999999
1.3587786259541985,0.5190839694656488,-0.6106870229007634,-0.457763671875,-0.063232421875,-0.102294921875,1.3073
1.3282442748091603,0.7022900763358778,-0.4732824427480916,-0.460205078125,-0.0634765625,-0.103271484375,1.309
1.1908396946564885,0.7786259541984732,-0.5190839694656488,-0.461181640625,-0.0654296875,-0.09716796875,1.3107
1.3129770992366412,0.732824427480916,-0.5954198473282443,-0.462646484375,-0.06494140625,-0.1103515625,1.3124
1.4961832061068703,0.8396946564885496,-0.3816793893129771,-0.462646484375,-0.063720703125,-0.09765625,1.3140999999999998
1.282442748091603,0.5801526717557252,-0.48854961832061067,-0.4638671875,-0.068115234375,-0.1103515625,1.3157999999999999
1.2366412213740459,0.5954198473282443,-0.5190839694656488,-0.460205078125,-0.06591796875,-0.10498046875,1.3175
1.3129770992366412,0.6259541984732825,-0.5648854961832062,-0.463623046875,-0.0634765625,-0.10693359375,1.3192
1.1297709923664123,0.7786259541984732,-0.5801526717557252,-0.46142578125,-0.0634765625,-0.106689453125,1.3209
1.2213740458015268,0.6870229007633588,-0.5801526717557252,-0.462646484375,-0.067626953125,-0.1044921875,1.3226
1.3893129770992367,0.6717557251908397,-0.48854961832061067,-0.468505859375,-0.063720703125,-0.1123046875,1.3243
1.3282442748091603,0.6564885496183206,-0.5648854961832062,-0.465087890625,-0.0673828125,-0.10400390625,1.3259999999999998
1.3282442748091603,0.7480916030534351,-0.4732824427480916,-0.458740234375,-0.06396484375,-0.11181640625,1.3276999999999999
1.4198473282442747,0.6259541984732825,-0.5648854961832062,-0.465576171875,-0.062744140625,-0.11376953125,1.3294
1.251908396946565,0.7175572519083969,-0.4122137404580153,-0.460693359375,-0.068603515625,-0.10888671875,1.3311
1.2213740458015268,0.8549618320610687,-0.6564885496183206,-0.46044921875,-0.067626953125,-0.099365234375,1.3328
1.2061068702290076,0.5801526717557252,-0.3511450381679389,-0.465576171875,-0.065185546875,-0.099365234375,1.3345
1.0687022900763359,0.5343511450381679,-0.4580152671755725,-0.459716796875,-0.06640625,-0.109619140625,1.3361999999999998
1.3129770992366412,0.6870229007633588,-0.48854961832061067,-0.4609375,-0.066650390625,-0.110107421875,1.3378999999999999
1.2213740458015268,0.4580152671755725,-0.7175572519083969,-0.461181640625,-0.065185546875,-0.10400390625,1.3396
1.3282442748091603,0.3969465648854962,-0.5954198473282443,-0.46142578125,-0.0634765625,-0.103271484375,1.3413
1.4045801526717556,0.32061068702290074,-0.7786259541984732,-0.462158203125,-0.067626953125,-0.108642578125,1.343
1.465648854961832,0.4580152671755725,-0.5954198473282443,-0.463134765625,-0.0703125,-0.112548828125,1.3447
1.4809160305343512,0.4732824427480916,-0.6259541984732825,-0.460693359375,-0.0654296875,-0.0986328125,1.3463999999999998
1.3893129770992367,0.2595419847328244,-0.7022900763358778,-0.4658203125,-0.06396484375,-0.10693359375,1.3480999999999999
1.3740458015267176,0.3053435114503817,-0.7938931297709924,-0.466796875,-0.064697265625,-0.107421875,1.3497999999999999
1.4809160305343512,0.16793893129770993,-0.732824427480916,-0.459228515625,-0.06201171875,-0.1044921875,1.3515
1.5114503816793894,0.24427480916030533,-0.8396946564885496,-0.465576171875,-0.0654296875,-0.1025390625,1.3532
1.4045801526717556,0.16793893129770993,-0.7175572519083969,-0.462158203125,-0.06103515625,-0.103271484375,1.3549
1.3129770992366412,0.183206106870229,-0.8396946564885496,-0.45947265625,-0.06201171875,-0.10107421875,1.3566
1.5114503816793894,0.15267175572519084,-0.8396946564885496,-0.4619140625,-0.066650390625,-0.1005859375,1.3582999999999998
1.4351145038167938,0.12213740458015267,-0.8091603053435115,-0.4619140625,-0.06298828125,-0.107421875,1.3599999999999999
1.5419847328244274,0.2595419847328244,-0.8549618320610687,-0.46337890625,-0.0634765625,-0.10693359375,1.3617
1.6793893129770991,0.24427480916030533,-1.0076335877862594,-0.46728515625,-0.065185546875,-0.1015625,1.3634
1.7099236641221374,0.4122137404580153,-0.9618320610687023,-0.464111328125,-0.06591796875,-0.10693359375,1.3651
1.618320610687023,0.4122137404580153,-1.1450381679389312,-0.46435546875,-0.06982421875,-0.107177734375,1.3668
1.450381679389313,0.42748091603053434,-0.9618320610687023,-0.4638671875,-0.06396484375,-0.104248046875,1.3684999999999998
1.6488549618320612,0.2748091603053435,-0.9312977099236641,-0.46484375,-0.06201171875,-0.100341796875,1.3701999999999999
1.6488549618320612,0.3053435114503817,-1.0229007633587786,-0.462646484375,-0.064697265625,-0.095947265625,1.3719
1.7251908396946565,0.6259541984732825,-1.1908396946564885,-0.463134765625,-0.070556640625,-0.10009765625,1.3736
1.618320610687023,0.549618320610687,-0.8854961832061069,-0.464599609375,-0.0625,-0.099609375,1.3753
1.6793893129770991,0.549618320610687,-1.3129770992366412,-0.4697265625,-0.0634765625,-0.0986328125,1.377
1.6793893129770991,0.6564885496183206,-1.1908396946564885,-0.4716796875,-0.064697265625,-0.105712890625,1.3786999999999998
1.5419847328244274,0.3969465648854962,-1.1145038167938932,-0.466552734375,-0.06103515625,-0.099853515625,1.3803999999999998
1.7251908396946565,0.6259541984732825,-1.2061068702290076,-0.470458984375,-0.06005859375,-0.10009765625,1.3820999999999999
1.6946564885496183,0.6870229007633588,-1.251908396946565,-0.470458984375,-0.05859375,-0.098876953125,1.3838
1.4198473282442747,0.6870229007633588,-1.0687022900763359,-0.470458984375,-0.06103515625,-0.109619140625,1.3855
1.465648854961832,0.9312977099236641,-1.0687022900763359,-0.4677734375,-0.064697265625,-0.1162109375,1.3872
1.6030534351145038,0.7633587786259542,-1.1755725190839694,-0.471435546875,-0.06787109375,-0.1025390625,1.3889
1.633587786259542,0.732824427480916,-1.099236641221374,-0.46728515625,-0.065185546875,-0.1083984375,1.3905999999999998
1.5877862595419847,0.7786259541984732,-0.9770992366412213,-0.46630859375,-0.06689453125,-0.105224609375,1.3922999999999999
1.5114503816793894,0.8854961832061069,-1.0229007633587786,-0.466064453125,-0.061279296875,-0.102783203125,1.394
1.4961832061068703,0.8244274809160306,-1.0687022900763359,-0.464599609375,-0.069091796875,-0.10205078125,1.3957
1.4809160305343512,0.7480916030534351,-1.099236641221374,-0.465087890625,-0.06689453125,-0.109619140625,1.3974
1.6793893129770991,0.8396946564885496,-1.0381679389312977,-0.4619140625,-0.070556640625,-0.111572265625,1.3991
1.6946564885496183,0.9465648854961832,-0.9770992366412213,-0.46044921875,-0.07177734375,-0.107177734375,1.4007999999999998
1.6641221374045803,0.9923664122137404,-1.0381679389312977,-0.462646484375,-0.065185546875,-0.112548828125,1.4024999999999999
1.9083969465648856,0.9923664122137404,-0.9007633587786259,-0.464599609375,-0.060302734375,-0.107421875,1.4042
1.5267175572519085,0.8396946564885496,-0.8702290076335878,-0.459716796875,-0.06640625,-0.10986328125,1.4059
1.7099236641221374,0.9312977099236641,-1.099236641221374,-0.462890625,-0.064697265625,-0.10107421875,1.4076
1.816793893129771,0.732824427480916,-0.8244274809160306,-0.46044921875,-0.06982421875,-0.103759765625,1.4093
1.984732824427481,0.9465648854961832,-0.9770992366412213,-0.458251953125,-0.06689453125,-0.114501953125,1.411
1.816793893129771,0.8244274809160306,-0.8854961832061069,-0.45361328125,-0.0634765625,-0.10400390625,1.4126999999999998
1.7404580152671756,0.6564885496183206,-0.8244274809160306,-0.45751953125,-0.064453125,-0.11181640625,1.4143999999999999
1.9389312977099236,0.6870229007633588,-0.8549618320610687,-0.45947265625,-0.06396484375,-0.10791015625,1.4161
2.1374045801526718,0.5190839694656488,-0.8854961832061069,-0.45849609375,-0.06640625,-0.109130859375,1.4178
1.984732824427481,0.4122137404580153,-1.0076335877862594,-0.4541015625,-0.060791015625,-0.100341796875,1.4195
2.122137404580153,0.366412213740458,-0.9465648854961832,-0.45654296875,-0.067626953125,-0.104248046875,1.4212
1.816793893129771,0.2595419847328244,-0.8091603053435115,-0.451171875,-0.06689453125,-0.106201171875,1.4228999999999998
2.2900763358778624,0.13740458015267176,-0.8549618320610687,-0.4619140625,-0.07080078125,-0.1083984375,1.4245999999999999
2.198473282442748,0.1984732824427481,-1.0534351145038168,-0.45703125,-0.061279296875,-0.110595703125,1.4263
2.0916030534351147,0.12213740458015267,-0.916030534351145,-0.4560546875,-0.061767578125,-0.10498046875,1.428
2.3969465648854964,0.2595419847328244,-0.9618320610687023,-0.461181640625,-0.06298828125,-0.105224609375,1.4297
2.4122137404580153,-0.21374045801526717,-0.9007633587786259,-0.45654296875,-0.060546875,-0.094482421875,1.4314
2.4732824427480917,0.0916030534351145,-0.9007633587786259,-0.45654296875,-0.059814453125,-0.102294921875,1.4330999999999998
2.717557251908397,0.0,-0.732824427480916,-0.4541015625,-0.0625,-0.113525390625,1.4347999999999999
2.8244274809160306,-0.015267175572519083,-0.8396946564885496,-0.455810546875,-0.071044921875,-0.109130859375,1.4364999999999999
2.519083969465649,0.13740458015267176,-0.6564885496183206,-0.45849609375,-0.06298828125,-0.1044921875,1.4382
2.6259541984732824,0.21374045801526717,-0.916030534351145,-0.462646484375,-0.0625,-0.104248046875,1.4399
2.7480916030534353,0.1984732824427481,-0.8244274809160306,-0.46142578125,-0.06396484375,-0.10693359375,1.4416
2.6564885496183206,0.22900763358778625,-0.7633587786259542,-0.461181640625,-0.068115234375,-0.108154296875,1.4433
2.7480916030534353,0.3511450381679389,-0.732824427480916,-0.458740234375,-0.06640625,-0.113037109375,1.4449999999999998
2.732824427480916,0.15267175572519084,-1.0229007633587786,-0.462158203125,-0.067626953125,-0.109375,1.4466999999999999
2.6412213740458017,0.32061068702290074,-0.8702290076335878,-0.464599609375,-0.064453125,-0.109619140625,1.4484
2.717557251908397,0.42748091603053434,-0.9007633587786259,-0.460693359375,-0.062744140625,-0.10400390625,1.4501
2.549618320610687,0.5343511450381679,-0.8244274809160306,-0.459716796875,-0.069091796875,-0.1064453125,1.4518
2.4122137404580153,0.3969465648854962,-0.916030534351145,-0.46533203125,-0.066650390625,-0.10888671875,1.4535
2.366412213740458,0.5648854961832062,-0.9923664122137404,-0.46484375,-0.069580078125,-0.1103515625,1.4551999999999998
2.427480916030534,0.7022900763358778,-0.8091603053435115,-0.46484375,-0.068603515625,-0.103515625,1.4568999999999999
2.351145038167939,0.5801526717557252,-0.732824427480916,-0.4619140625,-0.068359375,-0.11767578125,1.4586
2.183206106870229,0.8854961832061069,-0.9007633587786259,-0.46142578125,-0.063720703125,-0.10498046875,1.4603
2.198473282442748,0.8702290076335878,-0.9618320610687023,-0.46044921875,-0.06591796875,-0.1005859375,1.462
1.9694656488549618,0.7786259541984732,-0.9618320610687023,-0.462890625,-0.065673828125,-0.1064453125,1.4637
2.16793893129771,0.8549618320610687,-0.7786259541984732,-0.462158203125,-0.0712890625,-0.108154296875,1.4653999999999998
2.030534351145038,1.0534351145038168,-1.0534351145038168,-0.46044921875,-0.0712890625,-0.108642578125,1.4670999999999998
1.83206106870229,1.1755725190839694,-0.8549618320610687,-0.4619140625,-0.066162109375,-0.110107421875,1.4687999999999999
1.7251908396946565,1.2213740458015268,-1.083969465648855,-0.46435546875,-0.065673828125,-0.108154296875,1.4705
2.0916030534351147,0.9465648854961832,-0.7786259541984732,-0.463623046875,-0.06884765625,-0.099365234375,1.4722
1.816793893129771,1.083969465648855,-1.1145038167938932,-0.46484375,-0.071533203125,-0.108154296875,1.4739
1.6793893129770991,1.099236641221374,-0.9618320610687023,-0.463623046875,-0.07177734375,-0.10009765625,1.4756
1.4961832061068703,1.2213740458015268,-1.1603053435114503,-0.46630859375,-0.066650390625,-0.10400390625,1.4772999999999998
1.5877862595419847,1.297709923664122,-0.916030534351145,-0.4609375,-0.069091796875,-0.10205078125,1.4789999999999999
1.450381679389313,1.1450381679389312,-1.083969465648855,-0.459228515625,-0.0712890625,-0.108154296875,1.4807
1.282442748091603,1.0381679389312977,-1.099236641221374,-0.46337890625,-0.06640625,-0.099853515625,1.4824
1.3740458015267176,1.1297709923664123,-1.083969465648855,-0.46142578125,-0.070556640625,-0.099609375,1.4841
1.3740458015267176,1.0534351145038168,-0.9618320610687023,-0.4619140625,-0.0673828125,-0.099609375,1.4858
1.099236641221374,0.9465648854961832,-0.9465648854961832,-0.457763671875,-0.065185546875,-0.1083984375,1.4874999999999998
0.8854961832061069,0.732824427480916,-1.0076335877862594,-0.460693359375,-0.06201171875,-0.10400390625,1.4891999999999999
1.083969465648855,1.0381679389312977,-1.2366412213740459,-0.46240234375,-0.0625,-0.103759765625,1.4909
1.0381679389312977,0.9007633587786259,-1.0076335877862594,-0.462890625,-0.06884765625,-0.10302734375,1.4926
0.8091603053435115,0.8244274809160306,-1.0687022900763359,-0.460693359375,-0.061767578125,-0.09912109375,1.4943
0.7786259541984732,0.549618320610687,-1.0076335877862594,-0.45947265625,-0.061767578125,-0.1025390625,1.496
0.6870229007633588,0.5954198473282443,-1.1145038167938932,-0.46337890625,-0.065673828125,-0.1005859375,1.4976999999999998
0.732824427480916,0.7786259541984732,-0.9923664122137404,-0.457275390625,-0.06982421875,-0.1015625,1.4993999999999998
0.8702290076335878,0.5954198473282443,-1.1297709923664123,-0.460205078125,-0.063720703125,-0.10888671875,1.5010999999999999
0.7633587786259542,0.5343511450381679,-0.9618320610687023,-0.46142578125,-0.06103515625,-0.11083984375,1.5028
0.9923664122137404,0.5190839694656488,-1.1145038167938932,-0.458984375,-0.0625,-0.111083984375,1.5045
0.7022900763358778,0.48854961832061067,-1.1297709923664123,-0.464111328125,-0.061279296875,-0.10205078125,1.5062
0.6106870229007634,0.5343511450381679,-1.251908396946565,-0.46240234375,-0.069580078125,-0.114990234375,1.5079
1.083969465648855,0.5343511450381679,-1.1755725190839694,-0.46142578125,-0.065185546875,-0.109619140625,1.5095999999999998
0.8702290076335878,0.5801526717557252,-1.2213740458015268,-0.4599609375,-0.06494140625,-0.102783203125,1.5112999999999999
0.8854961832061069,0.5801526717557252,-0.9618320610687023,-0.46044921875,-0.062744140625,-0.106689453125,1.513
1.1145038167938932,0.732824427480916,-1.1603053435114503,-0.459716796875,-0.059326171875,-0.111572265625,1.5147
0.8396946564885496,0.7175572519083969,-1.0534351145038168,-0.45458984375,-0.06005859375,-0.1005859375,1.5164
0.9923664122137404,0.7786259541984732,-1.1908396946564885,-0.462890625,-0.067626953125,-0.099853515625,1.5181
1.297709923664122,0.4580152671755725,-0.9923664122137404,-0.463134765625,-0.059814453125,-0.1171875,1.5197999999999998
1.282442748091603,0.8702290076335878,-1.0534351145038168,-0.462890625,-0.05810546875,-0.108154296875,1.5214999999999999
1.5267175572519085,0.7633587786259542,-1.0534351145038168,-0.4638671875,-0.0634765625,-0.09912109375,1.5231999999999999
1.3282442748091603,0.5954198473282443,-1.0687022900763359,-0.464599609375,-0.062255859375,-0.107421875,1.5249
1.4961832061068703,0.7175572519083969,-0.9618320610687023,-0.469482421875,-0.0625,-0.102783203125,1.5266
1.6030534351145038,0.6564885496183206,-1.083969465648855,-0.46630859375,-0.06494140625,-0.09619140625,1.5283
1.4198473282442747,0.7786259541984732,-1.0687022900763359,-0.464599609375,-0.0576171875,-0.110595703125,1.5299999999999998
1.7099236641221374,0.8702290076335878,-1.099236641221374,-0.45751953125,-0.06201171875,-0.10498046875,1.5316999999999998
2.0763358778625953,0.6870229007633588,-0.9465648854961832,-0.46044921875,-0.058349609375,-0.112548828125,1.5333999999999999
1.633587786259542,1.0076335877862594,-1.2366412213740459,-0.46240234375,-0.058837890625,-0.107421875,1.5351
1.8931297709923665,0.8396946564885496,-1.083969465648855,-0.458740234375,-0.064697265625,-0.11181640625,1.5368
1.9694656488549618,0.8702290076335878,-1.3740458015267176,-0.4697265625,-0.058837890625,-0.107177734375,1.5385
1.9541984732824427,1.0381679389312977,-1.083969465648855,-0.469482421875,-0.0595703125,-0.109619140625,1.5402
2.1068702290076335,0.8702290076335878,-1.3587786259541985,-0.46533203125,-0.065673828125,-0.102783203125,1.5418999999999998
2.030534351145038,0.8549618320610687,-1.2366412213740459,-0.466796875,-0.056884765625,-0.097412109375,1.5435999999999999
1.8931297709923665,1.083969465648855,-1.3893129770992367,-0.46240234375,-0.061767578125,-0.10009765625,1.5453
2.0916030534351147,1.2213740458015268,-1.251908396946565,-0.464599609375,-0.06396484375,-0.10498046875,1.547
2.2442748091603053,1.0687022900763359,-1.282442748091603,-0.45947265625,-0.059814453125,-0.109375,1.5487
2.0610687022900764,1.0687022900763359,-1.2671755725190839,-0.46728515625,-0.061279296875,-0.097900390625,1.5504
2.1374045801526718,1.1450381679389312,-1.4351145038167938,-0.469482421875,-0.05712890625,-0.10205078125,1.5520999999999998
2.183206106870229,1.251908396946565,-1.282442748091603,-0.46826171875,-0.064208984375,-0.103759765625,1.5537999999999998
2.3053435114503817,1.3740458015267176,-1.5572519083969465,-0.462158203125,-0.059326171875,-0.106201171875,1.5554999999999999
2.366412213740458,1.1450381679389312,-1.5267175572519085,-0.462646484375,-0.0595703125,-0.1015625,1.5572
2.0610687022900764,1.5572519083969465,-1.6488549618320612,-0.461181640625,-0.05908203125,-0.10546875,1.5589
2.045801526717557,1.465648854961832,-1.5419847328244274,-0.463623046875,-0.06201171875,-0.104248046875,1.5606
2.2442748091603053,1.3893129770992367,-1.6030534351145038,-0.4677734375,-0.06201171875,-0.107666015625,1.5623
2.198473282442748,1.3893129770992367,-1.7099236641221374,-0.463623046875,-0.0576171875,-0.104736328125,1.5639999999999998
2.16793893129771,1.4351145038167938,-1.633587786259542,-0.465087890625,-0.059326171875,-0.098876953125,1.5656999999999999
2.2900763358778624,1.4961832061068703,-1.5114503816793894,-0.46337890625,-0.060302734375,-0.102783203125,1.5674
2.122137404580153,1.251908396946565,-1.83206106870229,-0.463623046875,-0.062744140625,-0.095458984375,1.5691
2.030534351145038,1.3282442748091603,-1.8931297709923665,-0.46435546875,-0.062255859375,-0.103271484375,1.5708
1.9694656488549618,1.4809160305343512,-2.030534351145038,-0.460205078125,-0.063720703125,-0.106689453125,1.5725
1.8778625954198473,1.251908396946565,-1.786259541984733,-0.46142578125,-0.0634765625,-0.09912109375,1.5741999999999998
1.8625954198473282,1.3129770992366412,-1.9236641221374047,-0.46484375,-0.05908203125,-0.105224609375,1.5758999999999999
1.8625954198473282,1.1908396946564885,-2.030534351145038,-0.470703125,-0.058349609375,-0.110107421875,1.5776
1.816793893129771,1.2671755725190839,-1.9694656488549618,-0.466064453125,-0.061279296875,-0.111083984375,1.5793
1.9541984732824427,1.3587786259541985,-2.0,-0.465576171875,-0.059814453125,-0.099853515625,1.581
1.9236641221374047,1.282442748091603,-1.816793893129771,-0.45556640625,-0.06396484375,-0.10498046875,1.5827
1.5877862595419847,1.2671755725190839,-2.030534351145038,-0.46484375,-0.057373046875,-0.102294921875,1.5843999999999998
1.7251908396946565,1.0229007633587786,-2.213740458015267,-0.462158203125,-0.058837890625,-0.101318359375,1.5860999999999998
1.786259541984733,1.0381679389312977,-2.1374045801526718,-0.462158203125,-0.0546875,-0.114501953125,1.5877999999999999
1.8625954198473282,1.099236641221374,-2.030534351145038,-0.458251953125,-0.06103515625,-0.10302734375,1.5895
1.9236641221374047,1.0381679389312977,-2.0916030534351147,-0.4619140625,-0.059814453125,-0.11279296875,1.5912
1.6946564885496183,0.916030534351145,-2.183206106870229,-0.461181640625,-0.05859375,-0.11279296875,1.5929
1.7709923664122138,0.9923664122137404,-2.2900763358778624,-0.45361328125,-0.06298828125,-0.106689453125,1.5946
2.122137404580153,0.8549618320610687,-2.381679389312977,-0.45751953125,-0.0615234375,-0.1044921875,1.5962999999999998
2.2748091603053435,1.0687022900763359,-2.2748091603053435,-0.459228515625,-0.058349609375,-0.09814453125,1.5979999999999999
1.9236641221374047,0.8854961832061069,-2.366412213740458,-0.45849609375,-0.059814453125,-0.107177734375,1.5997
2.3206106870229006,0.7938931297709924,-2.3969465648854964,-0.453369140625,-0.05908203125,-0.10986328125,1.6014
2.2442748091603053,1.0534351145038168,-2.33587786259542,-0.462890625,-0.0595703125,-0.11181640625,1.6031
2.2442748091603053,0.8091603053435115,-2.4427480916030535,-0.46337890625,-0.0615234375,-0.094970703125,1.6048
2.198473282442748,0.916030534351145,-2.4122137404580153,-0.4619140625,-0.064208984375,-0.101318359375,1.6064999999999998
2.564885496183206,0.8244274809160306,-2.4885496183206106,-0.46240234375,-0.059326171875,-0.10546875,1.6081999999999999
2.6412213740458017,0.916030534351145,-2.6259541984732824,-0.457275390625,-0.056396484375,-0.101806640625,1.6098999999999999
2.549618320610687,1.0229007633587786,-2.564885496183206,-0.45556640625,-0.065185546875,-0.1025390625,1.6116
2.4885496183206106,0.8244274809160306,-2.6106870229007635,-0.456787109375,-0.05859375,-0.096923828125,1.6133
2.687022900763359,0.9312977099236641,-2.732824427480916,-0.457275390625,-0.05810546875,-0.10693359375,1.615
2.8702290076335877,0.8091603053435115,-2.7480916030534353,-0.458251953125,-0.0625,-0.1044921875,1.6166999999999998
2.687022900763359,0.6870229007633588,-2.7022900763358777,-0.457763671875,-0.061279296875,-0.1025390625,1.6183999999999998
2.9618320610687023,0.7022900763358778,-2.8396946564885495,-0.457763671875,-0.0625,-0.101318359375,1.6200999999999999
2.946564885496183,0.8091603053435115,-2.931297709923664,-0.45849609375,-0.05712890625,-0.107666015625,1.6218
2.900763358778626,0.7786259541984732,-3.0229007633587788,-0.4580078125,-0.05712890625,-0.103515625,1.6235
2.9160305343511452,0.7175572519083969,-2.9160305343511452,-0.455810546875,-0.065673828125,-0.104248046875,1.6252
2.9160305343511452,0.7938931297709924,-2.9160305343511452,-0.45556640625,-0.059814453125,-0.10205078125,1.6269
3.068702290076336,0.9618320610687023,-2.885496183206107,-0.462158203125,-0.0625,-0.099365234375,1.6285999999999998
2.9618320610687023,0.7633587786259542,-3.053435114503817,-0.45654296875,-0.065185546875,-0.1044921875,1.6302999999999999
3.0839694656488548,0.8549618320610687,-3.2519083969465647,-0.453369140625,-0.05615234375,-0.10400390625,1.632
2.931297709923664,0.8244274809160306,-3.2213740458015265,-0.453369140625,-0.064208984375,-0.10693359375,1.6337
3.1297709923664123,0.8702290076335878,-3.282442748091603,-0.456298828125,-0.062255859375,-0.1044921875,1.6354
2.9923664122137406,0.8549618320610687,-3.1755725190839694,-0.4541015625,-0.059814453125,-0.099365234375,1.6371
3.068702290076336,0.5954198473282443,-3.1908396946564888,-0.455078125,-0.06640625,-0.099609375,1.6387999999999998
3.1603053435114505,0.6717557251908397,-3.099236641221374,-0.45556640625,-0.062744140625,-0.098388671875,1.6404999999999998
3.2213740458015265,0.6717557251908397,-3.1603053435114505,-0.4638671875,-0.066650390625,-0.1005859375,1.6421999999999999
3.068702290076336,0.8244274809160306,-3.1755725190839694,-0.46435546875,-0.06884765625,-0.111328125,1.6439
3.0839694656488548,0.5954198473282443,-3.099236641221374,-0.458251953125,-0.06689453125,-0.103271484375,1.6456
3.2061068702290076,0.7175572519083969,-3.1908396946564888,-0.468505859375,-0.063720703125,-0.1083984375,1.6473
3.1603053435114505,0.6106870229007634,-3.480916030534351,-0.4609375,-0.057373046875,-0.100341796875,1.6489999999999998
3.2061068702290076,0.5648854961832062,-3.312977099236641,-0.462890625,-0.06787109375,-0.10302734375,1.6506999999999998
3.236641221374046,0.6717557251908397,-3.0229007633587788,-0.461669921875,-0.06787109375,-0.10009765625,1.6523999999999999
3.1908396946564888,0.8549618320610687,-3.068702290076336,-0.468505859375,-0.06640625,-0.10009765625,1.6541
3.3740458015267176,0.6259541984732825,-3.435114503816794,-0.4697265625,-0.068603515625,-0.102783203125,1.6558
3.648854961832061,0.6870229007633588,-3.145038167938931,-0.46826171875,-0.07275390625,-0.099365234375,1.6575
3.66412213740458,0.8244274809160306,-3.2061068702290076,-0.461669921875,-0.063720703125,-0.102783203125,1.6592
3.6030534351145036,0.8549618320610687,-2.946564885496183,-0.4697265625,-0.064697265625,-0.100341796875,1.6608999999999998
3.816793893129771,0.8549618320610687,-3.099236641221374,-0.466552734375,-0.065185546875,-0.099365234375,1.6625999999999999
3.801526717557252,0.8244274809160306,-3.0839694656488548,-0.467041015625,-0.05712890625,-0.10791015625,1.6643
4.198473282442748,0.8091603053435115,-3.068702290076336,-0.46826171875,-0.067138671875,-0.10498046875,1.666
4.183206106870229,0.8244274809160306,-3.053435114503817,-0.469482421875,-0.0703125,-0.102783203125,1.6677
4.015267175572519,0.9923664122137404,-3.282442748091603,-0.469970703125,-0.0703125,-0.098876953125,1.6694
4.030534351145038,0.8549618320610687,-2.8396946564885495,-0.4716796875,-0.064697265625,-0.108154296875,1.6710999999999998
4.122137404580153,0.7786259541984732,-3.068702290076336,-0.468505859375,-0.06689453125,-0.099609375,1.6727999999999998
4.183206106870229,0.7938931297709924,-2.7022900763358777,-0.462158203125,-0.06396484375,-0.10107421875,1.6744999999999999
3.954198473282443,0.7633587786259542,-2.854961832061069,-0.469482421875,-0.072021484375,-0.1044921875,1.6762
3.969465648854962,0.7633587786259542,-3.0229007633587788,-0.462646484375,-0.06689453125,-0.113037109375,1.6779
4.091603053435114,0.7633587786259542,-2.900763358778626,-0.465576171875,-0.0771484375,-0.102294921875,1.6796
3.8473282442748094,0.5190839694656488,-2.885496183206107,-0.464599609375,-0.062744140625,-0.107177734375,1.6813
3.9389312977099236,0.549618320610687,-2.900763358778626,-0.470458984375,-0.064697265625,-0.11181640625,1.6829999999999998
3.801526717557252,0.4122137404580153,-2.900763358778626,-0.46875,-0.068603515625,-0.105712890625,1.6846999999999999
3.4656488549618323,0.22900763358778625,-2.7938931297709924,-0.46630859375,-0.068603515625,-0.102783203125,1.6864
3.5419847328244276,0.2595419847328244,-2.885496183206107,-0.466552734375,-0.06640625,-0.108642578125,1.6881
3.3587786259541983,0.13740458015267176,-3.099236641221374,-0.46435546875,-0.066162109375,-0.10546875,1.6898
3.099236641221374,-0.04580152671755725,-2.8091603053435112,-0.46533203125,-0.064697265625,-0.1015625,1.6915
2.9618320610687023,-0.07633587786259542,-3.0229007633587788,-0.46240234375,-0.068115234375,-0.09619140625,1.6931999999999998
2.9160305343511452,-0.366412213740458,-2.9618320610687023,-0.46484375,-0.067138671875,-0.1240234375,1.6948999999999999
2.5343511450381677,-0.33587786259541985,-2.946564885496183,-0.46337890625,-0.070068359375,-0.117919921875,1.6965999999999999
2.366412213740458,-0.4122137404580153,-2.8091603053435112,-0.466064453125,-0.072021484375,-0.110595703125,1.6983
2.427480916030534,-0.5038167938931297,-3.0076335877862594,-0.4697265625,-0.0673828125,-0.113525390625,1.7
2.33587786259542,-0.6106870229007634,-2.8396946564885495,-0.46923828125,-0.067626953125,-0.1025390625,1.7017
2.015267175572519,-0.6259541984732825,-3.0381679389312977,-0.468994140625,-0.0673828125,-0.10595703125,1.7033999999999998
2.045801526717557,-0.6870229007633588,-3.0229007633587788,-0.470703125,-0.07080078125,-0.101318359375,1.7050999999999998
2.045801526717557,-0.8091603053435115,-3.053435114503817,-0.46435546875,-0.06787109375,-0.104248046875,1.7067999999999999
1.83206106870229,-0.8244274809160306,-2.9923664122137406,-0.46630859375,-0.06884765625,-0.1103515625,1.7085
1.8473282442748091,-0.9007633587786259,-2.931297709923664,-0.4677734375,-0.07568359375,-0.109130859375,1.7102
1.4045801526717556,-1.0076335877862594,-2.885496183206107,-0.47021484375,-0.070556640625,-0.1083984375,1.7119
1.3587786259541985,-0.8396946564885496,-3.068702290076336,-0.468017578125,-0.07275390625,-0.107177734375,1.7136
1.1297709923664123,-0.916030534351145,-2.9770992366412212,-0.467041015625,-0.0751953125,-0.102783203125,1.7152999999999998
1.2213740458015268,-0.7175572519083969,-2.946564885496183,-0.468017578125,-0.076171875,-0.10400390625,1.7169999999999999
1.1908396946564885,-0.9618320610687023,-2.946564885496183,-0.4677734375,-0.072509765625,-0.109375,1.7187
1.1755725190839694,-1.0534351145038168,-2.7480916030534353,-0.46923828125,-0.0693359375,-0.102783203125,1.7204
1.251908396946565,-1.0534351145038168,-2.6717557251908395,-0.468017578125,-0.0703125,-0.109375,1.7221
1.1145038167938932,-0.9312977099236641,-2.854961832061069,-0.470703125,-0.07470703125,-0.1123046875,1.7238
1.083969465648855,-0.9312977099236641,-2.9160305343511452,-0.464599609375,-0.07177734375,-0.099853515625,1.7254999999999998
1.083969465648855,-1.099236641221374,-2.8702290076335877,-0.470703125,-0.068115234375,-0.10205078125,1.7271999999999998
1.3129770992366412,-1.0381679389312977,-2.8396946564885495,-0.46728515625,-0.073974609375,-0.114990234375,1.7288999999999999
1.083969465648855,-1.1450381679389312,-2.6412213740458017,-0.46533203125,-0.070068359375,-0.099365234375,1.7306
1.251908396946565,-1.1908396946564885,-2.564885496183206,-0.462890625,-0.06787109375,-0.105712890625,1.7323
1.3435114503816794,-1.1145038167938932,-2.687022900763359,-0.472412109375,-0.072021484375,-0.101318359375,1.734
1.4045801526717556,-0.8702290076335878,-2.4427480916030535,-0.46484375,-0.069580078125,-0.104248046875,1.7356999999999998
1.3282442748091603,-0.7938931297709924,-2.549618320610687,-0.46533203125,-0.069580078125,-0.098388671875,1.7373999999999998
1.5114503816793894,-1.0534351145038168,-2.4122137404580153,-0.466796875,-0.071533203125,-0.099853515625,1.7390999999999999
1.5572519083969465,-0.8702290076335878,-2.33587786259542,-0.463623046875,-0.071044921875,-0.095703125,1.7408
1.5725190839694656,-0.8549618320610687,-2.2442748091603053,-0.46630859375,-0.065673828125,-0.099853515625,1.7425
1.7557251908396947,-0.916030534351145,-2.2442748091603053,-0.46630859375,-0.06591796875,-0.097412109375,1.7442
1.6793893129770991,-0.8396946564885496,-2.1374045801526718,-0.46484375,-0.064697265625,-0.102783203125,1.7459
1.6488549618320612,-0.8091603053435115,-2.1068702290076335,-0.468505859375,-0.06884765625,-0.089599609375,1.7475999999999998
1.8931297709923665,-0.8396946564885496,-1.9694656488549618,-0.464111328125,-0.06689453125,-0.09619140625,1.7492999999999999
1.7099236641221374,-0.9770992366412213,-1.9694656488549618,-0.4599609375,-0.066650390625,-0.1015625,1.751
1.8931297709923665,-0.8396946564885496,-1.816793893129771,-0.458740234375,-0.06884765625,-0.09619140625,1.7527
1.8473282442748091,-0.7480916030534351,-1.9694656488549618,-0.466552734375,-0.071533203125,-0.108154296875,1.7544
1.83206106870229,-0.8854961832061069,-1.9236641221374047,-0.465576171875,-0.0703125,-0.099365234375,1.7561
2.0610687022900764,-0.8244274809160306,-1.8931297709923665,-0.460205078125,-0.06787109375,-0.1015625,1.7577999999999998
1.984732824427481,-0.7938931297709924,-1.8625954198473282,-0.45703125,-0.0654296875,-0.10205078125,1.7594999999999998
1.8625954198473282,-0.7786259541984732,-1.8015267175572518,-0.462158203125,-0.0703125,-0.1015625,1.7611999999999999
1.83206106870229,-0.8854961832061069,-1.8931297709923665,-0.462158203125,-0.073974609375,-0.10400390625,1.7629
1.9389312977099236,-0.9007633587786259,-1.8473282442748091,-0.4609375,-0.068603515625,-0.108154296875,1.7646
1.8015267175572518,-1.083969465648855,-1.618320610687023,-0.462646484375,-0.070068359375,-0.092041015625,1.7663
1.8625954198473282,-0.9770992366412213,-1.618320610687023,-0.461181640625,-0.068359375,-0.099853515625,1.7679999999999998
1.7557251908396947,-1.0076335877862594,-1.6488549618320612,-0.464111328125,-0.064453125,-0.099365234375,1.7696999999999998
1.7099236641221374,-1.099236641221374,-1.5419847328244274,-0.459228515625,-0.074462890625,-0.1005859375,1.7713999999999999
1.6488549618320612,-1.1297709923664123,-1.5877862595419847,-0.456787109375,-0.06689453125,-0.095947265625,1.7731
1.6488549618320612,-1.2213740458015268,-1.6946564885496183,-0.4541015625,-0.069091796875,-0.099609375,1.7748
1.5267175572519085,-1.2061068702290076,-1.618320610687023,-0.45947265625,-0.067626953125,-0.100341796875,1.7765
1.5267175572519085,-1.2061068702290076,-1.6641221374045803,-0.46142578125,-0.0712890625,-0.109619140625,1.7782
1.3893129770992367,-1.083969465648855,-1.7709923664122138,-0.4580078125,-0.072509765625,-0.1015625,1.7798999999999998
1.099236641221374,-1.251908396946565,-1.6030534351145038,-0.461669921875,-0.0654296875,-0.1015625,1.7815999999999999
1.3282442748091603,-1.1297709923664123,-1.5419847328244274,-0.458984375,-0.07080078125,-0.102783203125,1.7832999999999999
