gyrox1,gyroy1,gyroz1,accelx1,accely1,accelz1,Time
0.22900763358778625,-0.15267175572519084,-2.1526717557251906,0.074951171875,-0.0654296875,-0.6044921875,0.0
0.5343511450381679,-0.15267175572519084,-2.33587786259542,0.074951171875,-0.06396484375,-0.59765625,0.0017
0.3969465648854962,-0.3511450381679389,-2.3206106870229006,0.068115234375,-0.0654296875,-0.59619140625,0.0034
0.42748091603053434,-0.2748091603053435,-2.381679389312977,0.0732421875,-0.0673828125,-0.601806640625,0.0050999999999999995
0.4732824427480916,-0.1984732824427481,-2.4732824427480917,0.07568359375,-0.068359375,-0.59375,0.0068
0.4580152671755725,-0.24427480916030533,-2.5801526717557253,0.06884765625,-0.061279296875,-0.6025390625,0.008499999999999999
0.5190839694656488,-0.16793893129770993,-2.4427480916030535,0.07080078125,-0.06201171875,-0.591796875,0.010199999999999999
0.5343511450381679,-0.061068702290076333,-2.687022900763359,0.0703125,-0.06591796875,-0.5986328125,0.011899999999999999
0.5038167938931297,0.04580152671755725,-2.7022900763358777,0.078369140625,-0.06396484375,-0.603271484375,0.0136
0.4122137404580153,0.21374045801526717,-2.6412213740458017,0.072265625,-0.065185546875,-0.6064453125,0.0153
0.4580152671755725,0.13740458015267176,-2.427480916030534,0.074462890625,-0.06103515625,-0.601806640625,0.016999999999999998
0.5648854961832062,0.16793893129770993,-2.7480916030534353,0.072509765625,-0.065673828125,-0.58935546875,0.018699999999999998
0.7786259541984732,0.183206106870229,-2.6564885496183206,0.0712890625,-0.064453125,-0.596923828125,0.020399999999999998
0.9465648854961832,0.24427480916030533,-2.6259541984732824,0.068603515625,-0.0625,-0.597900390625,0.022099999999999998
0.8702290076335878,0.5038167938931297,-2.9770992366412212,0.068603515625,-0.06787109375,-0.602783203125,0.023799999999999998
1.0229007633587786,0.549618320610687,-2.8091603053435112,0.070556640625,-0.06396484375,-0.59716796875,0.0255
1.1145038167938932,0.5954198473282443,-2.5343511450381677,0.068603515625,-0.067626953125,-0.60302734375,0.0272
1.1297709923664123,0.7480916030534351,-2.7022900763358777,0.06982421875,-0.065673828125,-0.60302734375,0.0289
1.3129770992366412,1.083969465648855,-2.8244274809160306,0.066650390625,-0.0673828125,-0.606689453125,0.0306
1.1450381679389312,1.0076335877862594,-2.885496183206107,0.071044921875,-0.06689453125,-0.598388671875,0.032299999999999995
1.1755725190839694,0.9770992366412213,-2.6717557251908395,0.072021484375,-0.0673828125,-0.59814453125,0.033999999999999996
0.9923664122137404,1.1908396946564885,-2.7480916030534353,0.06201171875,-0.069580078125,-0.60009765625,0.035699999999999996
0.916030534351145,1.1603053435114503,-2.687022900763359,0.06298828125,-0.064697265625,-0.592529296875,0.037399999999999996
1.0381679389312977,1.1755725190839694,-2.885496183206107,0.065673828125,-0.0673828125,-0.604248046875,0.039099999999999996
0.6564885496183206,1.6488549618320612,-2.687022900763359,0.06689453125,-0.06884765625,-0.597900390625,0.040799999999999996
0.7480916030534351,1.5572519083969465,-2.8091603053435112,0.069580078125,-0.067138671875,-0.606201171875,0.042499999999999996
0.916030534351145,1.7099236641221374,-3.099236641221374,0.067138671875,-0.069091796875,-0.596923828125,0.044199999999999996
0.4580152671755725,1.7709923664122138,-2.8244274809160306,0.068359375,-0.06884765625,-0.59228515625,0.045899999999999996
0.42748091603053434,1.7251908396946565,-2.8244274809160306,0.070068359375,-0.071533203125,-0.594482421875,0.047599999999999996
0.6564885496183206,1.9694656488549618,-3.236641221374046,0.068115234375,-0.0693359375,-0.608154296875,0.0493
0.33587786259541985,2.16793893129771,-3.145038167938931,0.068603515625,-0.06787109375,-0.601806640625,0.051
0.5038167938931297,2.0763358778625953,-3.236641221374046,0.07177734375,-0.058837890625,-0.600830078125,0.0527
0.6106870229007634,2.2748091603053435,-3.2519083969465647,0.06689453125,-0.06884765625,-0.599609375,0.0544
0.42748091603053434,2.2900763358778624,-3.2061068702290076,0.06689453125,-0.069091796875,-0.599609375,0.0561
0.13740458015267176,2.5801526717557253,-3.0076335877862594,0.0654296875,-0.070068359375,-0.611572265625,0.0578
0.32061068702290074,2.4732824427480917,-3.1297709923664123,0.070068359375,-0.0625,-0.598876953125,0.0595
0.5038167938931297,2.5343511450381677,-2.9923664122137406,0.06640625,-0.0634765625,-0.601806640625,0.0612
0.366412213740458,2.595419847328244,-3.0229007633587788,0.07080078125,-0.0703125,-0.60595703125,0.0629
0.549618320610687,2.6259541984732824,-2.900763358778626,0.064453125,-0.066162109375,-0.604736328125,0.06459999999999999
0.5038167938931297,2.732824427480916,-2.9160305343511452,0.072998046875,-0.062744140625,-0.60595703125,0.0663
0.4732824427480916,2.7480916030534353,-2.8396946564885495,0.067626953125,-0.062744140625,-0.607421875,0.06799999999999999
0.5648854961832062,2.6564885496183206,-2.7786259541984735,0.070556640625,-0.064697265625,-0.604736328125,0.0697
0.7175572519083969,2.854961832061069,-2.8396946564885495,0.072265625,-0.0673828125,-0.603515625,0.07139999999999999
0.8396946564885496,2.717557251908397,-2.7938931297709924,0.07373046875,-0.0634765625,-0.597900390625,0.0731
1.0381679389312977,2.687022900763359,-2.2748091603053435,0.068115234375,-0.06298828125,-0.595703125,0.07479999999999999
1.0076335877862594,2.7786259541984735,-2.549618320610687,0.070068359375,-0.063720703125,-0.597412109375,0.0765
1.099236641221374,2.50381679389313,-2.4732824427480917,0.073486328125,-0.064697265625,-0.596435546875,0.07819999999999999
1.465648854961832,2.5801526717557253,-2.351145038167939,0.07177734375,-0.064453125,-0.6015625,0.0799
1.4961832061068703,2.8396946564885495,-2.213740458015267,0.07421875,-0.0615234375,-0.6025390625,0.08159999999999999
1.1603053435114503,2.6717557251908395,-2.183206106870229,0.072509765625,-0.05908203125,-0.606201171875,0.0833
1.0687022900763359,2.595419847328244,-2.198473282442748,0.075439453125,-0.065673828125,-0.601806640625,0.08499999999999999
1.5572519083969465,2.6564885496183206,-2.4122137404580153,0.073486328125,-0.059814453125,-0.599365234375,0.0867
1.5419847328244274,2.6564885496183206,-2.351145038167939,0.0712890625,-0.061279296875,-0.60302734375,0.08839999999999999
1.7251908396946565,2.687022900763359,-2.3969465648854964,0.069091796875,-0.06591796875,-0.605224609375,0.0901
1.9236641221374047,2.687022900763359,-2.1526717557251906,0.073486328125,-0.060791015625,-0.607177734375,0.09179999999999999
1.9236641221374047,2.7480916030534353,-2.33587786259542,0.071533203125,-0.06396484375,-0.606689453125,0.0935
1.8625954198473282,2.6259541984732824,-2.122137404580153,0.072509765625,-0.064208984375,-0.61083984375,0.09519999999999999
1.83206106870229,2.6259541984732824,-2.0763358778625953,0.073486328125,-0.062255859375,-0.595947265625,0.0969
2.5343511450381677,2.6564885496183206,-1.786259541984733,0.070068359375,-0.064453125,-0.609130859375,0.0986
2.427480916030534,2.6564885496183206,-2.1068702290076335,0.072509765625,-0.063232421875,-0.60693359375,0.1003
2.2748091603053435,2.564885496183206,-2.0,0.0693359375,-0.064697265625,-0.598876953125,0.102
2.564885496183206,2.7786259541984735,-1.8778625954198473,0.069580078125,-0.0576171875,-0.601806640625,0.1037
2.3053435114503817,2.7938931297709924,-1.7099236641221374,0.0732421875,-0.060791015625,-0.60205078125,0.1054
2.9160305343511452,2.717557251908397,-1.7709923664122138,0.071533203125,-0.05615234375,-0.6044921875,0.1071
2.8396946564885495,2.6564885496183206,-1.8778625954198473,0.071044921875,-0.056396484375,-0.6025390625,0.1088
2.4732824427480917,2.7786259541984735,-1.8015267175572518,0.0703125,-0.0634765625,-0.598388671875,0.11049999999999999
2.7022900763358777,2.7022900763358777,-1.8625954198473282,0.072265625,-0.061279296875,-0.604736328125,0.1122
3.0381679389312977,2.763358778625954,-2.2442748091603053,0.072021484375,-0.060791015625,-0.59619140625,0.11389999999999999
2.854961832061069,2.7786259541984735,-1.9389312977099236,0.064208984375,-0.056396484375,-0.5966796875,0.1156
3.0839694656488548,2.9618320610687023,-1.9083969465648856,0.06787109375,-0.05517578125,-0.600830078125,0.11729999999999999
2.9618320610687023,2.8702290076335877,-1.7557251908396947,0.066162109375,-0.063232421875,-0.598388671875,0.119
2.931297709923664,2.885496183206107,-2.0,0.0673828125,-0.05908203125,-0.6064453125,0.12069999999999999
2.9923664122137406,3.0839694656488548,-2.030534351145038,0.07177734375,-0.06298828125,-0.60595703125,0.1224
3.053435114503817,3.099236641221374,-2.045801526717557,0.0634765625,-0.062255859375,-0.601806640625,0.12409999999999999
3.0839694656488548,3.0839694656488548,-1.7251908396946565,0.070556640625,-0.062744140625,-0.59912109375,0.1258
2.687022900763359,3.312977099236641,-2.015267175572519,0.06884765625,-0.061279296875,-0.609619140625,0.1275
2.9618320610687023,3.282442748091603,-1.9694656488549618,0.065673828125,-0.065185546875,-0.609375,0.12919999999999998
2.885496183206107,3.0229007633587788,-2.0763358778625953,0.070556640625,-0.0615234375,-0.59912109375,0.1309
3.0839694656488548,3.068702290076336,-1.9389312977099236,0.0673828125,-0.06494140625,-0.60791015625,0.1326
2.6412213740458017,3.3893129770992365,-1.9389312977099236,0.0673828125,-0.062255859375,-0.604248046875,0.1343
2.854961832061069,3.267175572519084,-1.6793893129770991,0.073974609375,-0.064208984375,-0.609130859375,0.13599999999999998
2.7938931297709924,3.267175572519084,-1.7557251908396947,0.0703125,-0.064697265625,-0.594970703125,0.1377
2.5801526717557253,3.0381679389312977,-1.7404580152671756,0.070556640625,-0.064208984375,-0.600830078125,0.1394
2.427480916030534,3.068702290076336,-1.8778625954198473,0.069091796875,-0.0634765625,-0.60400390625,0.1411
2.6259541984732824,2.9923664122137406,-1.6793893129770991,0.06787109375,-0.060791015625,-0.59814453125,0.14279999999999998
2.6564885496183206,2.931297709923664,-1.633587786259542,0.0712890625,-0.060546875,-0.598876953125,0.1445
2.6717557251908395,2.900763358778626,-1.5114503816793894,0.0703125,-0.062255859375,-0.6015625,0.1462
2.50381679389313,2.885496183206107,-1.465648854961832,0.0732421875,-0.06201171875,-0.59716796875,0.1479
2.6259541984732824,2.8244274809160306,-1.3893129770992367,0.07177734375,-0.066162109375,-0.595458984375,0.14959999999999998
2.6717557251908395,2.931297709923664,-1.5114503816793894,0.073974609375,-0.06591796875,-0.60107421875,0.1513
2.6717557251908395,2.6412213740458017,-1.5877862595419847,0.069580078125,-0.06396484375,-0.600830078125,0.153
2.732824427480916,2.763358778625954,-1.4045801526717556,0.075927734375,-0.069580078125,-0.595458984375,0.1547
2.7786259541984735,2.6564885496183206,-1.083969465648855,0.0751953125,-0.068115234375,-0.60107421875,0.15639999999999998
2.519083969465649,2.6412213740458017,-1.1755725190839694,0.07568359375,-0.063232421875,-0.59765625,0.1581
2.519083969465649,2.564885496183206,-1.1755725190839694,0.06982421875,-0.064453125,-0.6015625,0.1598
2.4732824427480917,2.213740458015267,-1.2671755725190839,0.068115234375,-0.065673828125,-0.600830078125,0.1615
2.6717557251908395,2.4427480916030535,-0.916030534351145,0.0712890625,-0.067626953125,-0.600341796875,0.16319999999999998
2.4885496183206106,2.2290076335877864,-1.0229007633587786,0.076416015625,-0.064697265625,-0.594970703125,0.1649
2.549618320610687,2.2442748091603053,-1.0229007633587786,0.07666015625,-0.0654296875,-0.601806640625,0.1666
2.4885496183206106,2.213740458015267,-0.9618320610687023,0.072021484375,-0.06005859375,-0.59228515625,0.16829999999999998
2.6106870229007635,1.786259541984733,-0.732824427480916,0.073974609375,-0.064697265625,-0.593505859375,0.16999999999999998
2.549618320610687,1.816793893129771,-0.8702290076335878,0.072998046875,-0.0673828125,-0.605712890625,0.1717
2.6564885496183206,1.8778625954198473,-0.7480916030534351,0.072021484375,-0.0625,-0.602783203125,0.1734
2.4427480916030535,1.8015267175572518,-0.8549618320610687,0.071044921875,-0.06494140625,-0.5986328125,0.17509999999999998
2.366412213740458,1.6641221374045803,-0.6106870229007634,0.0732421875,-0.06396484375,-0.60205078125,0.17679999999999998
2.4885496183206106,1.5267175572519085,-0.9618320610687023,0.073486328125,-0.05859375,-0.597412109375,0.1785
2.50381679389313,1.5114503816793894,-0.8549618320610687,0.07177734375,-0.068115234375,-0.5986328125,0.1802
2.6106870229007635,1.4045801526717556,-0.6717557251908397,0.0693359375,-0.06396484375,-0.58837890625,0.18189999999999998
2.687022900763359,1.3893129770992367,-0.5801526717557252,0.079345703125,-0.067626953125,-0.612060546875,0.18359999999999999
2.519083969465649,1.282442748091603,-0.6564885496183206,0.07275390625,-0.06396484375,-0.60595703125,0.1853
2.427480916030534,1.2366412213740459,-0.6564885496183206,0.067626953125,-0.064208984375,-0.6005859375,0.187
2.7480916030534353,1.5419847328244274,-0.7633587786259542,0.069091796875,-0.06103515625,-0.599853515625,0.18869999999999998
2.549618320610687,1.0381679389312977,-0.6259541984732825,0.07177734375,-0.065185546875,-0.6005859375,0.19039999999999999
2.687022900763359,1.0687022900763359,-0.8091603053435115,0.070068359375,-0.06591796875,-0.600830078125,0.1921
3.1603053435114505,1.0534351145038168,-0.7786259541984732,0.0634765625,-0.065185546875,-0.59423828125,0.1938
3.0229007633587788,0.9007633587786259,-1.083969465648855,0.068359375,-0.067138671875,-0.591796875,0.19549999999999998
3.282442748091603,0.9770992366412213,-0.7786259541984732,0.072998046875,-0.064697265625,-0.59765625,0.1972
3.66412213740458,1.0076335877862594,-1.0229007633587786,0.068603515625,-0.06005859375,-0.596923828125,0.1989
3.5572519083969465,0.8702290076335878,-0.916030534351145,0.07080078125,-0.06103515625,-0.592041015625,0.2006
3.7557251908396947,0.7633587786259542,-0.9618320610687023,0.07080078125,-0.0625,-0.60009765625,0.20229999999999998
3.816793893129771,0.8396946564885496,-0.8702290076335878,0.0732421875,-0.064208984375,-0.59423828125,0.204
3.633587786259542,0.7633587786259542,-0.6564885496183206,0.07275390625,-0.064697265625,-0.59130859375,0.2057
3.6946564885496183,0.7022900763358778,-0.7022900763358778,0.07275390625,-0.065673828125,-0.590087890625,0.2074
4.091603053435114,0.6870229007633588,-0.7786259541984732,0.0712890625,-0.058837890625,-0.608642578125,0.20909999999999998
4.0458015267175576,0.8244274809160306,-0.7480916030534351,0.074462890625,-0.06884765625,-0.596923828125,0.2108
3.9236641221374047,0.5954198473282443,-0.7480916030534351,0.073486328125,-0.069580078125,-0.600341796875,0.2125
3.9083969465648853,0.2900763358778626,-0.8091603053435115,0.07666015625,-0.06591796875,-0.599609375,0.2142
4.152671755725191,0.5343511450381679,-0.7938931297709924,0.072509765625,-0.064697265625,-0.597900390625,0.21589999999999998
4.091603053435114,0.5801526717557252,-0.8244274809160306,0.07177734375,-0.06982421875,-0.59912109375,0.2176
4.305343511450381,0.44274809160305345,-0.916030534351145,0.07568359375,-0.066650390625,-0.599609375,0.2193
4.351145038167939,0.32061068702290074,-0.7786259541984732,0.0771484375,-0.064453125,-0.595703125,0.22099999999999997
4.305343511450381,0.32061068702290074,-0.8854961832061069,0.072265625,-0.066650390625,-0.59423828125,0.22269999999999998
4.106870229007634,0.183206106870229,-0.8396946564885496,0.073486328125,-0.069091796875,-0.594970703125,0.2244
4.213740458015267,0.0,-0.8396946564885496,0.0712890625,-0.06494140625,-0.59912109375,0.2261
4.152671755725191,0.04580152671755725,-0.916030534351145,0.0732421875,-0.069580078125,-0.5966796875,0.22779999999999997
4.305343511450381,-0.015267175572519083,-0.9312977099236641,0.07080078125,-0.067626953125,-0.59619140625,0.22949999999999998
4.3816793893129775,-0.0916030534351145,-0.732824427480916,0.0771484375,-0.066650390625,-0.59619140625,0.2312
4.0458015267175576,-0.12213740458015267,-0.48854961832061067,0.071533203125,-0.070068359375,-0.59716796875,0.2329
4.076335877862595,-0.32061068702290074,-0.8854961832061069,0.075927734375,-0.067138671875,-0.599365234375,0.23459999999999998
4.259541984732825,-0.32061068702290074,-0.7786259541984732,0.073974609375,-0.068603515625,-0.61376953125,0.23629999999999998
4.290076335877862,-0.4732824427480916,-0.9465648854961832,0.080322265625,-0.064453125,-0.599853515625,0.238
4.427480916030534,-0.7633587786259542,-0.8549618320610687,0.0771484375,-0.066650390625,-0.603271484375,0.2397
4.091603053435114,-0.732824427480916,-0.8244274809160306,0.078857421875,-0.0634765625,-0.607177734375,0.24139999999999998
4.198473282442748,-0.8244274809160306,-0.8091603053435115,0.08056640625,-0.068115234375,-0.60498046875,0.24309999999999998
4.458015267175573,-0.8854961832061069,-0.9770992366412213,0.078857421875,-0.06689453125,-0.595947265625,0.2448
4.3816793893129775,-1.2061068702290076,-0.8702290076335878,0.076904296875,-0.064453125,-0.596923828125,0.2465
4.5038167938931295,-1.1145038167938932,-1.083969465648855,0.07763671875,-0.065185546875,-0.59619140625,0.24819999999999998
4.595419847328245,-1.297709923664122,-0.9923664122137404,0.071533203125,-0.067138671875,-0.610107421875,0.24989999999999998
4.6106870229007635,-1.2366412213740459,-0.916030534351145,0.076171875,-0.068603515625,-0.6103515625,0.2516
4.320610687022901,-1.3587786259541985,-0.8854961832061069,0.078125,-0.0654296875,-0.5947265625,0.25329999999999997
4.412213740458015,-1.4351145038167938,-1.1603053435114503,0.0751953125,-0.068115234375,-0.6005859375,0.255
4.091603053435114,-1.2213740458015268,-1.1603053435114503,0.075439453125,-0.065673828125,-0.599609375,0.2567
4.320610687022901,-1.297709923664122,-0.9923664122137404,0.07861328125,-0.065673828125,-0.602783203125,0.25839999999999996
4.351145038167939,-1.4351145038167938,-0.7022900763358778,0.076171875,-0.067138671875,-0.606201171875,0.2601
4.0458015267175576,-1.5572519083969465,-1.0687022900763359,0.0732421875,-0.0712890625,-0.607666015625,0.2618
3.7251908396946565,-1.3740458015267176,-1.0381679389312977,0.076904296875,-0.0703125,-0.6142578125,0.2635
3.786259541984733,-1.3740458015267176,-0.8854961832061069,0.07275390625,-0.06494140625,-0.604736328125,0.2652
3.9236641221374047,-1.5572519083969465,-0.7480916030534351,0.069580078125,-0.07080078125,-0.59912109375,0.26689999999999997
3.8473282442748094,-1.282442748091603,-0.9312977099236641,0.072021484375,-0.072265625,-0.600341796875,0.2686
3.5267175572519083,-1.4045801526717556,-0.9618320610687023,0.0771484375,-0.07470703125,-0.601318359375,0.2703
3.435114503816794,-1.4045801526717556,-0.9007633587786259,0.0732421875,-0.06640625,-0.609375,0.27199999999999996
3.3282442748091605,-1.3587786259541985,-0.7633587786259542,0.072509765625,-0.072021484375,-0.607421875,0.2737
3.2213740458015265,-1.4351145038167938,-1.2366412213740459,0.0703125,-0.0732421875,-0.6064453125,0.2754
3.267175572519084,-1.3435114503816794,-0.9770992366412213,0.072998046875,-0.0673828125,-0.598388671875,0.27709999999999996
3.0229007633587788,-1.5267175572519085,-1.099236641221374,0.076904296875,-0.0712890625,-0.6064453125,0.2788
3.0381679389312977,-1.3282442748091603,-1.2061068702290076,0.078125,-0.072021484375,-0.605712890625,0.28049999999999997
3.0839694656488548,-1.4351145038167938,-1.3587786259541985,0.073486328125,-0.072509765625,-0.593505859375,0.2822
2.931297709923664,-1.3740458015267176,-1.4351145038167938,0.068359375,-0.068359375,-0.595703125,0.2839
2.7786259541984735,-1.251908396946565,-1.5114503816793894,0.068359375,-0.072509765625,-0.603515625,0.28559999999999997
2.7022900763358777,-1.3129770992366412,-1.1450381679389312,0.072998046875,-0.069091796875,-0.603271484375,0.2873
2.6717557251908395,-1.1603053435114503,-1.450381679389313,0.071533203125,-0.07080078125,-0.6123046875,0.289
2.687022900763359,-1.3129770992366412,-1.4045801526717556,0.07080078125,-0.070068359375,-0.61328125,0.29069999999999996
2.7022900763358777,-1.251908396946565,-1.5877862595419847,0.0771484375,-0.073486328125,-0.604736328125,0.2924
2.4885496183206106,-1.2366412213740459,-1.251908396946565,0.072021484375,-0.071533203125,-0.604736328125,0.2941
2.3969465648854964,-1.282442748091603,-1.5877862595419847,0.072021484375,-0.073486328125,-0.608154296875,0.2958
2.549618320610687,-1.297709923664122,-1.5572519083969465,0.07470703125,-0.06982421875,-0.605224609375,0.2975
2.5343511450381677,-1.099236641221374,-1.5419847328244274,0.068603515625,-0.06787109375,-0.613037109375,0.29919999999999997
2.5801526717557253,-1.0076335877862594,-1.6793893129770991,0.07177734375,-0.068359375,-0.601806640625,0.3009
2.6717557251908395,-1.1908396946564885,-1.8931297709923665,0.06982421875,-0.069580078125,-0.601806640625,0.3026
2.8091603053435112,-1.0229007633587786,-1.5725190839694656,0.072021484375,-0.06787109375,-0.602783203125,0.30429999999999996
2.946564885496183,-1.1297709923664123,-1.7099236641221374,0.072998046875,-0.0673828125,-0.601806640625,0.306
2.9770992366412212,-0.9312977099236641,-1.7557251908396947,0.076416015625,-0.062255859375,-0.603271484375,0.3077
3.0839694656488548,-0.8549618320610687,-1.7251908396946565,0.074462890625,-0.071044921875,-0.61572265625,0.3094
3.3893129770992365,-0.7022900763358778,-1.5572519083969465,0.066650390625,-0.0673828125,-0.603759765625,0.3111
3.49618320610687,-0.8091603053435115,-1.9236641221374047,0.071533203125,-0.07275390625,-0.608154296875,0.31279999999999997
3.480916030534351,-0.7633587786259542,-1.7099236641221374,0.0712890625,-0.07470703125,-0.6142578125,0.3145
3.6946564885496183,-0.6412213740458015,-1.816793893129771,0.07421875,-0.07373046875,-0.60693359375,0.3162
3.7404580152671754,-0.6717557251908397,-1.5572519083969465,0.074462890625,-0.07080078125,-0.604736328125,0.31789999999999996
3.816793893129771,-0.5648854961832062,-1.5877862595419847,0.07470703125,-0.07177734375,-0.609619140625,0.3196
3.5572519083969465,-0.5190839694656488,-1.6793893129770991,0.06689453125,-0.069091796875,-0.613525390625,0.3213
3.5877862595419847,-0.5801526717557252,-1.633587786259542,0.06787109375,-0.0673828125,-0.605712890625,0.323
3.6946564885496183,-0.5038167938931297,-1.297709923664122,0.069580078125,-0.06884765625,-0.598876953125,0.3247
3.5267175572519083,-0.549618320610687,-1.4198473282442747,0.0693359375,-0.0751953125,-0.6123046875,0.32639999999999997
3.5419847328244276,-0.5190839694656488,-1.4351145038167938,0.07275390625,-0.06982421875,-0.611083984375,0.3281
3.66412213740458,-0.4580152671755725,-1.5877862595419847,0.07373046875,-0.070068359375,-0.613525390625,0.3298
3.5114503816793894,-0.549618320610687,-1.5114503816793894,0.06689453125,-0.06640625,-0.609375,0.33149999999999996
3.5114503816793894,-0.48854961832061067,-1.5877862595419847,0.072509765625,-0.071533203125,-0.61328125,0.3332
3.5114503816793894,-0.2748091603053435,-1.3893129770992367,0.073486328125,-0.073974609375,-0.600341796875,0.3349
3.3740458015267176,-0.061068702290076333,-1.5114503816793894,0.07177734375,-0.069580078125,-0.610107421875,0.33659999999999995
3.3740458015267176,-0.21374045801526717,-1.5267175572519085,0.071533203125,-0.071533203125,-0.61279296875,0.3383
3.3587786259541983,-0.13740458015267176,-1.7557251908396947,0.07177734375,-0.070068359375,-0.609619140625,0.33999999999999997
3.282442748091603,0.0916030534351145,-1.5572519083969465,0.07421875,-0.066650390625,-0.6123046875,0.3417
3.282442748091603,0.04580152671755725,-1.83206106870229,0.066650390625,-0.07177734375,-0.607421875,0.3434
3.2213740458015265,0.1984732824427481,-1.6488549618320612,0.073486328125,-0.067138671875,-0.608642578125,0.34509999999999996
3.114503816793893,0.32061068702290074,-1.7404580152671756,0.070068359375,-0.069091796875,-0.61376953125,0.3468
3.1603053435114505,0.3511450381679389,-1.6946564885496183,0.068115234375,-0.070068359375,-0.603759765625,0.3485
3.0381679389312977,0.549618320610687,-1.5725190839694656,0.06787109375,-0.068603515625,-0.607177734375,0.35019999999999996
3.0229007633587788,0.366412213740458,-1.618320610687023,0.072265625,-0.064453125,-0.610595703125,0.3519
2.7938931297709924,0.7633587786259542,-1.633587786259542,0.072021484375,-0.0703125,-0.61328125,0.35359999999999997
2.687022900763359,0.916030534351145,-1.5419847328244274,0.0703125,-0.071044921875,-0.612060546875,0.3553
3.053435114503817,0.7022900763358778,-1.7709923664122138,0.072509765625,-0.069580078125,-0.608154296875,0.357
2.8091603053435112,0.7786259541984732,-1.5572519083969465,0.06884765625,-0.07177734375,-0.61181640625,0.35869999999999996
2.9160305343511452,0.8396946564885496,-1.6488549618320612,0.0654296875,-0.06982421875,-0.61865234375,0.3604
2.8244274809160306,1.1603053435114503,-1.7404580152671756,0.06591796875,-0.0693359375,-0.610595703125,0.3621
2.900763358778626,1.1145038167938932,-1.6793893129770991,0.069091796875,-0.070556640625,-0.608154296875,0.36379999999999996
2.946564885496183,1.1908396946564885,-1.633587786259542,0.072265625,-0.0654296875,-0.61083984375,0.3655
2.8702290076335877,1.3435114503816794,-1.83206106870229,0.072265625,-0.06982421875,-0.609130859375,0.36719999999999997
3.0839694656488548,1.3893129770992367,-1.7709923664122138,0.0693359375,-0.069091796875,-0.614013671875,0.3689
2.9770992366412212,1.4809160305343512,-1.6946564885496183,0.0673828125,-0.07666015625,-0.610107421875,0.3706
2.9770992366412212,1.6641221374045803,-1.8015267175572518,0.071533203125,-0.06689453125,-0.601806640625,0.37229999999999996
2.885496183206107,1.7404580152671756,-1.984732824427481,0.066650390625,-0.0673828125,-0.608642578125,0.374
3.0381679389312977,1.5572519083969465,-1.6946564885496183,0.0712890625,-0.070556640625,-0.607421875,0.3757
2.763358778625954,1.9083969465648856,-2.0,0.0712890625,-0.06982421875,-0.61279296875,0.37739999999999996
2.7480916030534353,1.786259541984733,-1.9236641221374047,0.069580078125,-0.0654296875,-0.61328125,0.3791
2.4885496183206106,1.786259541984733,-2.015267175572519,0.0751953125,-0.068359375,-0.6103515625,0.38079999999999997
2.519083969465649,1.8473282442748091,-1.8473282442748091,0.066162109375,-0.07080078125,-0.61279296875,0.38249999999999995
2.5343511450381677,1.984732824427481,-2.0610687022900764,0.06689453125,-0.072265625,-0.614013671875,0.3842
2.5343511450381677,2.030534351145038,-1.786259541984733,0.0712890625,-0.0703125,-0.610107421875,0.38589999999999997
2.183206106870229,1.8931297709923665,-1.6793893129770991,0.07080078125,-0.073486328125,-0.615478515625,0.3876
2.213740458015267,2.0916030534351147,-1.618320610687023,0.06591796875,-0.071044921875,-0.609130859375,0.3893
2.1526717557251906,1.9694656488549618,-1.6030534351145038,0.07373046875,-0.07275390625,-0.609130859375,0.39099999999999996
2.045801526717557,1.9694656488549618,-1.633587786259542,0.072021484375,-0.068115234375,-0.603759765625,0.3927
1.83206106870229,2.015267175572519,-1.5267175572519085,0.070556640625,-0.064697265625,-0.61669921875,0.3944
1.6488549618320612,2.2900763358778624,-1.3282442748091603,0.07177734375,-0.06787109375,-0.613525390625,0.39609999999999995
1.7099236641221374,2.2290076335877864,-1.251908396946565,0.0771484375,-0.06494140625,-0.605224609375,0.3978
1.9541984732824427,2.183206106870229,-1.0381679389312977,0.0712890625,-0.06689453125,-0.61669921875,0.39949999999999997
1.7709923664122138,2.3053435114503817,-1.282442748091603,0.071533203125,-0.069580078125,-0.601806640625,0.4012
1.5725190839694656,2.213740458015267,-1.0381679389312977,0.07080078125,-0.0693359375,-0.607177734375,0.4029
1.7251908396946565,2.4122137404580153,-0.8549618320610687,0.070068359375,-0.069091796875,-0.604248046875,0.40459999999999996
1.6641221374045803,2.2748091603053435,-0.9465648854961832,0.07080078125,-0.072265625,-0.6162109375,0.4063
1.7404580152671756,2.427480916030534,-0.9923664122137404,0.072265625,-0.068603515625,-0.6064453125,0.408
1.6793893129770991,2.381679389312977,-1.1297709923664123,0.071044921875,-0.06787109375,-0.6064453125,0.40969999999999995
1.8625954198473282,2.2595419847328246,-0.9923664122137404,0.070556640625,-0.070068359375,-0.608154296875,0.4114
1.786259541984733,2.2748091603053435,-0.9618320610687023,0.068359375,-0.065673828125,-0.6083984375,0.41309999999999997
1.9083969465648856,2.4885496183206106,-1.0381679389312977,0.0703125,-0.066650390625,-0.611328125,0.4148
1.816793893129771,2.4580152671755724,-1.2671755725190839,0.0712890625,-0.069580078125,-0.613037109375,0.4165
1.8015267175572518,2.4427480916030535,-1.1908396946564885,0.070556640625,-0.0654296875,-0.607421875,0.41819999999999996
1.6488549618320612,2.3053435114503817,-1.3893129770992367,0.070556640625,-0.068603515625,-0.6064453125,0.4199
1.6641221374045803,2.6106870229007635,-1.0687022900763359,0.071533203125,-0.067626953125,-0.6025390625,0.4216
1.5267175572519085,2.33587786259542,-1.1908396946564885,0.07080078125,-0.0673828125,-0.602783203125,0.42329999999999995
1.7709923664122138,2.351145038167939,-1.099236641221374,0.0751953125,-0.066162109375,-0.606201171875,0.425
1.5114503816793894,2.366412213740458,-1.3129770992366412,0.0654296875,-0.064208984375,-0.60595703125,0.42669999999999997
1.5877862595419847,2.2900763358778624,-1.1908396946564885,0.068603515625,-0.068603515625,-0.614013671875,0.4284
1.6488549618320612,2.2595419847328246,-1.1450381679389312,0.072265625,-0.071044921875,-0.61328125,0.4301
1.4198473282442747,2.122137404580153,-1.2213740458015268,0.074951171875,-0.06298828125,-0.606201171875,0.43179999999999996
1.4961832061068703,2.1374045801526718,-1.099236641221374,0.0751953125,-0.064208984375,-0.609130859375,0.4335
1.5725190839694656,2.183206106870229,-1.1145038167938932,0.07470703125,-0.0625,-0.608154296875,0.4352
1.6488549618320612,2.2595419847328246,-1.1755725190839694,0.0712890625,-0.060546875,-0.607421875,0.43689999999999996
1.786259541984733,2.351145038167939,-0.9923664122137404,0.071533203125,-0.06689453125,-0.61181640625,0.4386
2.030534351145038,1.9389312977099236,-1.0076335877862594,0.07373046875,-0.06396484375,-0.606201171875,0.44029999999999997
2.0916030534351147,2.0,-1.1450381679389312,0.070556640625,-0.061279296875,-0.602783203125,0.44199999999999995
2.3206106870229006,2.213740458015267,-0.9770992366412213,0.068359375,-0.06689453125,-0.605224609375,0.4437
2.3969465648854964,2.16793893129771,-1.0534351145038168,0.072509765625,-0.070068359375,-0.615234375,0.44539999999999996
2.595419847328244,2.122137404580153,-0.916030534351145,0.072021484375,-0.0703125,-0.602294921875,0.4471
2.7938931297709924,2.2595419847328246,-0.8091603053435115,0.0712890625,-0.063232421875,-0.604736328125,0.4488
2.7938931297709924,2.1526717557251906,-1.099236641221374,0.0751953125,-0.063232421875,-0.606201171875,0.45049999999999996
3.3587786259541983,2.015267175572519,-0.8702290076335878,0.07275390625,-0.0634765625,-0.6142578125,0.4522
3.099236641221374,2.213740458015267,-1.099236641221374,0.076416015625,-0.0634765625,-0.603515625,0.45389999999999997
3.068702290076336,2.2900763358778624,-0.9770992366412213,0.073486328125,-0.067626953125,-0.607177734375,0.45559999999999995
3.404580152671756,2.2900763358778624,-0.9770992366412213,0.0673828125,-0.069091796875,-0.609619140625,0.4573
3.1603053435114505,2.366412213740458,-0.8702290076335878,0.069091796875,-0.06787109375,-0.60888671875,0.45899999999999996
3.068702290076336,2.0916030534351147,-1.2366412213740459,0.078125,-0.067138671875,-0.604248046875,0.4607
3.3282442748091605,2.0763358778625953,-0.9618320610687023,0.0693359375,-0.063720703125,-0.611083984375,0.4624
3.053435114503817,2.122137404580153,-1.1450381679389312,0.06982421875,-0.067138671875,-0.608642578125,0.46409999999999996
2.9770992366412212,1.9083969465648856,-1.0534351145038168,0.076904296875,-0.06591796875,-0.611572265625,0.4658
3.2213740458015265,1.984732824427481,-1.2671755725190839,0.07421875,-0.06689453125,-0.59423828125,0.46749999999999997
2.885496183206107,2.0763358778625953,-1.099236641221374,0.0751953125,-0.072509765625,-0.598876953125,0.46919999999999995
2.885496183206107,2.0610687022900764,-1.1450381679389312,0.07666015625,-0.066650390625,-0.60400390625,0.4709
2.6259541984732824,2.0763358778625953,-1.1908396946564885,0.07080078125,-0.07177734375,-0.60546875,0.47259999999999996
2.8244274809160306,1.8778625954198473,-1.0381679389312977,0.07275390625,-0.065673828125,-0.606201171875,0.4743
2.763358778625954,1.83206106870229,-1.099236641221374,0.069580078125,-0.06689453125,-0.60107421875,0.476
2.732824427480916,1.8778625954198473,-0.9923664122137404,0.0751953125,-0.07177734375,-0.603515625,0.47769999999999996
2.4732824427480917,1.9236641221374047,-0.8244274809160306,0.0703125,-0.0712890625,-0.611328125,0.4794
2.213740458015267,1.9083969465648856,-0.8854961832061069,0.07470703125,-0.0712890625,-0.5966796875,0.48109999999999997
2.1526717557251906,1.7557251908396947,-0.8549618320610687,0.072998046875,-0.069091796875,-0.603271484375,0.48279999999999995
2.2290076335877864,1.633587786259542,-0.7786259541984732,0.0810546875,-0.070068359375,-0.6005859375,0.4845
2.366412213740458,1.7709923664122138,-0.42748091603053434,0.074462890625,-0.07177734375,-0.599365234375,0.48619999999999997
1.9541984732824427,1.9389312977099236,-0.4580152671755725,0.071533203125,-0.0732421875,-0.609375,0.4879
1.7557251908396947,1.816793893129771,-0.5038167938931297,0.072265625,-0.07568359375,-0.616455078125,0.4896
1.6641221374045803,1.6030534351145038,-0.6717557251908397,0.072509765625,-0.076416015625,-0.604736328125,0.49129999999999996
1.3740458015267176,1.7709923664122138,-0.6259541984732825,0.07470703125,-0.063720703125,-0.60009765625,0.493
1.465648854961832,1.6793893129770991,-0.8244274809160306,0.07275390625,-0.072265625,-0.60498046875,0.4947
1.4351145038167938,1.5877862595419847,-0.6564885496183206,0.072265625,-0.072998046875,-0.609375,0.49639999999999995
1.099236641221374,1.618320610687023,-0.7938931297709924,0.072021484375,-0.072998046875,-0.607177734375,0.4981
1.0381679389312977,1.5572519083969465,-0.6717557251908397,0.07080078125,-0.075439453125,-0.602783203125,0.49979999999999997
0.8854961832061069,1.633587786259542,-1.099236641221374,0.07275390625,-0.074462890625,-0.6025390625,0.5015
0.6412213740458015,1.5267175572519085,-1.0381679389312977,0.077880859375,-0.075439453125,-0.59765625,0.5032
0.6717557251908397,1.4198473282442747,-0.9465648854961832,0.0693359375,-0.07421875,-0.605224609375,0.5049
1.0076335877862594,1.3740458015267176,-0.9312977099236641,0.071044921875,-0.06689453125,-0.603271484375,0.5065999999999999
1.099236641221374,1.2366412213740459,-1.083969465648855,0.06982421875,-0.069580078125,-0.603759765625,0.5083
0.8854961832061069,1.2366412213740459,-0.9923664122137404,0.07421875,-0.0703125,-0.6064453125,0.51
0.7938931297709924,1.0687022900763359,-1.083969465648855,0.0732421875,-0.071044921875,-0.607177734375,0.5116999999999999
0.6870229007633588,1.0229007633587786,-0.9312977099236641,0.07275390625,-0.068603515625,-0.601318359375,0.5134
0.6717557251908397,0.9923664122137404,-0.8549618320610687,0.078369140625,-0.0703125,-0.60791015625,0.5151
0.5801526717557252,0.9465648854961832,-0.8091603053435115,0.071533203125,-0.072021484375,-0.600341796875,0.5167999999999999
0.7786259541984732,0.7786259541984732,-1.0229007633587786,0.067626953125,-0.064697265625,-0.59912109375,0.5185
0.7786259541984732,0.9770992366412213,-0.916030534351145,0.0693359375,-0.068603515625,-0.60400390625,0.5202
0.9312977099236641,0.8854961832061069,-0.9312977099236641,0.072998046875,-0.0712890625,-0.604736328125,0.5218999999999999
0.9923664122137404,0.7175572519083969,-0.9923664122137404,0.069580078125,-0.070068359375,-0.607666015625,0.5236
0.9618320610687023,0.7938931297709924,-0.9618320610687023,0.070068359375,-0.065673828125,-0.608642578125,0.5253
1.0229007633587786,0.8549618320610687,-0.9312977099236641,0.074462890625,-0.0654296875,-0.604736328125,0.527
1.1145038167938932,0.732824427480916,-0.9770992366412213,0.064208984375,-0.06982421875,-0.608154296875,0.5287
1.282442748091603,0.8854961832061069,-0.7175572519083969,0.06787109375,-0.06640625,-0.599853515625,0.5304
1.2213740458015268,0.7938931297709924,-1.1297709923664123,0.073974609375,-0.06640625,-0.60107421875,0.5321
1.4809160305343512,0.9770992366412213,-1.0687022900763359,0.070068359375,-0.06787109375,-0.599609375,0.5337999999999999
1.5114503816793894,0.8854961832061069,-1.2213740458015268,0.06640625,-0.074462890625,-0.603515625,0.5355
1.7099236641221374,0.8244274809160306,-1.099236641221374,0.070068359375,-0.066162109375,-0.598876953125,0.5372
1.9236641221374047,0.6717557251908397,-1.2213740458015268,0.07177734375,-0.06689453125,-0.601806640625,0.5388999999999999
1.7557251908396947,1.0229007633587786,-1.3740458015267176,0.072509765625,-0.0703125,-0.60009765625,0.5406
1.8473282442748091,1.0687022900763359,-1.3740458015267176,0.071533203125,-0.0703125,-0.603515625,0.5423
2.2442748091603053,0.6870229007633588,-1.1145038167938932,0.07080078125,-0.07177734375,-0.601806640625,0.5439999999999999
2.4427480916030535,0.8396946564885496,-1.2061068702290076,0.072021484375,-0.068603515625,-0.599853515625,0.5457
2.549618320610687,1.0076335877862594,-1.0076335877862594,0.074951171875,-0.07177734375,-0.602783203125,0.5474
2.4580152671755724,0.9618320610687023,-0.9923664122137404,0.070556640625,-0.06787109375,-0.6005859375,0.5490999999999999
2.6564885496183206,0.8396946564885496,-1.1450381679389312,0.069580078125,-0.070068359375,-0.61376953125,0.5508
2.7480916030534353,0.8854961832061069,-1.282442748091603,0.0703125,-0.06884765625,-0.60888671875,0.5525
2.8244274809160306,0.9312977099236641,-1.083969465648855,0.07177734375,-0.069580078125,-0.598388671875,0.5541999999999999
2.687022900763359,0.9465648854961832,-1.297709923664122,0.064453125,-0.06982421875,-0.603515625,0.5559
2.5801526717557253,0.8396946564885496,-1.1908396946564885,0.06787109375,-0.073486328125,-0.598388671875,0.5576
2.6564885496183206,0.6564885496183206,-1.1603053435114503,0.072509765625,-0.0732421875,-0.599853515625,0.5593
2.7022900763358777,0.7938931297709924,-1.1603053435114503,0.070556640625,-0.071044921875,-0.60009765625,0.5609999999999999
2.5343511450381677,0.9312977099236641,-1.3587786259541985,0.0693359375,-0.06689453125,-0.6044921875,0.5627
2.6259541984732824,0.7633587786259542,-1.2671755725190839,0.068359375,-0.0712890625,-0.600341796875,0.5644
2.4885496183206106,0.7633587786259542,-1.3740458015267176,0.072998046875,-0.07373046875,-0.604248046875,0.5660999999999999
2.2595419847328246,0.9312977099236641,-1.251908396946565,0.0732421875,-0.0703125,-0.6005859375,0.5678
2.3969465648854964,0.8091603053435115,-1.3435114503816794,0.074462890625,-0.069091796875,-0.601806640625,0.5695
2.351145038167939,0.7938931297709924,-1.4809160305343512,0.0751953125,-0.070068359375,-0.600830078125,0.5711999999999999
2.1526717557251906,0.7633587786259542,-1.465648854961832,0.072021484375,-0.0732421875,-0.597900390625,0.5729
2.33587786259542,0.5648854961832062,-1.2671755725190839,0.078369140625,-0.07080078125,-0.59130859375,0.5746
2.4885496183206106,0.6412213740458015,-1.3435114503816794,0.075927734375,-0.070556640625,-0.604248046875,0.5762999999999999
2.122137404580153,0.6717557251908397,-1.2213740458015268,0.074951171875,-0.07373046875,-0.60791015625,0.578
2.1374045801526718,0.5648854961832062,-1.297709923664122,0.07666015625,-0.075927734375,-0.60205078125,0.5797
2.427480916030534,0.6106870229007634,-1.2671755725190839,0.076416015625,-0.078125,-0.603759765625,0.5813999999999999
2.3969465648854964,0.5801526717557252,-1.1450381679389312,0.073486328125,-0.0771484375,-0.6025390625,0.5831
2.366412213740458,0.4122137404580153,-1.297709923664122,0.0712890625,-0.079833984375,-0.60205078125,0.5848
2.2290076335877864,0.3969465648854962,-1.3129770992366412,0.0703125,-0.071044921875,-0.603271484375,0.5865
2.519083969465649,0.22900763358778625,-0.9465648854961832,0.0693359375,-0.078125,-0.603271484375,0.5882
2.4427480916030535,0.2748091603053435,-1.0229007633587786,0.076416015625,-0.07080078125,-0.59716796875,0.5899
2.4580152671755724,0.2900763358778626,-0.9465648854961832,0.07373046875,-0.07470703125,-0.5947265625,0.5916
2.549618320610687,0.183206106870229,-1.0534351145038168,0.07861328125,-0.07177734375,-0.60205078125,0.5932999999999999
2.50381679389313,0.10687022900763359,-0.8549618320610687,0.07275390625,-0.06982421875,-0.60400390625,0.595
2.6564885496183206,0.3511450381679389,-0.5343511450381679,0.07763671875,-0.075927734375,-0.602783203125,0.5967
2.6564885496183206,0.3511450381679389,-0.8854961832061069,0.076416015625,-0.076171875,-0.60205078125,0.5983999999999999
2.595419847328244,0.21374045801526717,-0.8854961832061069,0.0703125,-0.072021484375,-0.597900390625,0.6001
2.4885496183206106,0.0,-0.732824427480916,0.0751953125,-0.07666015625,-0.600830078125,0.6018
2.6564885496183206,0.07633587786259542,-0.6412213740458015,0.072998046875,-0.07177734375,-0.603515625,0.6034999999999999
2.366412213740458,0.13740458015267176,-0.7022900763358778,0.077392578125,-0.07666015625,-0.598388671875,0.6052
2.366412213740458,0.13740458015267176,-0.6106870229007634,0.07373046875,-0.075927734375,-0.611572265625,0.6069
2.3206106870229006,0.32061068702290074,-0.7786259541984732,0.0703125,-0.073974609375,-0.605224609375,0.6085999999999999
2.1526717557251906,0.24427480916030533,-0.8244274809160306,0.071044921875,-0.07861328125,-0.599609375,0.6103
1.8778625954198473,0.0916030534351145,-0.6564885496183206,0.071533203125,-0.075927734375,-0.6015625,0.612
1.8931297709923665,0.2595419847328244,-0.7938931297709924,0.068359375,-0.07421875,-0.59912109375,0.6136999999999999
1.8931297709923665,0.33587786259541985,-0.8549618320610687,0.072021484375,-0.072509765625,-0.603271484375,0.6154
1.7251908396946565,0.2595419847328244,-0.8244274809160306,0.068115234375,-0.07275390625,-0.603515625,0.6171
1.6946564885496183,0.3053435114503817,-0.7480916030534351,0.0654296875,-0.074951171875,-0.606689453125,0.6188
1.6641221374045803,0.366412213740458,-0.7480916030534351,0.0693359375,-0.076171875,-0.6044921875,0.6204999999999999
1.7099236641221374,0.183206106870229,-1.0534351145038168,0.0703125,-0.073486328125,-0.604736328125,0.6222
1.251908396946565,0.4580152671755725,-0.9770992366412213,0.06787109375,-0.072265625,-0.602294921875,0.6239
1.4809160305343512,0.4122137404580153,-1.0534351145038168,0.07470703125,-0.073974609375,-0.6025390625,0.6255999999999999
1.450381679389313,0.32061068702290074,-0.9312977099236641,0.067626953125,-0.070556640625,-0.60693359375,0.6273
1.5114503816793894,0.3816793893129771,-1.0687022900763359,0.0712890625,-0.06982421875,-0.603759765625,0.629
1.3435114503816794,0.5038167938931297,-1.083969465648855,0.073486328125,-0.065673828125,-0.60546875,0.6306999999999999
1.3282442748091603,0.5038167938931297,-0.9618320610687023,0.072998046875,-0.071533203125,-0.601806640625,0.6324
1.2671755725190839,0.6259541984732825,-0.9465648854961832,0.068359375,-0.069580078125,-0.602783203125,0.6341
1.1755725190839694,0.33587786259541985,-1.1755725190839694,0.071044921875,-0.068359375,-0.606201171875,0.6357999999999999
1.1908396946564885,0.4732824427480916,-1.1603053435114503,0.068603515625,-0.0703125,-0.608154296875,0.6375
1.099236641221374,0.5801526717557252,-1.2366412213740459,0.072021484375,-0.066650390625,-0.598876953125,0.6392
1.3282442748091603,0.42748091603053434,-1.2366412213740459,0.06591796875,-0.07177734375,-0.609619140625,0.6408999999999999
1.3129770992366412,0.48854961832061067,-1.4351145038167938,0.067626953125,-0.068115234375,-0.616943359375,0.6426
1.4198473282442747,0.6870229007633588,-1.3893129770992367,0.071044921875,-0.06689453125,-0.60595703125,0.6443
1.2366412213740459,0.6106870229007634,-1.618320610687023,0.07080078125,-0.068115234375,-0.601806640625,0.646
1.4351145038167938,0.42748091603053434,-1.6946564885496183,0.06884765625,-0.066162109375,-0.601318359375,0.6476999999999999
1.2213740458015268,0.8702290076335878,-1.8931297709923665,0.066162109375,-0.072998046875,-0.610595703125,0.6494
1.618320610687023,0.7480916030534351,-1.6488549618320612,0.070068359375,-0.075927734375,-0.60546875,0.6511
1.5725190839694656,0.6412213740458015,-1.7557251908396947,0.067626953125,-0.0703125,-0.606689453125,0.6527999999999999
1.633587786259542,0.7480916030534351,-1.7404580152671756,0.07177734375,-0.072509765625,-0.61083984375,0.6545
1.7099236641221374,0.7022900763358778,-1.7709923664122138,0.07275390625,-0.062744140625,-0.610107421875,0.6562
1.7557251908396947,0.5648854961832062,-1.786259541984733,0.068603515625,-0.072265625,-0.607421875,0.6578999999999999
1.816793893129771,0.7786259541984732,-1.984732824427481,0.0732421875,-0.06787109375,-0.608642578125,0.6596
1.8931297709923665,0.8396946564885496,-1.5572519083969465,0.068603515625,-0.071533203125,-0.604248046875,0.6613
1.633587786259542,0.7480916030534351,-1.7251908396946565,0.0732421875,-0.06884765625,-0.607421875,0.6629999999999999
1.5725190839694656,0.5038167938931297,-1.7251908396946565,0.075439453125,-0.064697265625,-0.61376953125,0.6647
1.8625954198473282,0.6564885496183206,-1.6946564885496183,0.07568359375,-0.072265625,-0.607177734375,0.6664
1.6946564885496183,0.7022900763358778,-1.5725190839694656,0.07177734375,-0.067626953125,-0.609619140625,0.6680999999999999
1.618320610687023,0.6870229007633588,-1.5267175572519085,0.07275390625,-0.070556640625,-0.60791015625,0.6698
1.3587786259541985,0.6564885496183206,-1.4198473282442747,0.070068359375,-0.0732421875,-0.608154296875,0.6715
1.4351145038167938,0.7480916030534351,-1.633587786259542,0.07275390625,-0.065673828125,-0.610595703125,0.6731999999999999
1.5114503816793894,0.5954198473282443,-1.4961832061068703,0.072509765625,-0.068359375,-0.602783203125,0.6748999999999999
1.083969465648855,0.8244274809160306,-1.5725190839694656,0.072509765625,-0.068115234375,-0.608154296875,0.6766
1.0534351145038168,0.6870229007633588,-1.5114503816793894,0.070068359375,-0.071044921875,-0.608154296875,0.6783
1.251908396946565,0.42748091603053434,-1.6946564885496183,0.069580078125,-0.073974609375,-0.597412109375,0.6799999999999999
1.3282442748091603,0.6412213740458015,-1.4961832061068703,0.0693359375,-0.06884765625,-0.60205078125,0.6817
1.282442748091603,0.6564885496183206,-1.7404580152671756,0.071533203125,-0.068359375,-0.6015625,0.6834
1.1145038167938932,0.6717557251908397,-1.6793893129770991,0.07421875,-0.0751953125,-0.60693359375,0.6850999999999999
1.1145038167938932,0.6412213740458015,-1.83206106870229,0.072021484375,-0.072998046875,-0.60595703125,0.6868
1.4045801526717556,0.2900763358778626,-1.8473282442748091,0.0712890625,-0.070068359375,-0.60107421875,0.6885
1.2061068702290076,0.4732824427480916,-1.9389312977099236,0.071533203125,-0.07470703125,-0.6015625,0.6901999999999999
1.083969465648855,0.366412213740458,-1.6793893129770991,0.0732421875,-0.063720703125,-0.609130859375,0.6919
1.282442748091603,0.3816793893129771,-1.786259541984733,0.069580078125,-0.06494140625,-0.607666015625,0.6936
1.0076335877862594,0.13740458015267176,-1.465648854961832,0.07421875,-0.071044921875,-0.610595703125,0.6952999999999999
0.9465648854961832,0.10687022900763359,-1.6030534351145038,0.070556640625,-0.0673828125,-0.6083984375,0.697
1.0687022900763359,0.22900763358778625,-1.6030534351145038,0.07275390625,-0.066162109375,-0.607666015625,0.6987
1.0076335877862594,0.2595419847328244,-1.5267175572519085,0.072509765625,-0.06884765625,-0.603271484375,0.7003999999999999
0.7175572519083969,0.1984732824427481,-1.297709923664122,0.071044921875,-0.067626953125,-0.609130859375,0.7021
0.8854961832061069,0.04580152671755725,-1.465648854961832,0.072265625,-0.07177734375,-0.607666015625,0.7038
0.8854961832061069,0.13740458015267176,-1.3435114503816794,0.076171875,-0.064208984375,-0.6201171875,0.7055
0.8244274809160306,0.15267175572519084,-1.3282442748091603,0.073486328125,-0.06884765625,-0.6005859375,0.7071999999999999
0.9465648854961832,0.1984732824427481,-1.2213740458015268,0.073486328125,-0.065673828125,-0.5966796875,0.7089
1.1603053435114503,0.0916030534351145,-1.2061068702290076,0.072509765625,-0.062744140625,-0.6123046875,0.7106
1.1603053435114503,0.22900763358778625,-1.083969465648855,0.073486328125,-0.067626953125,-0.61376953125,0.7122999999999999
1.0076335877862594,0.2748091603053435,-1.3435114503816794,0.073486328125,-0.065185546875,-0.607177734375,0.714
1.297709923664122,0.15267175572519084,-1.2366412213740459,0.0712890625,-0.067138671875,-0.611572265625,0.7157
1.297709923664122,0.2900763358778626,-1.1908396946564885,0.070556640625,-0.06689453125,-0.604736328125,0.7173999999999999
1.3740458015267176,0.3816793893129771,-1.1908396946564885,0.0712890625,-0.066162109375,-0.597900390625,0.7191
1.3129770992366412,0.4122137404580153,-1.2671755725190839,0.073486328125,-0.065673828125,-0.595703125,0.7208
1.3282442748091603,0.32061068702290074,-1.3740458015267176,0.06982421875,-0.06591796875,-0.598388671875,0.7224999999999999
1.0381679389312977,0.48854961832061067,-1.1145038167938932,0.06787109375,-0.06640625,-0.607177734375,0.7242
1.0534351145038168,0.6870229007633588,-1.099236641221374,0.06591796875,-0.06005859375,-0.60546875,0.7259
0.8702290076335878,0.6259541984732825,-1.450381679389313,0.070068359375,-0.0673828125,-0.6005859375,0.7275999999999999
0.8854961832061069,0.7022900763358778,-1.1297709923664123,0.072265625,-0.074462890625,-0.5966796875,0.7293
0.8091603053435115,0.732824427480916,-1.251908396946565,0.069580078125,-0.06689453125,-0.604736328125,0.731
0.6870229007633588,0.6870229007633588,-1.2366412213740459,0.068359375,-0.0712890625,-0.60595703125,0.7326999999999999
0.7022900763358778,0.8091603053435115,-1.3282442748091603,0.0673828125,-0.072021484375,-0.60302734375,0.7343999999999999
0.5038167938931297,1.0534351145038168,-0.9618320610687023,0.069580078125,-0.072021484375,-0.61474609375,0.7361
0.3053435114503817,1.0687022900763359,-1.1145038167938932,0.0703125,-0.06982421875,-0.60595703125,0.7378
0.366412213740458,1.0076335877862594,-0.9923664122137404,0.072509765625,-0.06982421875,-0.602783203125,0.7394999999999999
0.48854961832061067,1.099236641221374,-1.0381679389312977,0.067626953125,-0.072509765625,-0.607177734375,0.7412
0.16793893129770993,0.9312977099236641,-1.0229007633587786,0.07421875,-0.07080078125,-0.6083984375,0.7429
0.48854961832061067,0.9618320610687023,-1.1145038167938932,0.075439453125,-0.0703125,-0.60498046875,0.7445999999999999
0.5190839694656488,0.732824427480916,-0.7786259541984732,0.07080078125,-0.07177734375,-0.600341796875,0.7463
0.5954198473282443,1.0534351145038168,-0.8244274809160306,0.06982421875,-0.070068359375,-0.602294921875,0.748
0.5343511450381679,1.251908396946565,-0.8091603053435115,0.070068359375,-0.07421875,-0.604248046875,0.7496999999999999
0.7633587786259542,0.916030534351145,-0.8091603053435115,0.07080078125,-0.068115234375,-0.59716796875,0.7514
0.5190839694656488,0.7786259541984732,-0.5343511450381679,0.074951171875,-0.0732421875,-0.602783203125,0.7531
0.4122137404580153,0.916030534351145,-0.7480916030534351,0.07666015625,-0.07177734375,-0.60498046875,0.7547999999999999
0.8244274809160306,0.7022900763358778,-0.6412213740458015,0.07177734375,-0.067626953125,-0.601806640625,0.7565
0.8396946564885496,0.8396946564885496,-0.5801526717557252,0.071533203125,-0.06640625,-0.607421875,0.7582
0.8396946564885496,1.1755725190839694,-0.7480916030534351,0.06884765625,-0.065185546875,-0.60107421875,0.7598999999999999
0.9770992366412213,0.8244274809160306,-0.7633587786259542,0.07080078125,-0.0654296875,-0.6044921875,0.7615999999999999
0.8244274809160306,0.9618320610687023,-0.5801526717557252,0.0712890625,-0.06982421875,-0.602294921875,0.7633
1.0381679389312977,0.9923664122137404,-0.7786259541984732,0.072265625,-0.06591796875,-0.60107421875,0.7649999999999999
1.1450381679389312,1.1145038167938932,-0.7175572519083969,0.069580078125,-0.06591796875,-0.603515625,0.7666999999999999
1.3740458015267176,0.7633587786259542,-0.5343511450381679,0.07275390625,-0.0693359375,-0.611572265625,0.7684
1.5725190839694656,0.8396946564885496,-0.6412213740458015,0.069091796875,-0.067626953125,-0.6015625,0.7701
1.7404580152671756,0.9618320610687023,-0.8702290076335878,0.072998046875,-0.068603515625,-0.601318359375,0.7717999999999999
1.618320610687023,0.7633587786259542,-0.3053435114503817,0.07177734375,-0.069580078125,-0.60546875,0.7735
1.7251908396946565,0.7786259541984732,-0.22900763358778625,0.07421875,-0.0703125,-0.6064453125,0.7752
2.045801526717557,0.6870229007633588,-0.3053435114503817,0.07275390625,-0.0673828125,-0.609375,0.7768999999999999
2.015267175572519,0.8702290076335878,-0.183206106870229,0.072509765625,-0.06787109375,-0.606201171875,0.7786
2.213740458015267,0.7022900763358778,-0.183206106870229,0.068115234375,-0.07421875,-0.60546875,0.7803
2.213740458015267,0.6564885496183206,-0.015267175572519083,0.072265625,-0.07275390625,-0.609619140625,0.7819999999999999
2.50381679389313,0.6412213740458015,0.16793893129770993,0.072998046875,-0.074462890625,-0.59375,0.7837
2.16793893129771,0.2748091603053435,0.030534351145038167,0.07861328125,-0.070556640625,-0.604736328125,0.7854
2.5343511450381677,0.5648854961832062,0.22900763358778625,0.07666015625,-0.072998046875,-0.604248046875,0.7870999999999999
2.5343511450381677,0.5038167938931297,0.16793893129770993,0.07177734375,-0.072509765625,-0.6005859375,0.7888
2.3969465648854964,0.32061068702290074,0.3053435114503817,0.073486328125,-0.076904296875,-0.608642578125,0.7905
2.4732824427480917,0.3511450381679389,0.13740458015267176,0.072021484375,-0.0751953125,-0.6025390625,0.7921999999999999
2.4732824427480917,0.4580152671755725,0.1984732824427481,0.072509765625,-0.070556640625,-0.608642578125,0.7938999999999999
2.4122137404580153,0.2900763358778626,0.16793893129770993,0.071044921875,-0.068603515625,-0.601806640625,0.7956
2.50381679389313,0.5801526717557252,0.22900763358778625,0.0693359375,-0.072998046875,-0.6015625,0.7973
2.183206106870229,0.42748091603053434,0.2595419847328244,0.06494140625,-0.0703125,-0.6025390625,0.7989999999999999
2.2290076335877864,0.549618320610687,0.24427480916030533,0.068603515625,-0.070068359375,-0.608642578125,0.8007
2.381679389312977,0.5801526717557252,0.2900763358778626,0.066650390625,-0.07177734375,-0.596435546875,0.8024
2.1068702290076335,0.5190839694656488,0.3969465648854962,0.068359375,-0.073486328125,-0.602294921875,0.8040999999999999
1.984732824427481,0.4732824427480916,0.030534351145038167,0.07275390625,-0.073486328125,-0.606689453125,0.8058
1.8778625954198473,0.3816793893129771,-0.04580152671755725,0.070556640625,-0.068115234375,-0.603515625,0.8075
1.8473282442748091,0.5801526717557252,-0.04580152671755725,0.070556640625,-0.068115234375,-0.60546875,0.8091999999999999
1.7557251908396947,0.732824427480916,-0.10687022900763359,0.06689453125,-0.0732421875,-0.603515625,0.8109
1.5572519083969465,0.5343511450381679,-0.2595419847328244,0.06884765625,-0.068603515625,-0.610107421875,0.8126
1.5725190839694656,0.549618320610687,-0.12213740458015267,0.06689453125,-0.0712890625,-0.602294921875,0.8142999999999999
1.4045801526717556,0.6412213740458015,-0.2595419847328244,0.066162109375,-0.06689453125,-0.60009765625,0.816
1.633587786259542,0.549618320610687,-0.44274809160305345,0.065673828125,-0.0693359375,-0.5947265625,0.8177
1.450381679389313,0.549618320610687,-0.3969465648854962,0.063232421875,-0.074462890625,-0.607421875,0.8193999999999999
1.3435114503816794,0.5648854961832062,-0.3511450381679389,0.063720703125,-0.0712890625,-0.61083984375,0.8210999999999999
1.465648854961832,0.6870229007633588,-0.5038167938931297,0.06591796875,-0.072265625,-0.6025390625,0.8228
1.3587786259541985,1.0076335877862594,-0.5648854961832062,0.064453125,-0.072265625,-0.60693359375,0.8244999999999999
1.4351145038167938,0.8702290076335878,-0.7175572519083969,0.0673828125,-0.072021484375,-0.609619140625,0.8261999999999999
1.3129770992366412,1.0076335877862594,-0.7022900763358778,0.06689453125,-0.070068359375,-0.6015625,0.8279
1.2671755725190839,1.0534351145038168,-0.6870229007633588,0.068603515625,-0.072265625,-0.60107421875,0.8296
1.3587786259541985,1.1603053435114503,-0.7786259541984732,0.067138671875,-0.0673828125,-0.60302734375,0.8312999999999999
1.3435114503816794,1.1755725190839694,-0.9465648854961832,0.0654296875,-0.068115234375,-0.600830078125,0.833
1.1755725190839694,1.3435114503816794,-1.1297709923664123,0.068115234375,-0.063720703125,-0.603271484375,0.8347
0.9770992366412213,1.465648854961832,-0.9465648854961832,0.067138671875,-0.070068359375,-0.605224609375,0.8363999999999999
1.2671755725190839,1.465648854961832,-1.0534351145038168,0.072021484375,-0.064453125,-0.60302734375,0.8381
1.0687022900763359,1.450381679389313,-0.9923664122137404,0.06689453125,-0.068115234375,-0.59521484375,0.8398
1.1450381679389312,1.5877862595419847,-1.099236641221374,0.0693359375,-0.071533203125,-0.61181640625,0.8414999999999999
1.1297709923664123,1.5267175572519085,-1.0229007633587786,0.0703125,-0.070556640625,-0.61083984375,0.8432
0.9923664122137404,1.5572519083969465,-1.1297709923664123,0.074951171875,-0.07080078125,-0.604248046875,0.8449
1.1145038167938932,1.633587786259542,-1.1145038167938932,0.06787109375,-0.0703125,-0.598876953125,0.8465999999999999
1.0534351145038168,1.5114503816793894,-1.4045801526717556,0.068359375,-0.069580078125,-0.60595703125,0.8482999999999999
0.7175572519083969,1.3587786259541985,-1.2366412213740459,0.070068359375,-0.067138671875,-0.60205078125,0.85
0.9312977099236641,1.251908396946565,-1.1297709923664123,0.072021484375,-0.073486328125,-0.59521484375,0.8516999999999999
1.1145038167938932,1.3740458015267176,-1.1755725190839694,0.0712890625,-0.07177734375,-0.6044921875,0.8533999999999999
0.8244274809160306,1.4961832061068703,-1.3740458015267176,0.074951171875,-0.072021484375,-0.606201171875,0.8551
1.099236641221374,1.4198473282442747,-1.099236641221374,0.07763671875,-0.0673828125,-0.59619140625,0.8568
0.9618320610687023,1.4045801526717556,-1.083969465648855,0.071044921875,-0.06884765625,-0.593017578125,0.8584999999999999
0.732824427480916,1.1297709923664123,-1.1145038167938932,0.07177734375,-0.066650390625,-0.602783203125,0.8602
0.7786259541984732,1.1145038167938932,-1.1145038167938932,0.0791015625,-0.06884765625,-0.597900390625,0.8619
0.7022900763358778,1.1297709923664123,-1.083969465648855,0.07568359375,-0.067138671875,-0.5986328125,0.8635999999999999
0.7633587786259542,1.1297709923664123,-1.1297709923664123,0.075439453125,-0.069580078125,-0.599609375,0.8653
0.549618320610687,0.9618320610687023,-1.0381679389312977,0.076416015625,-0.072265625,-0.59375,0.867
0.8854961832061069,0.9007633587786259,-1.0534351145038168,0.0712890625,-0.067626953125,-0.598876953125,0.8686999999999999
0.9770992366412213,0.8549618320610687,-1.0076335877862594,0.075439453125,-0.066162109375,-0.602783203125,0.8704
0.8244274809160306,0.6259541984732825,-0.9770992366412213,0.076416015625,-0.070556640625,-0.6064453125,0.8721
0.8091603053435115,0.48854961832061067,-1.0076335877862594,0.072265625,-0.0693359375,-0.598388671875,0.8737999999999999
0.9465648854961832,0.4122137404580153,-1.083969465648855,0.078857421875,-0.065185546875,-0.599853515625,0.8755
0.8396946564885496,0.22900763358778625,-0.9007633587786259,0.075927734375,-0.071533203125,-0.603515625,0.8772
0.7022900763358778,0.21374045801526717,-1.1145038167938932,0.078369140625,-0.06787109375,-0.59033203125,0.8788999999999999
0.916030534351145,0.12213740458015267,-0.8854961832061069,0.07763671875,-0.072998046875,-0.59326171875,0.8805999999999999
1.0381679389312977,0.12213740458015267,-1.1603053435114503,0.078857421875,-0.066162109375,-0.586669921875,0.8823
0.9312977099236641,0.0916030534351145,-1.1450381679389312,0.077880859375,-0.0712890625,-0.59423828125,0.8839999999999999
1.1145038167938932,-0.12213740458015267,-1.0381679389312977,0.0732421875,-0.06640625,-0.59326171875,0.8856999999999999
0.8702290076335878,-0.24427480916030533,-1.0687022900763359,0.075927734375,-0.0703125,-0.60107421875,0.8874
0.8854961832061069,-0.10687022900763359,-0.8702290076335878,0.080322265625,-0.0634765625,-0.59912109375,0.8891
1.1755725190839694,-0.16793893129770993,-0.916030534351145,0.0712890625,-0.070068359375,-0.595703125,0.8907999999999999
1.5725190839694656,-0.33587786259541985,-1.099236641221374,0.0771484375,-0.069091796875,-0.589599609375,0.8925
1.5572519083969465,-0.5190839694656488,-0.9465648854961832,0.07958984375,-0.06982421875,-0.5947265625,0.8942
1.83206106870229,-0.5648854961832062,-1.0534351145038168,0.073974609375,-0.06884765625,-0.593017578125,0.8958999999999999
1.5267175572519085,-0.4732824427480916,-0.9465648854961832,0.07373046875,-0.065185546875,-0.593505859375,0.8976
1.8778625954198473,-0.4122137404580153,-0.8549618320610687,0.074462890625,-0.063720703125,-0.596923828125,0.8993
2.0610687022900764,-0.3969465648854962,-0.8396946564885496,0.072509765625,-0.067626953125,-0.59716796875,0.9009999999999999
1.984732824427481,-0.3969465648854962,-0.8549618320610687,0.07080078125,-0.0703125,-0.596923828125,0.9027
2.2290076335877864,-0.549618320610687,-0.9312977099236641,0.081298828125,-0.0751953125,-0.5986328125,0.9044
2.381679389312977,-0.7022900763358778,-0.6870229007633588,0.07666015625,-0.068603515625,-0.604248046875,0.9060999999999999
2.381679389312977,-0.6412213740458015,-0.6870229007633588,0.07861328125,-0.070068359375,-0.597900390625,0.9077999999999999
2.549618320610687,-0.6259541984732825,-0.9007633587786259,0.073486328125,-0.065185546875,-0.600341796875,0.9095
2.717557251908397,-0.7022900763358778,-0.8702290076335878,0.073486328125,-0.064208984375,-0.594970703125,0.9111999999999999
2.7938931297709924,-0.8091603053435115,-0.9770992366412213,0.076171875,-0.069580078125,-0.590576171875,0.9128999999999999
2.946564885496183,-0.7175572519083969,-0.7480916030534351,0.077392578125,-0.0712890625,-0.597412109375,0.9146
2.9160305343511452,-0.9618320610687023,-0.9923664122137404,0.075927734375,-0.070068359375,-0.595703125,0.9163
2.885496183206107,-0.8244274809160306,-0.9618320610687023,0.072998046875,-0.068359375,-0.5966796875,0.9179999999999999
3.267175572519084,-0.9618320610687023,-0.9923664122137404,0.0712890625,-0.07080078125,-0.593017578125,0.9197
3.114503816793893,-1.0381679389312977,-0.9770992366412213,0.072998046875,-0.072021484375,-0.60205078125,0.9214
3.312977099236641,-0.8549618320610687,-1.1145038167938932,0.07080078125,-0.0634765625,-0.59814453125,0.9230999999999999
3.404580152671756,-0.9923664122137404,-0.9618320610687023,0.0732421875,-0.075439453125,-0.600341796875,0.9248
3.404580152671756,-0.9312977099236641,-0.9923664122137404,0.072265625,-0.067138671875,-0.5986328125,0.9265
3.3740458015267176,-0.9618320610687023,-0.8702290076335878,0.066162109375,-0.0703125,-0.60009765625,0.9281999999999999
3.236641221374046,-0.9923664122137404,-1.3129770992366412,0.067138671875,-0.066162109375,-0.60302734375,0.9299
3.3282442748091605,-0.916030534351145,-1.2061068702290076,0.071044921875,-0.06640625,-0.60400390625,0.9316
3.480916030534351,-0.9312977099236641,-1.0076335877862594,0.071044921875,-0.063720703125,-0.6064453125,0.9332999999999999
3.3282442748091605,-0.9618320610687023,-0.8854961832061069,0.072021484375,-0.075927734375,-0.59912109375,0.9349999999999999
3.5877862595419847,-0.8549618320610687,-1.0534351145038168,0.067138671875,-0.073974609375,-0.60498046875,0.9367
3.633587786259542,-0.8244274809160306,-0.9923664122137404,0.0703125,-0.070556640625,-0.6005859375,0.9383999999999999
3.450381679389313,-0.5954198473282443,-1.2366412213740459,0.062255859375,-0.074462890625,-0.60302734375,0.9400999999999999
3.4656488549618323,-0.5954198473282443,-1.1450381679389312,0.065185546875,-0.074462890625,-0.599853515625,0.9418
3.633587786259542,-0.7633587786259542,-1.1908396946564885,0.06591796875,-0.076416015625,-0.60107421875,0.9434999999999999
3.7709923664122136,-0.6259541984732825,-1.2061068702290076,0.067138671875,-0.076171875,-0.605224609375,0.9451999999999999
3.480916030534351,-0.5648854961832062,-1.2061068702290076,0.067626953125,-0.074462890625,-0.603271484375,0.9469
3.801526717557252,-0.366412213740458,-1.3435114503816794,0.06689453125,-0.0751953125,-0.60498046875,0.9486
3.6030534351145036,-0.0916030534351145,-1.465648854961832,0.06884765625,-0.07568359375,-0.61279296875,0.9502999999999999
3.66412213740458,-0.2595419847328244,-1.1908396946564885,0.063232421875,-0.06787109375,-0.605224609375,0.952
3.83206106870229,-0.015267175572519083,-1.633587786259542,0.07080078125,-0.07568359375,-0.603515625,0.9537
3.7099236641221376,-0.10687022900763359,-1.6793893129770991,0.067626953125,-0.07763671875,-0.600341796875,0.9553999999999999
3.7099236641221376,-0.07633587786259542,-1.7557251908396947,0.064208984375,-0.07373046875,-0.5986328125,0.9571
3.7099236641221376,0.030534351145038167,-1.5572519083969465,0.06298828125,-0.072509765625,-0.60205078125,0.9588
3.7709923664122136,0.2595419847328244,-1.7404580152671756,0.064453125,-0.0771484375,-0.60009765625,0.9604999999999999
3.8625954198473282,-0.061068702290076333,-1.7099236641221374,0.068115234375,-0.075927734375,-0.603759765625,0.9621999999999999
3.9083969465648853,0.2595419847328244,-1.6030534351145038,0.066650390625,-0.078369140625,-0.59765625,0.9639
3.6946564885496183,0.3053435114503817,-1.6946564885496183,0.07275390625,-0.073974609375,-0.609130859375,0.9655999999999999
3.5877862595419847,0.21374045801526717,-1.6793893129770991,0.075439453125,-0.071044921875,-0.614501953125,0.9672999999999999
3.7099236641221376,0.32061068702290074,-1.8015267175572518,0.066162109375,-0.07080078125,-0.609375,0.969
3.7404580152671754,0.2595419847328244,-1.8473282442748091,0.06396484375,-0.0751953125,-0.599365234375,0.9706999999999999
3.6946564885496183,0.4580152671755725,-1.7404580152671756,0.065185546875,-0.074462890625,-0.60107421875,0.9723999999999999
3.5114503816793894,0.732824427480916,-1.6946564885496183,0.065185546875,-0.073974609375,-0.605712890625,0.9741
3.435114503816794,0.8702290076335878,-1.6030534351145038,0.069091796875,-0.07421875,-0.59521484375,0.9758
3.480916030534351,0.6564885496183206,-1.5572519083969465,0.068603515625,-0.073974609375,-0.603759765625,0.9774999999999999
3.4198473282442747,0.9770992366412213,-1.465648854961832,0.064208984375,-0.07763671875,-0.60009765625,0.9792
3.450381679389313,0.8091603053435115,-1.5267175572519085,0.069091796875,-0.080322265625,-0.60009765625,0.9809
3.5877862595419847,0.9312977099236641,-1.6793893129770991,0.0751953125,-0.07470703125,-0.6025390625,0.9825999999999999
3.450381679389313,1.1908396946564885,-1.5877862595419847,0.068603515625,-0.07568359375,-0.611083984375,0.9843
3.3282442748091605,0.9312977099236641,-1.6641221374045803,0.068359375,-0.076171875,-0.60986328125,0.986
3.404580152671756,0.9923664122137404,-1.5267175572519085,0.07080078125,-0.0810546875,-0.59326171875,0.9876999999999999
3.450381679389313,0.9465648854961832,-1.6641221374045803,0.0703125,-0.078125,-0.596435546875,0.9894
3.877862595419847,1.251908396946565,-1.6030534351145038,0.072021484375,-0.074462890625,-0.6044921875,0.9911
3.450381679389313,0.9770992366412213,-1.4961832061068703,0.06787109375,-0.071533203125,-0.60400390625,0.9927999999999999
3.1908396946564888,1.0229007633587786,-1.6641221374045803,0.071533203125,-0.075927734375,-0.598876953125,0.9944999999999999
3.49618320610687,1.1297709923664123,-1.4809160305343512,0.06640625,-0.07177734375,-0.60498046875,0.9962
3.5572519083969465,1.2366412213740459,-1.5725190839694656,0.0703125,-0.072509765625,-0.61279296875,0.9978999999999999
3.404580152671756,1.2213740458015268,-1.5267175572519085,0.07080078125,-0.078369140625,-0.61181640625,0.9995999999999999
3.2519083969465647,1.5267175572519085,-1.6030534351145038,0.0751953125,-0.07470703125,-0.591552734375,1.0012999999999999
3.068702290076336,1.4198473282442747,-1.618320610687023,0.06787109375,-0.074462890625,-0.600830078125,1.003
2.8244274809160306,1.4351145038167938,-1.4198473282442747,0.0732421875,-0.076904296875,-0.600341796875,1.0047
2.9160305343511452,1.83206106870229,-1.6030534351145038,0.07080078125,-0.081298828125,-0.600341796875,1.0064
2.9770992366412212,1.9541984732824427,-1.5572519083969465,0.068359375,-0.076904296875,-0.60498046875,1.0081
3.0381679389312977,2.0763358778625953,-1.7099236641221374,0.0703125,-0.077392578125,-0.61083984375,1.0098
3.145038167938931,1.8473282442748091,-1.4045801526717556,0.070556640625,-0.070556640625,-0.609619140625,1.0114999999999998
3.0229007633587788,1.9541984732824427,-1.4809160305343512,0.07177734375,-0.071533203125,-0.60546875,1.0131999999999999
3.1297709923664123,2.2748091603053435,-1.4198473282442747,0.064697265625,-0.07373046875,-0.60888671875,1.0149
3.282442748091603,2.16793893129771,-1.465648854961832,0.069091796875,-0.07666015625,-0.60791015625,1.0166
3.450381679389313,2.2595419847328246,-1.465648854961832,0.070556640625,-0.08203125,-0.609130859375,1.0183
3.618320610687023,2.366412213740458,-1.465648854961832,0.073486328125,-0.073486328125,-0.60498046875,1.02
3.1603053435114505,2.213740458015267,-1.3129770992366412,0.0654296875,-0.077392578125,-0.60107421875,1.0217
3.5572519083969465,2.213740458015267,-1.4198473282442747,0.07080078125,-0.073486328125,-0.605712890625,1.0233999999999999
3.6030534351145036,2.3206106870229006,-1.4809160305343512,0.0673828125,-0.072265625,-0.610107421875,1.0251
3.4198473282442747,2.2748091603053435,-1.3740458015267176,0.0712890625,-0.070068359375,-0.6025390625,1.0268
3.5114503816793894,2.366412213740458,-1.2671755725190839,0.07421875,-0.07666015625,-0.59619140625,1.0285
3.480916030534351,2.4732824427480917,-1.099236641221374,0.07177734375,-0.068603515625,-0.602294921875,1.0302
3.2519083969465647,2.6717557251908395,-1.1755725190839694,0.072998046875,-0.07275390625,-0.60888671875,1.0319
2.9923664122137406,2.9618320610687023,-1.3435114503816794,0.06689453125,-0.0703125,-0.602294921875,1.0335999999999999
3.49618320610687,2.732824427480916,-1.1755725190839694,0.07470703125,-0.0751953125,-0.599853515625,1.0352999999999999
3.145038167938931,2.6106870229007635,-1.4961832061068703,0.07421875,-0.070068359375,-0.607177734375,1.037
3.053435114503817,2.8396946564885495,-1.1297709923664123,0.07373046875,-0.07177734375,-0.604736328125,1.0387
3.1603053435114505,2.854961832061069,-1.2061068702290076,0.073486328125,-0.072265625,-0.5986328125,1.0404
3.3587786259541983,2.900763358778626,-1.282442748091603,0.073486328125,-0.073974609375,-0.60009765625,1.0421
3.1908396946564888,2.7938931297709924,-1.2213740458015268,0.06787109375,-0.06982421875,-0.596923828125,1.0437999999999998
2.9923664122137406,2.854961832061069,-1.1755725190839694,0.071044921875,-0.0693359375,-0.60400390625,1.0454999999999999
3.3435114503816794,2.7938931297709924,-1.3740458015267176,0.074462890625,-0.072021484375,-0.60546875,1.0472
3.1755725190839694,2.9770992366412212,-1.3435114503816794,0.07666015625,-0.068359375,-0.5966796875,1.0489
3.267175572519084,2.7938931297709924,-1.4045801526717556,0.0732421875,-0.069091796875,-0.598876953125,1.0506
3.3587786259541983,2.7480916030534353,-1.297709923664122,0.073974609375,-0.064697265625,-0.606201171875,1.0523
3.2519083969465647,2.8396946564885495,-1.4045801526717556,0.0693359375,-0.070068359375,-0.6044921875,1.054
3.2519083969465647,2.732824427480916,-1.4809160305343512,0.073486328125,-0.071533203125,-0.612060546875,1.0556999999999999
3.435114503816794,2.5801526717557253,-1.3893129770992367,0.07421875,-0.0693359375,-0.60546875,1.0574
3.5572519083969465,2.3969465648854964,-1.1603053435114503,0.076171875,-0.074462890625,-0.61181640625,1.0591
3.450381679389313,2.6717557251908395,-1.5114503816793894,0.081298828125,-0.068115234375,-0.608154296875,1.0608
3.5572519083969465,2.4427480916030535,-1.5419847328244274,0.077392578125,-0.0625,-0.604736328125,1.0625
3.618320610687023,2.381679389312977,-1.465648854961832,0.07421875,-0.062744140625,-0.6083984375,1.0642
3.648854961832061,2.4732824427480917,-1.2213740458015268,0.07177734375,-0.064697265625,-0.6142578125,1.0658999999999998
3.5267175572519083,2.3053435114503817,-1.618320610687023,0.069091796875,-0.068603515625,-0.61474609375,1.0675999999999999
3.3740458015267176,2.213740458015267,-1.5877862595419847,0.0693359375,-0.06982421875,-0.6025390625,1.0693
3.7557251908396947,2.366412213740458,-1.4045801526717556,0.074951171875,-0.072265625,-0.600341796875,1.071
3.7099236641221376,2.3969465648854964,-1.465648854961832,0.072265625,-0.072509765625,-0.6044921875,1.0727
3.7709923664122136,2.3969465648854964,-1.6488549618320612,0.072509765625,-0.071044921875,-0.61328125,1.0744
3.7251908396946565,2.2900763358778624,-1.5114503816793894,0.068603515625,-0.07177734375,-0.604248046875,1.0760999999999998
3.49618320610687,2.2748091603053435,-1.7404580152671756,0.072998046875,-0.075439453125,-0.607177734375,1.0777999999999999
3.5114503816793894,2.2748091603053435,-1.6030534351145038,0.07080078125,-0.071533203125,-0.610595703125,1.0795
3.5114503816793894,2.1374045801526718,-1.618320610687023,0.075927734375,-0.073486328125,-0.620849609375,1.0812
3.4656488549618323,2.2442748091603053,-1.5419847328244274,0.077880859375,-0.069580078125,-0.604248046875,1.0829
3.4198473282442747,2.213740458015267,-1.6030534351145038,0.076904296875,-0.070068359375,-0.60546875,1.0846
3.0076335877862594,2.0916030534351147,-1.6793893129770991,0.06689453125,-0.073974609375,-0.61474609375,1.0863
3.1297709923664123,2.1068702290076335,-1.618320610687023,0.072998046875,-0.070556640625,-0.60595703125,1.0879999999999999
2.9923664122137406,2.2748091603053435,-1.4809160305343512,0.071044921875,-0.067138671875,-0.6142578125,1.0897
3.0381679389312977,1.9694656488549618,-1.6030534351145038,0.07275390625,-0.07373046875,-0.60546875,1.0914
2.732824427480916,2.1374045801526718,-1.633587786259542,0.071044921875,-0.07373046875,-0.60791015625,1.0931
2.6259541984732824,2.3053435114503817,-1.8015267175572518,0.0712890625,-0.076171875,-0.599853515625,1.0948
2.6564885496183206,2.122137404580153,-1.816793893129771,0.072998046875,-0.06884765625,-0.608642578125,1.0965
2.4580152671755724,2.183206106870229,-1.7709923664122138,0.0712890625,-0.08056640625,-0.60986328125,1.0981999999999998
2.351145038167939,2.0916030534351147,-1.8931297709923665,0.07421875,-0.0732421875,-0.602294921875,1.0998999999999999
2.427480916030534,2.015267175572519,-2.122137404580153,0.071044921875,-0.068359375,-0.6103515625,1.1016
2.1374045801526718,2.0,-1.7251908396946565,0.07177734375,-0.0703125,-0.608642578125,1.1033
1.9541984732824427,1.816793893129771,-2.0763358778625953,0.0654296875,-0.069091796875,-0.60595703125,1.105
1.9083969465648856,1.8473282442748091,-1.83206106870229,0.0654296875,-0.072021484375,-0.603271484375,1.1067
1.6946564885496183,2.16793893129771,-2.0763358778625953,0.0712890625,-0.073486328125,-0.60986328125,1.1083999999999998
1.6030534351145038,2.2748091603053435,-2.0610687022900764,0.07373046875,-0.0703125,-0.607421875,1.1100999999999999
1.5267175572519085,1.9694656488549618,-2.1068702290076335,0.0703125,-0.072509765625,-0.6083984375,1.1118
1.450381679389313,1.83206106870229,-1.7251908396946565,0.07177734375,-0.071044921875,-0.611328125,1.1135
1.1908396946564885,1.7251908396946565,-1.8015267175572518,0.06982421875,-0.072021484375,-0.610595703125,1.1152
1.2213740458015268,1.7709923664122138,-1.8625954198473282,0.06884765625,-0.073486328125,-0.6083984375,1.1169
1.2671755725190839,1.786259541984733,-1.9541984732824427,0.072998046875,-0.06689453125,-0.61474609375,1.1186
0.8396946564885496,1.83206106870229,-1.6793893129770991,0.071044921875,-0.07080078125,-0.607666015625,1.1202999999999999
1.1603053435114503,1.4961832061068703,-1.8931297709923665,0.066650390625,-0.06787109375,-0.613037109375,1.1219999999999999
1.0076335877862594,1.5419847328244274,-1.8625954198473282,0.063720703125,-0.072998046875,-0.6005859375,1.1237
0.9312977099236641,1.6946564885496183,-2.045801526717557,0.073974609375,-0.06982421875,-0.613525390625,1.1254
0.9770992366412213,1.4045801526717556,-1.83206106870229,0.072509765625,-0.070068359375,-0.61083984375,1.1271
0.9312977099236641,1.3740458015267176,-2.198473282442748,0.072021484375,-0.06787109375,-0.60888671875,1.1288
1.1297709923664123,1.450381679389313,-2.030534351145038,0.0751953125,-0.066162109375,-0.60791015625,1.1304999999999998
1.3587786259541985,1.1450381679389312,-2.122137404580153,0.07421875,-0.0712890625,-0.6025390625,1.1321999999999999
1.2366412213740459,1.2213740458015268,-2.213740458015267,0.069580078125,-0.0712890625,-0.602294921875,1.1339
0.916030534351145,1.5572519083969465,-2.3053435114503817,0.076904296875,-0.07421875,-0.6044921875,1.1356
1.1450381679389312,1.5419847328244274,-2.1374045801526718,0.072998046875,-0.0703125,-0.610107421875,1.1373
1.2061068702290076,1.2213740458015268,-2.2900763358778624,0.070556640625,-0.07177734375,-0.60888671875,1.139
0.9007633587786259,1.0687022900763359,-2.3969465648854964,0.0751953125,-0.073486328125,-0.610107421875,1.1407
1.0381679389312977,1.1450381679389312,-2.2442748091603053,0.067626953125,-0.072998046875,-0.599853515625,1.1423999999999999
0.8702290076335878,1.1755725190839694,-2.2748091603053435,0.0703125,-0.0751953125,-0.60595703125,1.1441
0.8091603053435115,1.1450381679389312,-2.50381679389313,0.07373046875,-0.072265625,-0.609375,1.1458
0.6259541984732825,0.8549618320610687,-2.2900763358778624,0.07177734375,-0.072021484375,-0.606201171875,1.1475
0.6412213740458015,0.7633587786259542,-2.198473282442748,0.067626953125,-0.07373046875,-0.603759765625,1.1492
0.8244274809160306,0.8396946564885496,-2.2900763358778624,0.0703125,-0.072509765625,-0.593994140625,1.1509
0.6717557251908397,0.7175572519083969,-2.351145038167939,0.070068359375,-0.07080078125,-0.60595703125,1.1525999999999998
0.6717557251908397,0.6412213740458015,-2.0763358778625953,0.0693359375,-0.071044921875,-0.608642578125,1.1542999999999999
0.8396946564885496,0.8854961832061069,-2.16793893129771,0.069580078125,-0.0673828125,-0.6025390625,1.156
0.6870229007633588,0.6870229007633588,-2.1068702290076335,0.06689453125,-0.067626953125,-0.60693359375,1.1577
0.4580152671755725,0.6717557251908397,-2.198473282442748,0.069091796875,-0.073486328125,-0.604248046875,1.1594
0.7022900763358778,0.6717557251908397,-2.0610687022900764,0.066162109375,-0.069580078125,-0.598876953125,1.1611
0.6717557251908397,0.7938931297709924,-2.198473282442748,0.06640625,-0.07421875,-0.606201171875,1.1627999999999998
0.5648854961832062,0.7175572519083969,-2.0,0.06689453125,-0.06591796875,-0.615478515625,1.1644999999999999
0.7022900763358778,0.6106870229007634,-2.3206106870229006,0.071044921875,-0.07275390625,-0.599365234375,1.1662
0.32061068702290074,0.7633587786259542,-2.0610687022900764,0.070068359375,-0.070068359375,-0.6005859375,1.1679
0.6259541984732825,0.549618320610687,-2.2595419847328246,0.07177734375,-0.071044921875,-0.600341796875,1.1696
0.8244274809160306,0.5801526717557252,-2.1526717557251906,0.0703125,-0.072998046875,-0.607421875,1.1713
0.5954198473282443,0.549618320610687,-2.0610687022900764,0.070556640625,-0.074951171875,-0.607666015625,1.173
0.6717557251908397,0.4580152671755725,-2.122137404580153,0.0703125,-0.07080078125,-0.607421875,1.1746999999999999
0.9923664122137404,0.6106870229007634,-2.1526717557251906,0.06787109375,-0.073486328125,-0.60693359375,1.1764
0.9312977099236641,0.4732824427480916,-2.213740458015267,0.069580078125,-0.072998046875,-0.60302734375,1.1781
0.916030534351145,0.32061068702290074,-2.0763358778625953,0.07177734375,-0.074951171875,-0.6142578125,1.1798
1.2061068702290076,0.5801526717557252,-2.0916030534351147,0.06982421875,-0.067626953125,-0.617431640625,1.1815
0.9465648854961832,0.5648854961832062,-2.3206106870229006,0.068115234375,-0.072998046875,-0.5947265625,1.1832
0.9618320610687023,0.48854961832061067,-2.3053435114503817,0.06591796875,-0.07177734375,-0.6044921875,1.1848999999999998
0.9618320610687023,0.7022900763358778,-2.183206106870229,0.06982421875,-0.074462890625,-0.6064453125,1.1865999999999999
0.8549618320610687,0.6717557251908397,-2.045801526717557,0.067626953125,-0.073974609375,-0.60791015625,1.1883
1.0076335877862594,0.6106870229007634,-2.0916030534351147,0.065673828125,-0.072998046875,-0.603271484375,1.19
1.0381679389312977,0.7480916030534351,-1.786259541984733,0.069580078125,-0.072021484375,-0.599853515625,1.1917
0.8091603053435115,0.7022900763358778,-2.0916030534351147,0.071533203125,-0.0751953125,-0.6005859375,1.1934
0.6564885496183206,0.8244274809160306,-2.16793893129771,0.070556640625,-0.074462890625,-0.603515625,1.1950999999999998
0.6564885496183206,0.7786259541984732,-2.0,0.070556640625,-0.073486328125,-0.61279296875,1.1967999999999999
0.5343511450381679,0.6412213740458015,-2.045801526717557,0.0654296875,-0.071044921875,-0.60546875,1.1985
0.5648854961832062,0.8091603053435115,-1.8931297709923665,0.064453125,-0.070068359375,-0.599365234375,1.2002
0.5343511450381679,0.6870229007633588,-1.9541984732824427,0.068603515625,-0.0732421875,-0.603759765625,1.2019
0.5190839694656488,0.8244274809160306,-1.8625954198473282,0.07275390625,-0.078369140625,-0.602294921875,1.2036
0.3816793893129771,0.7175572519083969,-1.9541984732824427,0.0703125,-0.0751953125,-0.597412109375,1.2053
0.32061068702290074,0.5190839694656488,-1.8015267175572518,0.0712890625,-0.078857421875,-0.60302734375,1.2069999999999999
0.2595419847328244,0.48854961832061067,-1.9694656488549618,0.0615234375,-0.07275390625,-0.60302734375,1.2086999999999999
0.366412213740458,0.3816793893129771,-1.633587786259542,0.07177734375,-0.0810546875,-0.609619140625,1.2104
0.33587786259541985,0.6106870229007634,-1.6946564885496183,0.069580078125,-0.075927734375,-0.61376953125,1.2121
0.24427480916030533,0.6106870229007634,-1.7557251908396947,0.0732421875,-0.076904296875,-0.59912109375,1.2138
0.22900763358778625,0.5190839694656488,-1.9541984732824427,0.071044921875,-0.0712890625,-0.60595703125,1.2155
0.2748091603053435,0.4580152671755725,-1.8473282442748091,0.07470703125,-0.07177734375,-0.6044921875,1.2171999999999998
0.13740458015267176,0.5343511450381679,-1.7557251908396947,0.068359375,-0.07666015625,-0.608642578125,1.2188999999999999
0.2900763358778626,0.7022900763358778,-1.8625954198473282,0.06982421875,-0.07666015625,-0.597412109375,1.2206
0.1984732824427481,0.8091603053435115,-1.8473282442748091,0.070068359375,-0.073974609375,-0.6005859375,1.2223
0.13740458015267176,0.6717557251908397,-2.0763358778625953,0.0732421875,-0.0703125,-0.599853515625,1.224
0.2595419847328244,0.5954198473282443,-1.8931297709923665,0.066162109375,-0.07763671875,-0.600830078125,1.2257
0.5190839694656488,0.732824427480916,-1.786259541984733,0.070068359375,-0.0712890625,-0.6064453125,1.2273999999999998
0.33587786259541985,0.8549618320610687,-2.015267175572519,0.068115234375,-0.069091796875,-0.60888671875,1.2290999999999999
0.4732824427480916,0.7175572519083969,-1.8778625954198473,0.071533203125,-0.07177734375,-0.60107421875,1.2308
0.366412213740458,0.7175572519083969,-1.8473282442748091,0.06689453125,-0.06884765625,-0.60546875,1.2325
0.7480916030534351,0.6259541984732825,-1.8931297709923665,0.069580078125,-0.0693359375,-0.612548828125,1.2342
0.44274809160305345,0.6412213740458015,-1.8625954198473282,0.07470703125,-0.06787109375,-0.613037109375,1.2359
0.44274809160305345,0.6870229007633588,-1.465648854961832,0.07080078125,-0.071044921875,-0.6025390625,1.2376
0.3969465648854962,0.916030534351145,-1.6030534351145038,0.068359375,-0.071533203125,-0.60595703125,1.2392999999999998
0.7022900763358778,0.8854961832061069,-1.5725190839694656,0.072021484375,-0.068603515625,-0.601806640625,1.2409999999999999
0.8244274809160306,0.7175572519083969,-1.4961832061068703,0.0693359375,-0.070068359375,-0.60498046875,1.2427
0.9770992366412213,0.9312977099236641,-1.4351145038167938,0.07373046875,-0.068359375,-0.5986328125,1.2444
0.9618320610687023,0.8702290076335878,-1.5725190839694656,0.0712890625,-0.070556640625,-0.6015625,1.2461
0.8549618320610687,0.9312977099236641,-1.251908396946565,0.076171875,-0.070556640625,-0.60693359375,1.2478
0.916030534351145,0.7633587786259542,-1.1908396946564885,0.0693359375,-0.06884765625,-0.6005859375,1.2494999999999998
0.9465648854961832,0.7786259541984732,-1.3740458015267176,0.0703125,-0.0712890625,-0.6064453125,1.2511999999999999
1.083969465648855,0.7938931297709924,-1.1297709923664123,0.0693359375,-0.068359375,-0.597412109375,1.2529
0.9923664122137404,0.8396946564885496,-1.1297709923664123,0.070556640625,-0.070556640625,-0.60595703125,1.2546
1.2366412213740459,1.0381679389312977,-1.2671755725190839,0.072509765625,-0.0732421875,-0.597412109375,1.2563
0.9770992366412213,0.916030534351145,-1.1297709923664123,0.076416015625,-0.071533203125,-0.59619140625,1.258
0.7938931297709924,0.9465648854961832,-1.1908396946564885,0.069091796875,-0.073486328125,-0.6103515625,1.2596999999999998
0.6870229007633588,0.9770992366412213,-1.0534351145038168,0.071533203125,-0.0712890625,-0.61572265625,1.2613999999999999
0.9465648854961832,1.1603053435114503,-1.2061068702290076,0.0693359375,-0.071533203125,-0.61181640625,1.2631
0.7022900763358778,0.8702290076335878,-1.0381679389312977,0.06591796875,-0.076171875,-0.61376953125,1.2648
0.7022900763358778,0.9465648854961832,-1.282442748091603,0.068603515625,-0.069580078125,-0.61474609375,1.2665
0.8091603053435115,0.9923664122137404,-1.2061068702290076,0.066162109375,-0.07177734375,-0.60693359375,1.2682
0.7633587786259542,1.1297709923664123,-1.3435114503816794,0.071533203125,-0.07080078125,-0.61083984375,1.2699
0.916030534351145,1.099236641221374,-1.0687022900763359,0.076171875,-0.076171875,-0.605224609375,1.2715999999999998
0.8244274809160306,1.251908396946565,-1.0381679389312977,0.072265625,-0.077392578125,-0.60693359375,1.2732999999999999
0.8244274809160306,1.251908396946565,-1.3129770992366412,0.071044921875,-0.073974609375,-0.60400390625,1.275
1.0534351145038168,1.1450381679389312,-1.2061068702290076,0.06982421875,-0.0751953125,-0.604736328125,1.2767
1.2366412213740459,1.3282442748091603,-1.083969465648855,0.06884765625,-0.07568359375,-0.609619140625,1.2784
0.8702290076335878,1.3740458015267176,-1.0534351145038168,0.068115234375,-0.07421875,-0.6083984375,1.2801
0.9312977099236641,1.4809160305343512,-1.2061068702290076,0.072021484375,-0.07568359375,-0.60791015625,1.2817999999999998
0.9923664122137404,1.3435114503816794,-1.0687022900763359,0.069580078125,-0.0712890625,-0.608154296875,1.2834999999999999
0.9618320610687023,1.4045801526717556,-0.9312977099236641,0.06884765625,-0.07666015625,-0.610107421875,1.2852
0.8854961832061069,1.5267175572519085,-0.8549618320610687,0.07275390625,-0.08056640625,-0.618896484375,1.2869
0.8244274809160306,1.3435114503816794,-0.9923664122137404,0.07373046875,-0.077880859375,-0.60498046875,1.2886
0.732824427480916,1.3435114503816794,-0.9770992366412213,0.0712890625,-0.077392578125,-0.608642578125,1.2903
0.5801526717557252,1.5725190839694656,-0.916030534351145,0.072021484375,-0.07275390625,-0.609130859375,1.292
0.6717557251908397,1.5114503816793894,-0.9618320610687023,0.0673828125,-0.07568359375,-0.60498046875,1.2936999999999999
0.7480916030534351,1.4961832061068703,-0.6870229007633588,0.072998046875,-0.074951171875,-0.611572265625,1.2953999999999999
0.4122137404580153,1.6641221374045803,-0.9465648854961832,0.0732421875,-0.073486328125,-0.603271484375,1.2971
0.4122137404580153,1.5877862595419847,-0.9770992366412213,0.068359375,-0.0712890625,-0.607421875,1.2988
0.44274809160305345,1.6488549618320612,-0.8549618320610687,0.066650390625,-0.073974609375,-0.602783203125,1.3005
0.16793893129770993,1.9236641221374047,-0.8396946564885496,0.06396484375,-0.071044921875,-0.6015625,1.3022
0.44274809160305345,1.9389312977099236,-1.0381679389312977,0.0693359375,-0.069580078125,-0.60693359375,1.3038999999999998
0.4580152671755725,1.9389312977099236,-0.8091603053435115,0.07080078125,-0.078369140625,-0.607177734375,1.3055999999999999
0.16793893129770993,1.984732824427481,-0.8854961832061069,0.070068359375,-0.073486328125,-0.60595703125,1.3073
0.21374045801526717,2.030534351145038,-1.0076335877862594,0.07177734375,-0.077392578125,-0.60107421875,1.309
0.4580152671755725,2.2595419847328246,-0.8854961832061069,0.064208984375,-0.07861328125,-0.604736328125,1.3107
0.32061068702290074,2.2748091603053435,-0.9312977099236641,0.069580078125,-0.06787109375,-0.60693359375,1.3124
0.366412213740458,2.3206106870229006,-0.9770992366412213,0.06787109375,-0.076171875,-0.61083984375,1.3140999999999998
0.549618320610687,2.351145038167939,-0.7786259541984732,0.06689453125,-0.07421875,-0.61083984375,1.3157999999999999
0.5038167938931297,2.50381679389313,-0.9618320610687023,0.06689453125,-0.075927734375,-0.61376953125,1.3175
0.44274809160305345,2.6106870229007635,-0.8549618320610687,0.064453125,-0.076904296875,-0.607177734375,1.3192
0.3969465648854962,2.6412213740458017,-1.0229007633587786,0.069580078125,-0.07568359375,-0.60791015625,1.3209
0.5190839694656488,2.687022900763359,-0.9618320610687023,0.06689453125,-0.07373046875,-0.607177734375,1.3226
0.732824427480916,2.687022900763359,-1.0229007633587786,0.0634765625,-0.07568359375,-0.60986328125,1.3243
0.7022900763358778,2.7480916030534353,-0.9770992366412213,0.06591796875,-0.0712890625,-0.607177734375,1.3259999999999998
0.732824427480916,2.885496183206107,-0.9312977099236641,0.064453125,-0.076171875,-0.606689453125,1.3276999999999999
0.6412213740458015,3.0229007633587788,-0.7786259541984732,0.066162109375,-0.06982421875,-0.60546875,1.3294
0.7480916030534351,3.099236641221374,-1.0687022900763359,0.070068359375,-0.074462890625,-0.609619140625,1.3311
0.7938931297709924,3.1755725190839694,-0.916030534351145,0.068603515625,-0.0751953125,-0.603759765625,1.3328
0.5954198473282443,3.3282442748091605,-1.3129770992366412,0.07177734375,-0.0751953125,-0.603271484375,1.3345
0.6564885496183206,3.312977099236641,-0.9770992366412213,0.06689453125,-0.07177734375,-0.60498046875,1.3361999999999998
0.6564885496183206,3.3740458015267176,-1.282442748091603,0.07177734375,-0.072265625,-0.6103515625,1.3378999999999999
0.6870229007633588,3.480916030534351,-1.251908396946565,0.06787109375,-0.0771484375,-0.611328125,1.3396
0.6259541984732825,3.6030534351145036,-1.251908396946565,0.067626953125,-0.076171875,-0.60205078125,1.3413
0.4122137404580153,3.7099236641221376,-1.3587786259541985,0.06689453125,-0.068115234375,-0.60595703125,1.343
0.48854961832061067,3.49618320610687,-1.4351145038167938,0.06884765625,-0.072265625,-0.602294921875,1.3447
0.5190839694656488,3.404580152671756,-1.3740458015267176,0.0634765625,-0.07373046875,-0.602294921875,1.3463999999999998
0.6259541984732825,3.5114503816793894,-1.465648854961832,0.07275390625,-0.072265625,-0.609130859375,1.3480999999999999
0.33587786259541985,3.4656488549618323,-1.4045801526717556,0.071044921875,-0.071044921875,-0.60693359375,1.3497999999999999
0.3511450381679389,3.49618320610687,-1.450381679389313,0.07177734375,-0.07421875,-0.6064453125,1.3515
0.04580152671755725,3.49618320610687,-1.297709923664122,0.068603515625,-0.0693359375,-0.6015625,1.3532
0.2595419847328244,3.5267175572519083,-1.3435114503816794,0.07177734375,-0.0703125,-0.6015625,1.3549
0.24427480916030533,3.4198473282442747,-1.2671755725190839,0.0654296875,-0.069091796875,-0.601318359375,1.3566
0.24427480916030533,3.404580152671756,-1.3282442748091603,0.064697265625,-0.0732421875,-0.602783203125,1.3582999999999998
0.07633587786259542,3.2519083969465647,-1.282442748091603,0.0712890625,-0.07177734375,-0.603515625,1.3599999999999999
0.15267175572519084,3.1755725190839694,-1.1450381679389312,0.07080078125,-0.073486328125,-0.60400390625,1.3617
-0.3053435114503817,3.3893129770992365,-1.1755725190839694,0.0703125,-0.072998046875,-0.60009765625,1.3634
-0.2748091603053435,3.4198473282442747,-1.0534351145038168,0.072021484375,-0.0712890625,-0.6083984375,1.3651
-0.183206106870229,3.312977099236641,-1.0534351145038168,0.069580078125,-0.071044921875,-0.594970703125,1.3668
-0.2900763358778626,3.236641221374046,-1.1908396946564885,0.07177734375,-0.070556640625,-0.597900390625,1.3684999999999998
-0.4732824427480916,3.1755725190839694,-1.1450381679389312,0.07080078125,-0.06982421875,-0.601318359375,1.3701999999999999
-0.5954198473282443,3.450381679389313,-0.8244274809160306,0.07080078125,-0.06689453125,-0.605712890625,1.3719
-0.3053435114503817,3.2977099236641223,-0.9312977099236641,0.071533203125,-0.068603515625,-0.607421875,1.3736
-0.3053435114503817,2.9618320610687023,-1.282442748091603,0.0693359375,-0.0712890625,-0.59814453125,1.3753
-0.366412213740458,3.0229007633587788,-1.2213740458015268,0.072509765625,-0.066650390625,-0.598388671875,1.377
-0.42748091603053434,2.9618320610687023,-1.1450381679389312,0.07373046875,-0.070556640625,-0.600341796875,1.3786999999999998
-0.366412213740458,2.885496183206107,-1.1145038167938932,0.0703125,-0.07080078125,-0.595458984375,1.3803999999999998
-0.4732824427480916,2.7480916030534353,-0.916030534351145,0.068603515625,-0.066162109375,-0.59130859375,1.3820999999999999
-0.2595419847328244,2.7938931297709924,-0.916030534351145,0.074462890625,-0.076171875,-0.595703125,1.3838
-0.3969465648854962,2.5801526717557253,-1.2061068702290076,0.0771484375,-0.070556640625,-0.598876953125,1.3855
-0.24427480916030533,2.595419847328244,-1.1603053435114503,0.072998046875,-0.06640625,-0.592041015625,1.3872
-0.16793893129770993,2.4580152671755724,-1.1145038167938932,0.07568359375,-0.068359375,-0.600830078125,1.3889
-0.15267175572519084,2.2595419847328246,-0.9923664122137404,0.072998046875,-0.067138671875,-0.60693359375,1.3905999999999998
0.04580152671755725,2.4122137404580153,-1.1450381679389312,0.075439453125,-0.069091796875,-0.59765625,1.3922999999999999
-0.12213740458015267,2.2442748091603053,-1.0076335877862594,0.075927734375,-0.0673828125,-0.6044921875,1.394
-0.15267175572519084,2.1068702290076335,-0.9923664122137404,0.077392578125,-0.066650390625,-0.599853515625,1.3957
-0.0916030534351145,2.122137404580153,-0.9770992366412213,0.072998046875,-0.0654296875,-0.593505859375,1.3974
0.13740458015267176,2.0610687022900764,-0.732824427480916,0.07177734375,-0.071533203125,-0.603515625,1.3991
0.1984732824427481,1.633587786259542,-0.7175572519083969,0.075439453125,-0.065673828125,-0.591064453125,1.4007999999999998
0.16793893129770993,1.7251908396946565,-0.8549618320610687,0.072021484375,-0.06787109375,-0.58935546875,1.4024999999999999
0.3511450381679389,1.6641221374045803,-0.549618320610687,0.072021484375,-0.06787109375,-0.59521484375,1.4042
0.3969465648854962,1.5572519083969465,-0.6259541984732825,0.07421875,-0.067626953125,-0.596435546875,1.4059
0.6412213740458015,1.4809160305343512,-0.5343511450381679,0.07373046875,-0.0693359375,-0.595947265625,1.4076
0.6259541984732825,1.4198473282442747,-0.5038167938931297,0.078857421875,-0.06884765625,-0.595703125,1.4093
0.6106870229007634,1.1603053435114503,-0.5038167938931297,0.078369140625,-0.06689453125,-0.59423828125,1.411
0.6870229007633588,0.9618320610687023,-0.48854961832061067,0.075439453125,-0.0634765625,-0.593017578125,1.4126999999999998
0.8854961832061069,0.7938931297709924,-0.4122137404580153,0.08154296875,-0.072998046875,-0.597412109375,1.4143999999999999
0.9923664122137404,0.916030534351145,-0.42748091603053434,0.07373046875,-0.065185546875,-0.59619140625,1.4161
1.1145038167938932,0.5648854961832062,-0.5343511450381679,0.07958984375,-0.067138671875,-0.599365234375,1.4178
0.8549618320610687,0.6259541984732825,-0.15267175572519084,0.076171875,-0.067138671875,-0.59716796875,1.4195
1.083969465648855,0.4580152671755725,-0.4732824427480916,0.071044921875,-0.067138671875,-0.592529296875,1.4212
1.083969465648855,0.32061068702290074,-0.366412213740458,0.0673828125,-0.065673828125,-0.604248046875,1.4228999999999998
1.1603053435114503,0.3511450381679389,-0.3816793893129771,0.072509765625,-0.06884765625,-0.60791015625,1.4245999999999999
1.297709923664122,0.183206106870229,-0.12213740458015267,0.069580078125,-0.067626953125,-0.592041015625,1.4263
1.2061068702290076,0.0916030534351145,0.0,0.06787109375,-0.0703125,-0.591064453125,1.428
1.1145038167938932,0.24427480916030533,0.015267175572519083,0.068603515625,-0.069580078125,-0.595458984375,1.4297
1.1908396946564885,0.015267175572519083,-0.07633587786259542,0.0693359375,-0.06640625,-0.595703125,1.4314
1.3435114503816794,0.061068702290076333,0.0916030534351145,0.068359375,-0.070556640625,-0.58837890625,1.4330999999999998
1.3282442748091603,0.12213740458015267,-0.015267175572519083,0.070556640625,-0.072998046875,-0.5947265625,1.4347999999999999
1.3587786259541985,-0.015267175572519083,0.04580152671755725,0.0693359375,-0.06787109375,-0.597412109375,1.4364999999999999
1.4809160305343512,0.183206106870229,0.0916030534351145,0.06982421875,-0.0732421875,-0.592041015625,1.4382
1.5114503816793894,0.13740458015267176,0.3053435114503817,0.073974609375,-0.073486328125,-0.597412109375,1.4399
1.465648854961832,0.21374045801526717,-0.04580152671755725,0.07080078125,-0.078369140625,-0.588623046875,1.4416
1.251908396946565,0.13740458015267176,-0.2748091603053435,0.068359375,-0.0751953125,-0.59130859375,1.4433
1.4045801526717556,0.2748091603053435,-0.04580152671755725,0.064697265625,-0.072021484375,-0.59375,1.4449999999999998
1.3587786259541985,0.24427480916030533,-0.183206106870229,0.067138671875,-0.075439453125,-0.597412109375,1.4466999999999999
1.4961832061068703,0.21374045801526717,-0.4122137404580153,0.066650390625,-0.075439453125,-0.593017578125,1.4484
1.2061068702290076,0.183206106870229,-0.33587786259541985,0.06787109375,-0.07080078125,-0.596923828125,1.4501
1.3282442748091603,0.24427480916030533,-0.5343511450381679,0.070556640625,-0.070556640625,-0.598876953125,1.4518
1.297709923664122,0.366412213740458,-0.44274809160305345,0.069580078125,-0.074951171875,-0.611083984375,1.4535
1.4045801526717556,0.3511450381679389,-0.7938931297709924,0.06982421875,-0.07275390625,-0.602294921875,1.4551999999999998
1.816793893129771,0.3969465648854962,-0.732824427480916,0.067138671875,-0.0751953125,-0.60009765625,1.4568999999999999
1.5267175572519085,0.183206106870229,-0.5801526717557252,0.068359375,-0.074951171875,-0.60009765625,1.4586
1.618320610687023,0.3969465648854962,-0.549618320610687,0.0732421875,-0.078125,-0.598876953125,1.4603
1.7099236641221374,0.2900763358778626,-0.6564885496183206,0.071044921875,-0.06982421875,-0.596923828125,1.462
1.7557251908396947,0.2595419847328244,-0.4580152671755725,0.06689453125,-0.074462890625,-0.596435546875,1.4637
1.786259541984733,0.04580152671755725,-0.5954198473282443,0.066162109375,-0.076904296875,-0.5888671875,1.4653999999999998
2.0610687022900764,0.22900763358778625,-0.5038167938931297,0.068603515625,-0.077880859375,-0.598388671875,1.4670999999999998
1.8015267175572518,0.16793893129770993,-0.4580152671755725,0.06884765625,-0.078857421875,-0.6005859375,1.4687999999999999
1.9083969465648856,0.0,-0.183206106870229,0.07177734375,-0.077392578125,-0.594970703125,1.4705
2.198473282442748,0.15267175572519084,-0.1984732824427481,0.072265625,-0.08154296875,-0.6044921875,1.4722
2.33587786259542,0.0916030534351145,-0.366412213740458,0.071533203125,-0.077392578125,-0.610107421875,1.4739
2.366412213740458,0.0916030534351145,-0.2595419847328244,0.068115234375,-0.078369140625,-0.607177734375,1.4756
2.381679389312977,0.030534351145038167,-0.030534351145038167,0.06982421875,-0.07763671875,-0.6015625,1.4772999999999998
2.7786259541984735,0.015267175572519083,-0.13740458015267176,0.0703125,-0.082275390625,-0.605224609375,1.4789999999999999
2.854961832061069,-0.16793893129770993,0.04580152671755725,0.073486328125,-0.082275390625,-0.605224609375,1.4807
2.900763358778626,-0.061068702290076333,0.2900763358778626,0.06640625,-0.074951171875,-0.597412109375,1.4824
2.6412213740458017,-0.21374045801526717,0.061068702290076333,0.070068359375,-0.07958984375,-0.602783203125,1.4841
2.9160305343511452,-0.15267175572519084,0.030534351145038167,0.06494140625,-0.079833984375,-0.59912109375,1.4858
3.1908396946564888,-0.3511450381679389,0.33587786259541985,0.07177734375,-0.08154296875,-0.60205078125,1.4874999999999998
3.312977099236641,-0.2748091603053435,0.061068702290076333,0.069091796875,-0.081787109375,-0.6044921875,1.4891999999999999
3.2519083969465647,-0.13740458015267176,0.04580152671755725,0.069091796875,-0.07958984375,-0.603515625,1.4909
3.236641221374046,0.13740458015267176,0.12213740458015267,0.07080078125,-0.078857421875,-0.596435546875,1.4926
3.068702290076336,-0.24427480916030533,0.0916030534351145,0.0703125,-0.078857421875,-0.599853515625,1.4943
2.854961832061069,-0.42748091603053434,-0.07633587786259542,0.064208984375,-0.077880859375,-0.601806640625,1.496
2.9160305343511452,-0.21374045801526717,-0.15267175572519084,0.06884765625,-0.078857421875,-0.605224609375,1.4976999999999998
2.595419847328244,-0.13740458015267176,-0.183206106870229,0.066162109375,-0.0732421875,-0.601806640625,1.4993999999999998
2.3969465648854964,-0.015267175572519083,-0.2595419847328244,0.067626953125,-0.07470703125,-0.60205078125,1.5010999999999999
2.4732824427480917,-0.10687022900763359,-0.3053435114503817,0.06787109375,-0.075439453125,-0.60400390625,1.5028
2.3053435114503817,-0.10687022900763359,-0.4732824427480916,0.06494140625,-0.076904296875,-0.6025390625,1.5045
1.984732824427481,-0.13740458015267176,-0.6106870229007634,0.064453125,-0.076171875,-0.603271484375,1.5062
2.2442748091603053,0.10687022900763359,-0.8396946564885496,0.070556640625,-0.078369140625,-0.6044921875,1.5079
1.816793893129771,0.0,-0.8091603053435115,0.0673828125,-0.0771484375,-0.60400390625,1.5095999999999998
1.8931297709923665,0.24427480916030533,-0.6564885496183206,0.071044921875,-0.074951171875,-0.611083984375,1.5112999999999999
1.5114503816793894,0.3053435114503817,-1.0076335877862594,0.064453125,-0.0751953125,-0.60595703125,1.513
1.450381679389313,0.2595419847328244,-0.8091603053435115,0.06689453125,-0.07666015625,-0.603271484375,1.5147
1.8015267175572518,0.366412213740458,-1.0381679389312977,0.072021484375,-0.075439453125,-0.6103515625,1.5164
1.5419847328244274,0.5190839694656488,-0.8244274809160306,0.06591796875,-0.075927734375,-0.607421875,1.5181
1.5114503816793894,0.44274809160305345,-0.9465648854961832,0.064208984375,-0.0693359375,-0.607421875,1.5197999999999998
1.7251908396946565,0.2595419847328244,-0.7786259541984732,0.06689453125,-0.080810546875,-0.60595703125,1.5214999999999999
1.633587786259542,0.5648854961832062,-0.8244274809160306,0.06787109375,-0.07373046875,-0.6064453125,1.5231999999999999
1.7099236641221374,0.5648854961832062,-0.9923664122137404,0.07080078125,-0.07373046875,-0.61181640625,1.5249
1.4809160305343512,0.5954198473282443,-0.9312977099236641,0.06298828125,-0.076904296875,-0.602783203125,1.5266
1.7557251908396947,0.6259541984732825,-0.916030534351145,0.066650390625,-0.073486328125,-0.600830078125,1.5283
1.8015267175572518,0.6564885496183206,-1.2061068702290076,0.070556640625,-0.07373046875,-0.604248046875,1.5299999999999998
1.5725190839694656,0.5648854961832062,-0.9007633587786259,0.0703125,-0.076171875,-0.604248046875,1.5316999999999998
1.6793893129770991,0.8244274809160306,-1.1755725190839694,0.06787109375,-0.070556640625,-0.60791015625,1.5333999999999999
1.4351145038167938,0.8244274809160306,-1.1755725190839694,0.0732421875,-0.077392578125,-0.60791015625,1.5351
1.450381679389313,0.7938931297709924,-1.3893129770992367,0.06787109375,-0.083251953125,-0.613525390625,1.5368
1.5725190839694656,0.6870229007633588,-1.450381679389313,0.069580078125,-0.076904296875,-0.60693359375,1.5385
1.5267175572519085,0.6564885496183206,-1.4198473282442747,0.069091796875,-0.069091796875,-0.60107421875,1.5402
1.5419847328244274,0.8091603053435115,-1.5877862595419847,0.068603515625,-0.0712890625,-0.606201171875,1.5418999999999998
1.4351145038167938,0.8549618320610687,-1.6793893129770991,0.0712890625,-0.074462890625,-0.600341796875,1.5435999999999999
1.3893129770992367,0.7480916030534351,-1.465648854961832,0.075439453125,-0.076904296875,-0.603759765625,1.5453
1.5725190839694656,0.7786259541984732,-1.6488549618320612,0.073486328125,-0.07568359375,-0.607666015625,1.547
1.618320610687023,0.7022900763358778,-1.5419847328244274,0.07666015625,-0.073974609375,-0.606689453125,1.5487
1.1145038167938932,0.732824427480916,-1.786259541984733,0.07421875,-0.0712890625,-0.60693359375,1.5504
1.4809160305343512,0.8396946564885496,-1.5725190839694656,0.072021484375,-0.06884765625,-0.60498046875,1.5520999999999998
1.5877862595419847,0.549618320610687,-1.633587786259542,0.072021484375,-0.068603515625,-0.60302734375,1.5537999999999998
1.5877862595419847,0.42748091603053434,-1.7404580152671756,0.07421875,-0.0712890625,-0.60595703125,1.5554999999999999
1.4045801526717556,0.5038167938931297,-1.7404580152671756,0.072509765625,-0.073974609375,-0.610595703125,1.5572
1.4198473282442747,0.42748091603053434,-1.7557251908396947,0.076171875,-0.0712890625,-0.604248046875,1.5589
1.633587786259542,0.24427480916030533,-1.8473282442748091,0.072021484375,-0.066650390625,-0.60107421875,1.5606
1.3129770992366412,0.33587786259541985,-1.618320610687023,0.0751953125,-0.064453125,-0.606201171875,1.5623
1.3435114503816794,0.4732824427480916,-1.816793893129771,0.077392578125,-0.064697265625,-0.60595703125,1.5639999999999998
1.450381679389313,0.42748091603053434,-1.5572519083969465,0.070556640625,-0.074462890625,-0.603271484375,1.5656999999999999
1.5419847328244274,0.24427480916030533,-1.7709923664122138,0.0625,-0.0703125,-0.602294921875,1.5674
1.6946564885496183,0.44274809160305345,-1.8015267175572518,0.072265625,-0.073486328125,-0.604248046875,1.5691
1.5877862595419847,0.3511450381679389,-1.7709923664122138,0.0703125,-0.0693359375,-0.60009765625,1.5708
1.7404580152671756,0.3511450381679389,-1.5267175572519085,0.0712890625,-0.072509765625,-0.5966796875,1.5725
1.816793893129771,0.5343511450381679,-1.5419847328244274,0.072509765625,-0.072509765625,-0.601806640625,1.5741999999999998
1.8625954198473282,0.6106870229007634,-1.6488549618320612,0.074462890625,-0.070556640625,-0.605224609375,1.5758999999999999
1.8473282442748091,0.6717557251908397,-1.633587786259542,0.072021484375,-0.0693359375,-0.606689453125,1.5776
2.122137404580153,0.5954198473282443,-1.6030534351145038,0.072509765625,-0.072998046875,-0.607177734375,1.5793
2.1374045801526718,0.8091603053435115,-1.4198473282442747,0.069580078125,-0.070068359375,-0.603271484375,1.581
2.0610687022900764,0.8549618320610687,-1.3435114503816794,0.070556640625,-0.0654296875,-0.607177734375,1.5827
2.6412213740458017,0.5038167938931297,-1.618320610687023,0.076904296875,-0.07275390625,-0.603759765625,1.5843999999999998
2.50381679389313,0.7175572519083969,-1.5114503816793894,0.071533203125,-0.067626953125,-0.601318359375,1.5860999999999998
2.6106870229007635,0.7938931297709924,-1.5419847328244274,0.0693359375,-0.0732421875,-0.6103515625,1.5877999999999999
2.366412213740458,0.8549618320610687,-1.83206106870229,0.0712890625,-0.068115234375,-0.606201171875,1.5895
2.7480916030534353,0.8854961832061069,-1.8625954198473282,0.072998046875,-0.069091796875,-0.599365234375,1.5912
2.7938931297709924,0.7633587786259542,-1.8015267175572518,0.068115234375,-0.060791015625,-0.601806640625,1.5929
2.900763358778626,0.7786259541984732,-2.0,0.0712890625,-0.06787109375,-0.608642578125,1.5946
2.854961832061069,0.7786259541984732,-1.786259541984733,0.0703125,-0.0712890625,-0.602294921875,1.5962999999999998
2.7786259541984735,0.6870229007633588,-1.9694656488549618,0.0732421875,-0.07080078125,-0.59912109375,1.5979999999999999
2.931297709923664,0.9770992366412213,-1.8473282442748091,0.0751953125,-0.07080078125,-0.6083984375,1.5997
3.114503816793893,1.0381679389312977,-1.7709923664122138,0.07666015625,-0.064453125,-0.602294921875,1.6014
2.931297709923664,1.0229007633587786,-1.5877862595419847,0.074462890625,-0.07080078125,-0.6083984375,1.6031
2.946564885496183,0.7480916030534351,-1.8778625954198473,0.07763671875,-0.07080078125,-0.601318359375,1.6048
2.9923664122137406,0.7480916030534351,-1.5572519083969465,0.076904296875,-0.068359375,-0.603271484375,1.6064999999999998
3.267175572519084,1.0687022900763359,-1.6488549618320612,0.076904296875,-0.068359375,-0.60595703125,1.6081999999999999
2.885496183206107,1.0076335877862594,-1.3587786259541985,0.07373046875,-0.072265625,-0.611328125,1.6098999999999999
3.2213740458015265,0.8396946564885496,-1.4961832061068703,0.07958984375,-0.07470703125,-0.603515625,1.6116
2.946564885496183,0.916030534351145,-1.2366412213740459,0.076171875,-0.0693359375,-0.597900390625,1.6133
2.717557251908397,0.8091603053435115,-1.2366412213740459,0.074951171875,-0.0673828125,-0.604248046875,1.615
2.885496183206107,0.6870229007633588,-1.282442748091603,0.07861328125,-0.069580078125,-0.6044921875,1.6166999999999998
2.763358778625954,0.6564885496183206,-1.1755725190839694,0.07470703125,-0.069091796875,-0.602783203125,1.6183999999999998
2.4732824427480917,0.6259541984732825,-1.1755725190839694,0.0771484375,-0.06494140625,-0.6064453125,1.6200999999999999
2.519083969465649,0.8091603053435115,-0.7480916030534351,0.0791015625,-0.0673828125,-0.605712890625,1.6218
2.564885496183206,0.7938931297709924,-0.9923664122137404,0.06982421875,-0.069091796875,-0.607421875,1.6235
2.3053435114503817,0.7786259541984732,-1.1297709923664123,0.07373046875,-0.069091796875,-0.607666015625,1.6252
2.5343511450381677,0.7633587786259542,-0.916030534351145,0.074951171875,-0.0703125,-0.608154296875,1.6269
2.183206106870229,0.6259541984732825,-1.1297709923664123,0.076904296875,-0.06689453125,-0.60546875,1.6285999999999998
2.366412213740458,0.8091603053435115,-1.0534351145038168,0.080322265625,-0.07763671875,-0.605712890625,1.6302999999999999
2.4122137404580153,0.6870229007633588,-0.9465648854961832,0.07666015625,-0.073486328125,-0.603515625,1.632
2.351145038167939,0.5038167938931297,-1.1297709923664123,0.07470703125,-0.0732421875,-0.608642578125,1.6337
2.381679389312977,0.6106870229007634,-1.1755725190839694,0.076171875,-0.073486328125,-0.60791015625,1.6354
2.549618320610687,0.6870229007633588,-1.2671755725190839,0.07470703125,-0.06884765625,-0.604736328125,1.6371
2.33587786259542,0.8091603053435115,-1.1908396946564885,0.080322265625,-0.070556640625,-0.601806640625,1.6387999999999998
2.2748091603053435,0.7786259541984732,-1.0687022900763359,0.072021484375,-0.073486328125,-0.606689453125,1.6404999999999998
2.381679389312977,0.8396946564885496,-1.0534351145038168,0.0751953125,-0.07177734375,-0.607666015625,1.6421999999999999
2.3053435114503817,0.7175572519083969,-1.2671755725190839,0.072021484375,-0.07373046875,-0.606689453125,1.6439
2.2595419847328246,0.9312977099236641,-1.0076335877862594,0.080322265625,-0.07373046875,-0.60693359375,1.6456
2.16793893129771,0.7938931297709924,-0.8091603053435115,0.080078125,-0.0712890625,-0.602783203125,1.6473
2.198473282442748,0.7633587786259542,-1.083969465648855,0.077392578125,-0.06982421875,-0.615966796875,1.6489999999999998
2.33587786259542,0.916030534351145,-1.1297709923664123,0.078369140625,-0.072265625,-0.601318359375,1.6506999999999998
2.16793893129771,0.9007633587786259,-0.9618320610687023,0.072021484375,-0.070068359375,-0.604248046875,1.6523999999999999
2.3053435114503817,0.8854961832061069,-0.9007633587786259,0.0771484375,-0.064208984375,-0.602294921875,1.6541
2.213740458015267,0.9618320610687023,-0.9770992366412213,0.07470703125,-0.072509765625,-0.601318359375,1.6558
1.9694656488549618,1.0076335877862594,-1.2213740458015268,0.072021484375,-0.071044921875,-0.61279296875,1.6575
2.2442748091603053,0.9618320610687023,-0.9618320610687023,0.07275390625,-0.07080078125,-0.610107421875,1.6592
2.213740458015267,0.9007633587786259,-1.083969465648855,0.072021484375,-0.072265625,-0.610107421875,1.6608999999999998
2.3053435114503817,1.1450381679389312,-1.0687022900763359,0.073486328125,-0.07470703125,-0.606689453125,1.6625999999999999
2.3206106870229006,1.1755725190839694,-1.1755725190839694,0.075927734375,-0.0751953125,-0.605224609375,1.6643
2.16793893129771,1.0687022900763359,-1.297709923664122,0.067626953125,-0.072998046875,-0.61376953125,1.666
2.1068702290076335,1.1297709923664123,-1.1755725190839694,0.074462890625,-0.072021484375,-0.609375,1.6677
2.0916030534351147,1.2213740458015268,-1.3129770992366412,0.07373046875,-0.077392578125,-0.60400390625,1.6694
1.984732824427481,1.083969465648855,-1.2671755725190839,0.070068359375,-0.07177734375,-0.594970703125,1.6710999999999998
2.183206106870229,0.9770992366412213,-1.1603053435114503,0.07470703125,-0.072021484375,-0.603515625,1.6727999999999998
2.045801526717557,1.282442748091603,-1.251908396946565,0.074462890625,-0.072265625,-0.606689453125,1.6744999999999999
1.7404580152671756,1.1908396946564885,-1.1908396946564885,0.076904296875,-0.07080078125,-0.6103515625,1.6762
1.786259541984733,1.2061068702290076,-1.3129770992366412,0.073486328125,-0.076416015625,-0.603515625,1.6779
1.6641221374045803,1.297709923664122,-1.2366412213740459,0.0771484375,-0.076904296875,-0.603271484375,1.6796
1.6030534351145038,1.2366412213740459,-1.2671755725190839,0.075439453125,-0.07568359375,-0.6103515625,1.6813
1.4351145038167938,1.2671755725190839,-1.1450381679389312,0.066650390625,-0.070068359375,-0.609375,1.6829999999999998
1.3129770992366412,1.3129770992366412,-1.2061068702290076,0.07763671875,-0.067138671875,-0.61279296875,1.6846999999999999
1.2213740458015268,1.3282442748091603,-1.1145038167938932,0.072998046875,-0.072509765625,-0.609375,1.6864
1.1297709923664123,1.2061068702290076,-1.282442748091603,0.072509765625,-0.073486328125,-0.616455078125,1.6881
0.8854961832061069,1.3740458015267176,-1.3587786259541985,0.0703125,-0.07080078125,-0.6064453125,1.6898
1.0534351145038168,1.5877862595419847,-1.1450381679389312,0.071533203125,-0.0751953125,-0.607421875,1.6915
1.0534351145038168,1.4961832061068703,-1.251908396946565,0.072509765625,-0.0732421875,-0.6162109375,1.6931999999999998
1.0687022900763359,1.4045801526717556,-1.9083969465648856,0.065185546875,-0.071044921875,-0.604736328125,1.6948999999999999
1.0076335877862594,1.4045801526717556,-1.8473282442748091,0.07275390625,-0.07421875,-0.60986328125,1.6965999999999999
1.0534351145038168,1.816793893129771,-1.8473282442748091,0.068115234375,-0.072509765625,-0.611328125,1.6983
1.0229007633587786,1.6793893129770991,-1.7709923664122138,0.070556640625,-0.073974609375,-0.618408203125,1.7
1.1145038167938932,1.786259541984733,-2.0610687022900764,0.065673828125,-0.076171875,-0.615966796875,1.7017
1.1297709923664123,1.9694656488549618,-2.0916030534351147,0.0673828125,-0.07421875,-0.60791015625,1.7033999999999998
1.2671755725190839,1.9694656488549618,-2.0763358778625953,0.070068359375,-0.074951171875,-0.6142578125,1.7050999999999998
1.2671755725190839,1.9389312977099236,-2.33587786259542,0.072998046875,-0.078369140625,-0.603271484375,1.7067999999999999
1.282442748091603,2.1374045801526718,-2.122137404580153,0.072998046875,-0.073974609375,-0.60302734375,1.7085
1.2061068702290076,2.2442748091603053,-2.1068702290076335,0.072998046875,-0.068359375,-0.608642578125,1.7102
1.0381679389312977,2.366412213740458,-2.3053435114503817,0.066650390625,-0.07421875,-0.602294921875,1.7119
0.8244274809160306,2.3206106870229006,-2.045801526717557,0.0703125,-0.0693359375,-0.60693359375,1.7136
0.7175572519083969,2.4427480916030535,-2.381679389312977,0.069091796875,-0.072021484375,-0.609375,1.7152999999999998
0.6564885496183206,2.3969465648854964,-2.33587786259542,0.07470703125,-0.07177734375,-0.6025390625,1.7169999999999999
0.5343511450381679,2.427480916030534,-2.16793893129771,0.06640625,-0.0712890625,-0.602783203125,1.7187
0.42748091603053434,2.4427480916030535,-2.2595419847328246,0.071044921875,-0.073974609375,-0.60986328125,1.7204
0.42748091603053434,2.564885496183206,-2.1526717557251906,0.07568359375,-0.07666015625,-0.602294921875,1.7221
0.1984732824427481,2.4885496183206106,-2.122137404580153,0.06787109375,-0.0732421875,-0.606201171875,1.7238
0.07633587786259542,2.519083969465649,-2.366412213740458,0.0712890625,-0.07177734375,-0.6025390625,1.7254999999999998
0.22900763358778625,2.732824427480916,-2.2595419847328246,0.0712890625,-0.07470703125,-0.6064453125,1.7271999999999998
-0.030534351145038167,2.7480916030534353,-2.2748091603053435,0.073974609375,-0.07763671875,-0.6083984375,1.7288999999999999
0.2900763358778626,2.931297709923664,-2.1068702290076335,0.0751953125,-0.07763671875,-0.61279296875,1.7306
0.030534351145038167,2.7938931297709924,-2.198473282442748,0.07421875,-0.07373046875,-0.61572265625,1.7323
-0.10687022900763359,2.9618320610687023,-2.0763358778625953,0.0703125,-0.0712890625,-0.6083984375,1.734
-0.32061068702290074,2.9770992366412212,-2.0610687022900764,0.0712890625,-0.074462890625,-0.6064453125,1.7356999999999998
-0.183206106870229,2.7938931297709924,-1.8015267175572518,0.069091796875,-0.06982421875,-0.610595703125,1.7373999999999998
-0.16793893129770993,3.0229007633587788,-1.9236641221374047,0.075439453125,-0.07373046875,-0.60498046875,1.7390999999999999
-0.3511450381679389,2.854961832061069,-1.984732824427481,0.07568359375,-0.0771484375,-0.610595703125,1.7408
-0.5648854961832062,2.8702290076335877,-1.984732824427481,0.072021484375,-0.07763671875,-0.609375,1.7425
-0.4732824427480916,2.9160305343511452,-1.9236641221374047,0.071044921875,-0.07568359375,-0.605712890625,1.7442
-0.366412213740458,2.931297709923664,-1.7251908396946565,0.06884765625,-0.072998046875,-0.601806640625,1.7459
-0.366412213740458,3.267175572519084,-1.8931297709923665,0.0751953125,-0.071044921875,-0.6103515625,1.7475999999999998
-0.4122137404580153,3.1297709923664123,-1.816793893129771,0.06884765625,-0.067626953125,-0.61279296875,1.7492999999999999
-0.5038167938931297,2.9923664122137406,-1.7557251908396947,0.07177734375,-0.074951171875,-0.6005859375,1.751
-0.2900763358778626,3.1908396946564888,-1.984732824427481,0.069091796875,-0.072998046875,-0.607177734375,1.7527
-0.15267175572519084,3.267175572519084,-1.8931297709923665,0.072021484375,-0.074462890625,-0.60595703125,1.7544
-0.16793893129770993,3.1908396946564888,-1.8931297709923665,0.0712890625,-0.06982421875,-0.614013671875,1.7561
-0.1984732824427481,3.2519083969465647,-2.0763358778625953,0.067138671875,-0.068359375,-0.604248046875,1.7577999999999998
0.183206106870229,3.2519083969465647,-2.198473282442748,0.0673828125,-0.07080078125,-0.613525390625,1.7594999999999998
0.15267175572519084,3.3587786259541983,-1.984732824427481,0.066650390625,-0.072509765625,-0.61767578125,1.7611999999999999
0.24427480916030533,3.3435114503816794,-2.0610687022900764,0.0654296875,-0.072509765625,-0.604736328125,1.7629
0.4732824427480916,3.3893129770992365,-1.984732824427481,0.07080078125,-0.069091796875,-0.612060546875,1.7646
0.2900763358778626,3.3435114503816794,-1.9694656488549618,0.068603515625,-0.067626953125,-0.60107421875,1.7663
0.366412213740458,3.4198473282442747,-2.1374045801526718,0.066650390625,-0.0693359375,-0.598388671875,1.7679999999999998
0.5190839694656488,3.3740458015267176,-2.213740458015267,0.068603515625,-0.063720703125,-0.60498046875,1.7696999999999998
0.3816793893129771,3.3587786259541983,-1.9083969465648856,0.06494140625,-0.068115234375,-0.6005859375,1.7713999999999999
0.2595419847328244,3.404580152671756,-2.183206106870229,0.072021484375,-0.066650390625,-0.603271484375,1.7731
0.24427480916030533,3.435114503816794,-2.183206106870229,0.072021484375,-0.06689453125,-0.60693359375,1.7748
0.549618320610687,3.435114503816794,-2.198473282442748,0.07275390625,-0.0654296875,-0.60009765625,1.7765
0.366412213740458,3.6030534351145036,-2.045801526717557,0.071533203125,-0.06396484375,-0.60888671875,1.7782
0.5343511450381679,3.4656488549618323,-2.1374045801526718,0.0703125,-0.067138671875,-0.60205078125,1.7798999999999998
0.5801526717557252,3.2977099236641223,-2.045801526717557,0.07080078125,-0.069580078125,-0.6005859375,1.7815999999999999
0.6564885496183206,3.2977099236641223,-2.183206106870229,0.073486328125,-0.070556640625,-0.609130859375,1.7832999999999999
0.6564885496183206,3.435114503816794,-2.0763358778625953,0.075927734375,-0.064697265625,-0.605224609375,1.785
0.7786259541984732,3.435114503816794,-2.0763358778625953,0.0712890625,-0.0703125,-0.6064453125,1.7867
0.7022900763358778,3.3282442748091605,-1.9083969465648856,0.072998046875,-0.068359375,-0.601806640625,1.7884
0.8091603053435115,3.3740458015267176,-1.984732824427481,0.07080078125,-0.074951171875,-0.603271484375,1.7900999999999998
1.0229007633587786,3.5267175572519083,-2.122137404580153,0.070556640625,-0.067626953125,-0.604736328125,1.7917999999999998
0.9312977099236641,3.648854961832061,-1.8625954198473282,0.072509765625,-0.0673828125,-0.60205078125,1.7934999999999999
0.8244274809160306,3.2519083969465647,-1.7404580152671756,0.067626953125,-0.067138671875,-0.609375,1.7952
1.0381679389312977,3.236641221374046,-1.8473282442748091,0.072509765625,-0.068359375,-0.612060546875,1.7969
1.1145038167938932,3.0839694656488548,-1.8778625954198473,0.072509765625,-0.06884765625,-0.604248046875,1.7986
1.2213740458015268,3.114503816793893,-1.9236641221374047,0.072021484375,-0.067626953125,-0.60009765625,1.8002999999999998
1.1603053435114503,3.068702290076336,-1.8931297709923665,0.06982421875,-0.065673828125,-0.608154296875,1.8019999999999998
