gyrox1,gyroy1,gyroz1,accelx1,accely1,accelz1,Time
-1.6488549618320612,-2.1068702290076335,-2.8702290076335877,-0.429443359375,-0.0048828125,-0.30126953125,0.0
-1.7251908396946565,-2.122137404580153,-3.099236641221374,-0.4248046875,-0.007080078125,-0.291015625,0.0017
-1.7404580152671756,-2.183206106870229,-3.1908396946564888,-0.42236328125,-0.00439453125,-0.295654296875,0.0034
-1.8778625954198473,-2.3206106870229006,-3.2213740458015265,-0.425048828125,-0.007080078125,-0.2998046875,0.0050999999999999995
-2.16793893129771,-2.2442748091603053,-3.053435114503817,-0.425048828125,-0.007080078125,-0.304931640625,0.0068
-2.1374045801526718,-2.2748091603053435,-3.2061068702290076,-0.426025390625,-0.0078125,-0.3017578125,0.008499999999999999
-2.1374045801526718,-2.33587786259542,-3.1603053435114505,-0.427734375,-0.005615234375,-0.301513671875,0.010199999999999999
-2.2595419847328246,-2.1526717557251906,-3.2061068702290076,-0.428466796875,-0.0078125,-0.302001953125,0.011899999999999999
-2.3969465648854964,-2.030534351145038,-2.9923664122137406,-0.431884765625,-0.008544921875,-0.302490234375,0.0136
-2.4732824427480917,-1.8778625954198473,-3.236641221374046,-0.430908203125,-0.012451171875,-0.30029296875,0.0153
-2.519083969465649,-1.9083969465648856,-3.2213740458015265,-0.426025390625,-0.001953125,-0.306640625,0.016999999999999998
-2.519083969465649,-1.7099236641221374,-3.282442748091603,-0.429931640625,-0.00244140625,-0.31201171875,0.018699999999999998
-2.4732824427480917,-1.7404580152671756,-3.3587786259541983,-0.42724609375,-0.005615234375,-0.296630859375,0.020399999999999998
-2.549618320610687,-1.83206106870229,-3.4198473282442747,-0.42333984375,-0.00439453125,-0.30224609375,0.022099999999999998
-2.9770992366412212,-1.618320610687023,-3.5419847328244276,-0.42236328125,-0.008544921875,-0.311279296875,0.023799999999999998
-2.900763358778626,-1.297709923664122,-3.267175572519084,-0.429443359375,-0.005615234375,-0.307861328125,0.0255
-2.763358778625954,-1.5419847328244274,-3.312977099236641,-0.42529296875,-0.004150390625,-0.3037109375,0.0272
-2.7786259541984735,-1.282442748091603,-3.6946564885496183,-0.4287109375,-0.007080078125,-0.307373046875,0.0289
-3.068702290076336,-0.9770992366412213,-3.6030534351145036,-0.435546875,-0.009765625,-0.30517578125,0.0306
-3.145038167938931,-1.251908396946565,-3.450381679389313,-0.429931640625,-0.00390625,-0.301513671875,0.032299999999999995
-3.053435114503817,-1.1297709923664123,-3.3740458015267176,-0.42822265625,-0.002685546875,-0.296142578125,0.033999999999999996
-3.053435114503817,-1.1450381679389312,-3.618320610687023,-0.4296875,-0.0068359375,-0.30517578125,0.035699999999999996
-3.435114503816794,-1.0076335877862594,-3.480916030534351,-0.4306640625,-0.00927734375,-0.303466796875,0.037399999999999996
-3.236641221374046,-0.9923664122137404,-3.633587786259542,-0.42822265625,-0.007568359375,-0.29736328125,0.039099999999999996
-3.6030534351145036,-0.8549618320610687,-3.648854961832061,-0.422607421875,-0.00341796875,-0.29150390625,0.040799999999999996
-3.7251908396946565,-0.7480916030534351,-3.7557251908396947,-0.426513671875,-0.0078125,-0.308837890625,0.042499999999999996
-3.786259541984733,-0.9923664122137404,-3.5419847328244276,-0.426513671875,-0.004150390625,-0.299072265625,0.044199999999999996
-3.572519083969466,-0.9465648854961832,-3.6946564885496183,-0.425048828125,-0.003173828125,-0.306396484375,0.045899999999999996
-3.5572519083969465,-0.8091603053435115,-3.6946564885496183,-0.428466796875,-0.003173828125,-0.295166015625,0.047599999999999996
-3.816793893129771,-0.6259541984732825,-3.8931297709923665,-0.4267578125,-0.005859375,-0.300048828125,0.0493
-3.9083969465648853,-0.6564885496183206,-3.9236641221374047,-0.42822265625,-0.0068359375,-0.30615234375,0.051
-3.786259541984733,-0.4122137404580153,-3.877862595419847,-0.424560546875,-0.003173828125,-0.306640625,0.0527
-4.015267175572519,-0.2595419847328244,-3.816793893129771,-0.42724609375,-0.00244140625,-0.301025390625,0.0544
-3.8931297709923665,-0.3969465648854962,-4.106870229007634,-0.430419921875,-0.0078125,-0.304443359375,0.0561
-3.9236641221374047,-0.4732824427480916,-4.106870229007634,-0.4287109375,-0.009765625,-0.303466796875,0.0578
-3.8931297709923665,-0.33587786259541985,-4.320610687022901,-0.42138671875,-0.00390625,-0.298095703125,0.0595
-3.9389312977099236,-0.4122137404580153,-4.0458015267175576,-0.42822265625,-0.00244140625,-0.302001953125,0.0612
-3.954198473282443,-0.6106870229007634,-4.198473282442748,-0.42041015625,-0.002685546875,-0.304443359375,0.0629
-4.091603053435114,-0.549618320610687,-4.030534351145038,-0.424560546875,-0.003662109375,-0.31396484375,0.06459999999999999
-3.9236641221374047,-0.4122137404580153,-4.076335877862595,-0.4248046875,-0.003173828125,-0.301513671875,0.0663
-4.320610687022901,-0.732824427480916,-4.244274809160306,-0.427978515625,-0.00146484375,-0.301513671875,0.06799999999999999
-4.1679389312977095,-0.6564885496183206,-4.244274809160306,-0.4208984375,-0.00537109375,-0.301513671875,0.0697
-3.7251908396946565,-0.4122137404580153,-4.1679389312977095,-0.4208984375,0.0,-0.310546875,0.07139999999999999
-3.83206106870229,-0.549618320610687,-4.305343511450381,-0.4208984375,-0.001708984375,-0.2998046875,0.0731
-4.1679389312977095,-0.7633587786259542,-4.076335877862595,-0.425048828125,-0.002685546875,-0.301513671875,0.07479999999999999
-3.7099236641221376,-0.48854961832061067,-4.320610687022901,-0.422119140625,-0.00341796875,-0.30615234375,0.0765
-4.015267175572519,-0.7022900763358778,-4.091603053435114,-0.43017578125,-0.002685546875,-0.305419921875,0.07819999999999999
-4.0458015267175576,-0.4580152671755725,-4.290076335877862,-0.42236328125,-0.00439453125,-0.302978515625,0.0799
-4.229007633587786,-0.5343511450381679,-4.091603053435114,-0.428955078125,-0.001953125,-0.304443359375,0.08159999999999999
-3.9236641221374047,-0.3053435114503817,-4.122137404580153,-0.427978515625,-0.005615234375,-0.29931640625,0.0833
-3.984732824427481,-0.3511450381679389,-3.954198473282443,-0.426513671875,0.002197265625,-0.30517578125,0.08499999999999999
-4.183206106870229,-0.549618320610687,-4.061068702290076,-0.4267578125,-0.002685546875,-0.298828125,0.0867
-4.030534351145038,-0.48854961832061067,-3.8473282442748094,-0.43115234375,0.0,-0.30126953125,0.08839999999999999
-4.106870229007634,-0.3816793893129771,-3.8931297709923665,-0.429931640625,-0.00341796875,-0.304443359375,0.0901
-4.152671755725191,-0.1984732824427481,-3.816793893129771,-0.42431640625,-0.001708984375,-0.311279296875,0.09179999999999999
-4.076335877862595,-0.44274809160305345,-3.8625954198473282,-0.427001953125,-0.004150390625,-0.30615234375,0.0935
-3.969465648854962,-0.183206106870229,-3.969465648854962,-0.429443359375,-0.000732421875,-0.30615234375,0.09519999999999999
-4.015267175572519,-0.4732824427480916,-3.786259541984733,-0.423583984375,-0.00341796875,-0.296875,0.0969
-4.106870229007634,-0.48854961832061067,-3.480916030534351,-0.428466796875,0.000244140625,-0.30029296875,0.0986
-4.122137404580153,-0.44274809160305345,-3.9389312977099236,-0.427001953125,-0.0009765625,-0.304931640625,0.1003
-4.106870229007634,-0.42748091603053434,-3.6946564885496183,-0.4248046875,0.003173828125,-0.305419921875,0.102
-4.0,-0.2900763358778626,-3.8473282442748094,-0.427978515625,-0.00439453125,-0.292724609375,0.1037
-3.877862595419847,-0.16793893129770993,-3.7251908396946565,-0.42822265625,0.001220703125,-0.302978515625,0.1054
-3.816793893129771,-0.16793893129770993,-3.6793893129770994,-0.425537109375,0.001220703125,-0.3056640625,0.1071
-3.6946564885496183,-0.04580152671755725,-3.404580152671756,-0.430419921875,-0.001708984375,-0.304931640625,0.1088
-3.7557251908396947,-0.015267175572519083,-3.7099236641221376,-0.4287109375,0.0009765625,-0.297607421875,0.11049999999999999
-3.816793893129771,-0.183206106870229,-3.6030534351145036,-0.423828125,0.0029296875,-0.297119140625,0.1122
-3.5267175572519083,-0.24427480916030533,-3.648854961832061,-0.427490234375,-0.000732421875,-0.306640625,0.11389999999999999
-3.5572519083969465,0.030534351145038167,-3.3435114503816794,-0.428466796875,0.005615234375,-0.30126953125,0.1156
-3.618320610687023,0.22900763358778625,-3.5572519083969465,-0.431884765625,0.0029296875,-0.305908203125,0.11729999999999999
-3.3282442748091605,0.22900763358778625,-3.5114503816793894,-0.42822265625,-0.002197265625,-0.304443359375,0.119
-3.2519083969465647,0.3511450381679389,-3.5114503816793894,-0.4287109375,-0.003662109375,-0.297119140625,0.12069999999999999
-3.5572519083969465,0.5343511450381679,-3.282442748091603,-0.42724609375,-0.002197265625,-0.296630859375,0.1224
-3.49618320610687,0.5648854961832062,-3.1603053435114505,-0.4267578125,-0.000244140625,-0.29833984375,0.12409999999999999
-3.0381679389312977,0.5801526717557252,-3.3740458015267176,-0.4287109375,0.004638671875,-0.302001953125,0.1258
-3.1297709923664123,0.6259541984732825,-3.2519083969465647,-0.4326171875,0.00146484375,-0.30078125,0.1275
-3.2519083969465647,0.5954198473282443,-3.1603053435114505,-0.43017578125,-0.002197265625,-0.303955078125,0.12919999999999998
-3.053435114503817,0.6106870229007634,-3.267175572519084,-0.428955078125,0.000732421875,-0.3017578125,0.1309
-3.0381679389312977,0.732824427480916,-2.9618320610687023,-0.434814453125,-0.001953125,-0.30859375,0.1326
-2.885496183206107,0.8244274809160306,-3.099236641221374,-0.42822265625,-0.0009765625,-0.30078125,0.1343
-2.732824427480916,0.9618320610687023,-2.9923664122137406,-0.42919921875,-0.00048828125,-0.3115234375,0.13599999999999998
-2.946564885496183,0.9618320610687023,-3.053435114503817,-0.42578125,-0.003662109375,-0.301025390625,0.1377
-2.7938931297709924,1.0534351145038168,-3.1755725190839694,-0.4287109375,0.0,-0.299072265625,0.1394
-2.595419847328244,0.9770992366412213,-3.053435114503817,-0.432861328125,-0.002197265625,-0.301025390625,0.1411
-2.7786259541984735,1.0381679389312977,-2.9770992366412212,-0.428955078125,-0.003662109375,-0.29638671875,0.14279999999999998
-2.6412213740458017,1.099236641221374,-2.9923664122137406,-0.428955078125,0.002685546875,-0.295166015625,0.1445
-2.7480916030534353,1.251908396946565,-2.717557251908397,-0.4296875,0.004638671875,-0.298828125,0.1462
-2.5343511450381677,1.2061068702290076,-3.0229007633587788,-0.426025390625,-0.004638671875,-0.313232421875,0.1479
-2.6106870229007635,1.3282442748091603,-2.6564885496183206,-0.426513671875,0.000732421875,-0.293701171875,0.14959999999999998
-2.4885496183206106,1.3129770992366412,-2.732824427480916,-0.427734375,-0.002197265625,-0.30419921875,0.1513
-2.5343511450381677,1.3893129770992367,-2.549618320610687,-0.427978515625,-0.002685546875,-0.302978515625,0.153
-2.8396946564885495,1.282442748091603,-2.6412213740458017,-0.4306640625,-0.00048828125,-0.30615234375,0.1547
-2.763358778625954,1.282442748091603,-2.564885496183206,-0.42626953125,-0.007080078125,-0.302490234375,0.15639999999999998
-2.763358778625954,1.3282442748091603,-2.519083969465649,-0.428466796875,-0.00146484375,-0.302001953125,0.1581
-2.732824427480916,1.2213740458015268,-2.2595419847328246,-0.423583984375,-0.002685546875,-0.2958984375,0.1598
-3.0839694656488548,0.9770992366412213,-2.33587786259542,-0.42138671875,-0.008056640625,-0.298095703125,0.1615
-3.053435114503817,0.9770992366412213,-2.4580152671755724,-0.421630859375,-0.00634765625,-0.296142578125,0.16319999999999998
-3.2519083969465647,1.1908396946564885,-2.519083969465649,-0.4306640625,-0.003662109375,-0.297119140625,0.1649
-3.099236641221374,1.1145038167938932,-2.2900763358778624,-0.428955078125,-0.00830078125,-0.297607421875,0.1666
-3.0229007633587788,0.9618320610687023,-2.519083969465649,-0.430908203125,-0.00732421875,-0.29541015625,0.16829999999999998
-3.1908396946564888,1.2213740458015268,-2.1068702290076335,-0.425537109375,-0.001953125,-0.296875,0.16999999999999998
-3.5267175572519083,1.1145038167938932,-2.030534351145038,-0.4287109375,-0.003662109375,-0.301025390625,0.1717
-3.66412213740458,1.1908396946564885,-2.030534351145038,-0.4326171875,-0.002197265625,-0.303955078125,0.1734
-3.404580152671756,1.099236641221374,-2.213740458015267,-0.427978515625,-0.000732421875,-0.304931640625,0.17509999999999998
-3.7099236641221376,1.297709923664122,-1.7404580152671756,-0.433837890625,-0.00341796875,-0.309326171875,0.17679999999999998
-3.648854961832061,1.5114503816793894,-1.7404580152671756,-0.436767578125,-0.00634765625,-0.30126953125,0.1785
-3.6030534351145036,1.816793893129771,-1.7251908396946565,-0.43310546875,-0.005859375,-0.3056640625,0.1802
-3.648854961832061,1.7099236641221374,-1.7251908396946565,-0.4306640625,-0.001220703125,-0.303955078125,0.18189999999999998
-3.618320610687023,1.83206106870229,-1.5114503816793894,-0.42724609375,-0.00048828125,-0.30517578125,0.18359999999999999
-3.8625954198473282,2.1374045801526718,-1.5114503816793894,-0.427734375,-0.00048828125,-0.306640625,0.1853
-3.9389312977099236,2.381679389312977,-1.450381679389313,-0.43408203125,-0.006591796875,-0.305419921875,0.187
-3.9083969465648853,2.2748091603053435,-1.3893129770992367,-0.423583984375,-0.00927734375,-0.296875,0.18869999999999998
-4.015267175572519,2.2442748091603053,-1.2213740458015268,-0.425048828125,-0.003662109375,-0.30224609375,0.19039999999999999
-4.290076335877862,2.366412213740458,-1.3129770992366412,-0.428466796875,-0.00146484375,-0.297607421875,0.1921
-4.320610687022901,2.4427480916030535,-1.1450381679389312,-0.42529296875,0.000244140625,-0.307373046875,0.1938
-4.106870229007634,2.5343511450381677,-1.3129770992366412,-0.429443359375,-0.004150390625,-0.300048828125,0.19549999999999998
-4.061068702290076,2.50381679389313,-1.1908396946564885,-0.42626953125,-0.00390625,-0.30712890625,0.1972
-4.106870229007634,2.5343511450381677,-1.282442748091603,-0.42529296875,-0.0009765625,-0.312255859375,0.1989
-4.442748091603053,2.381679389312977,-1.1908396946564885,-0.428955078125,-0.007080078125,-0.302978515625,0.2006
-4.351145038167939,2.5343511450381677,-1.2213740458015268,-0.426025390625,-0.006591796875,-0.310546875,0.20229999999999998
-4.427480916030534,2.381679389312977,-1.1908396946564885,-0.428466796875,-0.003662109375,-0.31005859375,0.204
-4.366412213740458,2.549618320610687,-0.9923664122137404,-0.419921875,-0.002685546875,-0.308837890625,0.2057
-4.320610687022901,2.5801526717557253,-1.0229007633587786,-0.42333984375,-0.00341796875,-0.302978515625,0.2074
-4.259541984732825,2.564885496183206,-1.2213740458015268,-0.433349609375,-0.00341796875,-0.303466796875,0.20909999999999998
-4.366412213740458,2.931297709923664,-0.9312977099236641,-0.422119140625,0.0,-0.30419921875,0.2108
-4.748091603053435,2.9770992366412212,-0.8854961832061069,-0.427978515625,0.00341796875,-0.30859375,0.2125
-4.458015267175573,2.9618320610687023,-1.083969465648855,-0.422607421875,0.004150390625,-0.304931640625,0.2142
-4.473282442748092,3.282442748091603,-1.083969465648855,-0.4248046875,-0.0068359375,-0.302001953125,0.21589999999999998
-4.580152671755725,3.267175572519084,-0.9007633587786259,-0.428466796875,-0.00341796875,-0.307373046875,0.2176
-4.534351145038168,3.2061068702290076,-0.9312977099236641,-0.4326171875,-0.00439453125,-0.298828125,0.2193
-4.442748091603053,3.2061068702290076,-0.8702290076335878,-0.423095703125,-0.001220703125,-0.31201171875,0.22099999999999997
-4.458015267175573,3.3740458015267176,-0.7633587786259542,-0.42431640625,0.001708984375,-0.302978515625,0.22269999999999998
-4.625954198473282,3.3893129770992365,-0.8396946564885496,-0.427490234375,0.0029296875,-0.301513671875,0.2244
-4.519083969465649,3.267175572519084,-0.8091603053435115,-0.428466796875,0.00390625,-0.302001953125,0.2261
-4.6106870229007635,3.3435114503816794,-0.5648854961832062,-0.42626953125,-0.002197265625,-0.301025390625,0.22779999999999997
-4.656488549618321,3.648854961832061,-0.6870229007633588,-0.42822265625,0.002685546875,-0.3046875,0.22949999999999998
-4.732824427480916,3.5419847328244276,-0.732824427480916,-0.423095703125,-0.0009765625,-0.30322265625,0.2312
-4.534351145038168,3.49618320610687,-0.6106870229007634,-0.422607421875,0.00244140625,-0.299560546875,0.2329
-4.702290076335878,3.5267175572519083,-0.6412213740458015,-0.427490234375,0.001220703125,-0.3095703125,0.23459999999999998
-4.549618320610687,3.648854961832061,-0.7175572519083969,-0.42822265625,-0.000244140625,-0.312744140625,0.23629999999999998
-4.717557251908397,3.6030534351145036,-0.6717557251908397,-0.427490234375,0.00244140625,-0.3056640625,0.238
-4.763358778625954,3.83206106870229,-0.5801526717557252,-0.428466796875,0.00146484375,-0.308349609375,0.2397
-4.763358778625954,3.7709923664122136,-0.549618320610687,-0.424072265625,0.0029296875,-0.308349609375,0.24139999999999998
-4.778625954198473,3.8625954198473282,-0.4732824427480916,-0.425537109375,0.007080078125,-0.30078125,0.24309999999999998
-4.702290076335878,3.8625954198473282,-0.4580152671755725,-0.41845703125,0.0009765625,-0.303466796875,0.2448
-4.793893129770993,4.030534351145038,-0.44274809160305345,-0.423095703125,0.0029296875,-0.30517578125,0.2465
-4.8396946564885495,4.122137404580153,-0.6717557251908397,-0.4248046875,0.004150390625,-0.306884765625,0.24819999999999998
-4.854961832061068,4.076335877862595,-0.48854961832061067,-0.4189453125,0.0,-0.3017578125,0.24989999999999998
-4.931297709923665,4.137404580152672,-0.4580152671755725,-0.4169921875,0.00634765625,-0.303955078125,0.2516
-4.778625954198473,4.152671755725191,-0.42748091603053434,-0.419189453125,0.00146484375,-0.302490234375,0.25329999999999997
-4.885496183206107,4.320610687022901,-0.4732824427480916,-0.416015625,0.000732421875,-0.30615234375,0.255
-4.732824427480916,4.534351145038168,-0.44274809160305345,-0.419921875,-0.000244140625,-0.296875,0.2567
-4.854961832061068,4.351145038167939,-0.5190839694656488,-0.41650390625,-0.0029296875,-0.2998046875,0.25839999999999996
-4.961832061068702,4.2748091603053435,-0.2595419847328244,-0.416259765625,-0.00048828125,-0.303466796875,0.2601
-5.022900763358779,4.259541984732825,-0.3511450381679389,-0.418701171875,0.006591796875,-0.309326171875,0.2618
-5.145038167938932,4.458015267175573,-0.183206106870229,-0.41796875,0.004150390625,-0.30908203125,0.2635
-5.236641221374046,4.488549618320611,-0.33587786259541985,-0.412353515625,0.000244140625,-0.310302734375,0.2652
-5.267175572519084,4.198473282442748,-0.16793893129770993,-0.4072265625,0.0029296875,-0.298828125,0.26689999999999997
-5.190839694656488,4.061068702290076,-0.15267175572519084,-0.413330078125,0.004150390625,-0.2998046875,0.2686
-5.221374045801527,3.954198473282443,-0.1984732824427481,-0.41552734375,0.004638671875,-0.3037109375,0.2703
-4.854961832061068,3.8473282442748094,-0.6717557251908397,-0.418701171875,-0.001708984375,-0.30419921875,0.27199999999999996
-5.129770992366412,3.9236641221374047,-0.7022900763358778,-0.416015625,0.003173828125,-0.30810546875,0.2737
-5.511450381679389,3.9236641221374047,-0.6717557251908397,-0.414794921875,0.0048828125,-0.305419921875,0.2754
-5.190839694656488,3.83206106870229,-0.6412213740458015,-0.414794921875,0.00341796875,-0.299560546875,0.27709999999999996
-5.038167938931298,4.0458015267175576,-0.8091603053435115,-0.413818359375,0.00537109375,-0.306640625,0.2788
-5.267175572519084,3.877862595419847,-0.8702290076335878,-0.417236328125,0.0029296875,-0.308349609375,0.28049999999999997
-5.236641221374046,4.076335877862595,-1.099236641221374,-0.420166015625,0.00830078125,-0.308837890625,0.2822
-5.251908396946565,4.0458015267175576,-1.0534351145038168,-0.42041015625,0.006591796875,-0.300537109375,0.2839
-5.083969465648855,4.152671755725191,-1.251908396946565,-0.42236328125,0.005859375,-0.306640625,0.28559999999999997
-4.9465648854961835,4.320610687022901,-1.3893129770992367,-0.41796875,0.00341796875,-0.302490234375,0.2873
-5.206106870229007,4.198473282442748,-1.6793893129770991,-0.41552734375,0.007568359375,-0.31005859375,0.289
-5.221374045801527,4.152671755725191,-1.7251908396946565,-0.42138671875,0.0048828125,-0.30712890625,0.29069999999999996
-5.114503816793893,4.473282442748092,-2.0763358778625953,-0.418212890625,0.002685546875,-0.304443359375,0.2924
-4.9465648854961835,4.5038167938931295,-1.9389312977099236,-0.422607421875,0.003662109375,-0.313720703125,0.2941
-5.083969465648855,4.564885496183206,-2.1526717557251906,-0.4248046875,0.003662109375,-0.3115234375,0.2958
-4.885496183206107,5.0534351145038165,-2.0610687022900764,-0.42724609375,0.00341796875,-0.314453125,0.2975
-5.0534351145038165,4.99236641221374,-2.33587786259542,-0.428466796875,0.010498046875,-0.31298828125,0.29919999999999997
-4.870229007633588,5.236641221374046,-2.549618320610687,-0.422119140625,0.009033203125,-0.314208984375,0.3009
-4.793893129770993,5.511450381679389,-2.7938931297709924,-0.42578125,0.006103515625,-0.31640625,0.3026
-4.824427480916031,5.648854961832061,-2.885496183206107,-0.422607421875,0.00830078125,-0.31103515625,0.30429999999999996
-4.885496183206107,5.694656488549619,-2.9618320610687023,-0.42333984375,0.00439453125,-0.3046875,0.306
-4.748091603053435,5.694656488549619,-3.145038167938931,-0.42724609375,0.002197265625,-0.313720703125,0.3077
-4.824427480916031,5.679389312977099,-3.4198473282442747,-0.42724609375,0.004638671875,-0.30712890625,0.3094
-4.8396946564885495,5.572519083969466,-3.3740458015267176,-0.4248046875,0.0048828125,-0.30859375,0.3111
-4.809160305343512,5.557251908396947,-3.6793893129770994,-0.419921875,0.000732421875,-0.306640625,0.31279999999999997
-4.473282442748092,5.557251908396947,-3.3587786259541983,-0.420654296875,0.0029296875,-0.310546875,0.3145
-4.580152671755725,5.480916030534351,-3.6946564885496183,-0.426025390625,0.00341796875,-0.308837890625,0.3162
-4.656488549618321,5.480916030534351,-3.618320610687023,-0.419921875,0.009033203125,-0.31005859375,0.31789999999999996
-4.473282442748092,5.755725190839694,-3.7709923664122136,-0.420166015625,0.0078125,-0.30712890625,0.3196
-4.564885496183206,5.541984732824427,-3.7557251908396947,-0.423828125,0.00537109375,-0.3037109375,0.3213
-4.67175572519084,5.297709923664122,-3.9389312977099236,-0.42138671875,0.008056640625,-0.3173828125,0.323
-4.641221374045801,5.206106870229007,-4.1679389312977095,-0.42236328125,0.005126953125,-0.315673828125,0.3247
-4.534351145038168,5.1603053435114505,-4.0458015267175576,-0.419189453125,0.006591796875,-0.304443359375,0.32639999999999997
-4.778625954198473,5.221374045801527,-4.137404580152672,-0.419189453125,0.005126953125,-0.314697265625,0.3281
-4.641221374045801,4.8396946564885495,-4.442748091603053,-0.41845703125,0.004150390625,-0.311279296875,0.3298
-4.351145038167939,4.931297709923665,-4.2748091603053435,-0.419189453125,0.0068359375,-0.30712890625,0.33149999999999996
-4.625954198473282,4.641221374045801,-4.549618320610687,-0.418212890625,0.007080078125,-0.309814453125,0.3332
-4.427480916030534,4.67175572519084,-4.580152671755725,-0.415771484375,0.001220703125,-0.307373046875,0.3349
-4.488549618320611,4.580152671755725,-4.748091603053435,-0.41748046875,0.006103515625,-0.30615234375,0.33659999999999995
-4.427480916030534,4.366412213740458,-4.519083969465649,-0.412353515625,0.0029296875,-0.312255859375,0.3383
-4.656488549618321,3.9236641221374047,-4.702290076335878,-0.413330078125,0.00244140625,-0.3115234375,0.33999999999999997
-4.702290076335878,3.9389312977099236,-4.702290076335878,-0.413818359375,0.006591796875,-0.313720703125,0.3417
-4.625954198473282,3.9083969465648853,-5.0534351145038165,-0.410888671875,0.006591796875,-0.309326171875,0.3434
-4.458015267175573,3.5267175572519083,-5.022900763358779,-0.416748046875,0.00732421875,-0.315185546875,0.34509999999999996
-4.290076335877862,3.5267175572519083,-5.00763358778626,-0.413818359375,0.00537109375,-0.309326171875,0.3468
-4.290076335877862,3.480916030534351,-5.145038167938932,-0.4150390625,0.0068359375,-0.309814453125,0.3485
-4.5038167938931295,3.3587786259541983,-5.282442748091603,-0.4140625,0.00439453125,-0.31201171875,0.35019999999999996
-4.519083969465649,3.2977099236641223,-5.1603053435114505,-0.41357421875,0.00830078125,-0.31396484375,0.3519
-4.305343511450381,3.0229007633587788,-5.3893129770992365,-0.414794921875,0.008056640625,-0.30859375,0.35359999999999997
-4.305343511450381,2.854961832061069,-5.099236641221374,-0.410888671875,0.00439453125,-0.312255859375,0.3553
-4.305343511450381,2.5801526717557253,-5.374045801526718,-0.41162109375,0.006591796875,-0.3095703125,0.357
-4.366412213740458,2.595419847328244,-5.450381679389313,-0.417236328125,0.007080078125,-0.308349609375,0.35869999999999996
-4.290076335877862,2.213740458015267,-5.709923664122138,-0.41162109375,0.006103515625,-0.308837890625,0.3604
-4.244274809160306,2.213740458015267,-5.587786259541985,-0.41162109375,0.008056640625,-0.311279296875,0.3621
-4.3816793893129775,2.16793893129771,-5.587786259541985,-0.4111328125,0.00439453125,-0.311767578125,0.36379999999999996
-3.954198473282443,2.0763358778625953,-5.3893129770992365,-0.41455078125,0.01171875,-0.30712890625,0.3655
-4.213740458015267,1.8625954198473282,-5.465648854961832,-0.41650390625,0.00634765625,-0.31396484375,0.36719999999999997
-4.0458015267175576,1.8778625954198473,-5.3893129770992365,-0.4189453125,0.00927734375,-0.3095703125,0.3689
-3.969465648854962,1.9541984732824427,-5.374045801526718,-0.41748046875,0.01318359375,-0.3115234375,0.3706
-3.954198473282443,1.8931297709923665,-5.358778625954199,-0.41943359375,0.01123046875,-0.308349609375,0.37229999999999996
-3.8625954198473282,1.8931297709923665,-5.404580152671755,-0.41796875,0.008056640625,-0.30126953125,0.374
-3.8931297709923665,1.8778625954198473,-5.206106870229007,-0.412841796875,0.010986328125,-0.30859375,0.3757
-3.6793893129770994,1.9694656488549618,-5.236641221374046,-0.422119140625,0.009521484375,-0.311279296875,0.37739999999999996
-3.7709923664122136,2.0,-5.190839694656488,-0.422119140625,0.018798828125,-0.306884765625,0.3791
-3.5419847328244276,1.9694656488549618,-5.3893129770992365,-0.425048828125,0.011962890625,-0.3125,0.38079999999999997
-3.312977099236641,2.1068702290076335,-5.099236641221374,-0.420654296875,0.00732421875,-0.30517578125,0.38249999999999995
-3.3282442748091605,2.1374045801526718,-5.068702290076335,-0.418701171875,0.009033203125,-0.307373046875,0.3842
-3.3282442748091605,2.1068702290076335,-4.99236641221374,-0.4189453125,0.007080078125,-0.308837890625,0.38589999999999997
-2.931297709923664,1.984732824427481,-5.038167938931298,-0.419189453125,0.012451171875,-0.3115234375,0.3876
-2.854961832061069,2.122137404580153,-4.748091603053435,-0.417724609375,0.008056640625,-0.315673828125,0.3893
-2.900763358778626,2.0763358778625953,-5.0534351145038165,-0.42041015625,0.011962890625,-0.30908203125,0.39099999999999996
-2.8244274809160306,2.0763358778625953,-4.9465648854961835,-0.41845703125,0.00927734375,-0.310302734375,0.3927
-2.6564885496183206,2.045801526717557,-4.961832061068702,-0.421875,0.005859375,-0.309814453125,0.3944
-2.2748091603053435,2.0,-4.748091603053435,-0.4228515625,0.01220703125,-0.311767578125,0.39609999999999995
-2.2290076335877864,2.0,-4.656488549618321,-0.421630859375,0.012939453125,-0.304443359375,0.3978
-2.122137404580153,1.9389312977099236,-4.564885496183206,-0.4208984375,0.00830078125,-0.310791015625,0.39949999999999997
-1.9236641221374047,2.0610687022900764,-4.564885496183206,-0.424072265625,0.009033203125,-0.307373046875,0.4012
-2.045801526717557,2.1374045801526718,-4.427480916030534,-0.4169921875,0.010986328125,-0.312255859375,0.4029
-1.6641221374045803,2.0916030534351147,-4.595419847328245,-0.421630859375,0.01318359375,-0.3134765625,0.40459999999999996
-1.5877862595419847,1.9389312977099236,-4.396946564885496,-0.419189453125,0.01171875,-0.30615234375,0.4063
-1.450381679389313,1.9389312977099236,-4.351145038167939,-0.424072265625,0.014892578125,-0.30126953125,0.408
-1.2671755725190839,2.030534351145038,-4.213740458015267,-0.42236328125,0.010009765625,-0.31884765625,0.40969999999999995
-1.1450381679389312,1.984732824427481,-4.244274809160306,-0.422607421875,0.008544921875,-0.309326171875,0.4114
-1.1755725190839694,2.030534351145038,-4.0458015267175576,-0.42138671875,0.01123046875,-0.3056640625,0.41309999999999997
-0.8091603053435115,2.0916030534351147,-3.969465648854962,-0.42138671875,0.014892578125,-0.311279296875,0.4148
-0.5038167938931297,2.0763358778625953,-3.8931297709923665,-0.41943359375,0.01708984375,-0.311767578125,0.4165
-0.42748091603053434,2.2595419847328246,-3.969465648854962,-0.42919921875,0.009765625,-0.307373046875,0.41819999999999996
-0.5801526717557252,2.1374045801526718,-3.786259541984733,-0.4248046875,0.0146484375,-0.31689453125,0.4199
-0.32061068702290074,2.045801526717557,-3.786259541984733,-0.424560546875,0.004638671875,-0.314208984375,0.4216
-0.0916030534351145,2.198473282442748,-3.66412213740458,-0.423583984375,0.013671875,-0.311767578125,0.42329999999999995
-0.0916030534351145,2.0763358778625953,-3.5419847328244276,-0.41748046875,0.011962890625,-0.3154296875,0.425
0.32061068702290074,2.2290076335877864,-3.5267175572519083,-0.41943359375,0.009521484375,-0.312744140625,0.42669999999999997
0.366412213740458,2.213740458015267,-3.3740458015267176,-0.4228515625,0.012451171875,-0.30859375,0.4284
0.33587786259541985,2.213740458015267,-3.2213740458015265,-0.42578125,0.01171875,-0.30859375,0.4301
0.5954198473282443,2.1068702290076335,-3.236641221374046,-0.423583984375,0.0107421875,-0.308837890625,0.43179999999999996
0.5343511450381679,2.183206106870229,-3.099236641221374,-0.420166015625,0.010498046875,-0.311279296875,0.4335
0.6106870229007634,2.198473282442748,-3.0381679389312977,-0.416015625,0.01171875,-0.31103515625,0.4352
0.916030534351145,2.2748091603053435,-3.0229007633587788,-0.4189453125,0.013916015625,-0.3056640625,0.43689999999999996
0.9923664122137404,2.4580152671755724,-3.068702290076336,-0.421142578125,0.009033203125,-0.314697265625,0.4386
0.9923664122137404,2.3053435114503817,-3.0076335877862594,-0.423583984375,0.012451171875,-0.30712890625,0.44029999999999997
1.2061068702290076,2.4122137404580153,-2.931297709923664,-0.419677734375,0.011962890625,-0.311279296875,0.44199999999999995
1.5725190839694656,2.519083969465649,-2.732824427480916,-0.4267578125,0.0087890625,-0.3154296875,0.4437
1.5419847328244274,2.33587786259542,-3.0381679389312977,-0.420166015625,0.01123046875,-0.3115234375,0.44539999999999996
1.4809160305343512,2.687022900763359,-2.427480916030534,-0.42333984375,0.00927734375,-0.309814453125,0.4471
1.8778625954198473,2.6717557251908395,-2.7022900763358777,-0.421142578125,0.01123046875,-0.31201171875,0.4488
1.8473282442748091,2.7786259541984735,-2.732824427480916,-0.41845703125,0.010009765625,-0.30615234375,0.45049999999999996
2.1068702290076335,2.6259541984732824,-2.4885496183206106,-0.428466796875,0.009765625,-0.30126953125,0.4522
2.0610687022900764,2.687022900763359,-2.519083969465649,-0.425537109375,0.006591796875,-0.30615234375,0.45389999999999997
2.16793893129771,2.900763358778626,-2.4885496183206106,-0.420654296875,0.0107421875,-0.305419921875,0.45559999999999995
2.2900763358778624,2.9618320610687023,-2.3969465648854964,-0.42041015625,0.009521484375,-0.301025390625,0.4573
2.5343511450381677,3.0076335877862594,-2.549618320610687,-0.4140625,0.008056640625,-0.309814453125,0.45899999999999996
2.7938931297709924,2.7938931297709924,-2.732824427480916,-0.4208984375,0.0126953125,-0.31201171875,0.4607
2.900763358778626,2.946564885496183,-2.427480916030534,-0.41650390625,0.01611328125,-0.309814453125,0.4624
2.8396946564885495,2.900763358778626,-2.549618320610687,-0.41650390625,0.009765625,-0.30615234375,0.46409999999999996
2.9923664122137406,3.068702290076336,-2.50381679389313,-0.419677734375,0.00732421875,-0.306396484375,0.4658
3.267175572519084,2.885496183206107,-2.6564885496183206,-0.428466796875,0.008056640625,-0.313720703125,0.46749999999999997
3.435114503816794,2.717557251908397,-2.7022900763358777,-0.4189453125,0.00927734375,-0.318115234375,0.46919999999999995
3.3282442748091605,2.8244274809160306,-2.6106870229007635,-0.421142578125,0.00439453125,-0.311767578125,0.4709
3.5419847328244276,2.7022900763358777,-2.2595419847328246,-0.42041015625,0.006591796875,-0.302490234375,0.47259999999999996
3.49618320610687,2.50381679389313,-2.427480916030534,-0.4208984375,0.0068359375,-0.30078125,0.4743
3.633587786259542,2.549618320610687,-2.50381679389313,-0.4189453125,0.0029296875,-0.309814453125,0.476
3.8473282442748094,2.50381679389313,-2.519083969465649,-0.41845703125,0.0048828125,-0.311279296875,0.47769999999999996
3.8625954198473282,2.3053435114503817,-2.3969465648854964,-0.421142578125,0.000732421875,-0.30615234375,0.4794
3.8625954198473282,2.3053435114503817,-2.4885496183206106,-0.423583984375,0.004638671875,-0.3056640625,0.48109999999999997
4.076335877862595,2.2290076335877864,-2.6412213740458017,-0.42236328125,0.00244140625,-0.311767578125,0.48279999999999995
4.137404580152672,2.1374045801526718,-2.7786259541984735,-0.4248046875,0.001220703125,-0.306884765625,0.4845
3.9236641221374047,2.2900763358778624,-2.6259541984732824,-0.416748046875,0.00244140625,-0.31005859375,0.48619999999999997
4.213740458015267,2.213740458015267,-2.8091603053435112,-0.417724609375,0.00830078125,-0.314453125,0.4879
4.351145038167939,2.16793893129771,-2.6106870229007635,-0.415771484375,0.004638671875,-0.314697265625,0.4896
4.305343511450381,2.0610687022900764,-2.549618320610687,-0.424072265625,-0.000732421875,-0.317626953125,0.49129999999999996
4.320610687022901,1.984732824427481,-2.6412213740458017,-0.4208984375,-0.001220703125,-0.309326171875,0.493
4.320610687022901,1.8931297709923665,-2.8396946564885495,-0.41845703125,0.006591796875,-0.311767578125,0.4947
4.366412213740458,1.9083969465648856,-2.687022900763359,-0.423583984375,0.00537109375,-0.3125,0.49639999999999995
4.473282442748092,1.6793893129770991,-2.763358778625954,-0.419921875,0.001708984375,-0.3154296875,0.4981
4.33587786259542,1.5572519083969465,-2.6106870229007635,-0.4189453125,0.0,-0.30810546875,0.49979999999999997
4.2748091603053435,1.2671755725190839,-2.595419847328244,-0.416259765625,-0.00048828125,-0.309814453125,0.5015
4.366412213740458,1.3893129770992367,-2.519083969465649,-0.41796875,0.001708984375,-0.3076171875,0.5032
4.244274809160306,1.3893129770992367,-2.931297709923664,-0.425048828125,-0.00390625,-0.30322265625,0.5049
4.351145038167939,1.099236641221374,-2.717557251908397,-0.42138671875,-0.0009765625,-0.30810546875,0.5065999999999999
4.366412213740458,1.0076335877862594,-2.687022900763359,-0.42919921875,-0.000732421875,-0.298095703125,0.5083
4.259541984732825,1.0687022900763359,-2.763358778625954,-0.423828125,-0.001708984375,-0.303955078125,0.51
4.183206106870229,1.1297709923664123,-3.053435114503817,-0.41748046875,0.002197265625,-0.308349609375,0.5116999999999999
4.183206106870229,1.083969465648855,-2.732824427480916,-0.425537109375,-0.001220703125,-0.314208984375,0.5134
4.076335877862595,1.0534351145038168,-2.6717557251908395,-0.423095703125,-0.0068359375,-0.311279296875,0.5151
4.0458015267175576,1.0076335877862594,-2.8091603053435112,-0.425537109375,0.001220703125,-0.309326171875,0.5167999999999999
3.954198473282443,1.0381679389312977,-2.900763358778626,-0.422119140625,-0.0009765625,-0.309326171875,0.5185
4.091603053435114,0.9465648854961832,-2.427480916030534,-0.42041015625,-0.002685546875,-0.309814453125,0.5202
3.9236641221374047,0.8702290076335878,-2.9923664122137406,-0.425537109375,-0.010986328125,-0.312255859375,0.5218999999999999
3.7557251908396947,0.916030534351145,-2.900763358778626,-0.42041015625,-0.0029296875,-0.314208984375,0.5236
3.816793893129771,0.8396946564885496,-2.763358778625954,-0.419921875,-0.003662109375,-0.3095703125,0.5253
3.801526717557252,0.7022900763358778,-2.885496183206107,-0.42333984375,-0.006591796875,-0.308349609375,0.527
3.786259541984733,0.732824427480916,-2.854961832061069,-0.4287109375,-0.00830078125,-0.307861328125,0.5287
3.7251908396946565,0.732824427480916,-2.8396946564885495,-0.423828125,-0.002685546875,-0.30126953125,0.5304
3.8931297709923665,0.9618320610687023,-3.053435114503817,-0.423095703125,-0.009521484375,-0.31103515625,0.5321
3.7251908396946565,1.083969465648855,-2.9618320610687023,-0.423583984375,-0.006103515625,-0.31494140625,0.5337999999999999
3.3435114503816794,1.3740458015267176,-3.0229007633587788,-0.430419921875,0.0,-0.3095703125,0.5355
3.5877862595419847,1.2061068702290076,-2.9923664122137406,-0.429443359375,0.000244140625,-0.311279296875,0.5372
3.3587786259541983,1.297709923664122,-3.267175572519084,-0.432861328125,-0.00244140625,-0.31884765625,0.5388999999999999
3.2061068702290076,1.2671755725190839,-3.1297709923664123,-0.43408203125,-0.0048828125,-0.30859375,0.5406
3.3893129770992365,1.5114503816793894,-3.145038167938931,-0.431640625,-0.010986328125,-0.314697265625,0.5423
3.1755725190839694,1.7709923664122138,-3.236641221374046,-0.429931640625,-0.009765625,-0.309814453125,0.5439999999999999
3.053435114503817,1.8931297709923665,-3.2977099236641223,-0.43505859375,-0.00927734375,-0.31396484375,0.5457
2.885496183206107,1.9694656488549618,-3.2519083969465647,-0.439208984375,-0.011962890625,-0.316162109375,0.5474
2.9618320610687023,1.984732824427481,-3.3587786259541983,-0.439453125,-0.0146484375,-0.319091796875,0.5490999999999999
2.5801526717557253,2.0763358778625953,-3.480916030534351,-0.435302734375,-0.007568359375,-0.314697265625,0.5508
2.3053435114503817,2.3053435114503817,-3.4656488549618323,-0.438720703125,-0.009765625,-0.3134765625,0.5525
2.0,2.213740458015267,-3.3893129770992365,-0.438720703125,-0.0078125,-0.31494140625,0.5541999999999999
2.0610687022900764,2.4885496183206106,-3.5114503816793894,-0.441162109375,-0.01025390625,-0.33154296875,0.5559
1.984732824427481,2.763358778625954,-3.480916030534351,-0.4443359375,-0.015869140625,-0.315185546875,0.5576
1.8015267175572518,3.0076335877862594,-3.618320610687023,-0.443603515625,-0.01171875,-0.31640625,0.5593
1.6488549618320612,3.3282442748091605,-3.816793893129771,-0.44287109375,-0.011962890625,-0.303955078125,0.5609999999999999
1.5419847328244274,3.5877862595419847,-3.877862595419847,-0.44140625,-0.010986328125,-0.31494140625,0.5627
1.5572519083969465,3.83206106870229,-3.816793893129771,-0.442626953125,-0.013671875,-0.3173828125,0.5644
1.2213740458015268,4.183206106870229,-3.8473282442748094,-0.441650390625,-0.010009765625,-0.30859375,0.5660999999999999
0.9618320610687023,4.580152671755725,-3.969465648854962,-0.44287109375,-0.01318359375,-0.318359375,0.5678
0.732824427480916,4.916030534351145,-4.137404580152672,-0.441650390625,-0.011962890625,-0.309326171875,0.5695
0.9618320610687023,5.267175572519084,-3.9236641221374047,-0.443603515625,-0.01171875,-0.30908203125,0.5711999999999999
0.6717557251908397,5.694656488549619,-4.152671755725191,-0.439208984375,-0.010009765625,-0.314208984375,0.5729
0.5343511450381679,6.137404580152672,-3.969465648854962,-0.439697265625,-0.015625,-0.315673828125,0.5746
0.32061068702290074,6.427480916030534,-4.244274809160306,-0.437255859375,-0.01611328125,-0.3125,0.5762999999999999
0.183206106870229,6.748091603053435,-4.229007633587786,-0.436279296875,-0.016845703125,-0.313232421875,0.578
0.07633587786259542,6.916030534351145,-4.122137404580153,-0.427734375,-0.01171875,-0.30615234375,0.5797
0.15267175572519084,7.068702290076335,-4.290076335877862,-0.4287109375,-0.013427734375,-0.311767578125,0.5813999999999999
-0.10687022900763359,7.00763358778626,-4.442748091603053,-0.430908203125,-0.009765625,-0.301513671875,0.5831
-0.1984732824427481,7.068702290076335,-4.290076335877862,-0.42333984375,-0.017822265625,-0.308349609375,0.5848
-0.4732824427480916,7.419847328244275,-4.290076335877862,-0.428466796875,-0.01904296875,-0.3056640625,0.5865
-0.5038167938931297,7.526717557251908,-4.458015267175573,-0.421630859375,-0.01123046875,-0.299560546875,0.5882
-0.7633587786259542,7.541984732824427,-4.549618320610687,-0.41943359375,-0.01318359375,-0.302978515625,0.5899
-1.1297709923664123,7.450381679389313,-4.152671755725191,-0.419677734375,-0.019287109375,-0.29736328125,0.5916
-1.282442748091603,7.511450381679389,-4.305343511450381,-0.41796875,-0.018798828125,-0.302001953125,0.5932999999999999
-1.5419847328244274,7.435114503816794,-4.152671755725191,-0.41796875,-0.013916015625,-0.3076171875,0.595
-1.8015267175572518,7.435114503816794,-4.351145038167939,-0.416748046875,-0.013916015625,-0.294189453125,0.5967
-1.786259541984733,7.526717557251908,-4.091603053435114,-0.41943359375,-0.012451171875,-0.298095703125,0.5983999999999999
-2.1526717557251906,7.480916030534351,-4.137404580152672,-0.416748046875,-0.018798828125,-0.30517578125,0.6001
-2.4427480916030535,7.572519083969466,-4.076335877862595,-0.41796875,-0.0185546875,-0.29443359375,0.6018
-2.4580152671755724,7.694656488549619,-4.061068702290076,-0.418701171875,-0.017333984375,-0.29296875,0.6034999999999999
-2.8396946564885495,7.572519083969466,-3.786259541984733,-0.417724609375,-0.014892578125,-0.293701171875,0.6052
-3.0839694656488548,7.6183206106870225,-3.7709923664122136,-0.4208984375,-0.014404296875,-0.29931640625,0.6069
-3.3893129770992365,7.847328244274809,-3.648854961832061,-0.417724609375,-0.01123046875,-0.290771484375,0.6085999999999999
-3.648854961832061,7.938931297709924,-3.7404580152671754,-0.42041015625,-0.015869140625,-0.29296875,0.6103
-3.8473282442748094,7.816793893129771,-3.5114503816793894,-0.41748046875,-0.016357421875,-0.2958984375,0.612
-4.015267175572519,7.938931297709924,-3.435114503816794,-0.414794921875,-0.01953125,-0.302001953125,0.6136999999999999
-4.0,8.045801526717558,-3.5267175572519083,-0.418212890625,-0.01416015625,-0.3037109375,0.6154
-4.442748091603053,8.13740458015267,-3.49618320610687,-0.417236328125,-0.009765625,-0.30712890625,0.6171
-4.473282442748092,8.045801526717558,-3.3893129770992365,-0.420166015625,-0.01513671875,-0.29736328125,0.6188
-4.763358778625954,8.106870229007633,-3.2977099236641223,-0.420166015625,-0.0107421875,-0.298095703125,0.6204999999999999
-5.038167938931298,8.198473282442748,-3.3740458015267176,-0.422607421875,-0.009033203125,-0.304443359375,0.6222
-4.9465648854961835,8.061068702290076,-3.435114503816794,-0.417724609375,-0.00537109375,-0.305908203125,0.6239
-4.702290076335878,8.244274809160306,-3.267175572519084,-0.420166015625,-0.00537109375,-0.29736328125,0.6255999999999999
-4.961832061068702,8.244274809160306,-3.2977099236641223,-0.421142578125,-0.001708984375,-0.296630859375,0.6273
-5.175572519083969,8.183206106870228,-3.435114503816794,-0.42578125,0.000244140625,-0.30322265625,0.629
-5.32824427480916,8.198473282442748,-3.4656488549618323,-0.423583984375,-0.000732421875,-0.308837890625,0.6306999999999999
-5.068702290076335,8.213740458015268,-3.2977099236641223,-0.424072265625,-0.004638671875,-0.31103515625,0.6324
-5.419847328244275,8.351145038167939,-3.5419847328244276,-0.42041015625,-0.00048828125,-0.30224609375,0.6341
-5.175572519083969,8.244274809160306,-3.6030534351145036,-0.4208984375,0.0009765625,-0.301513671875,0.6357999999999999
-5.251908396946565,8.13740458015267,-3.5877862595419847,-0.42138671875,0.001953125,-0.30078125,0.6375
-5.343511450381679,8.244274809160306,-3.7099236641221376,-0.423095703125,0.002685546875,-0.30908203125,0.6392
-5.480916030534351,8.183206106870228,-3.801526717557252,-0.423583984375,0.001220703125,-0.319091796875,0.6408999999999999
-5.068702290076335,7.877862595419847,-3.6793893129770994,-0.421142578125,0.0,-0.312255859375,0.6426
-5.221374045801527,7.648854961832061,-4.030534351145038,-0.423583984375,0.00244140625,-0.30517578125,0.6443
-5.068702290076335,7.740458015267175,-4.106870229007634,-0.41796875,0.002685546875,-0.3125,0.646
-4.67175572519084,7.679389312977099,-4.152671755725191,-0.422119140625,0.00341796875,-0.31005859375,0.6476999999999999
-4.916030534351145,7.404580152671755,-4.198473282442748,-0.419189453125,0.006591796875,-0.298095703125,0.6494
-4.885496183206107,7.206106870229007,-4.396946564885496,-0.416748046875,0.00732421875,-0.311279296875,0.6511
-4.977099236641221,7.206106870229007,-4.412213740458015,-0.420654296875,0.007080078125,-0.30712890625,0.6527999999999999
-4.778625954198473,6.916030534351145,-4.3816793893129775,-0.41650390625,0.00732421875,-0.308349609375,0.6545
-4.488549618320611,6.916030534351145,-4.6106870229007635,-0.4189453125,0.00244140625,-0.303466796875,0.6562
-4.580152671755725,6.8396946564885495,-4.656488549618321,-0.415283203125,0.00048828125,-0.314208984375,0.6578999999999999
-4.442748091603053,6.580152671755725,-4.67175572519084,-0.4208984375,0.000732421875,-0.308349609375,0.6596
-4.33587786259542,6.5038167938931295,-4.625954198473282,-0.4189453125,0.008056640625,-0.306640625,0.6613
-4.137404580152672,6.458015267175573,-4.8396946564885495,-0.42236328125,0.006591796875,-0.308837890625,0.6629999999999999
-4.213740458015267,6.213740458015267,-4.977099236641221,-0.421875,0.006103515625,-0.308837890625,0.6647
-3.9389312977099236,5.862595419847328,-5.022900763358779,-0.424072265625,0.006591796875,-0.301025390625,0.6664
-3.8625954198473282,5.8320610687022905,-5.068702290076335,-0.416259765625,0.0107421875,-0.303955078125,0.6680999999999999
-3.786259541984733,5.8320610687022905,-5.236641221374046,-0.42236328125,0.01171875,-0.32666015625,0.6698
-3.5267175572519083,5.557251908396947,-5.1603053435114505,-0.41943359375,0.010498046875,-0.320556640625,0.6715
-3.49618320610687,5.374045801526718,-5.404580152671755,-0.419189453125,0.01318359375,-0.3056640625,0.6731999999999999
-3.282442748091603,5.450381679389313,-5.435114503816794,-0.41796875,0.013671875,-0.307861328125,0.6748999999999999
-3.2519083969465647,5.282442748091603,-5.450381679389313,-0.419921875,0.013916015625,-0.313720703125,0.6766
-3.0839694656488548,5.236641221374046,-5.404580152671755,-0.421142578125,0.009765625,-0.311279296875,0.6783
-2.8091603053435112,4.9465648854961835,-5.66412213740458,-0.413330078125,0.009521484375,-0.30029296875,0.6799999999999999
-2.6412213740458017,4.977099236641221,-5.526717557251908,-0.41552734375,0.013671875,-0.313720703125,0.6817
-2.6259541984732824,5.206106870229007,-5.66412213740458,-0.419189453125,0.009765625,-0.3125,0.6834
-2.427480916030534,4.870229007633588,-5.694656488549619,-0.418212890625,0.012939453125,-0.311279296875,0.6850999999999999
-2.1068702290076335,4.977099236641221,-5.633587786259542,-0.412109375,0.008544921875,-0.3134765625,0.6868
-1.9083969465648856,4.809160305343512,-5.893129770992366,-0.414794921875,0.01220703125,-0.304443359375,0.6885
-1.8625954198473282,4.717557251908397,-6.091603053435114,-0.421142578125,0.012939453125,-0.301513671875,0.6901999999999999
-1.816793893129771,4.595419847328245,-6.015267175572519,-0.421142578125,0.008056640625,-0.303466796875,0.6919
-1.282442748091603,4.564885496183206,-5.984732824427481,-0.41943359375,0.00341796875,-0.30908203125,0.6936
-1.3740458015267176,4.320610687022901,-6.106870229007634,-0.41650390625,0.011962890625,-0.300537109375,0.6952999999999999
-1.4198473282442747,4.244274809160306,-6.106870229007634,-0.417724609375,0.009521484375,-0.308349609375,0.697
-0.916030534351145,4.061068702290076,-6.106870229007634,-0.4150390625,0.00439453125,-0.3095703125,0.6987
-0.7938931297709924,4.106870229007634,-6.2748091603053435,-0.415283203125,0.01318359375,-0.30419921875,0.7003999999999999
-0.549618320610687,4.244274809160306,-6.259541984732825,-0.418212890625,0.010986328125,-0.3046875,0.7021
-0.6259541984732825,3.969465648854962,-6.442748091603053,-0.415771484375,0.006103515625,-0.3017578125,0.7038
-0.44274809160305345,3.618320610687023,-6.473282442748092,-0.419921875,0.011474609375,-0.307861328125,0.7055
0.061068702290076333,3.7709923664122136,-6.488549618320611,-0.418701171875,0.00830078125,-0.310791015625,0.7071999999999999
0.0916030534351145,3.6793893129770994,-6.534351145038168,-0.42138671875,0.006591796875,-0.31005859375,0.7089
0.366412213740458,3.8625954198473282,-6.702290076335878,-0.423095703125,0.0087890625,-0.307861328125,0.7106
0.6106870229007634,3.9236641221374047,-6.6106870229007635,-0.41845703125,0.01318359375,-0.312255859375,0.7122999999999999
0.9312977099236641,3.66412213740458,-6.809160305343512,-0.42041015625,0.010009765625,-0.3125,0.714
0.9465648854961832,3.6946564885496183,-6.748091603053435,-0.415283203125,0.0078125,-0.3076171875,0.7157
1.2366412213740459,3.7404580152671754,-6.885496183206107,-0.41796875,0.00927734375,-0.30908203125,0.7173999999999999
1.3587786259541985,3.572519083969466,-6.977099236641221,-0.423828125,0.005126953125,-0.3076171875,0.7191
1.7099236641221374,3.618320610687023,-7.175572519083969,-0.42333984375,0.01123046875,-0.303955078125,0.7208
1.8625954198473282,3.648854961832061,-6.900763358778626,-0.421142578125,0.0087890625,-0.304931640625,0.7224999999999999
1.816793893129771,3.6030534351145036,-6.8396946564885495,-0.41943359375,0.010498046875,-0.314208984375,0.7242
2.3969465648854964,3.2213740458015265,-7.068702290076335,-0.4228515625,0.004150390625,-0.301513671875,0.7259
2.6259541984732824,3.3435114503816794,-7.206106870229007,-0.41943359375,0.003173828125,-0.302734375,0.7275999999999999
2.50381679389313,3.053435114503817,-7.312977099236641,-0.414794921875,0.01123046875,-0.3173828125,0.7293
2.854961832061069,2.946564885496183,-7.4961832061068705,-0.417236328125,0.00732421875,-0.311279296875,0.731
2.9923664122137406,3.145038167938931,-7.297709923664122,-0.415771484375,0.01025390625,-0.30712890625,0.7326999999999999
3.1908396946564888,2.7786259541984735,-7.511450381679389,-0.4130859375,0.0029296875,-0.309814453125,0.7343999999999999
3.404580152671756,2.946564885496183,-7.480916030534351,-0.414306640625,0.00439453125,-0.30517578125,0.7361
3.648854961832061,2.8091603053435112,-7.862595419847328,-0.416015625,0.004150390625,-0.310302734375,0.7378
3.7557251908396947,2.6717557251908395,-7.7251908396946565,-0.40966796875,0.00830078125,-0.29443359375,0.7394999999999999
4.0458015267175576,2.5801526717557253,-7.435114503816794,-0.41357421875,0.002685546875,-0.30810546875,0.7412
4.015267175572519,2.427480916030534,-7.480916030534351,-0.41455078125,0.005615234375,-0.31298828125,0.7429
4.366412213740458,2.4732824427480917,-7.893129770992366,-0.4150390625,0.005859375,-0.303466796875,0.7445999999999999
4.6106870229007635,2.3969465648854964,-7.755725190839694,-0.41357421875,0.004638671875,-0.3046875,0.7463
4.732824427480916,2.2442748091603053,-7.6183206106870225,-0.414794921875,0.002685546875,-0.31396484375,0.748
4.870229007633588,2.3053435114503817,-7.648854961832061,-0.41357421875,-0.00146484375,-0.30810546875,0.7496999999999999
5.129770992366412,2.3206106870229006,-8.030534351145038,-0.417724609375,0.001708984375,-0.313720703125,0.7514
5.3893129770992365,2.2595419847328246,-7.694656488549619,-0.411865234375,0.005859375,-0.306396484375,0.7531
5.374045801526718,2.2900763358778624,-7.694656488549619,-0.4150390625,-0.00146484375,-0.310791015625,0.7547999999999999
5.465648854961832,2.0,-7.755725190839694,-0.414306640625,0.00390625,-0.311279296875,0.7565
5.648854961832061,1.83206106870229,-7.801526717557252,-0.4111328125,0.001953125,-0.3095703125,0.7582
5.8320610687022905,1.6946564885496183,-7.801526717557252,-0.4140625,-0.000244140625,-0.310546875,0.7598999999999999
6.1679389312977095,1.8625954198473282,-7.8320610687022905,-0.416748046875,-0.00341796875,-0.30712890625,0.7615999999999999
6.106870229007634,1.6488549618320612,-7.786259541984733,-0.412109375,-0.001953125,-0.3125,0.7633
6.320610687022901,1.6793893129770991,-7.816793893129771,-0.416015625,-0.00146484375,-0.3125,0.7649999999999999
6.412213740458015,1.4198473282442747,-7.8320610687022905,-0.408447265625,-0.002685546875,-0.305908203125,0.7666999999999999
6.5038167938931295,1.4045801526717556,-8.01526717557252,-0.41357421875,0.002685546875,-0.31201171875,0.7684
6.778625954198473,1.5267175572519085,-8.030534351145038,-0.414794921875,-0.005859375,-0.3115234375,0.7701
6.778625954198473,1.465648854961832,-8.106870229007633,-0.416259765625,-0.006591796875,-0.309326171875,0.7717999999999999
6.961832061068702,1.4809160305343512,-7.740458015267175,-0.413818359375,-0.010498046875,-0.3115234375,0.7735
7.267175572519084,1.4809160305343512,-8.01526717557252,-0.4111328125,-0.00537109375,-0.306640625,0.7752
7.312977099236641,1.4198473282442747,-7.801526717557252,-0.411865234375,-0.006103515625,-0.309814453125,0.7768999999999999
7.267175572519084,1.5114503816793894,-7.694656488549619,-0.41259765625,-0.004150390625,-0.30859375,0.7786
7.312977099236641,1.6641221374045803,-7.526717557251908,-0.413330078125,-0.00634765625,-0.3134765625,0.7803
7.435114503816794,1.3893129770992367,-7.465648854961832,-0.412841796875,-0.010009765625,-0.313720703125,0.7819999999999999
7.374045801526718,1.5114503816793894,-7.419847328244275,-0.416015625,-0.0146484375,-0.312255859375,0.7837
7.450381679389313,1.5419847328244274,-7.480916030534351,-0.41845703125,-0.01025390625,-0.308837890625,0.7854
7.587786259541985,1.297709923664122,-7.419847328244275,-0.414794921875,-0.01025390625,-0.313232421875,0.7870999999999999
7.572519083969466,1.251908396946565,-7.251908396946565,-0.4111328125,-0.013427734375,-0.31591796875,0.7888
7.557251908396947,1.251908396946565,-7.206106870229007,-0.4130859375,-0.0087890625,-0.3046875,0.7905
7.816793893129771,1.1297709923664123,-7.1603053435114505,-0.4140625,-0.008056640625,-0.30615234375,0.7921999999999999
7.633587786259542,1.3129770992366412,-6.99236641221374,-0.4169921875,-0.008056640625,-0.31005859375,0.7938999999999999
7.816793893129771,1.2671755725190839,-6.900763358778626,-0.415283203125,-0.006103515625,-0.323486328125,0.7956
7.801526717557252,1.450381679389313,-6.809160305343512,-0.40625,-0.009033203125,-0.3056640625,0.7973
7.816793893129771,1.7099236641221374,-6.732824427480916,-0.411865234375,-0.009765625,-0.30615234375,0.7989999999999999
7.648854961832061,1.5572519083969465,-6.778625954198473,-0.411865234375,-0.01513671875,-0.312744140625,0.8007
7.603053435114504,1.4045801526717556,-6.67175572519084,-0.4130859375,-0.012939453125,-0.32080078125,0.8024
7.6183206106870225,1.618320610687023,-6.564885496183206,-0.41796875,-0.010498046875,-0.318115234375,0.8040999999999999
7.541984732824427,1.8625954198473282,-6.641221374045801,-0.415771484375,-0.014404296875,-0.308349609375,0.8058
7.6183206106870225,1.5267175572519085,-6.366412213740458,-0.41650390625,-0.014892578125,-0.31396484375,0.8075
7.603053435114504,1.450381679389313,-6.198473282442748,-0.413818359375,-0.01708984375,-0.302490234375,0.8091999999999999
7.465648854961832,1.297709923664122,-6.244274809160306,-0.414306640625,-0.013427734375,-0.31201171875,0.8109
7.526717557251908,1.2213740458015268,-6.061068702290076,-0.413330078125,-0.0126953125,-0.31103515625,0.8126
7.66412213740458,1.2213740458015268,-5.770992366412214,-0.4150390625,-0.009765625,-0.309814453125,0.8142999999999999
7.648854961832061,1.099236641221374,-5.740458015267175,-0.41455078125,-0.013671875,-0.31494140625,0.816
7.465648854961832,0.8244274809160306,-5.557251908396947,-0.41748046875,-0.015869140625,-0.306640625,0.8177
7.404580152671755,0.9618320610687023,-5.435114503816794,-0.414794921875,-0.015625,-0.3134765625,0.8193999999999999
7.267175572519084,0.8396946564885496,-5.221374045801527,-0.414306640625,-0.012939453125,-0.31298828125,0.8210999999999999
7.587786259541985,1.083969465648855,-5.236641221374046,-0.416015625,-0.01220703125,-0.318115234375,0.8228
7.374045801526718,1.1297709923664123,-4.8396946564885495,-0.41748046875,-0.018798828125,-0.308837890625,0.8244999999999999
7.297709923664122,0.9770992366412213,-4.809160305343512,-0.419677734375,-0.016845703125,-0.322021484375,0.8261999999999999
7.312977099236641,1.2213740458015268,-4.687022900763359,-0.416259765625,-0.019775390625,-0.31494140625,0.8279
7.450381679389313,0.9618320610687023,-4.748091603053435,-0.417724609375,-0.019775390625,-0.307373046875,0.8296
7.32824427480916,0.9618320610687023,-4.3816793893129775,-0.42138671875,-0.0185546875,-0.31884765625,0.8312999999999999
7.221374045801527,0.6870229007633588,-4.473282442748092,-0.415771484375,-0.017578125,-0.321533203125,0.833
7.465648854961832,0.732824427480916,-4.259541984732825,-0.417236328125,-0.01513671875,-0.316650390625,0.8347
7.419847328244275,0.7480916030534351,-4.1679389312977095,-0.41162109375,-0.016845703125,-0.316162109375,0.8363999999999999
7.435114503816794,0.3816793893129771,-4.0,-0.409423828125,-0.0185546875,-0.312744140625,0.8381
7.374045801526718,0.3969465648854962,-4.152671755725191,-0.421630859375,-0.02392578125,-0.311767578125,0.8398
7.129770992366412,0.16793893129770993,-4.0,-0.416748046875,-0.0205078125,-0.30908203125,0.8414999999999999
6.900763358778626,0.22900763358778625,-3.7099236641221376,-0.420166015625,-0.016845703125,-0.313232421875,0.8432
6.900763358778626,0.22900763358778625,-3.7557251908396947,-0.415771484375,-0.01708984375,-0.310791015625,0.8449
7.083969465648855,-0.030534351145038167,-3.83206106870229,-0.420166015625,-0.0224609375,-0.310791015625,0.8465999999999999
7.00763358778626,0.0,-3.450381679389313,-0.416748046875,-0.01806640625,-0.31591796875,0.8482999999999999
6.793893129770993,0.22900763358778625,-3.5419847328244276,-0.41650390625,-0.0205078125,-0.32177734375,0.85
6.900763358778626,-0.04580152671755725,-3.312977099236641,-0.41796875,-0.02197265625,-0.314208984375,0.8516999999999999
6.931297709923665,0.015267175572519083,-3.0381679389312977,-0.419677734375,-0.01806640625,-0.31005859375,0.8533999999999999
6.854961832061068,-0.061068702290076333,-2.8396946564885495,-0.416015625,-0.024658203125,-0.3095703125,0.8551
6.885496183206107,-0.3511450381679389,-2.8244274809160306,-0.4140625,-0.021484375,-0.315673828125,0.8568
6.8396946564885495,-0.5190839694656488,-2.7786259541984735,-0.41552734375,-0.0224609375,-0.312744140625,0.8584999999999999
6.702290076335878,-0.7938931297709924,-2.6412213740458017,-0.41455078125,-0.01708984375,-0.3115234375,0.8602
6.595419847328245,-0.7786259541984732,-2.4885496183206106,-0.41796875,-0.02392578125,-0.318115234375,0.8619
6.473282442748092,-0.9007633587786259,-2.549618320610687,-0.422607421875,-0.022216796875,-0.316162109375,0.8635999999999999
6.6106870229007635,-1.0229007633587786,-2.213740458015267,-0.41748046875,-0.0244140625,-0.322998046875,0.8653
6.473282442748092,-0.916030534351145,-2.0763358778625953,-0.41845703125,-0.0224609375,-0.31884765625,0.867
6.198473282442748,-0.9770992366412213,-2.2290076335877864,-0.421630859375,-0.019287109375,-0.3193359375,0.8686999999999999
6.122137404580153,-1.0534351145038168,-2.183206106870229,-0.4267578125,-0.02490234375,-0.318115234375,0.8704
6.259541984732825,-1.1297709923664123,-1.9389312977099236,-0.42578125,-0.021728515625,-0.31982421875,0.8721
6.061068702290076,-1.1603053435114503,-1.786259541984733,-0.41943359375,-0.02685546875,-0.319580078125,0.8737999999999999
5.923664122137405,-1.1908396946564885,-1.6030534351145038,-0.4208984375,-0.0224609375,-0.315673828125,0.8755
5.969465648854962,-1.0687022900763359,-1.8473282442748091,-0.42626953125,-0.0224609375,-0.313232421875,0.8772
5.770992366412214,-1.1603053435114503,-1.3893129770992367,-0.425048828125,-0.021728515625,-0.326171875,0.8788999999999999
5.801526717557252,-1.1145038167938932,-1.2061068702290076,-0.423583984375,-0.0244140625,-0.3212890625,0.8805999999999999
5.679389312977099,-1.0381679389312977,-1.2366412213740459,-0.4248046875,-0.021728515625,-0.321044921875,0.8823
5.679389312977099,-1.0687022900763359,-1.3435114503816794,-0.42626953125,-0.024169921875,-0.32080078125,0.8839999999999999
5.572519083969466,-1.1908396946564885,-1.1145038167938932,-0.4228515625,-0.01904296875,-0.316650390625,0.8856999999999999
5.404580152671755,-1.1145038167938932,-1.1297709923664123,-0.426025390625,-0.021484375,-0.303466796875,0.8874
5.312977099236641,-1.0687022900763359,-1.1450381679389312,-0.42724609375,-0.0185546875,-0.301025390625,0.8891
5.282442748091603,-0.8244274809160306,-0.8854961832061069,-0.421630859375,-0.021240234375,-0.321044921875,0.8907999999999999
5.251908396946565,-0.9312977099236641,-0.8702290076335878,-0.4228515625,-0.025146484375,-0.321044921875,0.8925
4.977099236641221,-0.9007633587786259,-1.0229007633587786,-0.421142578125,-0.027099609375,-0.3154296875,0.8942
5.114503816793893,-0.9923664122137404,-0.8702290076335878,-0.42529296875,-0.021484375,-0.31689453125,0.8958999999999999
5.00763358778626,-0.7786259541984732,-0.7938931297709924,-0.421630859375,-0.01904296875,-0.323974609375,0.8976
4.809160305343512,-0.8091603053435115,-0.6106870229007634,-0.419921875,-0.020751953125,-0.31396484375,0.8993
4.67175572519084,-0.916030534351145,-0.5190839694656488,-0.42333984375,-0.018310546875,-0.31689453125,0.9009999999999999
4.595419847328245,-0.8549618320610687,-0.549618320610687,-0.42333984375,-0.019775390625,-0.314208984375,0.9027
4.67175572519084,-0.7022900763358778,-0.33587786259541985,-0.423095703125,-0.01708984375,-0.32275390625,0.9044
4.748091603053435,-0.6564885496183206,-0.3053435114503817,-0.4208984375,-0.02197265625,-0.3203125,0.9060999999999999
4.427480916030534,-0.7175572519083969,-0.24427480916030533,-0.424560546875,-0.020263671875,-0.318115234375,0.9077999999999999
4.33587786259542,-0.48854961832061067,-0.061068702290076333,-0.42626953125,-0.024169921875,-0.312255859375,0.9095
4.213740458015267,-0.5190839694656488,-0.07633587786259542,-0.42236328125,-0.02294921875,-0.3115234375,0.9111999999999999
4.183206106870229,-0.6412213740458015,-0.21374045801526717,-0.42724609375,-0.021728515625,-0.31494140625,0.9128999999999999
4.152671755725191,-0.3053435114503817,-0.16793893129770993,-0.423828125,-0.01904296875,-0.3173828125,0.9146
4.290076335877862,-0.4732824427480916,-0.10687022900763359,-0.4248046875,-0.0205078125,-0.310302734375,0.9163
3.9389312977099236,-0.3816793893129771,-0.15267175572519084,-0.42138671875,-0.02099609375,-0.313720703125,0.9179999999999999
3.786259541984733,-0.3816793893129771,0.030534351145038167,-0.42333984375,-0.015869140625,-0.312744140625,0.9197
3.83206106870229,-0.07633587786259542,0.10687022900763359,-0.423095703125,-0.020263671875,-0.3134765625,0.9214
3.8931297709923665,-0.04580152671755725,-0.13740458015267176,-0.420654296875,-0.01611328125,-0.31591796875,0.9230999999999999
3.6030534351145036,-0.13740458015267176,-0.0916030534351145,-0.421142578125,-0.01953125,-0.3154296875,0.9248
3.404580152671756,-0.2595419847328244,0.24427480916030533,-0.420166015625,-0.020751953125,-0.309326171875,0.9265
3.618320610687023,-0.22900763358778625,0.16793893129770993,-0.423095703125,-0.020263671875,-0.3125,0.9281999999999999
3.282442748091603,-0.3969465648854962,0.07633587786259542,-0.420166015625,-0.021728515625,-0.314453125,0.9299
3.2977099236641223,-0.21374045801526717,0.07633587786259542,-0.423095703125,-0.017822265625,-0.31689453125,0.9316
3.282442748091603,-0.10687022900763359,0.015267175572519083,-0.420654296875,-0.014404296875,-0.31884765625,0.9332999999999999
3.0076335877862594,-0.2595419847328244,0.0916030534351145,-0.42236328125,-0.0205078125,-0.31494140625,0.9349999999999999
3.267175572519084,-0.22900763358778625,0.061068702290076333,-0.422119140625,-0.0244140625,-0.31494140625,0.9367
3.0229007633587788,-0.3511450381679389,0.3053435114503817,-0.420654296875,-0.024658203125,-0.313720703125,0.9383999999999999
2.9923664122137406,-0.3969465648854962,-0.061068702290076333,-0.417724609375,-0.0234375,-0.30517578125,0.9400999999999999
2.900763358778626,-0.4580152671755725,-0.22900763358778625,-0.416748046875,-0.015869140625,-0.310302734375,0.9418
2.6564885496183206,-0.21374045801526717,-0.07633587786259542,-0.418701171875,-0.02001953125,-0.31298828125,0.9434999999999999
2.4885496183206106,-0.1984732824427481,-0.13740458015267176,-0.41748046875,-0.019775390625,-0.316650390625,0.9451999999999999
2.6259541984732824,-0.42748091603053434,-0.33587786259541985,-0.414794921875,-0.025146484375,-0.31298828125,0.9469
2.5343511450381677,-0.4580152671755725,-0.15267175572519084,-0.41748046875,-0.0185546875,-0.31298828125,0.9486
2.366412213740458,-0.4580152671755725,-0.21374045801526717,-0.417236328125,-0.017578125,-0.31494140625,0.9502999999999999
2.564885496183206,-0.6870229007633588,-0.3511450381679389,-0.412841796875,-0.01806640625,-0.3173828125,0.952
2.3206106870229006,-0.5801526717557252,-0.3511450381679389,-0.4189453125,-0.015380859375,-0.31298828125,0.9537
1.9541984732824427,-0.6259541984732825,-0.44274809160305345,-0.41748046875,-0.0126953125,-0.320556640625,0.9553999999999999
2.2595419847328246,-0.7633587786259542,-0.549618320610687,-0.420166015625,-0.01318359375,-0.313720703125,0.9571
2.16793893129771,-0.8702290076335878,-0.5038167938931297,-0.412353515625,-0.01220703125,-0.308837890625,0.9588
2.1068702290076335,-0.7022900763358778,-0.6412213740458015,-0.4150390625,-0.015869140625,-0.3134765625,0.9604999999999999
2.213740458015267,-0.9007633587786259,-0.42748091603053434,-0.415771484375,-0.009033203125,-0.3115234375,0.9621999999999999
2.2900763358778624,-0.7786259541984732,-0.5190839694656488,-0.41796875,-0.01806640625,-0.3212890625,0.9639
2.015267175572519,-0.8854961832061069,-0.8549618320610687,-0.4140625,-0.0185546875,-0.30859375,0.9655999999999999
2.0,-0.9770992366412213,-0.916030534351145,-0.41552734375,-0.020263671875,-0.316162109375,0.9672999999999999
1.9541984732824427,-0.916030534351145,-0.7633587786259542,-0.417236328125,-0.016357421875,-0.3173828125,0.969
1.786259541984733,-0.8244274809160306,-0.7022900763358778,-0.420166015625,-0.013916015625,-0.310791015625,0.9706999999999999
1.9236641221374047,-0.9465648854961832,-0.6870229007633588,-0.41943359375,-0.013916015625,-0.3134765625,0.9723999999999999
1.7709923664122138,-0.8396946564885496,-1.0687022900763359,-0.420166015625,-0.014892578125,-0.31689453125,0.9741
1.6793893129770991,-0.8549618320610687,-1.3587786259541985,-0.417236328125,-0.004638671875,-0.3125,0.9758
2.0610687022900764,-0.9312977099236641,-1.4045801526717556,-0.4140625,-0.015625,-0.3125,0.9774999999999999
1.6946564885496183,-0.7938931297709924,-1.3129770992366412,-0.41748046875,-0.01953125,-0.318115234375,0.9792
1.7557251908396947,-0.8702290076335878,-1.251908396946565,-0.421142578125,-0.011474609375,-0.30859375,0.9809
1.5877862595419847,-0.7175572519083969,-1.3129770992366412,-0.4169921875,-0.01953125,-0.31494140625,0.9825999999999999
1.465648854961832,-0.7480916030534351,-1.4045801526717556,-0.41943359375,-0.01513671875,-0.313232421875,0.9843
1.4961832061068703,-0.6717557251908397,-1.3587786259541985,-0.416259765625,-0.016845703125,-0.310546875,0.986
1.786259541984733,-0.8244274809160306,-1.4198473282442747,-0.41845703125,-0.012939453125,-0.306396484375,0.9876999999999999
1.7251908396946565,-0.7175572519083969,-1.5877862595419847,-0.41552734375,-0.011962890625,-0.309326171875,0.9894
1.465648854961832,-0.7633587786259542,-1.786259541984733,-0.41845703125,-0.010009765625,-0.31103515625,0.9911
1.5267175572519085,-0.7938931297709924,-1.7709923664122138,-0.4228515625,-0.008544921875,-0.314208984375,0.9927999999999999
1.5877862595419847,-0.5648854961832062,-1.7251908396946565,-0.421142578125,-0.011962890625,-0.309326171875,0.9944999999999999
1.633587786259542,-0.7786259541984732,-1.5419847328244274,-0.420166015625,-0.013427734375,-0.308349609375,0.9962
1.83206106870229,-0.8396946564885496,-1.786259541984733,-0.419921875,-0.01123046875,-0.318115234375,0.9978999999999999
1.7709923664122138,-0.4732824427480916,-1.8473282442748091,-0.41943359375,-0.01708984375,-0.3134765625,0.9995999999999999
1.8778625954198473,-0.5954198473282443,-2.015267175572519,-0.42041015625,-0.008544921875,-0.316650390625,1.0012999999999999
1.83206106870229,-0.3511450381679389,-1.786259541984733,-0.422607421875,-0.008544921875,-0.307373046875,1.003
1.8625954198473282,-0.48854961832061067,-2.198473282442748,-0.4189453125,-0.01220703125,-0.319091796875,1.0047
1.9236641221374047,-0.3816793893129771,-2.0763358778625953,-0.421875,-0.013427734375,-0.314453125,1.0064
2.0610687022900764,-0.22900763358778625,-2.0763358778625953,-0.4189453125,-0.0107421875,-0.317138671875,1.0081
2.0,-0.04580152671755725,-2.213740458015267,-0.423095703125,-0.009033203125,-0.314208984375,1.0098
1.9541984732824427,0.22900763358778625,-2.366412213740458,-0.42529296875,-0.01123046875,-0.3095703125,1.0114999999999998
2.045801526717557,0.015267175572519083,-2.33587786259542,-0.422119140625,-0.008056640625,-0.31298828125,1.0131999999999999
1.9389312977099236,0.16793893129770993,-2.381679389312977,-0.422119140625,-0.012451171875,-0.31591796875,1.0149
2.1526717557251906,0.2900763358778626,-2.4885496183206106,-0.419677734375,-0.009765625,-0.31298828125,1.0166
2.2900763358778624,0.32061068702290074,-2.6259541984732824,-0.418212890625,-0.007080078125,-0.3154296875,1.0183
2.351145038167939,0.3511450381679389,-2.3969465648854964,-0.417724609375,-0.006591796875,-0.313232421875,1.02
2.50381679389313,0.32061068702290074,-2.763358778625954,-0.421630859375,-0.007568359375,-0.314453125,1.0217
2.381679389312977,0.13740458015267176,-2.50381679389313,-0.42333984375,-0.009521484375,-0.315673828125,1.0233999999999999
2.717557251908397,0.10687022900763359,-2.4732824427480917,-0.4169921875,-0.00537109375,-0.31396484375,1.0251
2.6564885496183206,0.366412213740458,-2.33587786259542,-0.416748046875,-0.011962890625,-0.31201171875,1.0268
2.7938931297709924,0.13740458015267176,-2.7786259541984735,-0.421630859375,-0.007568359375,-0.315185546875,1.0285
2.7786259541984735,0.32061068702290074,-2.4427480916030535,-0.41943359375,-0.003173828125,-0.322509765625,1.0302
3.0229007633587788,0.2748091603053435,-2.6259541984732824,-0.421630859375,-0.01025390625,-0.322265625,1.0319
3.114503816793893,0.2748091603053435,-2.6564885496183206,-0.416015625,-0.009033203125,-0.313232421875,1.0335999999999999
2.763358778625954,0.12213740458015267,-2.7938931297709924,-0.41650390625,-0.012939453125,-0.306640625,1.0352999999999999
3.099236641221374,0.10687022900763359,-2.6106870229007635,-0.415771484375,-0.0166015625,-0.310302734375,1.037
3.2519083969465647,-0.13740458015267176,-2.7786259541984735,-0.41796875,-0.007080078125,-0.3115234375,1.0387
3.5267175572519083,-0.13740458015267176,-2.854961832061069,-0.414306640625,-0.009033203125,-0.315185546875,1.0404
3.5572519083969465,-0.15267175572519084,-2.854961832061069,-0.416015625,-0.009521484375,-0.317626953125,1.0421
3.480916030534351,-0.12213740458015267,-2.7938931297709924,-0.418212890625,-0.010498046875,-0.3134765625,1.0437999999999998
3.3740458015267176,0.030534351145038167,-2.7786259541984735,-0.41357421875,-0.010986328125,-0.320068359375,1.0454999999999999
3.6030534351145036,-0.2748091603053435,-2.8091603053435112,-0.41162109375,-0.015625,-0.31201171875,1.0472
3.3435114503816794,-0.33587786259541985,-2.9770992366412212,-0.41748046875,-0.01318359375,-0.314453125,1.0489
3.5419847328244276,-0.5954198473282443,-2.763358778625954,-0.414306640625,-0.01171875,-0.306884765625,1.0506
3.801526717557252,-0.6106870229007634,-2.9160305343511452,-0.414794921875,-0.012939453125,-0.304931640625,1.0523
3.66412213740458,-0.916030534351145,-2.8244274809160306,-0.4150390625,-0.011474609375,-0.317626953125,1.054
3.7251908396946565,-1.1145038167938932,-2.687022900763359,-0.4150390625,-0.01904296875,-0.31494140625,1.0556999999999999
3.83206106870229,-1.0687022900763359,-2.732824427480916,-0.414306640625,-0.016357421875,-0.31982421875,1.0574
3.7404580152671754,-1.083969465648855,-2.7938931297709924,-0.40966796875,-0.01171875,-0.309326171875,1.0591
3.7557251908396947,-1.3282442748091603,-2.595419847328244,-0.4150390625,-0.013427734375,-0.31298828125,1.0608
4.137404580152672,-1.465648854961832,-2.7022900763358777,-0.412841796875,-0.009765625,-0.3115234375,1.0625
3.877862595419847,-1.3893129770992367,-2.4427480916030535,-0.413330078125,-0.012451171875,-0.311767578125,1.0642
4.1679389312977095,-1.6488549618320612,-2.427480916030534,-0.41845703125,-0.015869140625,-0.31591796875,1.0658999999999998
3.8625954198473282,-1.984732824427481,-2.519083969465649,-0.414794921875,-0.010986328125,-0.3125,1.0675999999999999
4.076335877862595,-2.015267175572519,-2.6259541984732824,-0.412841796875,-0.016845703125,-0.306640625,1.0693
4.2748091603053435,-2.030534351145038,-2.366412213740458,-0.42041015625,-0.013671875,-0.302978515625,1.071
3.8931297709923665,-2.0763358778625953,-2.519083969465649,-0.416748046875,-0.011474609375,-0.313720703125,1.0727
4.213740458015267,-2.030534351145038,-2.6259541984732824,-0.414306640625,-0.014404296875,-0.321044921875,1.0744
4.183206106870229,-2.213740458015267,-2.4122137404580153,-0.416748046875,-0.017822265625,-0.321044921875,1.0760999999999998
4.106870229007634,-2.2900763358778624,-2.351145038167939,-0.41357421875,-0.013427734375,-0.301025390625,1.0777999999999999
4.229007633587786,-2.50381679389313,-2.6259541984732824,-0.415771484375,-0.01513671875,-0.304443359375,1.0795
4.076335877862595,-2.6259541984732824,-2.3969465648854964,-0.4140625,-0.016845703125,-0.3056640625,1.0812
4.076335877862595,-2.5801526717557253,-2.4580152671755724,-0.417236328125,-0.01708984375,-0.3115234375,1.0829
4.3816793893129775,-2.732824427480916,-2.3206106870229006,-0.416015625,-0.017578125,-0.310546875,1.0846
4.259541984732825,-2.8396946564885495,-2.122137404580153,-0.418701171875,-0.013671875,-0.309814453125,1.0863
4.213740458015267,-2.946564885496183,-1.9694656488549618,-0.4248046875,-0.013671875,-0.31298828125,1.0879999999999999
4.290076335877862,-2.8244274809160306,-2.0,-0.419921875,-0.017333984375,-0.319091796875,1.0897
4.183206106870229,-2.732824427480916,-2.0916030534351147,-0.419189453125,-0.01513671875,-0.30615234375,1.0914
4.244274809160306,-3.1297709923664123,-2.122137404580153,-0.42138671875,-0.017333984375,-0.3095703125,1.0931
4.259541984732825,-3.0839694656488548,-1.9083969465648856,-0.419677734375,-0.016357421875,-0.31103515625,1.0948
4.442748091603053,-2.885496183206107,-1.984732824427481,-0.423583984375,-0.017578125,-0.306884765625,1.0965
4.412213740458015,-2.8091603053435112,-1.8778625954198473,-0.42431640625,-0.0126953125,-0.307861328125,1.0981999999999998
4.2748091603053435,-2.6564885496183206,-1.816793893129771,-0.425048828125,-0.01708984375,-0.305908203125,1.0998999999999999
4.580152671755725,-2.7938931297709924,-1.8931297709923665,-0.423095703125,-0.013427734375,-0.3056640625,1.1016
4.091603053435114,-2.564885496183206,-1.6030534351145038,-0.42529296875,-0.017333984375,-0.30224609375,1.1033
4.2748091603053435,-2.3969465648854964,-1.618320610687023,-0.427001953125,-0.019775390625,-0.306396484375,1.105
4.33587786259542,-2.213740458015267,-1.83206106870229,-0.425048828125,-0.01953125,-0.309326171875,1.1067
4.290076335877862,-2.198473282442748,-1.8015267175572518,-0.430419921875,-0.021240234375,-0.308349609375,1.1083999999999998
4.122137404580153,-2.213740458015267,-1.6488549618320612,-0.426513671875,-0.016357421875,-0.302734375,1.1100999999999999
4.33587786259542,-2.0,-1.5572519083969465,-0.4248046875,-0.012939453125,-0.3134765625,1.1118
4.290076335877862,-1.6488549618320612,-1.465648854961832,-0.429931640625,-0.01806640625,-0.312744140625,1.1135
4.396946564885496,-1.8625954198473282,-1.3129770992366412,-0.425537109375,-0.017578125,-0.31787109375,1.1152
4.2748091603053435,-1.9389312977099236,-1.297709923664122,-0.42822265625,-0.014404296875,-0.302001953125,1.1169
4.2748091603053435,-1.7099236641221374,-1.5419847328244274,-0.424072265625,-0.015625,-0.30810546875,1.1186
4.320610687022901,-1.5877862595419847,-1.633587786259542,-0.429931640625,-0.017822265625,-0.309326171875,1.1202999999999999
4.015267175572519,-1.5725190839694656,-1.4045801526717556,-0.426025390625,-0.01611328125,-0.309326171875,1.1219999999999999
4.198473282442748,-1.5114503816793894,-1.465648854961832,-0.42138671875,-0.014404296875,-0.30615234375,1.1237
3.954198473282443,-1.6030534351145038,-1.4351145038167938,-0.426513671875,-0.02197265625,-0.304443359375,1.1254
4.152671755725191,-1.6030534351145038,-1.4809160305343512,-0.42529296875,-0.01904296875,-0.3115234375,1.1271
4.152671755725191,-1.5877862595419847,-1.3740458015267176,-0.426025390625,-0.024169921875,-0.315185546875,1.1288
4.106870229007634,-1.7099236641221374,-1.2213740458015268,-0.42529296875,-0.019775390625,-0.302734375,1.1304999999999998
4.0,-1.618320610687023,-1.3129770992366412,-0.4306640625,-0.019775390625,-0.306396484375,1.1321999999999999
4.137404580152672,-1.3587786259541985,-1.5267175572519085,-0.421630859375,-0.0224609375,-0.304443359375,1.1339
3.9389312977099236,-1.5877862595419847,-1.083969465648855,-0.421630859375,-0.023681640625,-0.307861328125,1.1356
4.198473282442748,-1.6030534351145038,-1.1145038167938932,-0.4248046875,-0.02001953125,-0.3037109375,1.1373
4.183206106870229,-1.5419847328244274,-1.4198473282442747,-0.42236328125,-0.019287109375,-0.307373046875,1.139
3.6946564885496183,-1.5267175572519085,-1.4351145038167938,-0.423095703125,-0.01806640625,-0.30810546875,1.1407
4.213740458015267,-1.5114503816793894,-1.2671755725190839,-0.429443359375,-0.023193359375,-0.311279296875,1.1423999999999999
4.152671755725191,-1.251908396946565,-1.2671755725190839,-0.42529296875,-0.020263671875,-0.308349609375,1.1441
3.954198473282443,-1.3282442748091603,-1.3435114503816794,-0.419677734375,-0.018310546875,-0.304443359375,1.1458
3.877862595419847,-1.3893129770992367,-1.2366412213740459,-0.425048828125,-0.018310546875,-0.308349609375,1.1475
3.7709923664122136,-1.282442748091603,-1.3129770992366412,-0.423583984375,-0.01708984375,-0.3017578125,1.1492
3.8473282442748094,-1.2366412213740459,-1.1145038167938932,-0.425048828125,-0.019775390625,-0.301025390625,1.1509
3.8931297709923665,-1.1450381679389312,-1.251908396946565,-0.427490234375,-0.01416015625,-0.30615234375,1.1525999999999998
3.633587786259542,-1.1908396946564885,-1.1908396946564885,-0.42724609375,-0.02197265625,-0.310546875,1.1542999999999999
3.9236641221374047,-1.1450381679389312,-1.3435114503816794,-0.424072265625,-0.016845703125,-0.30810546875,1.156
3.9236641221374047,-1.3129770992366412,-1.251908396946565,-0.418212890625,-0.016845703125,-0.3056640625,1.1577
3.6946564885496183,-1.099236641221374,-1.3435114503816794,-0.42138671875,-0.0205078125,-0.308349609375,1.1594
3.6030534351145036,-1.0229007633587786,-1.3587786259541985,-0.4296875,-0.018798828125,-0.3134765625,1.1611
3.5114503816793894,-1.2061068702290076,-1.2213740458015268,-0.42431640625,-0.014892578125,-0.303466796875,1.1627999999999998
3.6793893129770994,-1.3587786259541985,-1.1908396946564885,-0.420654296875,-0.01123046875,-0.2998046875,1.1644999999999999
3.5114503816793894,-1.1755725190839694,-1.1603053435114503,-0.428466796875,-0.017822265625,-0.303466796875,1.1662
3.435114503816794,-0.9923664122137404,-1.1450381679389312,-0.42529296875,-0.020751953125,-0.30517578125,1.1679
3.5877862595419847,-1.1450381679389312,-1.1603053435114503,-0.424072265625,-0.017822265625,-0.30810546875,1.1696
3.4656488549618323,-1.0534351145038168,-1.0687022900763359,-0.427734375,-0.0185546875,-0.310791015625,1.1713
3.145038167938931,-0.9007633587786259,-1.3282442748091603,-0.421630859375,-0.015380859375,-0.304443359375,1.173
3.312977099236641,-1.0381679389312977,-1.0076335877862594,-0.42236328125,-0.014404296875,-0.300048828125,1.1746999999999999
3.3893129770992365,-0.9618320610687023,-1.0229007633587786,-0.421875,-0.01806640625,-0.306884765625,1.1764
3.1603053435114505,-0.7938931297709924,-1.0229007633587786,-0.42919921875,-0.022705078125,-0.3056640625,1.1781
3.114503816793893,-0.7938931297709924,-0.9923664122137404,-0.426025390625,-0.020263671875,-0.30810546875,1.1798
3.1908396946564888,-0.7175572519083969,-0.9312977099236641,-0.426025390625,-0.01904296875,-0.31103515625,1.1815
3.099236641221374,-0.44274809160305345,-1.0229007633587786,-0.425048828125,-0.01611328125,-0.308837890625,1.1832
2.946564885496183,-0.6259541984732825,-1.1297709923664123,-0.42529296875,-0.022216796875,-0.30859375,1.1848999999999998
2.7480916030534353,-0.732824427480916,-1.1755725190839694,-0.426513671875,-0.02197265625,-0.30029296875,1.1865999999999999
2.7786259541984735,-0.6106870229007634,-0.8549618320610687,-0.430419921875,-0.019775390625,-0.30224609375,1.1883
3.0229007633587788,-0.4580152671755725,-0.9312977099236641,-0.428466796875,-0.020751953125,-0.302978515625,1.19
2.885496183206107,-0.366412213740458,-0.9923664122137404,-0.42529296875,-0.017333984375,-0.309326171875,1.1917
3.099236641221374,-0.42748091603053434,-1.1450381679389312,-0.427001953125,-0.015625,-0.306640625,1.1934
2.8702290076335877,-0.3969465648854962,-1.0534351145038168,-0.425048828125,-0.021240234375,-0.310546875,1.1950999999999998
2.8244274809160306,-0.549618320610687,-0.8702290076335878,-0.42822265625,-0.028076171875,-0.31298828125,1.1967999999999999
2.885496183206107,-0.183206106870229,-0.8244274809160306,-0.42431640625,-0.018310546875,-0.302978515625,1.1985
2.6717557251908395,-0.24427480916030533,-1.1908396946564885,-0.42724609375,-0.02099609375,-0.306640625,1.2002
2.549618320610687,-0.15267175572519084,-1.0381679389312977,-0.426025390625,-0.01806640625,-0.30810546875,1.2019
2.595419847328244,0.22900763358778625,-0.8702290076335878,-0.4248046875,-0.018310546875,-0.30859375,1.2036
2.6564885496183206,0.22900763358778625,-0.9770992366412213,-0.42333984375,-0.020751953125,-0.310546875,1.2053
2.549618320610687,0.2900763358778626,-0.8854961832061069,-0.427734375,-0.019775390625,-0.305419921875,1.2069999999999999
2.4427480916030535,0.22900763358778625,-0.8549618320610687,-0.42333984375,-0.01806640625,-0.310546875,1.2086999999999999
2.4732824427480917,0.21374045801526717,-1.251908396946565,-0.426513671875,-0.013916015625,-0.313720703125,1.2104
2.3206106870229006,0.33587786259541985,-0.9007633587786259,-0.428466796875,-0.02001953125,-0.30517578125,1.2121
2.2900763358778624,0.4580152671755725,-1.0076335877862594,-0.42626953125,-0.015380859375,-0.2998046875,1.2138
2.4885496183206106,0.7938931297709924,-0.8396946564885496,-0.4248046875,-0.01904296875,-0.30029296875,1.2155
2.519083969465649,0.6259541984732825,-1.1297709923664123,-0.42529296875,-0.01708984375,-0.310546875,1.2171999999999998
2.2900763358778624,0.5954198473282443,-1.1297709923664123,-0.424560546875,-0.017578125,-0.306884765625,1.2188999999999999
2.4427480916030535,0.8702290076335878,-1.1908396946564885,-0.4228515625,-0.018310546875,-0.30615234375,1.2206
2.183206106870229,0.7480916030534351,-0.8702290076335878,-0.423583984375,-0.021728515625,-0.303466796875,1.2223
2.3053435114503817,0.8549618320610687,-0.9618320610687023,-0.42626953125,-0.021484375,-0.314453125,1.224
2.2900763358778624,0.9007633587786259,-0.9770992366412213,-0.4248046875,-0.01708984375,-0.30908203125,1.2257
2.4885496183206106,0.8091603053435115,-1.0229007633587786,-0.419921875,-0.018310546875,-0.305908203125,1.2273999999999998
2.4122137404580153,1.1297709923664123,-0.9770992366412213,-0.421875,-0.013671875,-0.3056640625,1.2290999999999999
2.351145038167939,1.1145038167938932,-1.0687022900763359,-0.420166015625,-0.0185546875,-0.31298828125,1.2308
2.3206106870229006,1.1908396946564885,-0.916030534351145,-0.42236328125,-0.015869140625,-0.301025390625,1.2325
2.351145038167939,1.1755725190839694,-1.1297709923664123,-0.42822265625,-0.020263671875,-0.314697265625,1.2342
2.4122137404580153,1.1450381679389312,-0.9770992366412213,-0.4267578125,-0.019775390625,-0.31298828125,1.2359
2.2900763358778624,1.1297709923664123,-0.9770992366412213,-0.416748046875,-0.0146484375,-0.311279296875,1.2376
2.213740458015267,1.2366412213740459,-0.8244274809160306,-0.41943359375,-0.017822265625,-0.303955078125,1.2392999999999998
2.3969465648854964,1.2061068702290076,-0.732824427480916,-0.42431640625,-0.015869140625,-0.30029296875,1.2409999999999999
2.2290076335877864,1.297709923664122,-0.8396946564885496,-0.430419921875,-0.01513671875,-0.30810546875,1.2427
2.198473282442748,1.297709923664122,-0.9465648854961832,-0.42626953125,-0.015869140625,-0.307861328125,1.2444
2.16793893129771,1.2213740458015268,-0.7633587786259542,-0.42138671875,-0.01611328125,-0.303955078125,1.2461
2.3053435114503817,1.3893129770992367,-0.8396946564885496,-0.42333984375,-0.01708984375,-0.2998046875,1.2478
2.33587786259542,1.3893129770992367,-0.732824427480916,-0.42578125,-0.014892578125,-0.313720703125,1.2494999999999998
2.1526717557251906,1.3129770992366412,-0.8396946564885496,-0.4228515625,-0.013916015625,-0.31201171875,1.2511999999999999
2.2595419847328246,1.3282442748091603,-0.6412213740458015,-0.423095703125,-0.01416015625,-0.31591796875,1.2529
2.3053435114503817,1.3282442748091603,-0.7786259541984732,-0.42041015625,-0.014892578125,-0.306396484375,1.2546
2.2900763358778624,1.3740458015267176,-0.7480916030534351,-0.4287109375,-0.017578125,-0.3134765625,1.2563
2.213740458015267,1.465648854961832,-0.6106870229007634,-0.427490234375,-0.01953125,-0.309814453125,1.258
2.381679389312977,1.282442748091603,-0.5954198473282443,-0.42626953125,-0.016357421875,-0.31103515625,1.2596999999999998
2.2290076335877864,1.4961832061068703,-0.9465648854961832,-0.420166015625,-0.0166015625,-0.30224609375,1.2613999999999999
2.3969465648854964,1.3893129770992367,-0.6259541984732825,-0.418701171875,-0.011962890625,-0.3115234375,1.2631
2.427480916030534,1.3893129770992367,-0.6717557251908397,-0.4267578125,-0.01416015625,-0.30419921875,1.2648
2.3053435114503817,1.3435114503816794,-0.7022900763358778,-0.421875,-0.016357421875,-0.310302734375,1.2665
2.564885496183206,1.465648854961832,-0.916030534351145,-0.417724609375,-0.010986328125,-0.3046875,1.2682
2.7480916030534353,1.3129770992366412,-0.7633587786259542,-0.41650390625,-0.009765625,-0.31787109375,1.2699
2.4580152671755724,1.2213740458015268,-0.7480916030534351,-0.421875,-0.01220703125,-0.312744140625,1.2715999999999998
2.6564885496183206,1.2213740458015268,-0.8396946564885496,-0.41552734375,-0.01220703125,-0.30712890625,1.2732999999999999
2.7938931297709924,1.251908396946565,-0.8854961832061069,-0.41650390625,-0.0146484375,-0.307861328125,1.275
2.717557251908397,1.1297709923664123,-0.8396946564885496,-0.42041015625,-0.014404296875,-0.301025390625,1.2767
2.8396946564885495,1.2213740458015268,-1.0076335877862594,-0.41845703125,-0.012451171875,-0.313720703125,1.2784
2.9618320610687023,1.0229007633587786,-0.9923664122137404,-0.4169921875,-0.011962890625,-0.306396484375,1.2801
3.068702290076336,1.099236641221374,-0.9770992366412213,-0.419677734375,-0.010009765625,-0.31787109375,1.2817999999999998
2.7480916030534353,1.0687022900763359,-0.8396946564885496,-0.419677734375,-0.014404296875,-0.310302734375,1.2834999999999999
2.9770992366412212,0.9618320610687023,-0.7786259541984732,-0.418212890625,-0.013916015625,-0.309326171875,1.2852
3.1297709923664123,1.0076335877862594,-0.6870229007633588,-0.41796875,-0.012451171875,-0.309814453125,1.2869
3.114503816793893,0.9770992366412213,-1.0381679389312977,-0.414794921875,-0.01611328125,-0.308837890625,1.2886
3.2977099236641223,0.9007633587786259,-0.8244274809160306,-0.421142578125,-0.016357421875,-0.31494140625,1.2903
3.1297709923664123,0.7938931297709924,-0.9770992366412213,-0.41552734375,-0.013427734375,-0.30322265625,1.292
3.2213740458015265,0.8091603053435115,-0.732824427480916,-0.42041015625,-0.017822265625,-0.3125,1.2936999999999999
3.1603053435114505,0.5954198473282443,-0.7175572519083969,-0.420654296875,-0.01025390625,-0.314208984375,1.2953999999999999
3.267175572519084,0.5038167938931297,-0.7175572519083969,-0.41943359375,-0.012451171875,-0.317138671875,1.2971
3.0076335877862594,0.4122137404580153,-0.7480916030534351,-0.4228515625,-0.014892578125,-0.310302734375,1.2988
3.2977099236641223,0.5038167938931297,-0.7022900763358778,-0.420166015625,-0.013671875,-0.3076171875,1.3005
3.2213740458015265,0.5648854961832062,-0.6564885496183206,-0.42333984375,-0.011474609375,-0.3095703125,1.3022
3.2213740458015265,0.4732824427480916,-0.6412213740458015,-0.415771484375,-0.0166015625,-0.305908203125,1.3038999999999998
2.9923664122137406,0.33587786259541985,-0.9618320610687023,-0.426025390625,-0.013916015625,-0.3095703125,1.3055999999999999
3.2519083969465647,-0.061068702290076333,-0.6259541984732825,-0.423095703125,-0.0166015625,-0.3046875,1.3073
3.267175572519084,0.24427480916030533,-0.7480916030534351,-0.415283203125,-0.012451171875,-0.302978515625,1.309
3.0381679389312977,0.183206106870229,-0.6412213740458015,-0.4189453125,-0.010498046875,-0.299072265625,1.3107
3.3435114503816794,-0.015267175572519083,-0.7022900763358778,-0.419189453125,-0.010986328125,-0.30419921875,1.3124
3.1603053435114505,-0.07633587786259542,-0.6564885496183206,-0.418701171875,-0.011962890625,-0.310302734375,1.3140999999999998
3.3587786259541983,-0.030534351145038167,-0.6564885496183206,-0.42041015625,-0.015869140625,-0.308349609375,1.3157999999999999
3.2061068702290076,-0.183206106870229,-0.5343511450381679,-0.41650390625,-0.013916015625,-0.306396484375,1.3175
3.114503816793893,-0.183206106870229,-0.6870229007633588,-0.41845703125,-0.01513671875,-0.31884765625,1.3192
3.3587786259541983,-0.22900763358778625,-0.5038167938931297,-0.41650390625,-0.011962890625,-0.31298828125,1.3209
3.4198473282442747,-0.10687022900763359,-0.44274809160305345,-0.420166015625,-0.01171875,-0.308837890625,1.3226
3.1908396946564888,-0.2595419847328244,-0.5648854961832062,-0.419921875,-0.015380859375,-0.31103515625,1.3243
3.1603053435114505,0.015267175572519083,-0.3969465648854962,-0.423583984375,-0.021240234375,-0.303955078125,1.3259999999999998
3.0076335877862594,0.12213740458015267,-0.3053435114503817,-0.419677734375,-0.015869140625,-0.313232421875,1.3276999999999999
3.267175572519084,0.015267175572519083,-0.3053435114503817,-0.421142578125,-0.02099609375,-0.314453125,1.3294
3.0076335877862594,0.0,-0.2900763358778626,-0.421875,-0.013916015625,-0.31201171875,1.3311
3.2213740458015265,0.13740458015267176,-0.366412213740458,-0.419189453125,-0.0146484375,-0.31396484375,1.3328
2.900763358778626,0.15267175572519084,-0.6106870229007634,-0.42431640625,-0.017822265625,-0.316650390625,1.3345
2.9770992366412212,0.015267175572519083,-0.33587786259541985,-0.4248046875,-0.01611328125,-0.309814453125,1.3361999999999998
3.099236641221374,0.22900763358778625,-0.7022900763358778,-0.424560546875,-0.011962890625,-0.3056640625,1.3378999999999999
2.9923664122137406,0.21374045801526717,-0.549618320610687,-0.4189453125,-0.01318359375,-0.30517578125,1.3396
2.9160305343511452,0.32061068702290074,-0.42748091603053434,-0.42138671875,-0.015869140625,-0.301025390625,1.3413
2.885496183206107,0.2900763358778626,-0.549618320610687,-0.423583984375,-0.0166015625,-0.30419921875,1.343
3.0076335877862594,0.33587786259541985,-0.5038167938931297,-0.419189453125,-0.014404296875,-0.2978515625,1.3447
3.099236641221374,0.10687022900763359,-0.3969465648854962,-0.422607421875,-0.011474609375,-0.30419921875,1.3463999999999998
2.946564885496183,0.4122137404580153,-0.5954198473282443,-0.425048828125,-0.017578125,-0.307373046875,1.3480999999999999
2.9618320610687023,0.366412213740458,-0.5648854961832062,-0.43017578125,-0.01513671875,-0.30078125,1.3497999999999999
2.9923664122137406,0.3511450381679389,-0.4580152671755725,-0.42529296875,-0.013916015625,-0.31298828125,1.3515
2.9923664122137406,0.4122137404580153,-0.6564885496183206,-0.42578125,-0.013671875,-0.31396484375,1.3532
3.099236641221374,0.2595419847328244,-0.4122137404580153,-0.4228515625,-0.013671875,-0.30810546875,1.3549
3.1297709923664123,0.3511450381679389,-0.5648854961832062,-0.42236328125,-0.013916015625,-0.307861328125,1.3566
3.0229007633587788,0.44274809160305345,-0.549618320610687,-0.42236328125,-0.014404296875,-0.308349609375,1.3582999999999998
2.9160305343511452,0.33587786259541985,-0.48854961832061067,-0.42529296875,-0.017578125,-0.30859375,1.3599999999999999
2.885496183206107,0.6259541984732825,-0.44274809160305345,-0.42138671875,-0.01513671875,-0.31298828125,1.3617
3.0839694656488548,0.4122137404580153,-0.5190839694656488,-0.4208984375,-0.019287109375,-0.308837890625,1.3634
3.1297709923664123,0.44274809160305345,-0.7786259541984732,-0.4248046875,-0.01611328125,-0.308349609375,1.3651
2.9770992366412212,0.6412213740458015,-0.8396946564885496,-0.42138671875,-0.016845703125,-0.305419921875,1.3668
2.9618320610687023,0.4580152671755725,-0.8549618320610687,-0.42578125,-0.01171875,-0.307861328125,1.3684999999999998
2.8396946564885495,0.5343511450381679,-0.7022900763358778,-0.42138671875,-0.01171875,-0.2958984375,1.3701999999999999
2.900763358778626,0.7480916030534351,-0.6259541984732825,-0.423583984375,-0.01513671875,-0.304443359375,1.3719
3.0229007633587788,0.6564885496183206,-0.7786259541984732,-0.42236328125,-0.014892578125,-0.313720703125,1.3736
3.068702290076336,0.44274809160305345,-0.732824427480916,-0.4208984375,-0.016845703125,-0.3095703125,1.3753
3.053435114503817,0.549618320610687,-0.7786259541984732,-0.41845703125,-0.012451171875,-0.304443359375,1.377
2.946564885496183,0.7175572519083969,-0.8549618320610687,-0.42333984375,-0.018798828125,-0.31298828125,1.3786999999999998
2.8396946564885495,0.7175572519083969,-0.7022900763358778,-0.423828125,-0.016357421875,-0.310791015625,1.3803999999999998
2.8244274809160306,0.8396946564885496,-0.9465648854961832,-0.42236328125,-0.017578125,-0.30517578125,1.3820999999999999
2.7938931297709924,0.7938931297709924,-0.8702290076335878,-0.419921875,-0.014404296875,-0.30615234375,1.3838
2.885496183206107,0.7633587786259542,-0.7480916030534351,-0.4248046875,-0.015869140625,-0.3037109375,1.3855
2.9160305343511452,0.7022900763358778,-0.9923664122137404,-0.424072265625,-0.020751953125,-0.31298828125,1.3872
2.6106870229007635,0.732824427480916,-0.9312977099236641,-0.420654296875,-0.01953125,-0.309814453125,1.3889
2.8091603053435112,0.7633587786259542,-0.7022900763358778,-0.421630859375,-0.02001953125,-0.30322265625,1.3905999999999998
2.8091603053435112,0.732824427480916,-1.297709923664122,-0.423583984375,-0.0185546875,-0.304931640625,1.3922999999999999
2.6717557251908395,0.6870229007633588,-1.083969465648855,-0.4189453125,-0.0166015625,-0.30859375,1.394
2.549618320610687,0.7480916030534351,-1.1755725190839694,-0.422607421875,-0.014892578125,-0.308837890625,1.3957
2.4732824427480917,0.8396946564885496,-1.083969465648855,-0.419921875,-0.0126953125,-0.302978515625,1.3974
2.549618320610687,0.9465648854961832,-0.9770992366412213,-0.422607421875,-0.015869140625,-0.310302734375,1.3991
2.6564885496183206,0.7786259541984732,-1.0687022900763359,-0.42041015625,-0.019287109375,-0.30712890625,1.4007999999999998
2.3206106870229006,0.8854961832061069,-1.083969465648855,-0.42431640625,-0.0146484375,-0.31005859375,1.4024999999999999
2.2900763358778624,0.732824427480916,-1.1603053435114503,-0.41943359375,-0.014404296875,-0.297119140625,1.4042
2.183206106870229,0.8244274809160306,-1.1755725190839694,-0.426513671875,-0.017333984375,-0.312255859375,1.4059
2.045801526717557,0.8702290076335878,-1.251908396946565,-0.4208984375,-0.01611328125,-0.303955078125,1.4076
2.5343511450381677,0.8244274809160306,-1.2366412213740459,-0.419189453125,-0.01708984375,-0.31005859375,1.4093
2.198473282442748,0.916030534351145,-1.1603053435114503,-0.423095703125,-0.013671875,-0.307373046875,1.411
2.183206106870229,1.0229007633587786,-0.9465648854961832,-0.419921875,-0.0146484375,-0.3056640625,1.4126999999999998
2.2748091603053435,1.0076335877862594,-0.916030534351145,-0.417724609375,-0.016357421875,-0.31298828125,1.4143999999999999
2.0916030534351147,0.9618320610687023,-1.1603053435114503,-0.423828125,-0.01171875,-0.30908203125,1.4161
2.2595419847328246,1.0229007633587786,-1.1603053435114503,-0.419921875,-0.012939453125,-0.30517578125,1.4178
1.9541984732824427,0.9770992366412213,-1.1450381679389312,-0.421142578125,-0.017822265625,-0.3125,1.4195
1.9541984732824427,1.2061068702290076,-0.9618320610687023,-0.42626953125,-0.020751953125,-0.307861328125,1.4212
2.1526717557251906,1.0687022900763359,-1.2213740458015268,-0.424072265625,-0.016845703125,-0.304443359375,1.4228999999999998
1.984732824427481,0.9465648854961832,-1.1755725190839694,-0.423828125,-0.015869140625,-0.30712890625,1.4245999999999999
1.7557251908396947,1.0687022900763359,-1.3282442748091603,-0.4228515625,-0.01416015625,-0.30224609375,1.4263
1.8473282442748091,0.9007633587786259,-1.0687022900763359,-0.4228515625,-0.015869140625,-0.315185546875,1.428
1.9389312977099236,1.2213740458015268,-1.3435114503816794,-0.42236328125,-0.01611328125,-0.31201171875,1.4297
2.1374045801526718,1.1603053435114503,-1.099236641221374,-0.425048828125,-0.018798828125,-0.308837890625,1.4314
1.9694656488549618,0.916030534351145,-1.2061068702290076,-0.42431640625,-0.013427734375,-0.30859375,1.4330999999999998
1.8015267175572518,1.1297709923664123,-1.251908396946565,-0.4228515625,-0.01806640625,-0.31298828125,1.4347999999999999
1.7404580152671756,1.2213740458015268,-1.282442748091603,-0.426025390625,-0.012939453125,-0.313232421875,1.4364999999999999
1.6946564885496183,1.0687022900763359,-0.8702290076335878,-0.4306640625,-0.01953125,-0.307373046875,1.4382
1.5267175572519085,1.1908396946564885,-1.1908396946564885,-0.4248046875,-0.014892578125,-0.31201171875,1.4399
1.4198473282442747,1.2366412213740459,-1.1603053435114503,-0.42529296875,-0.013427734375,-0.309326171875,1.4416
1.4809160305343512,1.2366412213740459,-1.1450381679389312,-0.419677734375,-0.011474609375,-0.30908203125,1.4433
1.6793893129770991,1.3587786259541985,-1.1145038167938932,-0.418701171875,-0.01025390625,-0.3134765625,1.4449999999999998
1.5267175572519085,1.282442748091603,-1.1603053435114503,-0.42236328125,-0.014892578125,-0.306884765625,1.4466999999999999
1.6030534351145038,0.9923664122137404,-1.099236641221374,-0.425048828125,-0.01318359375,-0.30615234375,1.4484
1.5419847328244274,1.3435114503816794,-1.2061068702290076,-0.423095703125,-0.0224609375,-0.313232421875,1.4501
1.4045801526717556,1.450381679389313,-0.9465648854961832,-0.420654296875,-0.014404296875,-0.3134765625,1.4518
1.3129770992366412,1.4045801526717556,-1.0381679389312977,-0.42236328125,-0.013671875,-0.30615234375,1.4535
1.3587786259541985,1.2366412213740459,-1.0534351145038168,-0.418701171875,-0.0107421875,-0.304931640625,1.4551999999999998
1.2366412213740459,1.282442748091603,-1.2061068702290076,-0.424072265625,-0.00927734375,-0.29931640625,1.4568999999999999
1.1603053435114503,1.3282442748091603,-0.9923664122137404,-0.423095703125,-0.017578125,-0.313232421875,1.4586
1.3435114503816794,1.3129770992366412,-1.1603053435114503,-0.426025390625,-0.0126953125,-0.30517578125,1.4603
0.916030534351145,1.5267175572519085,-0.9312977099236641,-0.419677734375,-0.0146484375,-0.3095703125,1.462
1.2671755725190839,1.5725190839694656,-1.0381679389312977,-0.418212890625,-0.016845703125,-0.306640625,1.4637
1.251908396946565,1.4198473282442747,-1.0076335877862594,-0.41943359375,-0.01220703125,-0.301025390625,1.4653999999999998
1.2213740458015268,1.4809160305343512,-1.0229007633587786,-0.41748046875,-0.01806640625,-0.306396484375,1.4670999999999998
1.3129770992366412,1.465648854961832,-0.9923664122137404,-0.42529296875,-0.017822265625,-0.31005859375,1.4687999999999999
0.9465648854961832,1.3282442748091603,-1.0076335877862594,-0.42822265625,-0.01708984375,-0.307373046875,1.4705
1.099236641221374,1.282442748091603,-0.9465648854961832,-0.41845703125,-0.012939453125,-0.30078125,1.4722
0.916030534351145,1.3435114503816794,-1.1603053435114503,-0.42333984375,-0.019775390625,-0.304443359375,1.4739
1.0076335877862594,1.3587786259541985,-1.0076335877862594,-0.4248046875,-0.014892578125,-0.303955078125,1.4756
0.9770992366412213,1.3740458015267176,-0.9618320610687023,-0.424560546875,-0.012939453125,-0.306884765625,1.4772999999999998
1.0687022900763359,1.4809160305343512,-1.1603053435114503,-0.423828125,-0.011962890625,-0.30224609375,1.4789999999999999
0.7938931297709924,1.3740458015267176,-1.1603053435114503,-0.428955078125,-0.015625,-0.30615234375,1.4807
1.099236641221374,1.282442748091603,-1.1145038167938932,-0.421630859375,-0.014892578125,-0.315185546875,1.4824
1.1297709923664123,1.3740458015267176,-1.1145038167938932,-0.42138671875,-0.0126953125,-0.306640625,1.4841
0.9770992366412213,1.3587786259541985,-1.251908396946565,-0.422607421875,-0.0185546875,-0.3115234375,1.4858
0.9007633587786259,1.3893129770992367,-1.251908396946565,-0.419921875,-0.014892578125,-0.310546875,1.4874999999999998
1.099236641221374,1.3740458015267176,-1.1603053435114503,-0.416748046875,-0.018798828125,-0.306640625,1.4891999999999999
0.8702290076335878,1.2671755725190839,-1.3435114503816794,-0.42626953125,-0.01220703125,-0.314208984375,1.4909
1.0229007633587786,1.2366412213740459,-1.0381679389312977,-0.423828125,-0.017333984375,-0.31201171875,1.4926
1.2061068702290076,1.1297709923664123,-1.1450381679389312,-0.417724609375,-0.014892578125,-0.31787109375,1.4943
1.1145038167938932,1.0687022900763359,-1.1297709923664123,-0.414794921875,-0.011962890625,-0.31201171875,1.496
0.9923664122137404,0.9770992366412213,-1.083969465648855,-0.417724609375,-0.009765625,-0.3115234375,1.4976999999999998
1.099236641221374,0.9007633587786259,-0.9465648854961832,-0.418212890625,-0.01318359375,-0.306640625,1.4993999999999998
1.0687022900763359,0.8854961832061069,-1.251908396946565,-0.41748046875,-0.020263671875,-0.301025390625,1.5010999999999999
0.8549618320610687,0.42748091603053434,-0.916030534351145,-0.417236328125,-0.0166015625,-0.29736328125,1.5028
0.7175572519083969,0.42748091603053434,-0.8702290076335878,-0.421630859375,-0.0107421875,-0.305908203125,1.5045
0.8244274809160306,0.32061068702290074,-1.0076335877862594,-0.41796875,-0.017578125,-0.306640625,1.5062
1.0229007633587786,0.32061068702290074,-0.9923664122137404,-0.419921875,-0.0166015625,-0.309326171875,1.5079
0.8854961832061069,0.48854961832061067,-0.9465648854961832,-0.421142578125,-0.012939453125,-0.306640625,1.5095999999999998
0.7175572519083969,0.13740458015267176,-1.2366412213740459,-0.423828125,-0.011474609375,-0.302734375,1.5112999999999999
1.0534351145038168,0.15267175572519084,-1.1908396946564885,-0.421630859375,-0.01611328125,-0.302978515625,1.513
0.8854961832061069,0.183206106870229,-1.083969465648855,-0.4208984375,-0.016357421875,-0.305419921875,1.5147
0.8854961832061069,0.48854961832061067,-0.9465648854961832,-0.425537109375,-0.015869140625,-0.308837890625,1.5164
0.916030534351145,0.2595419847328244,-1.0076335877862594,-0.42236328125,-0.010986328125,-0.31005859375,1.5181
0.9007633587786259,0.42748091603053434,-1.0687022900763359,-0.4248046875,-0.011962890625,-0.3125,1.5197999999999998
0.7480916030534351,0.3816793893129771,-0.8396946564885496,-0.422607421875,-0.01123046875,-0.300048828125,1.5214999999999999
0.8244274809160306,0.33587786259541985,-0.7022900763358778,-0.421630859375,-0.0146484375,-0.305908203125,1.5231999999999999
0.6412213740458015,0.3511450381679389,-1.0381679389312977,-0.42578125,-0.015380859375,-0.302490234375,1.5249
0.6717557251908397,0.33587786259541985,-0.9770992366412213,-0.423828125,-0.007568359375,-0.30615234375,1.5266
0.8244274809160306,0.44274809160305345,-1.0534351145038168,-0.422119140625,-0.0166015625,-0.306640625,1.5283
0.7633587786259542,0.3816793893129771,-1.0229007633587786,-0.417724609375,-0.01171875,-0.30810546875,1.5299999999999998
0.5801526717557252,0.42748091603053434,-1.1145038167938932,-0.421630859375,-0.010498046875,-0.309814453125,1.5316999999999998
0.916030534351145,0.6259541984732825,-1.0687022900763359,-0.42578125,-0.014404296875,-0.3125,1.5333999999999999
0.8244274809160306,0.4122137404580153,-1.3129770992366412,-0.41796875,-0.014892578125,-0.311279296875,1.5351
0.8702290076335878,0.061068702290076333,-1.1755725190839694,-0.422119140625,-0.0146484375,-0.307373046875,1.5368
0.8091603053435115,0.04580152671755725,-1.251908396946565,-0.422119140625,-0.01220703125,-0.31103515625,1.5385
0.8702290076335878,-0.030534351145038167,-0.8702290076335878,-0.4208984375,-0.018798828125,-0.309326171875,1.5402
0.8091603053435115,0.15267175572519084,-1.0534351145038168,-0.423828125,-0.01025390625,-0.3115234375,1.5418999999999998
0.7938931297709924,0.07633587786259542,-1.1450381679389312,-0.419921875,-0.011962890625,-0.31005859375,1.5435999999999999
1.0534351145038168,0.12213740458015267,-0.9618320610687023,-0.417724609375,-0.017822265625,-0.30419921875,1.5453
0.9312977099236641,0.07633587786259542,-0.7786259541984732,-0.422607421875,-0.013427734375,-0.30078125,1.547
0.6412213740458015,0.183206106870229,-1.0687022900763359,-0.423583984375,-0.016845703125,-0.3095703125,1.5487
0.8702290076335878,0.3053435114503817,-0.9770992366412213,-0.427490234375,-0.0185546875,-0.310302734375,1.5504
0.8244274809160306,0.16793893129770993,-0.9618320610687023,-0.423583984375,-0.0126953125,-0.307861328125,1.5520999999999998
0.8549618320610687,0.4732824427480916,-0.8702290076335878,-0.427490234375,-0.015380859375,-0.3076171875,1.5537999999999998
0.7175572519083969,0.4122137404580153,-0.8396946564885496,-0.42236328125,-0.0126953125,-0.308349609375,1.5554999999999999
0.7786259541984732,0.5190839694656488,-0.7022900763358778,-0.423828125,-0.013671875,-0.30810546875,1.5572
0.7480916030534351,0.4732824427480916,-0.7938931297709924,-0.425537109375,-0.008056640625,-0.302734375,1.5589
0.9770992366412213,0.6564885496183206,-0.7786259541984732,-0.42333984375,-0.015380859375,-0.3125,1.5606
0.9007633587786259,0.4580152671755725,-0.6717557251908397,-0.42822265625,-0.01416015625,-0.309814453125,1.5623
0.9007633587786259,0.4732824427480916,-0.4580152671755725,-0.42236328125,-0.013671875,-0.314453125,1.5639999999999998
0.916030534351145,0.6106870229007634,-0.6717557251908397,-0.422119140625,-0.01025390625,-0.3125,1.5656999999999999
0.48854961832061067,0.5801526717557252,-0.4732824427480916,-0.423095703125,-0.01025390625,-0.31494140625,1.5674
0.732824427480916,0.5954198473282443,-0.4732824427480916,-0.422119140625,-0.0126953125,-0.297607421875,1.5691
0.916030534351145,0.3511450381679389,-0.5343511450381679,-0.425537109375,-0.015380859375,-0.302734375,1.5708
0.8854961832061069,0.3816793893129771,-0.2595419847328244,-0.425537109375,-0.009521484375,-0.31298828125,1.5725
0.7022900763358778,0.5190839694656488,-0.2900763358778626,-0.41650390625,-0.015625,-0.307861328125,1.5741999999999998
0.44274809160305345,0.6870229007633588,-0.2595419847328244,-0.41748046875,-0.011474609375,-0.30517578125,1.5758999999999999
0.8091603053435115,0.6259541984732825,-0.1984732824427481,-0.42041015625,-0.01611328125,-0.3056640625,1.5776
0.7786259541984732,0.6717557251908397,-0.2900763358778626,-0.427001953125,-0.012939453125,-0.31005859375,1.5793
0.7633587786259542,0.7938931297709924,-0.33587786259541985,-0.427978515625,-0.00830078125,-0.306884765625,1.581
0.8244274809160306,0.4732824427480916,-0.12213740458015267,-0.42822265625,-0.011474609375,-0.3076171875,1.5827
0.732824427480916,0.5648854961832062,-0.33587786259541985,-0.427978515625,-0.01318359375,-0.307861328125,1.5843999999999998
0.7175572519083969,0.7480916030534351,-0.24427480916030533,-0.419921875,-0.020751953125,-0.309814453125,1.5860999999999998
0.916030534351145,0.6870229007633588,-0.15267175572519084,-0.41748046875,-0.01513671875,-0.304931640625,1.5877999999999999
0.6870229007633588,0.7786259541984732,0.04580152671755725,-0.42138671875,-0.015869140625,-0.302001953125,1.5895
0.5954198473282443,0.9618320610687023,0.13740458015267176,-0.4208984375,-0.01123046875,-0.301513671875,1.5912
0.6259541984732825,0.9007633587786259,0.07633587786259542,-0.421875,-0.012451171875,-0.30322265625,1.5929
0.6259541984732825,0.8396946564885496,0.030534351145038167,-0.421142578125,-0.011962890625,-0.31103515625,1.5946
0.7786259541984732,0.8854961832061069,0.2748091603053435,-0.428466796875,-0.01318359375,-0.310791015625,1.5962999999999998
0.6717557251908397,0.8702290076335878,0.030534351145038167,-0.430908203125,-0.01025390625,-0.310791015625,1.5979999999999999
0.7480916030534351,0.732824427480916,0.22900763358778625,-0.42529296875,-0.012451171875,-0.30859375,1.5997
0.7022900763358778,0.9007633587786259,0.12213740458015267,-0.425048828125,-0.013671875,-0.3125,1.6014
0.5648854961832062,0.8396946564885496,0.0,-0.423095703125,-0.015380859375,-0.310791015625,1.6031
0.7175572519083969,0.916030534351145,0.07633587786259542,-0.4189453125,-0.012939453125,-0.3056640625,1.6048
0.7022900763358778,0.8244274809160306,0.22900763358778625,-0.414306640625,-0.015625,-0.301513671875,1.6064999999999998
0.6412213740458015,0.6717557251908397,0.10687022900763359,-0.42333984375,-0.00830078125,-0.31298828125,1.6081999999999999
0.8396946564885496,0.9770992366412213,0.24427480916030533,-0.426513671875,-0.013671875,-0.309326171875,1.6098999999999999
0.8549618320610687,0.8549618320610687,0.2595419847328244,-0.422607421875,-0.00634765625,-0.3095703125,1.6116
0.9923664122137404,0.9618320610687023,0.16793893129770993,-0.425048828125,-0.01416015625,-0.306396484375,1.6133
0.8549618320610687,1.1297709923664123,0.015267175572519083,-0.427734375,-0.014892578125,-0.306884765625,1.615
0.8854961832061069,1.0534351145038168,0.1984732824427481,-0.426513671875,-0.013671875,-0.30810546875,1.6166999999999998
0.8396946564885496,0.8396946564885496,0.12213740458015267,-0.426025390625,-0.010498046875,-0.306640625,1.6183999999999998
0.916030534351145,1.0229007633587786,0.24427480916030533,-0.427978515625,-0.01025390625,-0.31689453125,1.6200999999999999
0.7786259541984732,1.099236641221374,-0.015267175572519083,-0.429931640625,-0.007080078125,-0.305419921875,1.6218
0.916030534351145,1.083969465648855,0.2900763358778626,-0.4228515625,-0.00927734375,-0.312744140625,1.6235
1.0534351145038168,1.2061068702290076,0.030534351145038167,-0.43115234375,-0.015869140625,-0.310302734375,1.6252
0.8396946564885496,1.2213740458015268,0.061068702290076333,-0.42578125,-0.01220703125,-0.30859375,1.6269
1.0534351145038168,1.083969465648855,0.015267175572519083,-0.419921875,-0.0107421875,-0.302490234375,1.6285999999999998
0.9465648854961832,1.1145038167938932,0.0916030534351145,-0.42236328125,-0.01416015625,-0.310791015625,1.6302999999999999
1.099236641221374,1.282442748091603,0.10687022900763359,-0.42138671875,-0.0126953125,-0.31103515625,1.632
0.9618320610687023,1.3587786259541985,-0.07633587786259542,-0.42578125,-0.013916015625,-0.311279296875,1.6337
1.1297709923664123,1.2671755725190839,-0.24427480916030533,-0.426513671875,-0.01318359375,-0.3056640625,1.6354
0.9312977099236641,1.4045801526717556,0.04580152671755725,-0.4287109375,-0.01025390625,-0.30810546875,1.6371
0.9923664122137404,1.4809160305343512,-0.16793893129770993,-0.4287109375,-0.01904296875,-0.309814453125,1.6387999999999998
1.0076335877862594,1.5877862595419847,0.0,-0.428955078125,-0.012939453125,-0.3095703125,1.6404999999999998
1.0534351145038168,1.3893129770992367,-0.10687022900763359,-0.421875,-0.012451171875,-0.31298828125,1.6421999999999999
1.099236641221374,1.618320610687023,0.0,-0.42578125,-0.009521484375,-0.309326171875,1.6439
0.9465648854961832,1.7557251908396947,-0.1984732824427481,-0.4248046875,-0.01025390625,-0.30859375,1.6456
1.1908396946564885,1.5572519083969465,-0.12213740458015267,-0.42431640625,-0.014404296875,-0.310302734375,1.6473
1.1755725190839694,1.7404580152671756,-0.21374045801526717,-0.426025390625,-0.01416015625,-0.305419921875,1.6489999999999998
1.0229007633587786,1.8931297709923665,0.10687022900763359,-0.426513671875,-0.013427734375,-0.308837890625,1.6506999999999998
1.083969465648855,1.8778625954198473,-0.15267175572519084,-0.42578125,-0.011962890625,-0.30908203125,1.6523999999999999
0.8854961832061069,1.9541984732824427,-0.030534351145038167,-0.425048828125,-0.012939453125,-0.30712890625,1.6541
1.2213740458015268,1.5725190839694656,-0.13740458015267176,-0.4208984375,-0.01025390625,-0.312744140625,1.6558
1.251908396946565,1.9541984732824427,0.061068702290076333,-0.425537109375,-0.0087890625,-0.309814453125,1.6575
1.1297709923664123,1.9236641221374047,-0.15267175572519084,-0.4248046875,-0.005859375,-0.30615234375,1.6592
1.0229007633587786,1.83206106870229,0.04580152671755725,-0.4228515625,-0.0146484375,-0.310791015625,1.6608999999999998
1.1908396946564885,1.9694656488549618,-0.1984732824427481,-0.4267578125,-0.011962890625,-0.3125,1.6625999999999999
1.2366412213740459,2.015267175572519,-0.015267175572519083,-0.42431640625,-0.01318359375,-0.30615234375,1.6643
1.099236641221374,2.045801526717557,-0.3053435114503817,-0.421875,-0.01513671875,-0.30615234375,1.666
1.083969465648855,2.045801526717557,-0.061068702290076333,-0.425537109375,-0.010009765625,-0.30810546875,1.6677
0.916030534351145,1.9083969465648856,-0.04580152671755725,-0.421142578125,-0.0107421875,-0.298583984375,1.6694
1.1450381679389312,2.0,0.061068702290076333,-0.4248046875,-0.01171875,-0.297119140625,1.6710999999999998
0.9618320610687023,2.0,-0.1984732824427481,-0.423828125,-0.0126953125,-0.309326171875,1.6727999999999998
1.099236641221374,2.015267175572519,0.061068702290076333,-0.423828125,-0.01171875,-0.302001953125,1.6744999999999999
0.9923664122137404,2.0,0.030534351145038167,-0.4248046875,-0.010498046875,-0.30615234375,1.6762
0.9007633587786259,2.1374045801526718,0.04580152671755725,-0.421875,-0.007568359375,-0.3017578125,1.6779
1.0076335877862594,2.0,0.15267175572519084,-0.425048828125,-0.01318359375,-0.30517578125,1.6796
1.1603053435114503,1.7709923664122138,0.15267175572519084,-0.42431640625,-0.012939453125,-0.310302734375,1.6813
0.9007633587786259,1.9694656488549618,0.030534351145038167,-0.423828125,-0.010986328125,-0.315185546875,1.6829999999999998
0.9312977099236641,2.045801526717557,0.22900763358778625,-0.422607421875,-0.01416015625,-0.31201171875,1.6846999999999999
0.9923664122137404,1.9694656488549618,0.0,-0.42431640625,-0.009521484375,-0.310302734375,1.6864
0.9465648854961832,2.0763358778625953,0.030534351145038167,-0.422119140625,-0.010009765625,-0.308837890625,1.6881
0.8396946564885496,1.83206106870229,0.1984732824427481,-0.417236328125,-0.010986328125,-0.308349609375,1.6898
0.8091603053435115,1.7099236641221374,0.07633587786259542,-0.423583984375,-0.013671875,-0.303466796875,1.6915
0.8702290076335878,1.7251908396946565,0.04580152671755725,-0.421630859375,-0.01611328125,-0.308837890625,1.6931999999999998
0.7938931297709924,1.816793893129771,0.24427480916030533,-0.41796875,-0.009765625,-0.31884765625,1.6948999999999999
0.8702290076335878,1.633587786259542,-0.04580152671755725,-0.42041015625,-0.013916015625,-0.309814453125,1.6965999999999999
0.8396946564885496,1.6641221374045803,0.12213740458015267,-0.4228515625,-0.009521484375,-0.31396484375,1.6983
0.6870229007633588,1.465648854961832,0.061068702290076333,-0.4189453125,-0.012939453125,-0.307861328125,1.7
0.7480916030534351,1.4961832061068703,0.21374045801526717,-0.416015625,-0.015625,-0.294677734375,1.7017
0.7175572519083969,1.4198473282442747,0.0916030534351145,-0.422119140625,-0.016845703125,-0.297119140625,1.7033999999999998
0.7938931297709924,1.4351145038167938,0.2595419847328244,-0.4189453125,-0.013916015625,-0.304443359375,1.7050999999999998
0.6717557251908397,1.465648854961832,-0.015267175572519083,-0.418701171875,-0.014404296875,-0.302001953125,1.7067999999999999
0.6259541984732825,1.282442748091603,0.0916030534351145,-0.421142578125,-0.012939453125,-0.303955078125,1.7085
0.6870229007633588,1.1908396946564885,0.16793893129770993,-0.421142578125,-0.014404296875,-0.312744140625,1.7102
0.6717557251908397,1.1297709923664123,0.3969465648854962,-0.4150390625,-0.01513671875,-0.311279296875,1.7119
0.33587786259541985,1.2366412213740459,0.183206106870229,-0.417236328125,-0.010986328125,-0.3212890625,1.7136
0.7022900763358778,1.2366412213740459,0.3053435114503817,-0.41796875,-0.0087890625,-0.310791015625,1.7152999999999998
0.8091603053435115,1.0076335877862594,0.0916030534351145,-0.42431640625,-0.012451171875,-0.310302734375,1.7169999999999999
0.7022900763358778,1.0229007633587786,0.2595419847328244,-0.41943359375,-0.010498046875,-0.311767578125,1.7187
0.7938931297709924,0.916030534351145,0.2748091603053435,-0.419921875,-0.01025390625,-0.308349609375,1.7204
0.5801526717557252,1.099236641221374,0.13740458015267176,-0.420654296875,-0.014892578125,-0.3154296875,1.7221
0.549618320610687,0.9312977099236641,0.15267175572519084,-0.420654296875,-0.00927734375,-0.308837890625,1.7238
0.7022900763358778,0.8396946564885496,0.2595419847328244,-0.413818359375,-0.01025390625,-0.313720703125,1.7254999999999998
0.5801526717557252,1.0381679389312977,0.21374045801526717,-0.41943359375,-0.01513671875,-0.30615234375,1.7271999999999998
0.5190839694656488,0.7633587786259542,0.22900763358778625,-0.416259765625,-0.010986328125,-0.30712890625,1.7288999999999999
0.5954198473282443,0.7022900763358778,0.15267175572519084,-0.4169921875,-0.016845703125,-0.30322265625,1.7306
0.5801526717557252,0.8244274809160306,0.4580152671755725,-0.415771484375,-0.015380859375,-0.310791015625,1.7323
0.48854961832061067,0.8702290076335878,0.24427480916030533,-0.424072265625,-0.0126953125,-0.3115234375,1.734
0.5190839694656488,0.6259541984732825,0.15267175572519084,-0.4189453125,-0.018798828125,-0.308349609375,1.7356999999999998
0.6106870229007634,0.8702290076335878,0.061068702290076333,-0.42529296875,-0.01318359375,-0.305908203125,1.7373999999999998
0.5954198473282443,0.6564885496183206,0.21374045801526717,-0.419189453125,-0.01318359375,-0.31591796875,1.7390999999999999
0.549618320610687,0.6564885496183206,0.2900763358778626,-0.4189453125,-0.010986328125,-0.3046875,1.7408
0.6412213740458015,0.5648854961832062,0.21374045801526717,-0.41845703125,-0.012939453125,-0.314208984375,1.7425
0.44274809160305345,0.3816793893129771,0.0916030534351145,-0.421875,-0.01123046875,-0.303466796875,1.7442
0.4580152671755725,0.5190839694656488,0.15267175572519084,-0.414306640625,-0.01611328125,-0.303955078125,1.7459
0.6412213740458015,0.4122137404580153,0.12213740458015267,-0.417724609375,-0.008544921875,-0.30078125,1.7475999999999998
0.549618320610687,0.2748091603053435,0.24427480916030533,-0.417724609375,-0.01611328125,-0.305908203125,1.7492999999999999
0.5801526717557252,0.3511450381679389,0.32061068702290074,-0.419921875,-0.015380859375,-0.3154296875,1.751
0.5038167938931297,0.061068702290076333,0.22900763358778625,-0.42041015625,-0.012939453125,-0.31201171875,1.7527
0.6412213740458015,0.16793893129770993,0.13740458015267176,-0.4189453125,-0.015380859375,-0.31298828125,1.7544
0.6564885496183206,0.21374045801526717,0.15267175572519084,-0.4140625,-0.015625,-0.302734375,1.7561
0.366412213740458,0.1984732824427481,0.183206106870229,-0.42236328125,-0.01025390625,-0.3056640625,1.7577999999999998
0.5648854961832062,0.0916030534351145,0.10687022900763359,-0.424072265625,-0.0166015625,-0.305419921875,1.7594999999999998
0.5343511450381679,-0.16793893129770993,0.2748091603053435,-0.423095703125,-0.0087890625,-0.30517578125,1.7611999999999999
0.3969465648854962,0.0,0.2595419847328244,-0.42041015625,-0.013916015625,-0.309326171875,1.7629
0.366412213740458,-0.030534351145038167,0.1984732824427481,-0.416015625,-0.007080078125,-0.305419921875,1.7646
0.1984732824427481,0.015267175572519083,0.22900763358778625,-0.4189453125,-0.006103515625,-0.303466796875,1.7663
0.48854961832061067,-0.2748091603053435,0.21374045801526717,-0.414306640625,-0.0166015625,-0.306884765625,1.7679999999999998
0.5343511450381679,-0.12213740458015267,0.22900763358778625,-0.419921875,-0.013671875,-0.3115234375,1.7696999999999998
0.42748091603053434,-0.15267175572519084,0.3053435114503817,-0.41748046875,-0.01025390625,-0.308349609375,1.7713999999999999
0.4122137404580153,-0.1984732824427481,0.3053435114503817,-0.418701171875,-0.006591796875,-0.3056640625,1.7731
0.5038167938931297,-0.2900763358778626,0.21374045801526717,-0.41943359375,-0.012451171875,-0.311767578125,1.7748
0.44274809160305345,-0.2748091603053435,0.0916030534351145,-0.417724609375,-0.01025390625,-0.31201171875,1.7765
0.2748091603053435,-0.33587786259541985,0.15267175572519084,-0.419921875,-0.01171875,-0.310791015625,1.7782
0.12213740458015267,-0.4122137404580153,0.12213740458015267,-0.415283203125,-0.010009765625,-0.303955078125,1.7798999999999998
0.48854961832061067,-0.549618320610687,0.2900763358778626,-0.412353515625,-0.011962890625,-0.308349609375,1.7815999999999999
0.3816793893129771,-0.4732824427480916,0.1984732824427481,-0.420654296875,-0.01171875,-0.302734375,1.7832999999999999
0.5038167938931297,-0.4122137404580153,0.3053435114503817,-0.41796875,-0.0087890625,-0.306640625,1.785
0.2748091603053435,-0.7480916030534351,0.366412213740458,-0.415771484375,-0.008544921875,-0.307861328125,1.7867
0.3511450381679389,-1.0381679389312977,0.2900763358778626,-0.420166015625,-0.0126953125,-0.30615234375,1.7884
0.366412213740458,-0.9618320610687023,0.5954198473282443,-0.411865234375,-0.005859375,-0.309814453125,1.7900999999999998
0.6412213740458015,-1.0229007633587786,0.4732824427480916,-0.41650390625,-0.009765625,-0.310546875,1.7917999999999998
0.7175572519083969,-1.1145038167938932,0.24427480916030533,-0.41552734375,-0.013671875,-0.315673828125,1.7934999999999999
