gyrox1,gyroy1,gyroz1,accelx1,accely1,accelz1,Time
1.618320610687023,1.2061068702290076,-1.5725190839694656,-0.44287109375,0.003662109375,-0.270751953125,0.0
1.3587786259541985,1.2061068702290076,-1.618320610687023,-0.44384765625,0.011474609375,-0.258544921875,0.0017
1.3740458015267176,1.1755725190839694,-1.5572519083969465,-0.441650390625,0.00634765625,-0.260009765625,0.0034
1.5114503816793894,1.1450381679389312,-1.816793893129771,-0.44482421875,0.0078125,-0.2490234375,0.0050999999999999995
1.3893129770992367,1.282442748091603,-1.5877862595419847,-0.442626953125,0.0068359375,-0.259521484375,0.0068
1.5114503816793894,1.083969465648855,-1.5419847328244274,-0.43994140625,0.010986328125,-0.255859375,0.008499999999999999
1.633587786259542,1.099236641221374,-1.3587786259541985,-0.442626953125,0.007080078125,-0.26953125,0.010199999999999999
1.618320610687023,1.1297709923664123,-1.5114503816793894,-0.443603515625,0.006591796875,-0.260498046875,0.011899999999999999
1.4045801526717556,1.2366412213740459,-1.2213740458015268,-0.44384765625,0.006591796875,-0.264404296875,0.0136
1.5114503816793894,1.1145038167938932,-1.3587786259541985,-0.444580078125,0.004638671875,-0.256103515625,0.0153
1.633587786259542,1.0076335877862594,-1.3129770992366412,-0.439697265625,0.006103515625,-0.264892578125,0.016999999999999998
1.4809160305343512,0.9312977099236641,-1.3893129770992367,-0.4423828125,0.005126953125,-0.26171875,0.018699999999999998
1.4198473282442747,1.0381679389312977,-1.282442748091603,-0.44384765625,0.0078125,-0.26220703125,0.020399999999999998
1.450381679389313,0.9312977099236641,-1.5114503816793894,-0.44580078125,0.00390625,-0.2626953125,0.022099999999999998
1.6488549618320612,0.9770992366412213,-1.4198473282442747,-0.43994140625,0.00439453125,-0.260009765625,0.023799999999999998
1.6641221374045803,0.916030534351145,-1.3740458015267176,-0.439453125,0.00732421875,-0.261962890625,0.0255
1.465648854961832,0.7938931297709924,-1.3282442748091603,-0.4423828125,0.001708984375,-0.261474609375,0.0272
1.3129770992366412,1.0076335877862594,-1.2366412213740459,-0.442626953125,0.009033203125,-0.260009765625,0.0289
1.3129770992366412,1.083969465648855,-1.099236641221374,-0.443359375,0.00341796875,-0.255126953125,0.0306
1.3740458015267176,1.0534351145038168,-1.1755725190839694,-0.443603515625,0.00341796875,-0.261962890625,0.032299999999999995
1.4351145038167938,1.1145038167938932,-0.8549618320610687,-0.4443359375,0.001953125,-0.25732421875,0.033999999999999996
1.297709923664122,1.099236641221374,-1.1450381679389312,-0.441162109375,0.006591796875,-0.2626953125,0.035699999999999996
1.3893129770992367,1.1603053435114503,-1.1297709923664123,-0.4404296875,0.004638671875,-0.270751953125,0.037399999999999996
1.5114503816793894,1.0381679389312977,-1.1603053435114503,-0.446044921875,0.00390625,-0.25634765625,0.039099999999999996
1.3740458015267176,1.2366412213740459,-1.0534351145038168,-0.442626953125,0.0048828125,-0.258056640625,0.040799999999999996
1.4961832061068703,1.0076335877862594,-1.297709923664122,-0.443359375,0.008056640625,-0.265869140625,0.042499999999999996
1.251908396946565,1.1145038167938932,-1.2366412213740459,-0.43798828125,0.003662109375,-0.258544921875,0.044199999999999996
1.4351145038167938,1.2366412213740459,-1.1297709923664123,-0.439453125,0.010986328125,-0.2568359375,0.045899999999999996
1.2061068702290076,0.916030534351145,-1.1297709923664123,-0.4375,0.00830078125,-0.263427734375,0.047599999999999996
1.1450381679389312,0.8702290076335878,-1.282442748091603,-0.44140625,0.00634765625,-0.26416015625,0.0493
0.9923664122137404,0.8244274809160306,-1.2671755725190839,-0.43701171875,0.005615234375,-0.26318359375,0.051
1.5572519083969465,0.5190839694656488,-1.1145038167938932,-0.437255859375,0.00830078125,-0.260986328125,0.0527
1.450381679389313,0.6106870229007634,-1.0381679389312977,-0.43408203125,0.009033203125,-0.26611328125,0.0544
1.282442748091603,0.6717557251908397,-0.9465648854961832,-0.441650390625,0.00927734375,-0.255615234375,0.0561
1.2061068702290076,0.5190839694656488,-0.8854961832061069,-0.443359375,0.0068359375,-0.258056640625,0.0578
1.3893129770992367,0.5801526717557252,-1.083969465648855,-0.440673828125,0.0068359375,-0.261474609375,0.0595
1.297709923664122,0.4580152671755725,-0.8091603053435115,-0.4384765625,0.008056640625,-0.25830078125,0.0612
1.0534351145038168,0.5343511450381679,-0.9312977099236641,-0.437255859375,0.010009765625,-0.2529296875,0.0629
1.3893129770992367,0.5648854961832062,-0.9465648854961832,-0.44091796875,0.008056640625,-0.259521484375,0.06459999999999999
1.3282442748091603,0.6106870229007634,-1.0381679389312977,-0.4404296875,0.0078125,-0.248046875,0.0663
1.3129770992366412,0.5801526717557252,-1.0076335877862594,-0.44384765625,0.006591796875,-0.258056640625,0.06799999999999999
1.282442748091603,0.5648854961832062,-0.8396946564885496,-0.441650390625,0.01025390625,-0.264892578125,0.0697
1.2366412213740459,0.5648854961832062,-0.7786259541984732,-0.436279296875,0.00244140625,-0.2587890625,0.07139999999999999
1.2061068702290076,0.4580152671755725,-0.8854961832061069,-0.4443359375,0.008056640625,-0.267822265625,0.0731
1.2366412213740459,0.3511450381679389,-0.7633587786259542,-0.43701171875,0.0087890625,-0.25927734375,0.07479999999999999
1.0687022900763359,0.44274809160305345,-0.8244274809160306,-0.43896484375,0.010986328125,-0.262451171875,0.0765
1.282442748091603,0.44274809160305345,-0.8854961832061069,-0.44140625,0.004150390625,-0.26171875,0.07819999999999999
1.1908396946564885,0.366412213740458,-0.8091603053435115,-0.43896484375,0.01171875,-0.2548828125,0.0799
1.0076335877862594,0.2900763358778626,-0.8396946564885496,-0.43798828125,0.0048828125,-0.261962890625,0.08159999999999999
1.083969465648855,0.33587786259541985,-0.9312977099236641,-0.445556640625,0.009033203125,-0.260986328125,0.0833
1.083969465648855,0.24427480916030533,-0.8244274809160306,-0.4375,0.0078125,-0.258544921875,0.08499999999999999
1.2366412213740459,0.3969465648854962,-0.9618320610687023,-0.43896484375,0.00634765625,-0.259521484375,0.0867
1.0687022900763359,0.2748091603053435,-0.7633587786259542,-0.445068359375,0.001708984375,-0.263427734375,0.08839999999999999
0.9923664122137404,0.183206106870229,-0.732824427480916,-0.43994140625,0.001953125,-0.26025390625,0.0901
1.1450381679389312,0.366412213740458,-0.5954198473282443,-0.4375,0.003662109375,-0.253662109375,0.09179999999999999
1.0076335877862594,0.3816793893129771,-0.6412213740458015,-0.440185546875,0.00537109375,-0.2607421875,0.0935
0.8702290076335878,0.3511450381679389,-0.8396946564885496,-0.44580078125,0.0048828125,-0.259765625,0.09519999999999999
0.9770992366412213,0.366412213740458,-0.7633587786259542,-0.440673828125,0.00439453125,-0.260498046875,0.0969
0.9007633587786259,0.3969465648854962,-0.5648854961832062,-0.44189453125,0.00732421875,-0.264404296875,0.0986
0.8091603053435115,0.4580152671755725,-0.6412213740458015,-0.443359375,0.009765625,-0.25341796875,0.1003
0.732824427480916,0.5801526717557252,-0.6717557251908397,-0.44189453125,0.009033203125,-0.2568359375,0.102
0.9312977099236641,0.4580152671755725,-0.6870229007633588,-0.439697265625,0.010009765625,-0.256103515625,0.1037
0.6412213740458015,0.4122137404580153,-0.7175572519083969,-0.44384765625,0.00927734375,-0.26416015625,0.1054
0.5801526717557252,0.4580152671755725,-0.549618320610687,-0.441162109375,0.0048828125,-0.259521484375,0.1071
0.8549618320610687,0.6564885496183206,-0.7480916030534351,-0.442138671875,0.0087890625,-0.26318359375,0.1088
0.7786259541984732,0.5954198473282443,-0.6870229007633588,-0.441162109375,0.007080078125,-0.262939453125,0.11049999999999999
0.7786259541984732,0.5954198473282443,-0.5648854961832062,-0.4423828125,0.01025390625,-0.256591796875,0.1122
0.6717557251908397,0.6106870229007634,-0.5801526717557252,-0.4443359375,0.010009765625,-0.253662109375,0.11389999999999999
0.5038167938931297,0.4122137404580153,-0.7175572519083969,-0.44287109375,0.0087890625,-0.25634765625,0.1156
0.5038167938931297,0.44274809160305345,-0.7175572519083969,-0.443359375,-0.00341796875,-0.25390625,0.11729999999999999
0.42748091603053434,0.549618320610687,-0.732824427480916,-0.44189453125,0.013427734375,-0.259765625,0.119
0.5038167938931297,0.5954198473282443,-0.5954198473282443,-0.44677734375,0.014404296875,-0.257080078125,0.12069999999999999
0.4122137404580153,0.6870229007633588,-0.6259541984732825,-0.444580078125,0.002197265625,-0.257568359375,0.1224
0.5343511450381679,0.5648854961832062,-0.6564885496183206,-0.447509765625,0.00390625,-0.266357421875,0.12409999999999999
0.3816793893129771,0.7786259541984732,-0.732824427480916,-0.44287109375,0.0107421875,-0.260986328125,0.1258
0.4122137404580153,0.8244274809160306,-0.5648854961832062,-0.442138671875,0.00830078125,-0.26708984375,0.1275
0.549618320610687,0.6870229007633588,-0.7022900763358778,-0.44189453125,0.0078125,-0.25830078125,0.12919999999999998
0.16793893129770993,0.7022900763358778,-0.7786259541984732,-0.44482421875,0.004150390625,-0.26953125,0.1309
0.366412213740458,0.6870229007633588,-0.8396946564885496,-0.446044921875,0.0029296875,-0.255126953125,0.1326
0.21374045801526717,0.7786259541984732,-0.6870229007633588,-0.445068359375,0.0068359375,-0.267333984375,0.1343
0.3969465648854962,0.7022900763358778,-0.8091603053435115,-0.4443359375,0.010498046875,-0.25537109375,0.13599999999999998
0.12213740458015267,0.6564885496183206,-0.6717557251908397,-0.445556640625,0.009765625,-0.25146484375,0.1377
0.16793893129770993,0.9007633587786259,-0.8244274809160306,-0.445556640625,0.00732421875,-0.253662109375,0.1394
0.2595419847328244,0.8549618320610687,-0.8244274809160306,-0.4462890625,0.0068359375,-0.258056640625,0.1411
0.21374045801526717,0.9923664122137404,-1.0076335877862594,-0.448974609375,0.002685546875,-0.25048828125,0.14279999999999998
0.15267175572519084,0.9465648854961832,-0.9618320610687023,-0.444580078125,0.00732421875,-0.259765625,0.1445
0.24427480916030533,0.9923664122137404,-1.0076335877862594,-0.451416015625,0.011474609375,-0.25634765625,0.1462
0.3816793893129771,0.9007633587786259,-1.0076335877862594,-0.447265625,0.010498046875,-0.256591796875,0.1479
0.21374045801526717,0.9618320610687023,-1.0076335877862594,-0.4453125,0.010498046875,-0.260986328125,0.14959999999999998
0.24427480916030533,1.0534351145038168,-1.1297709923664123,-0.4482421875,0.005126953125,-0.260986328125,0.1513
0.16793893129770993,1.083969465648855,-1.1145038167938932,-0.4423828125,0.011474609375,-0.258056640625,0.153
0.12213740458015267,1.083969465648855,-1.0687022900763359,-0.44384765625,0.01123046875,-0.259521484375,0.1547
0.2900763358778626,0.8244274809160306,-1.1145038167938932,-0.447998046875,0.005615234375,-0.260986328125,0.15639999999999998
0.33587786259541985,0.9312977099236641,-1.2671755725190839,-0.446044921875,0.011962890625,-0.264892578125,0.1581
0.22900763358778625,1.0381679389312977,-1.3282442748091603,-0.443359375,0.00634765625,-0.255126953125,0.1598
0.22900763358778625,0.9770992366412213,-1.3129770992366412,-0.449462890625,0.010498046875,-0.263671875,0.1615
0.22900763358778625,1.2213740458015268,-1.3893129770992367,-0.45068359375,0.0078125,-0.26220703125,0.16319999999999998
0.366412213740458,1.1450381679389312,-1.3740458015267176,-0.4423828125,0.0107421875,-0.263427734375,0.1649
0.32061068702290074,1.0381679389312977,-1.3740458015267176,-0.443603515625,0.006591796875,-0.25830078125,0.1666
0.183206106870229,1.0534351145038168,-1.3740458015267176,-0.44140625,0.009521484375,-0.252197265625,0.16829999999999998
0.2595419847328244,1.1603053435114503,-1.5725190839694656,-0.43896484375,0.00927734375,-0.26611328125,0.16999999999999998
0.3969465648854962,1.1603053435114503,-1.3282442748091603,-0.447509765625,0.00830078125,-0.265380859375,0.1717
0.3511450381679389,1.0381679389312977,-1.4961832061068703,-0.43994140625,0.013427734375,-0.263916015625,0.1734
0.22900763358778625,1.1297709923664123,-1.5572519083969465,-0.438232421875,0.00732421875,-0.261474609375,0.17509999999999998
0.33587786259541985,0.9465648854961832,-1.4198473282442747,-0.44287109375,0.0078125,-0.25244140625,0.17679999999999998
0.3511450381679389,1.1145038167938932,-1.3282442748091603,-0.4423828125,0.012451171875,-0.256591796875,0.1785
0.3969465648854962,1.1908396946564885,-1.4045801526717556,-0.447265625,0.009521484375,-0.253662109375,0.1802
0.5190839694656488,1.297709923664122,-1.4045801526717556,-0.444580078125,0.0087890625,-0.25390625,0.18189999999999998
0.3511450381679389,1.3740458015267176,-1.4045801526717556,-0.44189453125,0.007568359375,-0.260009765625,0.18359999999999999
0.16793893129770993,1.4045801526717556,-1.3587786259541985,-0.44189453125,0.00732421875,-0.26171875,0.1853
0.32061068702290074,1.3893129770992367,-1.5725190839694656,-0.4443359375,0.009521484375,-0.257568359375,0.187
0.48854961832061067,1.3587786259541985,-1.2061068702290076,-0.44384765625,0.01318359375,-0.2646484375,0.18869999999999998
0.5648854961832062,1.3587786259541985,-1.3893129770992367,-0.445556640625,0.012451171875,-0.259765625,0.19039999999999999
0.4122137404580153,1.4198473282442747,-1.4961832061068703,-0.44384765625,0.009521484375,-0.258056640625,0.1921
0.44274809160305345,1.4809160305343512,-1.2671755725190839,-0.440673828125,0.010009765625,-0.265380859375,0.1938
0.48854961832061067,1.465648854961832,-1.2213740458015268,-0.437744140625,0.01171875,-0.26123046875,0.19549999999999998
0.42748091603053434,1.3282442748091603,-1.297709923664122,-0.4423828125,0.008056640625,-0.252197265625,0.1972
0.4732824427480916,1.3587786259541985,-1.282442748091603,-0.4404296875,0.013427734375,-0.26025390625,0.1989
0.3511450381679389,1.4351145038167938,-1.5267175572519085,-0.443603515625,0.010009765625,-0.2646484375,0.2006
0.2748091603053435,1.5114503816793894,-1.2671755725190839,-0.44921875,0.007080078125,-0.263427734375,0.20229999999999998
0.7175572519083969,1.4351145038167938,-1.3129770992366412,-0.443359375,0.010986328125,-0.2646484375,0.204
0.5954198473282443,1.5114503816793894,-1.4198473282442747,-0.436767578125,0.007568359375,-0.2578125,0.2057
0.549618320610687,1.4809160305343512,-1.3129770992366412,-0.4404296875,0.012451171875,-0.259765625,0.2074
0.7938931297709924,1.1908396946564885,-1.5114503816793894,-0.44189453125,0.01220703125,-0.2578125,0.20909999999999998
0.8396946564885496,1.282442748091603,-1.5419847328244274,-0.44384765625,0.010498046875,-0.264404296875,0.2108
0.9770992366412213,1.1908396946564885,-1.465648854961832,-0.4453125,0.009033203125,-0.258544921875,0.2125
1.0687022900763359,1.251908396946565,-1.6030534351145038,-0.442626953125,0.010986328125,-0.264404296875,0.2142
0.8396946564885496,1.4351145038167938,-1.5114503816793894,-0.439208984375,0.012451171875,-0.260498046875,0.21589999999999998
1.0687022900763359,1.5572519083969465,-1.633587786259542,-0.4453125,0.01123046875,-0.26416015625,0.2176
1.282442748091603,1.282442748091603,-1.7557251908396947,-0.446044921875,0.013671875,-0.2568359375,0.2193
1.297709923664122,1.618320610687023,-1.6946564885496183,-0.44384765625,0.0087890625,-0.2607421875,0.22099999999999997
1.2671755725190839,1.4809160305343512,-1.5877862595419847,-0.44189453125,0.0087890625,-0.26318359375,0.22269999999999998
1.1297709923664123,1.6030534351145038,-1.8015267175572518,-0.441650390625,0.011962890625,-0.25732421875,0.2244
1.4198473282442747,1.6793893129770991,-1.7557251908396947,-0.43994140625,0.008544921875,-0.2607421875,0.2261
1.465648854961832,1.5419847328244274,-1.8473282442748091,-0.44140625,0.0078125,-0.26318359375,0.22779999999999997
1.3129770992366412,1.6030534351145038,-1.786259541984733,-0.441650390625,0.014892578125,-0.25927734375,0.22949999999999998
1.3587786259541985,1.7557251908396947,-1.6793893129770991,-0.44287109375,0.006591796875,-0.25830078125,0.2312
1.5572519083969465,1.6030534351145038,-1.7099236641221374,-0.44384765625,0.002197265625,-0.25927734375,0.2329
1.465648854961832,1.5114503816793894,-1.633587786259542,-0.44677734375,0.0078125,-0.26025390625,0.23459999999999998
1.6030534351145038,1.5114503816793894,-1.6488549618320612,-0.442138671875,0.01220703125,-0.2626953125,0.23629999999999998
1.618320610687023,1.7099236641221374,-1.6488549618320612,-0.437255859375,0.010498046875,-0.259033203125,0.238
1.7099236641221374,1.7099236641221374,-1.618320610687023,-0.440185546875,0.01220703125,-0.25634765625,0.2397
1.5877862595419847,1.6641221374045803,-1.6030534351145038,-0.441162109375,0.0087890625,-0.259033203125,0.24139999999999998
1.83206106870229,1.5114503816793894,-1.4351145038167938,-0.441162109375,0.009033203125,-0.2568359375,0.24309999999999998
1.8625954198473282,1.6793893129770991,-1.7709923664122138,-0.439697265625,0.010009765625,-0.255859375,0.2448
1.8473282442748091,1.7557251908396947,-1.6488549618320612,-0.441650390625,0.0126953125,-0.261962890625,0.2465
1.8473282442748091,1.633587786259542,-1.6793893129770991,-0.44189453125,0.012939453125,-0.2646484375,0.24819999999999998
1.8778625954198473,1.6641221374045803,-1.5572519083969465,-0.44287109375,0.01513671875,-0.263427734375,0.24989999999999998
1.9541984732824427,1.7251908396946565,-1.5877862595419847,-0.43994140625,0.01220703125,-0.26123046875,0.2516
1.9083969465648856,1.633587786259542,-1.450381679389313,-0.443115234375,0.00830078125,-0.253662109375,0.25329999999999997
1.9236641221374047,1.5267175572519085,-1.4961832061068703,-0.43408203125,0.008056640625,-0.251708984375,0.255
2.16793893129771,1.5419847328244274,-1.251908396946565,-0.442626953125,0.016357421875,-0.260009765625,0.2567
2.030534351145038,1.6793893129770991,-1.450381679389313,-0.438720703125,0.008056640625,-0.2587890625,0.25839999999999996
1.984732824427481,1.6488549618320612,-1.5114503816793894,-0.44287109375,0.005615234375,-0.259521484375,0.2601
2.1374045801526718,1.2671755725190839,-1.4961832061068703,-0.443359375,0.00830078125,-0.26220703125,0.2618
2.1068702290076335,1.83206106870229,-1.3282442748091603,-0.447265625,0.007080078125,-0.264404296875,0.2635
2.213740458015267,1.8778625954198473,-1.5877862595419847,-0.448486328125,0.01220703125,-0.262451171875,0.2652
2.030534351145038,1.8473282442748091,-1.3129770992366412,-0.442626953125,0.00244140625,-0.2626953125,0.26689999999999997
2.427480916030534,1.7557251908396947,-1.465648854961832,-0.44189453125,0.011474609375,-0.266845703125,0.2686
2.213740458015267,2.015267175572519,-1.3587786259541985,-0.44580078125,0.005859375,-0.26806640625,0.2703
2.2595419847328246,1.83206106870229,-1.3435114503816794,-0.442626953125,0.009765625,-0.260498046875,0.27199999999999996
2.122137404580153,1.7404580152671756,-1.4961832061068703,-0.44482421875,0.01318359375,-0.26318359375,0.2737
2.213740458015267,1.786259541984733,-1.5267175572519085,-0.444091796875,0.01171875,-0.25634765625,0.2754
2.351145038167939,1.7251908396946565,-1.3893129770992367,-0.44189453125,0.012451171875,-0.25634765625,0.27709999999999996
2.2595419847328246,1.4045801526717556,-1.816793893129771,-0.437744140625,0.010986328125,-0.264404296875,0.2788
2.381679389312977,1.465648854961832,-1.6946564885496183,-0.43603515625,0.010986328125,-0.263427734375,0.28049999999999997
2.6106870229007635,1.5267175572519085,-1.7251908396946565,-0.434814453125,0.009765625,-0.2626953125,0.2822
2.549618320610687,1.297709923664122,-1.5267175572519085,-0.439208984375,0.0107421875,-0.26171875,0.2839
2.4732824427480917,1.4045801526717556,-1.5114503816793894,-0.435791015625,0.007080078125,-0.265625,0.28559999999999997
2.6259541984732824,1.5419847328244274,-1.3740458015267176,-0.439208984375,0.006103515625,-0.255615234375,0.2873
2.7480916030534353,1.5419847328244274,-1.4809160305343512,-0.4404296875,0.008544921875,-0.25732421875,0.289
2.8244274809160306,1.6793893129770991,-1.5267175572519085,-0.44677734375,0.013671875,-0.2626953125,0.29069999999999996
2.687022900763359,1.465648854961832,-1.465648854961832,-0.4423828125,0.010498046875,-0.267822265625,0.2924
2.9160305343511452,1.6030534351145038,-1.4809160305343512,-0.44287109375,0.008544921875,-0.259521484375,0.2941
2.9160305343511452,1.633587786259542,-1.5267175572519085,-0.443359375,0.004150390625,-0.255126953125,0.2958
2.854961832061069,1.633587786259542,-1.6793893129770991,-0.442138671875,0.017822265625,-0.265625,0.2975
2.6412213740458017,1.450381679389313,-1.8015267175572518,-0.438720703125,0.01611328125,-0.2626953125,0.29919999999999997
2.7480916030534353,1.4351145038167938,-1.6641221374045803,-0.438232421875,0.010498046875,-0.260498046875,0.3009
2.595419847328244,1.465648854961832,-1.83206106870229,-0.4384765625,0.010009765625,-0.2705078125,0.3026
2.900763358778626,1.3740458015267176,-1.6488549618320612,-0.437744140625,0.012939453125,-0.273193359375,0.30429999999999996
2.9160305343511452,1.4351145038167938,-1.6488549618320612,-0.44091796875,0.010498046875,-0.25830078125,0.306
2.931297709923664,1.3282442748091603,-1.9694656488549618,-0.441162109375,0.008544921875,-0.261962890625,0.3077
2.900763358778626,1.3282442748091603,-1.83206106870229,-0.443359375,0.007568359375,-0.26318359375,0.3094
2.9618320610687023,1.3129770992366412,-1.6488549618320612,-0.437744140625,0.00927734375,-0.26904296875,0.3111
3.053435114503817,1.4351145038167938,-1.9694656488549618,-0.439453125,0.006591796875,-0.265380859375,0.31279999999999997
2.931297709923664,1.3129770992366412,-1.9236641221374047,-0.443359375,0.0068359375,-0.267333984375,0.3145
2.9618320610687023,1.3435114503816794,-1.8778625954198473,-0.443115234375,0.007568359375,-0.272216796875,0.3162
2.900763358778626,1.5267175572519085,-1.6946564885496183,-0.440185546875,0.006591796875,-0.262939453125,0.31789999999999996
3.145038167938931,1.465648854961832,-1.816793893129771,-0.445556640625,0.00537109375,-0.2646484375,0.3196
2.9923664122137406,1.5419847328244274,-1.984732824427481,-0.442138671875,0.00732421875,-0.2646484375,0.3213
3.114503816793893,1.4045801526717556,-2.122137404580153,-0.439453125,0.009521484375,-0.25537109375,0.323
2.900763358778626,1.3282442748091603,-2.0610687022900764,-0.439208984375,0.0068359375,-0.263671875,0.3247
2.900763358778626,1.4351145038167938,-2.122137404580153,-0.443359375,0.008056640625,-0.257568359375,0.32639999999999997
3.1603053435114505,1.6030534351145038,-2.1068702290076335,-0.4404296875,0.00244140625,-0.263427734375,0.3281
2.931297709923664,1.6030534351145038,-2.3053435114503817,-0.443603515625,0.003173828125,-0.260986328125,0.3298
3.0076335877862594,1.2671755725190839,-1.984732824427481,-0.439453125,0.0068359375,-0.2578125,0.33149999999999996
3.0381679389312977,1.450381679389313,-2.045801526717557,-0.4375,0.009033203125,-0.26123046875,0.3332
3.099236641221374,1.5725190839694656,-1.9236641221374047,-0.4423828125,0.010009765625,-0.2578125,0.3349
3.1297709923664123,1.4961832061068703,-2.183206106870229,-0.441162109375,0.00927734375,-0.26025390625,0.33659999999999995
2.9618320610687023,1.5419847328244274,-2.0610687022900764,-0.439453125,0.009521484375,-0.27099609375,0.3383
3.053435114503817,1.6030534351145038,-2.3053435114503817,-0.44482421875,0.01318359375,-0.25634765625,0.33999999999999997
3.1603053435114505,1.4351145038167938,-2.2595419847328246,-0.445068359375,0.0078125,-0.261474609375,0.3417
3.0229007633587788,1.3893129770992367,-2.1374045801526718,-0.443115234375,0.007568359375,-0.265380859375,0.3434
2.9923664122137406,1.2366412213740459,-2.0916030534351147,-0.4404296875,0.0078125,-0.252197265625,0.34509999999999996
3.0839694656488548,1.3129770992366412,-2.1374045801526718,-0.43994140625,0.00537109375,-0.260009765625,0.3468
3.0381679389312977,1.450381679389313,-2.1068702290076335,-0.44580078125,0.010009765625,-0.257080078125,0.3485
2.9923664122137406,1.4351145038167938,-2.0610687022900764,-0.441650390625,0.009521484375,-0.259521484375,0.35019999999999996
2.931297709923664,1.297709923664122,-2.122137404580153,-0.446044921875,0.007080078125,-0.262451171875,0.3519
2.9923664122137406,1.3893129770992367,-2.2900763358778624,-0.43994140625,0.00390625,-0.258544921875,0.35359999999999997
2.8702290076335877,1.5419847328244274,-2.045801526717557,-0.44287109375,0.005126953125,-0.258544921875,0.3553
2.9160305343511452,1.4351145038167938,-2.381679389312977,-0.441650390625,0.00390625,-0.26708984375,0.357
3.0229007633587788,1.251908396946565,-2.3053435114503817,-0.443603515625,0.008544921875,-0.265380859375,0.35869999999999996
3.0381679389312977,1.3740458015267176,-2.198473282442748,-0.446044921875,0.008544921875,-0.264404296875,0.3604
2.9923664122137406,1.450381679389313,-2.183206106870229,-0.44091796875,0.006103515625,-0.25927734375,0.3621
2.8244274809160306,1.3282442748091603,-2.2748091603053435,-0.442626953125,0.002197265625,-0.263916015625,0.36379999999999996
3.0381679389312977,1.3435114503816794,-2.1374045801526718,-0.4453125,0.00634765625,-0.264892578125,0.3655
2.9618320610687023,1.3129770992366412,-2.2748091603053435,-0.44140625,0.00341796875,-0.25927734375,0.36719999999999997
2.946564885496183,1.3435114503816794,-2.2595419847328246,-0.443115234375,0.008056640625,-0.263671875,0.3689
2.854961832061069,1.3129770992366412,-2.2900763358778624,-0.44091796875,0.01318359375,-0.261962890625,0.3706
2.9923664122137406,1.2671755725190839,-2.2290076335877864,-0.438232421875,0.009033203125,-0.26416015625,0.37229999999999996
3.0229007633587788,1.3129770992366412,-2.183206106870229,-0.4384765625,0.009033203125,-0.267578125,0.374
3.0229007633587788,1.2366412213740459,-2.3206106870229006,-0.439697265625,0.009521484375,-0.255126953125,0.3757
2.7480916030534353,1.1908396946564885,-2.33587786259542,-0.444580078125,0.01123046875,-0.26318359375,0.37739999999999996
2.717557251908397,1.3893129770992367,-2.33587786259542,-0.442626953125,0.005859375,-0.253662109375,0.3791
2.8702290076335877,1.3282442748091603,-2.183206106870229,-0.4423828125,0.0078125,-0.255615234375,0.38079999999999997
2.9160305343511452,1.2061068702290076,-2.0916030534351147,-0.43994140625,0.011474609375,-0.25634765625,0.38249999999999995
3.0229007633587788,1.1297709923664123,-2.1374045801526718,-0.442138671875,0.01171875,-0.257080078125,0.3842
3.1908396946564888,1.1297709923664123,-2.0,-0.438232421875,0.004638671875,-0.2646484375,0.38589999999999997
2.885496183206107,1.0534351145038168,-2.366412213740458,-0.442138671875,0.00439453125,-0.2578125,0.3876
2.8702290076335877,1.1908396946564885,-2.0916030534351147,-0.44384765625,0.0087890625,-0.262451171875,0.3893
2.7022900763358777,1.1603053435114503,-2.030534351145038,-0.443359375,0.009521484375,-0.262939453125,0.39099999999999996
2.7938931297709924,1.1450381679389312,-2.122137404580153,-0.444091796875,0.008544921875,-0.260498046875,0.3927
2.8396946564885495,1.083969465648855,-2.2290076335877864,-0.44189453125,0.008544921875,-0.265380859375,0.3944
2.885496183206107,1.0076335877862594,-2.122137404580153,-0.442626953125,0.0126953125,-0.2666015625,0.39609999999999995
2.931297709923664,0.9770992366412213,-2.030534351145038,-0.4375,0.00732421875,-0.265625,0.3978
2.9618320610687023,1.0687022900763359,-2.122137404580153,-0.44140625,0.004150390625,-0.26220703125,0.39949999999999997
2.7480916030534353,1.0381679389312977,-2.0610687022900764,-0.439208984375,0.00341796875,-0.262939453125,0.4012
2.7480916030534353,0.9770992366412213,-2.0610687022900764,-0.43701171875,0.00341796875,-0.263427734375,0.4029
2.7938931297709924,0.9312977099236641,-2.1068702290076335,-0.437255859375,0.0078125,-0.2568359375,0.40459999999999996
2.8091603053435112,1.1603053435114503,-2.030534351145038,-0.44140625,0.010009765625,-0.26708984375,0.4063
2.6717557251908395,0.9923664122137404,-1.8625954198473282,-0.43701171875,0.009521484375,-0.262451171875,0.408
2.6412213740458017,1.0229007633587786,-1.8625954198473282,-0.44189453125,0.006103515625,-0.2578125,0.40969999999999995
2.8091603053435112,1.0229007633587786,-1.8931297709923665,-0.4453125,0.007568359375,-0.263916015625,0.4114
2.7786259541984735,1.0381679389312977,-1.83206106870229,-0.446044921875,0.01025390625,-0.267333984375,0.41309999999999997
2.763358778625954,1.0229007633587786,-2.015267175572519,-0.441650390625,0.00927734375,-0.261474609375,0.4148
2.946564885496183,0.7480916030534351,-2.015267175572519,-0.440673828125,0.007568359375,-0.2568359375,0.4165
2.8396946564885495,0.8702290076335878,-1.8778625954198473,-0.4404296875,0.00830078125,-0.263916015625,0.41819999999999996
2.7786259541984735,0.8549618320610687,-1.786259541984733,-0.443603515625,0.009521484375,-0.261474609375,0.4199
2.564885496183206,0.8244274809160306,-1.618320610687023,-0.443359375,0.0107421875,-0.2646484375,0.4216
2.687022900763359,0.7633587786259542,-1.9541984732824427,-0.438232421875,0.01025390625,-0.266845703125,0.42329999999999995
2.9770992366412212,0.7480916030534351,-1.8015267175572518,-0.44091796875,0.005859375,-0.26416015625,0.425
2.7938931297709924,0.8549618320610687,-1.9389312977099236,-0.442138671875,0.005615234375,-0.264404296875,0.42669999999999997
2.5801526717557253,0.732824427480916,-2.0763358778625953,-0.443603515625,0.010986328125,-0.259521484375,0.4284
2.687022900763359,0.7175572519083969,-1.9389312977099236,-0.44384765625,0.00439453125,-0.258544921875,0.4301
2.7786259541984735,0.7786259541984732,-1.7099236641221374,-0.443359375,0.001220703125,-0.255859375,0.43179999999999996
2.6717557251908395,0.6412213740458015,-1.8625954198473282,-0.442138671875,0.003173828125,-0.260498046875,0.4335
2.519083969465649,0.7786259541984732,-1.83206106870229,-0.445068359375,0.00732421875,-0.260009765625,0.4352
2.687022900763359,0.9465648854961832,-1.618320610687023,-0.443115234375,0.006591796875,-0.25537109375,0.43689999999999996
2.7022900763358777,0.6106870229007634,-1.6793893129770991,-0.441162109375,0.005859375,-0.26025390625,0.4386
2.5343511450381677,0.7175572519083969,-1.7557251908396947,-0.441162109375,0.00439453125,-0.265380859375,0.44029999999999997
2.6564885496183206,0.732824427480916,-1.7557251908396947,-0.446044921875,0.008544921875,-0.262939453125,0.44199999999999995
2.549618320610687,0.8396946564885496,-1.83206106870229,-0.44189453125,0.007568359375,-0.263916015625,0.4437
2.564885496183206,0.7480916030534351,-1.8625954198473282,-0.443115234375,0.006591796875,-0.2587890625,0.44539999999999996
2.3969465648854964,0.8396946564885496,-1.7557251908396947,-0.443603515625,0.0048828125,-0.2568359375,0.4471
2.564885496183206,0.6717557251908397,-1.6488549618320612,-0.443359375,0.006103515625,-0.259033203125,0.4488
2.519083969465649,0.6564885496183206,-1.7557251908396947,-0.446044921875,0.007568359375,-0.261474609375,0.45049999999999996
2.33587786259542,0.6259541984732825,-1.633587786259542,-0.44140625,0.002685546875,-0.266357421875,0.4522
2.5801526717557253,0.7633587786259542,-1.6030534351145038,-0.439208984375,0.002197265625,-0.251220703125,0.45389999999999997
2.427480916030534,0.7633587786259542,-1.4809160305343512,-0.443603515625,0.006103515625,-0.253662109375,0.45559999999999995
2.3969465648854964,0.7022900763358778,-1.6030534351145038,-0.443603515625,0.00244140625,-0.2626953125,0.4573
2.366412213740458,0.6870229007633588,-1.5267175572519085,-0.442626953125,0.007568359375,-0.251953125,0.45899999999999996
2.5343511450381677,0.6106870229007634,-1.5267175572519085,-0.4443359375,0.008056640625,-0.25634765625,0.4607
2.6259541984732824,0.5038167938931297,-1.3893129770992367,-0.4384765625,0.005126953125,-0.25341796875,0.4624
2.16793893129771,0.6259541984732825,-1.4351145038167938,-0.446533203125,0.00341796875,-0.263671875,0.46409999999999996
2.3969465648854964,0.732824427480916,-1.5572519083969465,-0.440185546875,0.00732421875,-0.25439453125,0.4658
2.5343511450381677,0.6870229007633588,-1.7404580152671756,-0.446044921875,0.0068359375,-0.2578125,0.46749999999999997
2.427480916030534,0.7938931297709924,-1.3282442748091603,-0.444580078125,0.00634765625,-0.265380859375,0.46919999999999995
2.381679389312977,0.8396946564885496,-1.4809160305343512,-0.4384765625,0.00048828125,-0.26171875,0.4709
2.3969465648854964,0.8702290076335878,-1.5267175572519085,-0.438720703125,0.002197265625,-0.260986328125,0.47259999999999996
2.2290076335877864,0.7480916030534351,-1.450381679389313,-0.442138671875,0.005615234375,-0.260009765625,0.4743
2.549618320610687,0.8244274809160306,-1.3282442748091603,-0.43896484375,0.005859375,-0.255615234375,0.476
2.427480916030534,0.8854961832061069,-1.465648854961832,-0.439208984375,0.0009765625,-0.255615234375,0.47769999999999996
2.3053435114503817,0.9465648854961832,-1.450381679389313,-0.442626953125,0.0078125,-0.26171875,0.4794
2.351145038167939,1.0381679389312977,-1.5114503816793894,-0.4453125,0.008056640625,-0.259521484375,0.48109999999999997
2.2748091603053435,0.9923664122137404,-1.5267175572519085,-0.441650390625,0.00732421875,-0.265625,0.48279999999999995
2.213740458015267,1.099236641221374,-1.5572519083969465,-0.441650390625,0.002685546875,-0.265625,0.4845
2.4122137404580153,1.1755725190839694,-1.465648854961832,-0.443603515625,0.0009765625,-0.260009765625,0.48619999999999997
2.2748091603053435,0.9923664122137404,-1.6488549618320612,-0.4423828125,0.005126953125,-0.26025390625,0.4879
2.366412213740458,1.1603053435114503,-1.5725190839694656,-0.448486328125,0.010009765625,-0.2587890625,0.4896
2.213740458015267,1.0381679389312977,-1.5114503816793894,-0.443359375,0.005126953125,-0.2587890625,0.49129999999999996
2.2442748091603053,1.083969465648855,-1.5267175572519085,-0.445068359375,0.003662109375,-0.258544921875,0.493
2.4427480916030535,1.1908396946564885,-1.5572519083969465,-0.443115234375,0.0107421875,-0.257080078125,0.4947
2.366412213740458,1.2671755725190839,-1.618320610687023,-0.439453125,0.011962890625,-0.267333984375,0.49639999999999995
2.183206106870229,1.3587786259541985,-1.786259541984733,-0.444091796875,0.01123046875,-0.26416015625,0.4981
2.1374045801526718,1.465648854961832,-1.5877862595419847,-0.43701171875,0.00732421875,-0.26318359375,0.49979999999999997
2.3206106870229006,1.1297709923664123,-1.7709923664122138,-0.446044921875,0.0068359375,-0.255615234375,0.5015
2.2595419847328246,1.2366412213740459,-1.7251908396946565,-0.44482421875,0.00439453125,-0.25830078125,0.5032
1.9694656488549618,1.2061068702290076,-1.5877862595419847,-0.44384765625,0.00634765625,-0.263671875,0.5049
2.1374045801526718,1.2671755725190839,-1.5877862595419847,-0.442138671875,0.004150390625,-0.259033203125,0.5065999999999999
2.2748091603053435,1.3587786259541985,-1.5877862595419847,-0.44189453125,0.004638671875,-0.259521484375,0.5083
2.0610687022900764,1.4351145038167938,-1.5419847328244274,-0.443359375,0.004150390625,-0.27001953125,0.51
2.0610687022900764,1.1145038167938932,-1.5267175572519085,-0.43896484375,0.00927734375,-0.2685546875,0.5116999999999999
1.9389312977099236,1.1603053435114503,-1.2671755725190839,-0.44482421875,0.005859375,-0.258056640625,0.5134
1.984732824427481,1.251908396946565,-1.4198473282442747,-0.446533203125,0.006591796875,-0.2646484375,0.5151
2.030534351145038,1.3435114503816794,-1.3740458015267176,-0.442138671875,0.00341796875,-0.259521484375,0.5167999999999999
2.030534351145038,1.3435114503816794,-1.1908396946564885,-0.441162109375,0.00634765625,-0.26123046875,0.5185
1.9083969465648856,1.4351145038167938,-1.2671755725190839,-0.44287109375,0.006591796875,-0.257568359375,0.5202
1.6793893129770991,1.297709923664122,-1.1755725190839694,-0.437255859375,0.008544921875,-0.2646484375,0.5218999999999999
1.7251908396946565,1.465648854961832,-1.1603053435114503,-0.439208984375,0.0087890625,-0.251220703125,0.5236
1.8778625954198473,1.450381679389313,-1.3435114503816794,-0.443359375,0.0087890625,-0.259033203125,0.5253
1.786259541984733,1.4045801526717556,-1.1908396946564885,-0.44189453125,0.003662109375,-0.2646484375,0.527
1.786259541984733,1.465648854961832,-1.2213740458015268,-0.446044921875,0.00537109375,-0.2587890625,0.5287
1.6946564885496183,1.465648854961832,-0.9618320610687023,-0.44482421875,0.00390625,-0.26171875,0.5304
1.8015267175572518,1.5725190839694656,-1.099236641221374,-0.4462890625,0.001953125,-0.263427734375,0.5321
1.6030534351145038,1.5419847328244274,-0.9770992366412213,-0.447021484375,0.004638671875,-0.259521484375,0.5337999999999999
1.6946564885496183,1.5725190839694656,-0.9770992366412213,-0.446044921875,0.00634765625,-0.261474609375,0.5355
1.786259541984733,1.6641221374045803,-0.8549618320610687,-0.44873046875,0.010498046875,-0.2626953125,0.5372
1.786259541984733,1.7404580152671756,-1.1908396946564885,-0.4462890625,0.006103515625,-0.2646484375,0.5388999999999999
2.030534351145038,1.7709923664122138,-0.8244274809160306,-0.4443359375,0.004638671875,-0.26611328125,0.5406
1.9541984732824427,1.9236641221374047,-0.9465648854961832,-0.445068359375,0.0107421875,-0.267822265625,0.5423
1.7099236641221374,2.0610687022900764,-0.9465648854961832,-0.44970703125,0.006591796875,-0.2646484375,0.5439999999999999
1.6641221374045803,2.2748091603053435,-1.3282442748091603,-0.4462890625,0.005615234375,-0.265869140625,0.5457
1.633587786259542,2.3053435114503817,-1.297709923664122,-0.444091796875,0.005859375,-0.2626953125,0.5474
1.9389312977099236,2.33587786259542,-1.4045801526717556,-0.4453125,0.007080078125,-0.258544921875,0.5490999999999999
1.9083969465648856,2.3206106870229006,-1.4809160305343512,-0.443359375,0.01025390625,-0.25830078125,0.5508
1.9541984732824427,2.2442748091603053,-1.5725190839694656,-0.444091796875,0.00830078125,-0.254150390625,0.5525
1.9236641221374047,1.9236641221374047,-1.6030534351145038,-0.440185546875,0.0048828125,-0.253173828125,0.5541999999999999
2.030534351145038,1.8931297709923665,-2.015267175572519,-0.443115234375,0.00439453125,-0.2626953125,0.5559
2.015267175572519,1.786259541984733,-1.8625954198473282,-0.439453125,0.009521484375,-0.259521484375,0.5576
2.2442748091603053,1.5877862595419847,-1.8015267175572518,-0.43701171875,0.00341796875,-0.26416015625,0.5593
2.1068702290076335,1.5877862595419847,-1.7404580152671756,-0.442138671875,0.0068359375,-0.269287109375,0.5609999999999999
2.183206106870229,1.5725190839694656,-1.8015267175572518,-0.44580078125,0.00537109375,-0.259033203125,0.5627
2.198473282442748,1.4198473282442747,-1.5725190839694656,-0.4404296875,0.005126953125,-0.253173828125,0.5644
2.1526717557251906,1.465648854961832,-1.5419847328244274,-0.437744140625,0.010009765625,-0.257568359375,0.5660999999999999
2.1068702290076335,1.4809160305343512,-1.5114503816793894,-0.44189453125,0.005615234375,-0.25927734375,0.5678
2.2290076335877864,1.4045801526717556,-1.5419847328244274,-0.4404296875,0.005859375,-0.260986328125,0.5695
2.1526717557251906,1.4198473282442747,-1.6030534351145038,-0.445068359375,0.00830078125,-0.25634765625,0.5711999999999999
2.213740458015267,1.4351145038167938,-1.7251908396946565,-0.440673828125,0.007568359375,-0.2626953125,0.5729
2.213740458015267,1.3587786259541985,-1.618320610687023,-0.443603515625,0.003173828125,-0.258544921875,0.5746
2.213740458015267,1.3893129770992367,-1.7709923664122138,-0.443115234375,0.0009765625,-0.266845703125,0.5762999999999999
2.16793893129771,1.251908396946565,-1.618320610687023,-0.442138671875,0.000732421875,-0.26416015625,0.578
2.2900763358778624,1.3435114503816794,-1.7099236641221374,-0.43896484375,0.006591796875,-0.2626953125,0.5797
2.381679389312977,1.1755725190839694,-1.5572519083969465,-0.4443359375,0.0068359375,-0.260009765625,0.5813999999999999
2.2290076335877864,1.1297709923664123,-1.7099236641221374,-0.436279296875,0.0048828125,-0.264404296875,0.5831
2.1374045801526718,1.2366412213740459,-1.3893129770992367,-0.43603515625,0.00732421875,-0.257568359375,0.5848
2.351145038167939,1.282442748091603,-1.4198473282442747,-0.438232421875,0.00439453125,-0.258544921875,0.5865
1.9389312977099236,1.1297709923664123,-1.5114503816793894,-0.435791015625,0.0,-0.265625,0.5882
2.2595419847328246,0.916030534351145,-1.6488549618320612,-0.438720703125,0.002685546875,-0.26416015625,0.5899
2.015267175572519,1.0229007633587786,-1.5267175572519085,-0.437744140625,0.008056640625,-0.2529296875,0.5916
2.351145038167939,0.916030534351145,-1.5419847328244274,-0.438720703125,0.00048828125,-0.266357421875,0.5932999999999999
1.9694656488549618,0.7938931297709924,-1.3740458015267176,-0.440185546875,0.000732421875,-0.265869140625,0.595
2.2290076335877864,0.8396946564885496,-1.5572519083969465,-0.444091796875,0.005126953125,-0.2607421875,0.5967
2.2290076335877864,0.8091603053435115,-1.282442748091603,-0.436279296875,0.009033203125,-0.2587890625,0.5983999999999999
2.1068702290076335,0.7175572519083969,-1.5419847328244274,-0.445068359375,0.00732421875,-0.262451171875,0.6001
2.213740458015267,1.0381679389312977,-1.4351145038167938,-0.449462890625,0.0,-0.2587890625,0.6018
2.0763358778625953,0.7786259541984732,-1.4045801526717556,-0.439453125,0.00244140625,-0.25244140625,0.6034999999999999
2.015267175572519,0.7480916030534351,-1.3587786259541985,-0.43994140625,-0.00048828125,-0.261962890625,0.6052
2.33587786259542,0.4122137404580153,-1.465648854961832,-0.4384765625,0.006103515625,-0.26171875,0.6069
2.1374045801526718,0.7480916030534351,-1.3282442748091603,-0.442138671875,0.005859375,-0.269287109375,0.6085999999999999
2.045801526717557,0.7175572519083969,-1.5877862595419847,-0.438720703125,0.0068359375,-0.260986328125,0.6103
2.2595419847328246,0.5954198473282443,-1.3893129770992367,-0.43603515625,0.0078125,-0.27099609375,0.612
2.3206106870229006,0.7022900763358778,-1.5114503816793894,-0.443603515625,0.003173828125,-0.269775390625,0.6136999999999999
2.183206106870229,0.6106870229007634,-1.450381679389313,-0.439453125,0.00048828125,-0.259521484375,0.6154
2.1526717557251906,0.5038167938931297,-1.450381679389313,-0.440673828125,0.004638671875,-0.26416015625,0.6171
2.2748091603053435,0.5801526717557252,-1.4809160305343512,-0.438720703125,0.00830078125,-0.25634765625,0.6188
2.2290076335877864,0.549618320610687,-1.633587786259542,-0.444091796875,0.002685546875,-0.254638671875,0.6204999999999999
2.183206106870229,0.48854961832061067,-1.465648854961832,-0.440185546875,0.00732421875,-0.258544921875,0.6222
2.198473282442748,0.3816793893129771,-1.4351145038167938,-0.4404296875,0.006591796875,-0.260009765625,0.6239
2.2900763358778624,0.5190839694656488,-1.3893129770992367,-0.44677734375,0.00341796875,-0.257568359375,0.6255999999999999
2.213740458015267,0.32061068702290074,-1.5267175572519085,-0.440673828125,0.00244140625,-0.26220703125,0.6273
2.030534351145038,0.4732824427480916,-1.282442748091603,-0.4384765625,0.005126953125,-0.255615234375,0.629
2.2900763358778624,0.5648854961832062,-1.4809160305343512,-0.44091796875,0.004638671875,-0.2587890625,0.6306999999999999
2.2442748091603053,0.44274809160305345,-1.5267175572519085,-0.436767578125,0.001953125,-0.260986328125,0.6324
2.122137404580153,0.42748091603053434,-1.3893129770992367,-0.43994140625,0.0009765625,-0.266845703125,0.6341
2.1068702290076335,0.4122137404580153,-1.3435114503816794,-0.439697265625,0.00537109375,-0.25830078125,0.6357999999999999
2.045801526717557,0.4732824427480916,-1.4809160305343512,-0.445068359375,0.005126953125,-0.26611328125,0.6375
2.3206106870229006,0.5648854961832062,-1.4198473282442747,-0.443359375,0.0029296875,-0.262451171875,0.6392
2.33587786259542,0.549618320610687,-1.465648854961832,-0.4404296875,0.004638671875,-0.25634765625,0.6408999999999999
2.1526717557251906,0.6259541984732825,-1.5572519083969465,-0.43798828125,0.001708984375,-0.25732421875,0.6426
2.351145038167939,0.44274809160305345,-1.4351145038167938,-0.443359375,0.00634765625,-0.269287109375,0.6443
2.1374045801526718,0.5648854961832062,-1.5114503816793894,-0.4423828125,0.00830078125,-0.2666015625,0.646
2.213740458015267,0.5648854961832062,-1.3587786259541985,-0.4404296875,0.008544921875,-0.2578125,0.6476999999999999
2.1526717557251906,0.6412213740458015,-1.4809160305343512,-0.44482421875,0.005615234375,-0.27587890625,0.6494
2.0,0.5648854961832062,-1.6488549618320612,-0.440185546875,0.00439453125,-0.270263671875,0.6511
2.0763358778625953,0.6259541984732825,-1.3435114503816794,-0.4404296875,0.005615234375,-0.256103515625,0.6527999999999999
1.9083969465648856,0.7175572519083969,-1.7404580152671756,-0.442138671875,0.00244140625,-0.265869140625,0.6545
2.0763358778625953,0.5648854961832062,-1.450381679389313,-0.442138671875,0.00634765625,-0.2626953125,0.6562
2.198473282442748,0.7938931297709924,-1.4961832061068703,-0.440673828125,0.003662109375,-0.26513671875,0.6578999999999999
2.015267175572519,0.7938931297709924,-1.5267175572519085,-0.442138671875,0.0,-0.26416015625,0.6596
2.045801526717557,0.5801526717557252,-1.5572519083969465,-0.44384765625,0.0009765625,-0.259033203125,0.6613
2.0763358778625953,0.8396946564885496,-1.3893129770992367,-0.442626953125,0.00341796875,-0.2626953125,0.6629999999999999
1.8473282442748091,0.9770992366412213,-1.3129770992366412,-0.447021484375,0.00634765625,-0.265869140625,0.6647
1.7404580152671756,0.7938931297709924,-1.3435114503816794,-0.446044921875,0.005615234375,-0.2578125,0.6664
1.8625954198473282,0.9007633587786259,-1.3282442748091603,-0.445556640625,0.00341796875,-0.258056640625,0.6680999999999999
1.8931297709923665,1.0381679389312977,-1.2213740458015268,-0.442138671875,0.00244140625,-0.259765625,0.6698
1.984732824427481,0.8854961832061069,-1.3740458015267176,-0.444091796875,0.0048828125,-0.25830078125,0.6715
1.8625954198473282,0.8091603053435115,-1.3587786259541985,-0.4453125,0.006591796875,-0.25927734375,0.6731999999999999
1.8015267175572518,0.8854961832061069,-1.3740458015267176,-0.44677734375,0.006591796875,-0.256103515625,0.6748999999999999
1.8473282442748091,0.7175572519083969,-1.1755725190839694,-0.443603515625,0.004638671875,-0.260498046875,0.6766
1.7404580152671756,0.6870229007633588,-1.1603053435114503,-0.441162109375,0.0068359375,-0.256103515625,0.6783
1.5725190839694656,0.7480916030534351,-1.2213740458015268,-0.444580078125,0.00732421875,-0.259033203125,0.6799999999999999
1.5114503816793894,0.8549618320610687,-1.2366412213740459,-0.441650390625,0.00927734375,-0.26513671875,0.6817
1.5877862595419847,0.9312977099236641,-1.0687022900763359,-0.4462890625,0.001708984375,-0.26025390625,0.6834
1.6793893129770991,1.0687022900763359,-1.0381679389312977,-0.441162109375,0.004150390625,-0.2607421875,0.6850999999999999
1.6946564885496183,1.1755725190839694,-1.3282442748091603,-0.440673828125,0.0068359375,-0.256591796875,0.6868
1.618320610687023,1.1450381679389312,-1.3587786259541985,-0.444091796875,0.00439453125,-0.25830078125,0.6885
1.6488549618320612,1.099236641221374,-1.1450381679389312,-0.443603515625,0.0029296875,-0.259765625,0.6901999999999999
1.5572519083969465,1.0381679389312977,-1.3282442748091603,-0.4453125,0.006591796875,-0.2587890625,0.6919
1.5419847328244274,1.2061068702290076,-1.1755725190839694,-0.444091796875,0.011962890625,-0.25927734375,0.6936
1.7251908396946565,1.1450381679389312,-1.251908396946565,-0.448974609375,0.003662109375,-0.25830078125,0.6952999999999999
1.3740458015267176,1.1450381679389312,-1.3893129770992367,-0.44873046875,0.000244140625,-0.263427734375,0.697
1.633587786259542,0.9923664122137404,-1.1908396946564885,-0.44921875,0.007568359375,-0.263427734375,0.6987
1.7099236641221374,1.251908396946565,-1.2061068702290076,-0.446533203125,0.006103515625,-0.267822265625,0.7003999999999999
1.6488549618320612,1.1603053435114503,-1.3587786259541985,-0.44189453125,0.010009765625,-0.26318359375,0.7021
1.5725190839694656,1.1908396946564885,-1.450381679389313,-0.44384765625,0.005615234375,-0.263671875,0.7038
1.5114503816793894,1.2671755725190839,-1.5725190839694656,-0.4443359375,0.00732421875,-0.26123046875,0.7055
1.450381679389313,1.251908396946565,-1.4045801526717556,-0.445556640625,0.006591796875,-0.2587890625,0.7071999999999999
1.4961832061068703,1.2061068702290076,-1.4809160305343512,-0.445556640625,0.010498046875,-0.268310546875,0.7089
1.6946564885496183,1.3587786259541985,-1.5267175572519085,-0.4423828125,0.009033203125,-0.261962890625,0.7106
1.633587786259542,1.4045801526717556,-1.5725190839694656,-0.441650390625,0.005859375,-0.257568359375,0.7122999999999999
1.5725190839694656,1.4351145038167938,-1.5725190839694656,-0.444091796875,0.009033203125,-0.253662109375,0.714
1.4198473282442747,1.2671755725190839,-1.5419847328244274,-0.44921875,0.00439453125,-0.256591796875,0.7157
1.633587786259542,1.2671755725190839,-1.3740458015267176,-0.445068359375,0.007568359375,-0.2626953125,0.7173999999999999
1.6946564885496183,1.3435114503816794,-1.5267175572519085,-0.44189453125,0.00390625,-0.265380859375,0.7191
1.7557251908396947,1.5267175572519085,-1.4351145038167938,-0.44775390625,0.004638671875,-0.259521484375,0.7208
1.633587786259542,1.3129770992366412,-1.6488549618320612,-0.447021484375,0.006591796875,-0.265380859375,0.7224999999999999
1.6488549618320612,1.4351145038167938,-1.786259541984733,-0.4453125,0.002197265625,-0.269775390625,0.7242
1.7251908396946565,1.3587786259541985,-1.6641221374045803,-0.4462890625,0.006103515625,-0.263916015625,0.7259
1.450381679389313,1.4809160305343512,-1.6946564885496183,-0.44482421875,0.010009765625,-0.2587890625,0.7275999999999999
1.6030534351145038,1.3435114503816794,-1.7251908396946565,-0.444580078125,0.003173828125,-0.25927734375,0.7293
1.6030534351145038,1.465648854961832,-1.6488549618320612,-0.4443359375,0.0078125,-0.254150390625,0.731
1.3893129770992367,1.3740458015267176,-1.633587786259542,-0.437255859375,0.006103515625,-0.263671875,0.7326999999999999
1.6030534351145038,1.3435114503816794,-1.633587786259542,-0.4384765625,0.005859375,-0.263916015625,0.7343999999999999
1.4961832061068703,1.4351145038167938,-1.4961832061068703,-0.43896484375,0.010986328125,-0.26220703125,0.7361
1.4961832061068703,1.3893129770992367,-1.3435114503816794,-0.442626953125,0.003662109375,-0.259521484375,0.7378
1.6946564885496183,1.5572519083969465,-1.6793893129770991,-0.441162109375,0.000244140625,-0.261474609375,0.7394999999999999
1.4351145038167938,1.618320610687023,-1.3435114503816794,-0.443603515625,0.01171875,-0.260498046875,0.7412
1.618320610687023,1.633587786259542,-1.1755725190839694,-0.444580078125,-0.0009765625,-0.254638671875,0.7429
1.4045801526717556,1.5114503816793894,-1.4961832061068703,-0.447509765625,0.005126953125,-0.26904296875,0.7445999999999999
1.3435114503816794,1.7251908396946565,-1.465648854961832,-0.444091796875,0.0048828125,-0.259521484375,0.7463
1.297709923664122,1.5267175572519085,-1.297709923664122,-0.44287109375,0.006103515625,-0.26513671875,0.748
1.297709923664122,1.633587786259542,-1.282442748091603,-0.445556640625,0.00390625,-0.258056640625,0.7496999999999999
1.2213740458015268,1.465648854961832,-1.465648854961832,-0.442138671875,0.002685546875,-0.26025390625,0.7514
1.4809160305343512,1.6641221374045803,-1.0687022900763359,-0.43994140625,0.00244140625,-0.25244140625,0.7531
1.3587786259541985,1.633587786259542,-1.0687022900763359,-0.44775390625,0.00390625,-0.26123046875,0.7547999999999999
1.3740458015267176,1.5267175572519085,-1.2213740458015268,-0.44482421875,0.005126953125,-0.260986328125,0.7565
1.5267175572519085,1.5572519083969465,-1.1145038167938932,-0.446044921875,0.0078125,-0.260498046875,0.7582
1.1145038167938932,1.5877862595419847,-0.9465648854961832,-0.44482421875,0.005126953125,-0.260009765625,0.7598999999999999
1.4045801526717556,1.5877862595419847,-1.0687022900763359,-0.4453125,0.005126953125,-0.259033203125,0.7615999999999999
1.251908396946565,1.7557251908396947,-1.083969465648855,-0.44140625,0.0068359375,-0.260009765625,0.7633
1.3587786259541985,1.6488549618320612,-1.0229007633587786,-0.443115234375,0.00732421875,-0.265380859375,0.7649999999999999
1.3129770992366412,1.6641221374045803,-1.1908396946564885,-0.444091796875,0.00244140625,-0.261474609375,0.7666999999999999
1.3435114503816794,1.6946564885496183,-1.2366412213740459,-0.44384765625,0.008056640625,-0.2626953125,0.7684
1.3587786259541985,1.618320610687023,-1.1755725190839694,-0.443359375,0.00537109375,-0.268798828125,0.7701
1.251908396946565,1.6488549618320612,-1.4198473282442747,-0.441650390625,0.003173828125,-0.269287109375,0.7717999999999999
1.3435114503816794,1.618320610687023,-1.6030534351145038,-0.442138671875,0.00390625,-0.26318359375,0.7735
1.3740458015267176,1.618320610687023,-1.3893129770992367,-0.445556640625,0.006591796875,-0.267822265625,0.7752
1.297709923664122,1.786259541984733,-1.3435114503816794,-0.443359375,0.006103515625,-0.2607421875,0.7768999999999999
1.4351145038167938,1.6793893129770991,-1.4045801526717556,-0.441162109375,0.00439453125,-0.2666015625,0.7786
1.4961832061068703,1.6946564885496183,-1.5572519083969465,-0.444091796875,0.01318359375,-0.25927734375,0.7803
1.786259541984733,1.7709923664122138,-1.5267175572519085,-0.438232421875,0.013916015625,-0.26123046875,0.7819999999999999
1.450381679389313,1.7099236641221374,-1.5572519083969465,-0.44091796875,0.0107421875,-0.2548828125,0.7837
1.5877862595419847,1.7251908396946565,-1.465648854961832,-0.44189453125,0.007568359375,-0.256103515625,0.7854
1.3435114503816794,2.0610687022900764,-1.3129770992366412,-0.447509765625,0.00439453125,-0.25634765625,0.7870999999999999
1.5572519083969465,1.9541984732824427,-1.6488549618320612,-0.441650390625,0.004638671875,-0.263671875,0.7888
1.7404580152671756,2.0763358778625953,-1.3893129770992367,-0.439453125,0.010498046875,-0.258544921875,0.7905
1.4045801526717556,1.9541984732824427,-1.6488549618320612,-0.443603515625,0.00244140625,-0.25732421875,0.7921999999999999
1.5572519083969465,2.0763358778625953,-1.6946564885496183,-0.44189453125,0.005126953125,-0.254150390625,0.7938999999999999
1.5877862595419847,2.1526717557251906,-1.786259541984733,-0.443115234375,0.00732421875,-0.254150390625,0.7956
1.6946564885496183,1.83206106870229,-1.7251908396946565,-0.44384765625,0.009521484375,-0.2646484375,0.7973
1.4961832061068703,1.9694656488549618,-1.816793893129771,-0.434814453125,0.007080078125,-0.25732421875,0.7989999999999999
1.4809160305343512,1.9694656488549618,-1.6946564885496183,-0.443603515625,0.00634765625,-0.25830078125,0.8007
1.4961832061068703,1.8473282442748091,-1.6793893129770991,-0.43896484375,0.006103515625,-0.2666015625,0.8024
1.3740458015267176,1.83206106870229,-1.5267175572519085,-0.438720703125,0.01025390625,-0.27294921875,0.8040999999999999
1.6793893129770991,1.8931297709923665,-1.6030534351145038,-0.44482421875,-0.000244140625,-0.261962890625,0.8058
1.5267175572519085,1.8473282442748091,-1.3129770992366412,-0.44384765625,0.0,-0.263916015625,0.8075
1.633587786259542,1.8473282442748091,-1.5725190839694656,-0.442138671875,0.0068359375,-0.263916015625,0.8091999999999999
1.3893129770992367,1.9389312977099236,-1.251908396946565,-0.43701171875,0.005859375,-0.2578125,0.8109
1.5419847328244274,2.198473282442748,-1.4198473282442747,-0.440673828125,0.003662109375,-0.26513671875,0.8126
1.5725190839694656,2.198473282442748,-1.297709923664122,-0.447021484375,0.00439453125,-0.263671875,0.8142999999999999
1.3435114503816794,2.030534351145038,-1.5877862595419847,-0.447021484375,0.004638671875,-0.269287109375,0.816
1.6030534351145038,2.045801526717557,-1.2671755725190839,-0.446533203125,0.00341796875,-0.26171875,0.8177
1.4809160305343512,2.1068702290076335,-1.3282442748091603,-0.446044921875,0.001708984375,-0.263427734375,0.8193999999999999
1.4198473282442747,2.1526717557251906,-1.083969465648855,-0.44921875,0.00341796875,-0.262451171875,0.8210999999999999
1.4809160305343512,2.0610687022900764,-1.1603053435114503,-0.4443359375,0.00830078125,-0.264404296875,0.8228
1.450381679389313,2.213740458015267,-1.1450381679389312,-0.444091796875,0.010009765625,-0.26416015625,0.8244999999999999
1.7099236641221374,2.030534351145038,-1.3893129770992367,-0.4404296875,0.010009765625,-0.264892578125,0.8261999999999999
1.4961832061068703,2.030534351145038,-1.3435114503816794,-0.446533203125,0.00341796875,-0.26806640625,0.8279
1.4198473282442747,2.030534351145038,-1.2671755725190839,-0.445068359375,0.00390625,-0.25537109375,0.8296
1.6030534351145038,2.2290076335877864,-1.2671755725190839,-0.440185546875,0.009765625,-0.260986328125,0.8312999999999999
1.6793893129770991,2.0763358778625953,-1.4351145038167938,-0.43994140625,0.0068359375,-0.26171875,0.833
1.6030534351145038,2.045801526717557,-1.2213740458015268,-0.43994140625,0.004638671875,-0.26318359375,0.8347
1.3587786259541985,2.183206106870229,-1.3282442748091603,-0.44287109375,0.008056640625,-0.254150390625,0.8363999999999999
1.4809160305343512,2.198473282442748,-1.1908396946564885,-0.443359375,0.00634765625,-0.26025390625,0.8381
1.6946564885496183,1.9541984732824427,-1.3129770992366412,-0.440673828125,0.0078125,-0.263671875,0.8398
1.5572519083969465,1.9541984732824427,-1.1297709923664123,-0.43994140625,0.01171875,-0.26611328125,0.8414999999999999
1.4351145038167938,2.045801526717557,-1.099236641221374,-0.442138671875,0.00244140625,-0.2666015625,0.8432
1.3740458015267176,2.0610687022900764,-1.251908396946565,-0.44140625,0.005859375,-0.266357421875,0.8449
1.7251908396946565,2.015267175572519,-1.2366412213740459,-0.4404296875,0.00732421875,-0.260498046875,0.8465999999999999
1.6488549618320612,1.786259541984733,-1.251908396946565,-0.435791015625,0.00732421875,-0.260009765625,0.8482999999999999
1.5725190839694656,1.9236641221374047,-1.297709923664122,-0.438720703125,0.010986328125,-0.266357421875,0.85
1.7251908396946565,1.8625954198473282,-1.1908396946564885,-0.43994140625,0.00927734375,-0.260498046875,0.8516999999999999
1.4961832061068703,1.9541984732824427,-1.4351145038167938,-0.442626953125,0.008056640625,-0.266357421875,0.8533999999999999
1.7099236641221374,1.9389312977099236,-1.251908396946565,-0.44140625,0.01416015625,-0.25634765625,0.8551
1.6946564885496183,1.83206106870229,-1.5877862595419847,-0.442138671875,0.00927734375,-0.262451171875,0.8568
1.6641221374045803,1.8015267175572518,-1.450381679389313,-0.435791015625,0.005859375,-0.25927734375,0.8584999999999999
1.9694656488549618,1.9389312977099236,-1.450381679389313,-0.43701171875,0.00439453125,-0.2578125,0.8602
1.5267175572519085,1.786259541984733,-1.3740458015267176,-0.443359375,0.006103515625,-0.260498046875,0.8619
1.7251908396946565,1.816793893129771,-1.4045801526717556,-0.443603515625,0.0087890625,-0.265380859375,0.8635999999999999
1.816793893129771,1.786259541984733,-1.5725190839694656,-0.435546875,0.008056640625,-0.26318359375,0.8653
1.8625954198473282,1.7099236641221374,-1.3282442748091603,-0.44384765625,0.008544921875,-0.2626953125,0.867
1.7404580152671756,1.7404580152671756,-1.3587786259541985,-0.444091796875,0.004638671875,-0.264892578125,0.8686999999999999
1.6946564885496183,1.6946564885496183,-1.4809160305343512,-0.44287109375,0.00634765625,-0.267333984375,0.8704
1.9541984732824427,1.6641221374045803,-1.5572519083969465,-0.436767578125,0.00537109375,-0.25537109375,0.8721
1.7251908396946565,1.618320610687023,-1.6030534351145038,-0.443115234375,0.015380859375,-0.258056640625,0.8737999999999999
2.0763358778625953,1.6030534351145038,-1.4351145038167938,-0.442138671875,0.00732421875,-0.265869140625,0.8755
2.0763358778625953,1.7557251908396947,-1.4961832061068703,-0.43798828125,0.00244140625,-0.266357421875,0.8772
2.045801526717557,1.5419847328244274,-1.4351145038167938,-0.44482421875,0.010498046875,-0.271728515625,0.8788999999999999
1.6641221374045803,1.450381679389313,-1.5725190839694656,-0.43798828125,0.005615234375,-0.269287109375,0.8805999999999999
2.122137404580153,1.6946564885496183,-1.2671755725190839,-0.44970703125,0.012939453125,-0.265380859375,0.8823
1.8931297709923665,1.4045801526717556,-1.450381679389313,-0.43798828125,0.0068359375,-0.259765625,0.8839999999999999
1.816793893129771,1.4961832061068703,-1.3740458015267176,-0.4375,0.00732421875,-0.264404296875,0.8856999999999999
1.8931297709923665,1.4961832061068703,-1.6641221374045803,-0.439697265625,0.004638671875,-0.264404296875,0.8874
1.786259541984733,1.4351145038167938,-1.5419847328244274,-0.442138671875,0.0078125,-0.260986328125,0.8891
1.9083969465648856,1.4351145038167938,-1.618320610687023,-0.444580078125,0.004638671875,-0.260009765625,0.8907999999999999
1.8625954198473282,1.4351145038167938,-1.3893129770992367,-0.444580078125,0.00732421875,-0.263671875,0.8925
1.8625954198473282,1.2213740458015268,-1.4809160305343512,-0.440185546875,0.005615234375,-0.263427734375,0.8942
2.045801526717557,1.2671755725190839,-1.4961832061068703,-0.44287109375,0.005615234375,-0.264892578125,0.8958999999999999
1.8778625954198473,1.3129770992366412,-1.3587786259541985,-0.440673828125,0.003662109375,-0.262451171875,0.8976
1.8625954198473282,1.1603053435114503,-1.3435114503816794,-0.44189453125,0.007080078125,-0.26025390625,0.8993
1.9083969465648856,1.3129770992366412,-1.4045801526717556,-0.44140625,0.009765625,-0.269287109375,0.9009999999999999
1.8473282442748091,1.2061068702290076,-1.3435114503816794,-0.44482421875,0.009521484375,-0.25390625,0.9027
1.9236641221374047,1.1603053435114503,-1.3435114503816794,-0.442626953125,0.005615234375,-0.262939453125,0.9044
1.8625954198473282,1.1450381679389312,-1.3282442748091603,-0.4345703125,0.00927734375,-0.2568359375,0.9060999999999999
1.5877862595419847,1.0381679389312977,-1.2213740458015268,-0.43798828125,0.001220703125,-0.2509765625,0.9077999999999999
1.6793893129770991,1.1297709923664123,-1.1603053435114503,-0.44384765625,0.00830078125,-0.254638671875,0.9095
1.8778625954198473,1.083969465648855,-1.251908396946565,-0.44140625,0.015380859375,-0.2607421875,0.9111999999999999
1.9694656488549618,1.2061068702290076,-1.1908396946564885,-0.4404296875,0.010498046875,-0.257080078125,0.9128999999999999
1.83206106870229,0.9312977099236641,-1.2213740458015268,-0.442626953125,0.010009765625,-0.269287109375,0.9146
1.786259541984733,0.9923664122137404,-1.3129770992366412,-0.441650390625,0.007080078125,-0.26611328125,0.9163
1.9694656488549618,1.1908396946564885,-1.3740458015267176,-0.440673828125,0.00830078125,-0.26220703125,0.9179999999999999
1.8778625954198473,0.9770992366412213,-1.1908396946564885,-0.43896484375,0.010009765625,-0.27001953125,0.9197
1.984732824427481,0.9618320610687023,-1.2366412213740459,-0.4404296875,0.00732421875,-0.267333984375,0.9214
1.7709923664122138,0.9923664122137404,-0.9923664122137404,-0.44287109375,0.00732421875,-0.2685546875,0.9230999999999999
1.8778625954198473,1.0381679389312977,-1.2061068702290076,-0.442626953125,0.00537109375,-0.269287109375,0.9248
1.7099236641221374,0.9923664122137404,-1.1297709923664123,-0.437744140625,0.00830078125,-0.271728515625,0.9265
1.7251908396946565,0.9465648854961832,-1.1297709923664123,-0.442626953125,0.0029296875,-0.26416015625,0.9281999999999999
1.8625954198473282,1.0076335877862594,-1.1297709923664123,-0.439208984375,0.008056640625,-0.26123046875,0.9299
1.8931297709923665,1.099236641221374,-1.2213740458015268,-0.4384765625,0.010986328125,-0.267578125,0.9316
1.6793893129770991,0.9923664122137404,-1.1755725190839694,-0.43701171875,0.0068359375,-0.267333984375,0.9332999999999999
1.9083969465648856,0.9465648854961832,-1.3893129770992367,-0.439208984375,0.005126953125,-0.26416015625,0.9349999999999999
1.9694656488549618,0.9618320610687023,-1.2213740458015268,-0.440185546875,0.009765625,-0.259033203125,0.9367
1.8625954198473282,1.0076335877862594,-1.2213740458015268,-0.439208984375,0.005615234375,-0.263671875,0.9383999999999999
1.9083969465648856,1.1603053435114503,-1.297709923664122,-0.43603515625,0.009765625,-0.265869140625,0.9400999999999999
2.015267175572519,1.0076335877862594,-1.5419847328244274,-0.43701171875,0.006591796875,-0.26611328125,0.9418
2.015267175572519,1.0687022900763359,-1.450381679389313,-0.44189453125,0.005615234375,-0.26123046875,0.9434999999999999
1.7251908396946565,1.0229007633587786,-1.4809160305343512,-0.43994140625,0.00830078125,-0.2666015625,0.9451999999999999
2.045801526717557,1.099236641221374,-1.4045801526717556,-0.437255859375,0.004150390625,-0.271728515625,0.9469
2.1068702290076335,1.1297709923664123,-1.4809160305343512,-0.4404296875,0.00634765625,-0.265869140625,0.9486
1.9389312977099236,1.0229007633587786,-1.4351145038167938,-0.445556640625,0.009521484375,-0.261962890625,0.9502999999999999
1.9694656488549618,0.9312977099236641,-1.6030534351145038,-0.438720703125,0.002197265625,-0.264892578125,0.952
2.1068702290076335,1.099236641221374,-1.450381679389313,-0.44140625,0.010498046875,-0.265625,0.9537
2.0610687022900764,1.0534351145038168,-1.5572519083969465,-0.44287109375,0.006591796875,-0.266845703125,0.9553999999999999
1.9083969465648856,1.1297709923664123,-1.4809160305343512,-0.44384765625,0.004638671875,-0.2666015625,0.9571
1.9389312977099236,1.0534351145038168,-1.7251908396946565,-0.4423828125,0.003662109375,-0.263671875,0.9588
2.0763358778625953,0.916030534351145,-1.6030534351145038,-0.437744140625,0.0078125,-0.2607421875,0.9604999999999999
2.2442748091603053,0.9923664122137404,-1.6030534351145038,-0.44482421875,0.0048828125,-0.269775390625,0.9621999999999999
1.8931297709923665,0.8396946564885496,-1.4961832061068703,-0.441162109375,0.005615234375,-0.26416015625,0.9639
1.9694656488549618,0.6412213740458015,-1.6030534351145038,-0.434814453125,-0.000732421875,-0.2685546875,0.9655999999999999
2.0916030534351147,0.6564885496183206,-1.5572519083969465,-0.438720703125,0.006591796875,-0.260986328125,0.9672999999999999
2.0610687022900764,0.7175572519083969,-1.6793893129770991,-0.44287109375,0.010498046875,-0.264892578125,0.969
2.015267175572519,0.6870229007633588,-1.618320610687023,-0.438232421875,0.010986328125,-0.254150390625,0.9706999999999999
2.045801526717557,0.7175572519083969,-1.6030534351145038,-0.443115234375,0.0029296875,-0.265625,0.9723999999999999
2.0610687022900764,0.5343511450381679,-1.5877862595419847,-0.435302734375,0.004150390625,-0.271728515625,0.9741
2.122137404580153,0.44274809160305345,-1.6488549618320612,-0.43994140625,0.001953125,-0.264892578125,0.9758
2.015267175572519,0.6870229007633588,-1.5572519083969465,-0.439697265625,0.00537109375,-0.26025390625,0.9774999999999999
2.030534351145038,0.6412213740458015,-1.6641221374045803,-0.44140625,0.0087890625,-0.265380859375,0.9792
1.7404580152671756,0.5038167938931297,-1.7404580152671756,-0.443359375,0.006103515625,-0.264404296875,0.9809
1.8778625954198473,0.44274809160305345,-1.6793893129770991,-0.442138671875,0.0068359375,-0.25732421875,0.9825999999999999
2.030534351145038,0.48854961832061067,-1.465648854961832,-0.440185546875,0.005126953125,-0.260009765625,0.9843
1.7557251908396947,0.3511450381679389,-1.7709923664122138,-0.443603515625,0.00634765625,-0.2587890625,0.986
1.7557251908396947,0.4732824427480916,-1.6946564885496183,-0.44140625,0.00732421875,-0.2607421875,0.9876999999999999
1.8473282442748091,0.4122137404580153,-1.5419847328244274,-0.44189453125,0.002197265625,-0.25439453125,0.9894
2.015267175572519,0.3816793893129771,-1.633587786259542,-0.443115234375,0.00439453125,-0.2529296875,0.9911
2.1374045801526718,0.3969465648854962,-1.7099236641221374,-0.446533203125,0.00244140625,-0.2587890625,0.9927999999999999
1.6946564885496183,0.2748091603053435,-1.618320610687023,-0.443115234375,0.006103515625,-0.260009765625,0.9944999999999999
2.183206106870229,0.3053435114503817,-1.633587786259542,-0.444091796875,0.0068359375,-0.260498046875,0.9962
2.1526717557251906,0.33587786259541985,-1.8015267175572518,-0.440185546875,0.005126953125,-0.261962890625,0.9978999999999999
1.7557251908396947,0.4580152671755725,-1.786259541984733,-0.439453125,0.00830078125,-0.262451171875,0.9995999999999999
2.045801526717557,0.1984732824427481,-1.6946564885496183,-0.438720703125,0.00537109375,-0.250244140625,1.0012999999999999
2.1068702290076335,0.22900763358778625,-1.7404580152671756,-0.44140625,-0.000244140625,-0.2509765625,1.003
2.015267175572519,0.33587786259541985,-1.6488549618320612,-0.44580078125,0.0048828125,-0.2646484375,1.0047
1.8931297709923665,0.33587786259541985,-1.9236641221374047,-0.442626953125,0.004150390625,-0.256103515625,1.0064
2.0916030534351147,0.13740458015267176,-1.9694656488549618,-0.44140625,0.0029296875,-0.261962890625,1.0081
1.8931297709923665,0.16793893129770993,-1.816793893129771,-0.436767578125,0.0048828125,-0.263671875,1.0098
1.8473282442748091,0.10687022900763359,-1.8015267175572518,-0.445068359375,0.001953125,-0.272216796875,1.0114999999999998
1.984732824427481,0.061068702290076333,-1.786259541984733,-0.441162109375,0.0048828125,-0.266845703125,1.0131999999999999
1.9083969465648856,0.015267175572519083,-1.8931297709923665,-0.445068359375,0.010009765625,-0.268310546875,1.0149
1.7709923664122138,-0.04580152671755725,-1.9083969465648856,-0.439453125,0.0048828125,-0.26806640625,1.0166
2.0916030534351147,0.13740458015267176,-1.9236641221374047,-0.44580078125,0.007080078125,-0.259033203125,1.0183
2.030534351145038,0.1984732824427481,-1.618320610687023,-0.445556640625,0.00732421875,-0.263916015625,1.02
2.1374045801526718,0.21374045801526717,-1.6793893129770991,-0.43994140625,0.00732421875,-0.262939453125,1.0217
1.984732824427481,0.5648854961832062,-1.7404580152671756,-0.44921875,0.002685546875,-0.26171875,1.0233999999999999
1.9541984732824427,0.6412213740458015,-1.7251908396946565,-0.4482421875,-0.0009765625,-0.266845703125,1.0251
2.0,0.549618320610687,-1.816793893129771,-0.447265625,0.005126953125,-0.2646484375,1.0268
2.030534351145038,0.6564885496183206,-1.9083969465648856,-0.447998046875,0.004150390625,-0.25927734375,1.0285
1.8473282442748091,0.7938931297709924,-1.9236641221374047,-0.448486328125,0.0029296875,-0.265869140625,1.0302
2.0763358778625953,0.7480916030534351,-2.045801526717557,-0.44140625,0.00146484375,-0.257568359375,1.0319
2.2290076335877864,0.732824427480916,-2.183206106870229,-0.448486328125,0.0078125,-0.263671875,1.0335999999999999
1.8778625954198473,0.7480916030534351,-2.0916030534351147,-0.44287109375,0.0048828125,-0.26220703125,1.0352999999999999
2.0916030534351147,0.8396946564885496,-2.0916030534351147,-0.4453125,-0.001220703125,-0.265380859375,1.037
1.9236641221374047,0.7786259541984732,-1.8778625954198473,-0.445068359375,0.0107421875,-0.259765625,1.0387
1.9389312977099236,0.9770992366412213,-1.8625954198473282,-0.44189453125,0.0087890625,-0.25927734375,1.0404
2.015267175572519,0.8702290076335878,-1.9389312977099236,-0.4453125,0.006103515625,-0.265869140625,1.0421
2.0916030534351147,0.7938931297709924,-1.6488549618320612,-0.4443359375,0.00341796875,-0.256591796875,1.0437999999999998
2.1526717557251906,0.916030534351145,-1.6946564885496183,-0.447021484375,0.001708984375,-0.267333984375,1.0454999999999999
2.0,0.8702290076335878,-1.6793893129770991,-0.44677734375,0.00634765625,-0.262451171875,1.0472
1.8931297709923665,0.9312977099236641,-1.8473282442748091,-0.442626953125,0.00390625,-0.259521484375,1.0489
2.1526717557251906,1.1908396946564885,-1.7709923664122138,-0.4443359375,0.00244140625,-0.255615234375,1.0506
2.0763358778625953,1.0687022900763359,-1.6488549618320612,-0.4453125,0.006103515625,-0.26416015625,1.0523
1.9236641221374047,1.1908396946564885,-1.6488549618320612,-0.4404296875,0.005126953125,-0.2646484375,1.054
1.8931297709923665,1.3435114503816794,-1.7709923664122138,-0.447265625,0.006103515625,-0.262939453125,1.0556999999999999
2.122137404580153,1.3740458015267176,-1.6030534351145038,-0.44384765625,0.0087890625,-0.26611328125,1.0574
2.015267175572519,1.2366412213740459,-1.8015267175572518,-0.444580078125,0.006103515625,-0.266357421875,1.0591
2.2290076335877864,1.2671755725190839,-1.8015267175572518,-0.44384765625,0.005859375,-0.26708984375,1.0608
2.1526717557251906,1.3282442748091603,-1.816793893129771,-0.4404296875,0.00634765625,-0.260986328125,1.0625
2.16793893129771,1.2671755725190839,-1.786259541984733,-0.4443359375,0.01025390625,-0.267333984375,1.0642
2.0916030534351147,1.3893129770992367,-2.030534351145038,-0.438232421875,0.00830078125,-0.261962890625,1.0658999999999998
2.1374045801526718,1.465648854961832,-1.816793893129771,-0.44189453125,0.001953125,-0.26513671875,1.0675999999999999
2.2900763358778624,1.3129770992366412,-1.7709923664122138,-0.44287109375,0.007080078125,-0.2626953125,1.0693
2.183206106870229,1.3435114503816794,-1.8015267175572518,-0.441162109375,0.006103515625,-0.2607421875,1.071
2.045801526717557,1.465648854961832,-2.1526717557251906,-0.443359375,0.0029296875,-0.265380859375,1.0727
2.2748091603053435,1.3740458015267176,-1.6946564885496183,-0.44091796875,0.0048828125,-0.257568359375,1.0744
2.1526717557251906,1.2213740458015268,-1.7557251908396947,-0.443603515625,0.002685546875,-0.258056640625,1.0760999999999998
2.2900763358778624,1.1908396946564885,-1.816793893129771,-0.443603515625,0.010009765625,-0.260498046875,1.0777999999999999
2.3053435114503817,1.1908396946564885,-1.8931297709923665,-0.44091796875,0.00341796875,-0.254638671875,1.0795
1.9389312977099236,1.2061068702290076,-1.7099236641221374,-0.443603515625,0.00732421875,-0.260498046875,1.0812
2.015267175572519,1.2061068702290076,-1.6641221374045803,-0.441650390625,0.00341796875,-0.259765625,1.0829
2.2442748091603053,1.099236641221374,-1.5572519083969465,-0.43798828125,0.00439453125,-0.26318359375,1.0846
1.9083969465648856,1.0687022900763359,-1.6946564885496183,-0.43798828125,0.00341796875,-0.258544921875,1.0863
2.1374045801526718,0.9923664122137404,-1.5267175572519085,-0.440185546875,0.00048828125,-0.261962890625,1.0879999999999999
1.9694656488549618,1.0381679389312977,-1.4809160305343512,-0.4384765625,0.005615234375,-0.255615234375,1.0897
2.2595419847328246,0.7938931297709924,-1.6030534351145038,-0.441162109375,0.005126953125,-0.260009765625,1.0914
1.9083969465648856,0.8396946564885496,-1.5419847328244274,-0.43798828125,0.00244140625,-0.264892578125,1.0931
2.045801526717557,0.8396946564885496,-1.3282442748091603,-0.441162109375,0.00048828125,-0.255126953125,1.0948
2.0763358778625953,0.9770992366412213,-1.3435114503816794,-0.44287109375,0.003173828125,-0.254638671875,1.0965
1.8015267175572518,0.7633587786259542,-1.2213740458015268,-0.439453125,0.0068359375,-0.26806640625,1.0981999999999998
1.9541984732824427,0.9007633587786259,-1.3587786259541985,-0.440185546875,0.002685546875,-0.260986328125,1.0998999999999999
1.786259541984733,0.9312977099236641,-1.2061068702290076,-0.439208984375,0.00244140625,-0.26171875,1.1016
1.786259541984733,1.083969465648855,-1.4045801526717556,-0.440185546875,0.004638671875,-0.262939453125,1.1033
2.1068702290076335,1.0534351145038168,-1.3129770992366412,-0.438232421875,0.001220703125,-0.259033203125,1.105
1.83206106870229,1.0534351145038168,-1.3282442748091603,-0.443359375,-0.001708984375,-0.266357421875,1.1067
1.633587786259542,1.0381679389312977,-1.2671755725190839,-0.443115234375,0.00341796875,-0.260009765625,1.1083999999999998
1.83206106870229,0.9770992366412213,-1.251908396946565,-0.445556640625,0.002197265625,-0.2685546875,1.1100999999999999
2.0,1.3129770992366412,-1.2671755725190839,-0.4482421875,-0.00244140625,-0.265625,1.1118
2.015267175572519,0.9312977099236641,-1.2061068702290076,-0.449462890625,0.005126953125,-0.257568359375,1.1135
1.8473282442748091,1.0076335877862594,-1.251908396946565,-0.446533203125,0.001708984375,-0.265380859375,1.1152
1.8015267175572518,1.1908396946564885,-1.3740458015267176,-0.443603515625,0.004638671875,-0.2529296875,1.1169
1.633587786259542,1.297709923664122,-1.3587786259541985,-0.446044921875,0.0048828125,-0.26025390625,1.1186
1.786259541984733,1.0687022900763359,-1.5267175572519085,-0.447509765625,0.002197265625,-0.259521484375,1.1202999999999999
1.9694656488549618,1.0534351145038168,-1.6488549618320612,-0.44384765625,0.008544921875,-0.26318359375,1.1219999999999999
1.9694656488549618,1.099236641221374,-1.816793893129771,-0.44384765625,0.005859375,-0.267333984375,1.1237
1.8625954198473282,1.1297709923664123,-1.633587786259542,-0.443359375,0.01123046875,-0.260009765625,1.1254
2.0916030534351147,1.0687022900763359,-1.8473282442748091,-0.44482421875,0.003173828125,-0.263671875,1.1271
1.9694656488549618,0.9923664122137404,-1.816793893129771,-0.43994140625,0.00732421875,-0.25732421875,1.1288
1.816793893129771,0.916030534351145,-2.045801526717557,-0.44189453125,0.01025390625,-0.259765625,1.1304999999999998
2.183206106870229,0.7175572519083969,-1.9694656488549618,-0.44140625,0.006103515625,-0.260498046875,1.1321999999999999
2.1374045801526718,0.5954198473282443,-2.198473282442748,-0.439453125,0.008544921875,-0.2568359375,1.1339
2.0763358778625953,0.6106870229007634,-2.030534351145038,-0.442626953125,0.004150390625,-0.260498046875,1.1356
1.984732824427481,0.7633587786259542,-2.1374045801526718,-0.440673828125,0.009033203125,-0.259765625,1.1373
2.1374045801526718,0.8244274809160306,-2.122137404580153,-0.443603515625,0.0029296875,-0.26318359375,1.139
2.519083969465649,0.7480916030534351,-2.16793893129771,-0.447509765625,0.00439453125,-0.26416015625,1.1407
2.1374045801526718,0.7786259541984732,-1.9694656488549618,-0.44677734375,0.004638671875,-0.266845703125,1.1423999999999999
2.2442748091603053,0.9465648854961832,-1.9389312977099236,-0.44775390625,0.008544921875,-0.26708984375,1.1441
2.16793893129771,1.251908396946565,-1.9541984732824427,-0.445068359375,0.00390625,-0.263916015625,1.1458
2.2900763358778624,1.3893129770992367,-2.122137404580153,-0.447509765625,0.004638671875,-0.271484375,1.1475
2.3053435114503817,1.3129770992366412,-2.0763358778625953,-0.44189453125,0.00537109375,-0.266845703125,1.1492
2.2900763358778624,1.2213740458015268,-2.0610687022900764,-0.438232421875,0.004638671875,-0.27099609375,1.1509
2.0916030534351147,1.3129770992366412,-1.9541984732824427,-0.442626953125,0.009033203125,-0.259765625,1.1525999999999998
2.2442748091603053,1.3435114503816794,-2.0916030534351147,-0.44921875,0.007080078125,-0.26513671875,1.1542999999999999
2.351145038167939,1.3587786259541985,-1.9083969465648856,-0.440673828125,0.0087890625,-0.259033203125,1.156
2.2290076335877864,1.3129770992366412,-1.8015267175572518,-0.445068359375,0.0068359375,-0.260498046875,1.1577
2.183206106870229,1.251908396946565,-1.6946564885496183,-0.439208984375,0.00390625,-0.2587890625,1.1594
2.2900763358778624,1.2366412213740459,-1.816793893129771,-0.439453125,-0.00146484375,-0.26806640625,1.1611
2.3206106870229006,1.2366412213740459,-1.7709923664122138,-0.438232421875,0.000244140625,-0.268798828125,1.1627999999999998
2.16793893129771,1.1603053435114503,-1.7099236641221374,-0.441162109375,0.00244140625,-0.267578125,1.1644999999999999
2.0916030534351147,1.2671755725190839,-1.4809160305343512,-0.440185546875,0.00537109375,-0.258544921875,1.1662
2.2595419847328246,1.1755725190839694,-1.5267175572519085,-0.44189453125,0.002685546875,-0.255859375,1.1679
2.366412213740458,1.0534351145038168,-1.633587786259542,-0.443115234375,0.00244140625,-0.25634765625,1.1696
2.122137404580153,1.0381679389312977,-1.633587786259542,-0.440673828125,0.008544921875,-0.2705078125,1.1713
1.984732824427481,0.8549618320610687,-1.450381679389313,-0.4404296875,0.000732421875,-0.26025390625,1.173
2.1374045801526718,0.8854961832061069,-1.5877862595419847,-0.439208984375,0.00732421875,-0.2587890625,1.1746999999999999
2.0763358778625953,0.8244274809160306,-1.3129770992366412,-0.438232421875,0.0,-0.260009765625,1.1764
1.8015267175572518,0.8244274809160306,-1.4045801526717556,-0.43798828125,0.005859375,-0.263916015625,1.1781
2.122137404580153,0.8702290076335878,-1.1755725190839694,-0.447021484375,0.0029296875,-0.258544921875,1.1798
2.045801526717557,0.9923664122137404,-1.4198473282442747,-0.44189453125,0.000732421875,-0.261962890625,1.1815
1.984732824427481,0.732824427480916,-1.1450381679389312,-0.439697265625,-0.00146484375,-0.25439453125,1.1832
2.2442748091603053,0.5648854961832062,-1.3129770992366412,-0.43994140625,0.007080078125,-0.263427734375,1.1848999999999998
2.1526717557251906,0.6412213740458015,-1.2366412213740459,-0.43798828125,0.009521484375,-0.25439453125,1.1865999999999999
1.9083969465648856,0.6564885496183206,-1.3129770992366412,-0.443603515625,0.001220703125,-0.2529296875,1.1883
2.213740458015267,0.5038167938931297,-1.297709923664122,-0.438232421875,0.00390625,-0.261474609375,1.19
2.0610687022900764,0.6259541984732825,-1.099236641221374,-0.44287109375,0.004638671875,-0.261962890625,1.1917
2.0916030534351147,0.6870229007633588,-1.1145038167938932,-0.4453125,0.00244140625,-0.264892578125,1.1934
2.122137404580153,0.6259541984732825,-1.2061068702290076,-0.43896484375,0.005859375,-0.26513671875,1.1950999999999998
2.0763358778625953,0.44274809160305345,-0.9618320610687023,-0.442626953125,0.000732421875,-0.256591796875,1.1967999999999999
2.1374045801526718,0.6870229007633588,-0.9923664122137404,-0.4462890625,0.000732421875,-0.254150390625,1.1985
2.2748091603053435,0.5954198473282443,-1.1908396946564885,-0.44091796875,0.00537109375,-0.2626953125,1.2002
2.0916030534351147,0.5648854961832062,-1.2671755725190839,-0.4462890625,0.00048828125,-0.256103515625,1.2019
2.045801526717557,0.6717557251908397,-1.0687022900763359,-0.444580078125,-0.00048828125,-0.260986328125,1.2036
2.3053435114503817,0.44274809160305345,-1.282442748091603,-0.436767578125,0.0087890625,-0.25439453125,1.2053
2.2748091603053435,0.4580152671755725,-1.1145038167938932,-0.44091796875,0.005126953125,-0.267333984375,1.2069999999999999
2.1526717557251906,0.42748091603053434,-1.0381679389312977,-0.44287109375,0.007080078125,-0.2685546875,1.2086999999999999
2.1526717557251906,0.48854961832061067,-1.0534351145038168,-0.44140625,0.0078125,-0.25927734375,1.2104
2.16793893129771,0.5648854961832062,-1.4198473282442747,-0.436279296875,0.002197265625,-0.266357421875,1.2121
1.9541984732824427,0.33587786259541985,-1.0687022900763359,-0.442626953125,-0.0029296875,-0.26220703125,1.2138
1.8778625954198473,0.5801526717557252,-1.2366412213740459,-0.43603515625,0.00341796875,-0.267578125,1.2155
2.1526717557251906,0.3816793893129771,-1.1603053435114503,-0.4384765625,0.0029296875,-0.255859375,1.2171999999999998
2.1068702290076335,0.3816793893129771,-1.2061068702290076,-0.438232421875,0.003173828125,-0.258056640625,1.2188999999999999
2.122137404580153,0.4122137404580153,-1.2671755725190839,-0.442626953125,0.004150390625,-0.26123046875,1.2206
1.984732824427481,0.183206106870229,-1.2213740458015268,-0.442138671875,0.010009765625,-0.26416015625,1.2223
1.9236641221374047,0.3511450381679389,-1.0534351145038168,-0.439697265625,0.003662109375,-0.26025390625,1.224
2.0,0.42748091603053434,-1.2366412213740459,-0.44384765625,0.001220703125,-0.263427734375,1.2257
2.0,0.3969465648854962,-1.099236641221374,-0.44482421875,0.0029296875,-0.2568359375,1.2273999999999998
2.0916030534351147,0.24427480916030533,-1.0381679389312977,-0.441650390625,0.001708984375,-0.265380859375,1.2290999999999999
2.1068702290076335,0.24427480916030533,-1.1145038167938932,-0.439208984375,0.00146484375,-0.264892578125,1.2308
1.9083969465648856,0.21374045801526717,-1.297709923664122,-0.443115234375,-0.000732421875,-0.2578125,1.2325
2.015267175572519,0.24427480916030533,-1.1908396946564885,-0.4384765625,0.005615234375,-0.25927734375,1.2342
1.9694656488549618,0.04580152671755725,-1.1603053435114503,-0.438720703125,0.00244140625,-0.258544921875,1.2359
1.816793893129771,0.061068702290076333,-1.0381679389312977,-0.431396484375,0.004150390625,-0.258544921875,1.2376
1.9236641221374047,0.030534351145038167,-1.1450381679389312,-0.437744140625,0.006103515625,-0.259521484375,1.2392999999999998
1.786259541984733,-0.015267175572519083,-0.9770992366412213,-0.442138671875,0.00048828125,-0.262939453125,1.2409999999999999
1.786259541984733,0.015267175572519083,-1.0076335877862594,-0.441650390625,0.00439453125,-0.265380859375,1.2427
1.786259541984733,-0.12213740458015267,-1.0381679389312977,-0.446044921875,0.00341796875,-0.258544921875,1.2444
1.5572519083969465,0.07633587786259542,-1.0229007633587786,-0.44189453125,0.00439453125,-0.266357421875,1.2461
1.6488549618320612,0.21374045801526717,-1.1145038167938932,-0.4404296875,0.008056640625,-0.2578125,1.2478
1.7404580152671756,0.15267175572519084,-1.083969465648855,-0.439208984375,0.00048828125,-0.2646484375,1.2494999999999998
1.5877862595419847,0.030534351145038167,-0.9007633587786259,-0.4423828125,0.001708984375,-0.2626953125,1.2511999999999999
1.4961832061068703,-0.015267175572519083,-0.916030534351145,-0.439453125,-0.00048828125,-0.259521484375,1.2529
1.4809160305343512,-0.030534351145038167,-0.8854961832061069,-0.441650390625,0.001953125,-0.2568359375,1.2546
1.6793893129770991,0.13740458015267176,-1.1450381679389312,-0.4443359375,0.001953125,-0.261962890625,1.2563
1.3435114503816794,0.3053435114503817,-0.9770992366412213,-0.44287109375,-0.001708984375,-0.27294921875,1.258
1.251908396946565,0.061068702290076333,-1.1603053435114503,-0.445556640625,-0.002197265625,-0.27001953125,1.2596999999999998
1.633587786259542,0.183206106870229,-0.916030534351145,-0.447998046875,0.0,-0.25927734375,1.2613999999999999
1.3129770992366412,0.2900763358778626,-0.9312977099236641,-0.44482421875,0.00390625,-0.263671875,1.2631
1.0534351145038168,0.33587786259541985,-1.083969465648855,-0.44580078125,0.00537109375,-0.2626953125,1.2648
1.2671755725190839,0.3969465648854962,-1.0381679389312977,-0.441650390625,0.00537109375,-0.263427734375,1.2665
1.3740458015267176,0.42748091603053434,-0.9770992366412213,-0.447509765625,0.007568359375,-0.255615234375,1.2682
1.450381679389313,0.33587786259541985,-1.083969465648855,-0.44140625,0.00830078125,-0.261962890625,1.2699
1.3435114503816794,0.32061068702290074,-1.3282442748091603,-0.446533203125,0.006103515625,-0.266357421875,1.2715999999999998
1.3129770992366412,0.3511450381679389,-1.1450381679389312,-0.445556640625,0.00537109375,-0.260498046875,1.2732999999999999
1.2366412213740459,0.5038167938931297,-1.083969465648855,-0.445068359375,0.00244140625,-0.26513671875,1.275
1.1603053435114503,0.5801526717557252,-1.1450381679389312,-0.44287109375,0.00537109375,-0.26318359375,1.2767
1.1145038167938932,0.6717557251908397,-1.2366412213740459,-0.444091796875,-0.00146484375,-0.26416015625,1.2784
1.1908396946564885,0.366412213740458,-1.282442748091603,-0.444091796875,0.00244140625,-0.25146484375,1.2801
1.2366412213740459,0.33587786259541985,-1.297709923664122,-0.444580078125,0.003173828125,-0.248291015625,1.2817999999999998
1.2366412213740459,0.3816793893129771,-1.465648854961832,-0.444580078125,0.0009765625,-0.265869140625,1.2834999999999999
1.0229007633587786,0.3511450381679389,-1.2061068702290076,-0.4521484375,0.001953125,-0.257080078125,1.2852
1.083969465648855,0.549618320610687,-1.3282442748091603,-0.445068359375,0.008544921875,-0.263671875,1.2869
1.282442748091603,0.5648854961832062,-1.4351145038167938,-0.447509765625,0.0009765625,-0.2587890625,1.2886
1.1297709923664123,0.732824427480916,-1.3129770992366412,-0.453125,-0.00244140625,-0.265869140625,1.2903
1.2061068702290076,0.7480916030534351,-1.4351145038167938,-0.446044921875,0.0078125,-0.268798828125,1.292
1.1297709923664123,0.6412213740458015,-1.3893129770992367,-0.443115234375,0.005859375,-0.266357421875,1.2936999999999999
1.2671755725190839,0.6564885496183206,-1.465648854961832,-0.439453125,0.01171875,-0.253662109375,1.2953999999999999
1.3435114503816794,0.7938931297709924,-1.5114503816793894,-0.44287109375,0.002197265625,-0.26025390625,1.2971
1.0381679389312977,0.5954198473282443,-1.5419847328244274,-0.447998046875,0.006103515625,-0.2529296875,1.2988
1.0687022900763359,0.7786259541984732,-1.6488549618320612,-0.4453125,0.000732421875,-0.25732421875,1.3005
1.1450381679389312,0.7480916030534351,-1.5114503816793894,-0.443359375,0.006103515625,-0.261962890625,1.3022
1.1145038167938932,0.7633587786259542,-1.618320610687023,-0.44140625,0.005126953125,-0.267333984375,1.3038999999999998
1.1297709923664123,0.7938931297709924,-1.5419847328244274,-0.441162109375,0.0048828125,-0.25634765625,1.3055999999999999
0.9618320610687023,0.8244274809160306,-1.618320610687023,-0.4384765625,0.00439453125,-0.259033203125,1.3073
1.1450381679389312,0.916030534351145,-1.4198473282442747,-0.440185546875,-0.000732421875,-0.269287109375,1.309
1.1145038167938932,0.8549618320610687,-1.4961832061068703,-0.441650390625,0.006103515625,-0.25927734375,1.3107
1.1145038167938932,0.8244274809160306,-1.6641221374045803,-0.4404296875,0.006103515625,-0.255615234375,1.3124
1.099236641221374,0.9007633587786259,-1.4809160305343512,-0.443603515625,0.000244140625,-0.260986328125,1.3140999999999998
1.251908396946565,0.9923664122137404,-1.3587786259541985,-0.442626953125,0.0048828125,-0.25927734375,1.3157999999999999
0.8549618320610687,0.7938931297709924,-1.3893129770992367,-0.442626953125,0.0048828125,-0.26025390625,1.3175
0.9618320610687023,0.9923664122137404,-1.3435114503816794,-0.444580078125,0.00634765625,-0.255615234375,1.3192
0.9770992366412213,1.0381679389312977,-1.297709923664122,-0.444091796875,0.00439453125,-0.25390625,1.3209
1.0687022900763359,1.1297709923664123,-1.251908396946565,-0.4462890625,0.003662109375,-0.26953125,1.3226
0.8549618320610687,1.3282442748091603,-1.1603053435114503,-0.44677734375,0.0029296875,-0.2548828125,1.3243
0.8091603053435115,1.251908396946565,-1.3129770992366412,-0.44384765625,0.002197265625,-0.2529296875,1.3259999999999998
0.9007633587786259,0.9923664122137404,-1.3129770992366412,-0.447021484375,0.003173828125,-0.260986328125,1.3276999999999999
1.0076335877862594,1.3435114503816794,-1.099236641221374,-0.448974609375,0.002685546875,-0.267333984375,1.3294
0.916030534351145,1.251908396946565,-1.1603053435114503,-0.440185546875,0.003173828125,-0.262939453125,1.3311
0.7633587786259542,1.1755725190839694,-1.1908396946564885,-0.4453125,0.005615234375,-0.256591796875,1.3328
1.0534351145038168,1.1603053435114503,-1.1908396946564885,-0.4482421875,0.007080078125,-0.26318359375,1.3345
0.9465648854961832,1.2366412213740459,-1.1297709923664123,-0.4423828125,0.00341796875,-0.25390625,1.3361999999999998
0.7480916030534351,1.282442748091603,-0.9312977099236641,-0.444091796875,0.005615234375,-0.257080078125,1.3378999999999999
0.9465648854961832,1.3435114503816794,-1.0534351145038168,-0.4482421875,0.00146484375,-0.261962890625,1.3396
0.8854961832061069,1.3587786259541985,-0.9007633587786259,-0.44384765625,0.008056640625,-0.263671875,1.3413
0.916030534351145,1.2213740458015268,-1.0076335877862594,-0.444091796875,0.010986328125,-0.26416015625,1.343
0.9923664122137404,1.2366412213740459,-0.9312977099236641,-0.44287109375,0.01025390625,-0.260009765625,1.3447
0.8244274809160306,1.2213740458015268,-1.0687022900763359,-0.442626953125,0.008544921875,-0.267333984375,1.3463999999999998
1.0534351145038168,1.3740458015267176,-1.0076335877862594,-0.4443359375,-0.0009765625,-0.259521484375,1.3480999999999999
0.916030534351145,1.618320610687023,-1.1145038167938932,-0.443115234375,0.000244140625,-0.260009765625,1.3497999999999999
1.0534351145038168,1.3282442748091603,-1.1755725190839694,-0.436767578125,0.006591796875,-0.257080078125,1.3515
0.9923664122137404,1.4045801526717556,-1.2213740458015268,-0.44287109375,0.008544921875,-0.25439453125,1.3532
1.2213740458015268,1.450381679389313,-1.2671755725190839,-0.441650390625,0.0087890625,-0.259033203125,1.3549
1.099236641221374,1.4045801526717556,-1.5114503816793894,-0.435791015625,0.002685546875,-0.264404296875,1.3566
1.2213740458015268,1.3435114503816794,-1.450381679389313,-0.438720703125,0.00927734375,-0.264892578125,1.3582999999999998
1.450381679389313,1.4198473282442747,-1.450381679389313,-0.4453125,0.006591796875,-0.26220703125,1.3599999999999999
1.1297709923664123,1.3587786259541985,-1.297709923664122,-0.4404296875,0.00732421875,-0.257080078125,1.3617
1.2213740458015268,1.4045801526717556,-1.4045801526717556,-0.4365234375,0.005859375,-0.25830078125,1.3634
1.4198473282442747,1.2213740458015268,-1.3893129770992367,-0.441650390625,0.005615234375,-0.26416015625,1.3651
1.5267175572519085,1.4045801526717556,-1.4961832061068703,-0.441162109375,0.014404296875,-0.257568359375,1.3668
1.3435114503816794,1.5725190839694656,-1.5267175572519085,-0.443603515625,0.006103515625,-0.25830078125,1.3684999999999998
1.5419847328244274,1.5267175572519085,-1.6793893129770991,-0.44091796875,0.004638671875,-0.252197265625,1.3701999999999999
1.6488549618320612,1.618320610687023,-1.4809160305343512,-0.441162109375,0.001953125,-0.2587890625,1.3719
1.4045801526717556,1.4809160305343512,-1.5572519083969465,-0.439453125,0.00634765625,-0.270751953125,1.3736
1.5572519083969465,1.4961832061068703,-1.4198473282442747,-0.4423828125,0.006591796875,-0.259765625,1.3753
1.6641221374045803,1.5725190839694656,-1.251908396946565,-0.4423828125,0.009765625,-0.261962890625,1.377
1.6641221374045803,1.5419847328244274,-1.3129770992366412,-0.4443359375,0.007568359375,-0.258056640625,1.3786999999999998
1.4045801526717556,1.3587786259541985,-1.3893129770992367,-0.43994140625,0.006103515625,-0.263671875,1.3803999999999998
1.816793893129771,1.3129770992366412,-1.2671755725190839,-0.4375,0.004638671875,-0.26318359375,1.3820999999999999
1.7709923664122138,1.450381679389313,-1.2671755725190839,-0.4404296875,0.00146484375,-0.25830078125,1.3838
1.5114503816793894,1.4045801526717556,-1.1755725190839694,-0.439453125,0.000244140625,-0.25732421875,1.3855
1.450381679389313,1.3282442748091603,-1.465648854961832,-0.4404296875,0.0068359375,-0.26123046875,1.3872
1.3282442748091603,1.4961832061068703,-1.099236641221374,-0.441162109375,0.003662109375,-0.25537109375,1.3889
1.8778625954198473,1.5267175572519085,-1.0687022900763359,-0.446533203125,0.005859375,-0.265380859375,1.3905999999999998
1.6946564885496183,1.5114503816793894,-1.1145038167938932,-0.43994140625,0.005126953125,-0.26025390625,1.3922999999999999
1.8473282442748091,1.5114503816793894,-1.2671755725190839,-0.44287109375,0.005859375,-0.263671875,1.394
1.465648854961832,1.5114503816793894,-0.9007633587786259,-0.4482421875,0.002685546875,-0.26025390625,1.3957
1.465648854961832,1.6793893129770991,-1.1450381679389312,-0.444091796875,0.00439453125,-0.2578125,1.3974
1.6946564885496183,1.4961832061068703,-1.1297709923664123,-0.44384765625,0.00439453125,-0.25732421875,1.3991
1.6946564885496183,1.5267175572519085,-1.1450381679389312,-0.44189453125,0.00732421875,-0.265380859375,1.4007999999999998
1.633587786259542,1.6030534351145038,-0.9312977099236641,-0.438720703125,0.000732421875,-0.27001953125,1.4024999999999999
1.7404580152671756,1.6793893129770991,-1.099236641221374,-0.44140625,-0.000244140625,-0.26025390625,1.4042
1.816793893129771,1.633587786259542,-0.7938931297709924,-0.44189453125,0.004638671875,-0.26708984375,1.4059
1.7557251908396947,1.6030534351145038,-0.9312977099236641,-0.44091796875,0.005615234375,-0.26416015625,1.4076
1.7404580152671756,1.7251908396946565,-1.0076335877862594,-0.449462890625,0.00830078125,-0.271484375,1.4093
1.633587786259542,1.7251908396946565,-1.0381679389312977,-0.44677734375,0.010009765625,-0.256591796875,1.411
1.5572519083969465,1.7251908396946565,-0.9312977099236641,-0.44384765625,0.00439453125,-0.26318359375,1.4126999999999998
1.9236641221374047,1.83206106870229,-0.8549618320610687,-0.442138671875,0.0029296875,-0.26806640625,1.4143999999999999
1.7557251908396947,1.8931297709923665,-1.0381679389312977,-0.4423828125,0.005615234375,-0.265869140625,1.4161
1.9541984732824427,1.816793893129771,-0.9312977099236641,-0.44775390625,0.00048828125,-0.25244140625,1.4178
1.7709923664122138,2.015267175572519,-0.6717557251908397,-0.443115234375,0.0078125,-0.260498046875,1.4195
1.7251908396946565,1.9541984732824427,-0.916030534351145,-0.442626953125,0.008544921875,-0.262939453125,1.4212
1.6641221374045803,2.122137404580153,-0.8396946564885496,-0.4443359375,0.00927734375,-0.26123046875,1.4228999999999998
1.618320610687023,2.0763358778625953,-1.1450381679389312,-0.440673828125,0.006591796875,-0.265380859375,1.4245999999999999
1.8015267175572518,1.984732824427481,-0.8702290076335878,-0.439453125,0.00244140625,-0.25732421875,1.4263
2.030534351145038,1.9083969465648856,-1.1450381679389312,-0.4423828125,0.00732421875,-0.257568359375,1.428
2.015267175572519,1.8015267175572518,-1.0687022900763359,-0.438720703125,0.00390625,-0.2646484375,1.4297
1.816793893129771,1.5267175572519085,-1.1908396946564885,-0.439208984375,0.00830078125,-0.26220703125,1.4314
1.8473282442748091,1.5725190839694656,-0.9312977099236641,-0.439208984375,0.006103515625,-0.259765625,1.4330999999999998
1.984732824427481,1.4961832061068703,-1.2213740458015268,-0.4384765625,0.005859375,-0.26318359375,1.4347999999999999
1.7709923664122138,1.5267175572519085,-1.0381679389312977,-0.443359375,0.006591796875,-0.263916015625,1.4364999999999999
1.8625954198473282,1.4198473282442747,-1.1145038167938932,-0.444091796875,0.005126953125,-0.26171875,1.4382
1.9236641221374047,1.4961832061068703,-0.9923664122137404,-0.444091796875,0.0068359375,-0.270263671875,1.4399
1.7709923664122138,1.6641221374045803,-1.083969465648855,-0.44287109375,0.00537109375,-0.25634765625,1.4416
2.015267175572519,1.4961832061068703,-0.916030534351145,-0.44384765625,0.002685546875,-0.25537109375,1.4433
1.8473282442748091,1.4198473282442747,-1.1145038167938932,-0.44384765625,0.00390625,-0.26025390625,1.4449999999999998
1.786259541984733,1.3587786259541985,-1.282442748091603,-0.440673828125,0.0078125,-0.259521484375,1.4466999999999999
2.1068702290076335,1.6030534351145038,-1.1908396946564885,-0.4443359375,0.004638671875,-0.263427734375,1.4484
1.8473282442748091,1.5114503816793894,-1.1450381679389312,-0.441650390625,0.00439453125,-0.26513671875,1.4501
1.8931297709923665,1.4809160305343512,-1.1603053435114503,-0.4384765625,0.007568359375,-0.25732421875,1.4518
1.9236641221374047,1.6641221374045803,-1.0534351145038168,-0.43994140625,0.011474609375,-0.2626953125,1.4535
1.9236641221374047,1.4198473282442747,-1.2671755725190839,-0.4443359375,0.011474609375,-0.263427734375,1.4551999999999998
1.8931297709923665,1.5267175572519085,-1.1603053435114503,-0.44384765625,0.000732421875,-0.250244140625,1.4568999999999999
1.816793893129771,1.6030534351145038,-1.2213740458015268,-0.439208984375,0.010009765625,-0.2626953125,1.4586
1.7099236641221374,1.4045801526717556,-1.083969465648855,-0.438720703125,0.012939453125,-0.265869140625,1.4603
1.8015267175572518,1.4198473282442747,-1.2061068702290076,-0.44482421875,0.008056640625,-0.257568359375,1.462
1.7404580152671756,1.5572519083969465,-1.1145038167938932,-0.44140625,0.0078125,-0.27099609375,1.4637
1.9083969465648856,1.3740458015267176,-1.297709923664122,-0.44677734375,0.004638671875,-0.262939453125,1.4653999999999998
1.9541984732824427,1.4351145038167938,-1.1908396946564885,-0.443603515625,0.00341796875,-0.251708984375,1.4670999999999998
1.83206106870229,1.3893129770992367,-1.251908396946565,-0.433349609375,0.003662109375,-0.25927734375,1.4687999999999999
1.9083969465648856,1.3435114503816794,-1.099236641221374,-0.43994140625,0.00244140625,-0.254150390625,1.4705
1.8625954198473282,1.4809160305343512,-1.4045801526717556,-0.4404296875,0.008056640625,-0.259033203125,1.4722
1.5419847328244274,1.3740458015267176,-1.083969465648855,-0.439208984375,0.0107421875,-0.263916015625,1.4739
1.9083969465648856,1.3435114503816794,-1.2213740458015268,-0.444091796875,0.0068359375,-0.26611328125,1.4756
1.8625954198473282,1.5267175572519085,-1.2061068702290076,-0.443115234375,0.01123046875,-0.265380859375,1.4772999999999998
1.816793893129771,1.3740458015267176,-1.3129770992366412,-0.441162109375,0.002685546875,-0.253662109375,1.4789999999999999
1.6030534351145038,1.450381679389313,-1.1145038167938932,-0.43994140625,0.00341796875,-0.260009765625,1.4807
1.5725190839694656,1.6030534351145038,-1.4198473282442747,-0.439208984375,0.00048828125,-0.265380859375,1.4824
1.816793893129771,1.3893129770992367,-1.3129770992366412,-0.44140625,0.003173828125,-0.260986328125,1.4841
1.7099236641221374,1.4809160305343512,-1.2366412213740459,-0.441650390625,0.005615234375,-0.26123046875,1.4858
1.5114503816793894,1.465648854961832,-1.083969465648855,-0.445068359375,0.007080078125,-0.26220703125,1.4874999999999998
1.6030534351145038,1.5419847328244274,-1.3282442748091603,-0.442626953125,0.004638671875,-0.269287109375,1.4891999999999999
1.6641221374045803,1.4961832061068703,-1.1297709923664123,-0.435302734375,0.00439453125,-0.2578125,1.4909
1.5114503816793894,1.4961832061068703,-1.3740458015267176,-0.444580078125,0.00439453125,-0.26220703125,1.4926
1.5725190839694656,1.465648854961832,-1.450381679389313,-0.443115234375,0.009033203125,-0.256103515625,1.4943
1.6946564885496183,1.4351145038167938,-1.450381679389313,-0.44189453125,0.0029296875,-0.2626953125,1.496
1.5419847328244274,1.465648854961832,-1.1450381679389312,-0.43994140625,0.004150390625,-0.261962890625,1.4976999999999998
1.7099236641221374,1.618320610687023,-1.3740458015267176,-0.4404296875,0.006103515625,-0.2626953125,1.4993999999999998
1.6641221374045803,1.633587786259542,-1.3587786259541985,-0.44140625,0.01025390625,-0.25927734375,1.5010999999999999
1.4961832061068703,1.5419847328244274,-1.4045801526717556,-0.44384765625,0.0087890625,-0.255859375,1.5028
1.5419847328244274,1.5419847328244274,-1.3587786259541985,-0.444580078125,0.006591796875,-0.257080078125,1.5045
1.5267175572519085,1.5725190839694656,-1.5419847328244274,-0.443603515625,0.006103515625,-0.272705078125,1.5062
1.450381679389313,1.450381679389313,-1.4351145038167938,-0.43896484375,0.005615234375,-0.265869140625,1.5079
1.5572519083969465,1.5572519083969465,-1.465648854961832,-0.443359375,0.006103515625,-0.268798828125,1.5095999999999998
1.6641221374045803,1.7099236641221374,-1.465648854961832,-0.4443359375,0.002685546875,-0.267822265625,1.5112999999999999
1.633587786259542,1.450381679389313,-1.6946564885496183,-0.4404296875,0.0087890625,-0.2587890625,1.513
1.5114503816793894,1.5419847328244274,-1.618320610687023,-0.446044921875,0.00830078125,-0.254150390625,1.5147
1.5267175572519085,1.6641221374045803,-1.618320610687023,-0.44384765625,0.0078125,-0.253662109375,1.5164
1.6793893129770991,1.5114503816793894,-1.5725190839694656,-0.442626953125,0.005859375,-0.261962890625,1.5181
1.6488549618320612,1.4809160305343512,-1.83206106870229,-0.445556640625,0.0068359375,-0.25244140625,1.5197999999999998
1.633587786259542,1.5114503816793894,-1.6641221374045803,-0.44873046875,0.003662109375,-0.26318359375,1.5214999999999999
1.5725190839694656,1.3893129770992367,-1.7404580152671756,-0.44287109375,0.0,-0.263916015625,1.5231999999999999
1.7709923664122138,1.4351145038167938,-1.7251908396946565,-0.437255859375,0.003662109375,-0.25732421875,1.5249
1.7709923664122138,1.6641221374045803,-1.8015267175572518,-0.441650390625,0.011474609375,-0.25634765625,1.5266
1.618320610687023,1.633587786259542,-1.6946564885496183,-0.441650390625,0.0068359375,-0.26611328125,1.5283
1.5267175572519085,1.4961832061068703,-1.786259541984733,-0.443603515625,0.00341796875,-0.261962890625,1.5299999999999998
1.5877862595419847,1.4809160305343512,-1.6030534351145038,-0.442138671875,0.00830078125,-0.260986328125,1.5316999999999998
1.6641221374045803,1.5877862595419847,-1.7404580152671756,-0.4453125,0.0078125,-0.264892578125,1.5333999999999999
1.7404580152671756,1.465648854961832,-1.7709923664122138,-0.442138671875,0.008056640625,-0.2626953125,1.5351
1.6793893129770991,1.6030534351145038,-1.786259541984733,-0.443359375,0.00634765625,-0.268310546875,1.5368
1.5572519083969465,1.6641221374045803,-1.7099236641221374,-0.4443359375,0.0009765625,-0.2626953125,1.5385
1.7709923664122138,1.5267175572519085,-1.7709923664122138,-0.441650390625,0.004638671875,-0.26171875,1.5402
2.0,1.4045801526717556,-1.5877862595419847,-0.44384765625,0.0068359375,-0.265380859375,1.5418999999999998
1.9541984732824427,1.7251908396946565,-1.6488549618320612,-0.441650390625,0.004150390625,-0.262451171875,1.5435999999999999
1.6793893129770991,1.5114503816793894,-1.9083969465648856,-0.440673828125,0.003173828125,-0.2607421875,1.5453
1.83206106870229,1.5419847328244274,-1.6793893129770991,-0.445068359375,0.009521484375,-0.261962890625,1.547
1.9389312977099236,1.6793893129770991,-1.6030534351145038,-0.4443359375,0.006591796875,-0.26123046875,1.5487
1.9083969465648856,1.618320610687023,-1.6030534351145038,-0.443359375,0.010009765625,-0.25732421875,1.5504
1.7557251908396947,1.5725190839694656,-1.5267175572519085,-0.443115234375,0.004638671875,-0.27099609375,1.5520999999999998
2.030534351145038,1.7251908396946565,-1.6641221374045803,-0.441650390625,0.0068359375,-0.274658203125,1.5537999999999998
1.9694656488549618,1.7557251908396947,-1.7404580152671756,-0.443359375,0.00634765625,-0.2666015625,1.5554999999999999
2.1374045801526718,1.5725190839694656,-1.618320610687023,-0.443603515625,0.0078125,-0.258056640625,1.5572
2.0610687022900764,1.4961832061068703,-1.5877862595419847,-0.447021484375,0.013916015625,-0.26318359375,1.5589
2.0,1.6030534351145038,-1.6030534351145038,-0.44775390625,0.013427734375,-0.260498046875,1.5606
2.2748091603053435,1.7099236641221374,-1.5114503816793894,-0.435791015625,0.0009765625,-0.26025390625,1.5623
2.1526717557251906,1.83206106870229,-1.4198473282442747,-0.44482421875,0.008544921875,-0.251220703125,1.5639999999999998
2.045801526717557,1.786259541984733,-1.5419847328244274,-0.443603515625,0.00732421875,-0.254638671875,1.5656999999999999
2.0763358778625953,1.984732824427481,-1.4961832061068703,-0.4453125,0.0087890625,-0.2646484375,1.5674
2.16793893129771,1.9389312977099236,-1.4351145038167938,-0.440673828125,0.007568359375,-0.260498046875,1.5691
2.213740458015267,2.045801526717557,-1.465648854961832,-0.441162109375,0.00537109375,-0.255615234375,1.5708
2.2595419847328246,1.9083969465648856,-1.450381679389313,-0.4423828125,0.01123046875,-0.2578125,1.5725
2.33587786259542,2.0763358778625953,-1.465648854961832,-0.443603515625,0.00390625,-0.269287109375,1.5741999999999998
2.2595419847328246,2.0610687022900764,-1.2671755725190839,-0.440673828125,0.0029296875,-0.255615234375,1.5758999999999999
2.351145038167939,1.9541984732824427,-1.4809160305343512,-0.442138671875,0.0068359375,-0.263671875,1.5776
2.3206106870229006,1.8778625954198473,-1.3435114503816794,-0.445556640625,0.00439453125,-0.257568359375,1.5793
2.381679389312977,1.816793893129771,-1.3282442748091603,-0.43603515625,0.005615234375,-0.25830078125,1.581
2.366412213740458,1.9389312977099236,-1.465648854961832,-0.437744140625,0.006103515625,-0.26025390625,1.5827
2.564885496183206,1.9694656488549618,-1.2671755725190839,-0.442626953125,0.002197265625,-0.260986328125,1.5843999999999998
2.5801526717557253,2.015267175572519,-1.3893129770992367,-0.4453125,0.002197265625,-0.255126953125,1.5860999999999998
2.7938931297709924,1.9236641221374047,-1.2213740458015268,-0.44091796875,0.0068359375,-0.26123046875,1.5877999999999999
2.5801526717557253,2.1374045801526718,-1.3587786259541985,-0.442138671875,0.002197265625,-0.26123046875,1.5895
2.5801526717557253,2.1068702290076335,-1.2366412213740459,-0.44140625,0.007568359375,-0.26318359375,1.5912
2.6106870229007635,1.8931297709923665,-1.1908396946564885,-0.442626953125,0.008544921875,-0.269775390625,1.5929
2.717557251908397,1.9083969465648856,-1.3435114503816794,-0.4384765625,0.001220703125,-0.26416015625,1.5946
2.687022900763359,2.0610687022900764,-1.1908396946564885,-0.442138671875,0.00390625,-0.255615234375,1.5962999999999998
2.6259541984732824,1.9083969465648856,-1.3129770992366412,-0.44091796875,0.002685546875,-0.25390625,1.5979999999999999
2.50381679389313,2.0,-1.3129770992366412,-0.43994140625,0.005615234375,-0.253662109375,1.5997
2.7480916030534353,1.8931297709923665,-1.3435114503816794,-0.445556640625,0.006591796875,-0.260498046875,1.6014
2.732824427480916,2.0,-1.2366412213740459,-0.442626953125,0.0048828125,-0.266357421875,1.6031
2.854961832061069,1.984732824427481,-1.1603053435114503,-0.43603515625,0.009521484375,-0.261474609375,1.6048
2.6106870229007635,1.984732824427481,-1.2671755725190839,-0.43896484375,0.005615234375,-0.262451171875,1.6064999999999998
2.7938931297709924,1.8625954198473282,-1.1755725190839694,-0.440673828125,0.0068359375,-0.26220703125,1.6081999999999999
2.931297709923664,2.015267175572519,-1.2366412213740459,-0.44482421875,0.00439453125,-0.26416015625,1.6098999999999999
2.7938931297709924,1.9236641221374047,-1.282442748091603,-0.44189453125,0.002197265625,-0.2607421875,1.6116
2.595419847328244,1.8015267175572518,-1.1450381679389312,-0.437255859375,0.0087890625,-0.268310546875,1.6133
2.549618320610687,1.8778625954198473,-1.099236641221374,-0.44189453125,0.00439453125,-0.258056640625,1.615
2.7480916030534353,1.9694656488549618,-1.251908396946565,-0.442138671875,0.0068359375,-0.26025390625,1.6166999999999998
2.7786259541984735,1.8015267175572518,-1.2061068702290076,-0.44677734375,0.00439453125,-0.259521484375,1.6183999999999998
2.549618320610687,1.7404580152671756,-1.1450381679389312,-0.4345703125,0.00341796875,-0.270263671875,1.6200999999999999
2.6106870229007635,1.8015267175572518,-1.083969465648855,-0.440673828125,0.00537109375,-0.27001953125,1.6218
2.763358778625954,1.7251908396946565,-1.1908396946564885,-0.438720703125,0.001953125,-0.26513671875,1.6235
2.5343511450381677,1.8473282442748091,-1.1603053435114503,-0.44189453125,0.001953125,-0.2578125,1.6252
2.6106870229007635,1.786259541984733,-0.9770992366412213,-0.439697265625,0.00244140625,-0.264892578125,1.6269
2.549618320610687,1.7404580152671756,-1.0687022900763359,-0.43994140625,0.001708984375,-0.26513671875,1.6285999999999998
2.6106870229007635,1.7404580152671756,-1.1297709923664123,-0.44189453125,0.00732421875,-0.26513671875,1.6302999999999999
2.4732824427480917,1.83206106870229,-1.2061068702290076,-0.438232421875,0.0029296875,-0.259521484375,1.632
2.381679389312977,1.7709923664122138,-0.9312977099236641,-0.444580078125,0.00341796875,-0.26318359375,1.6337
2.50381679389313,1.8473282442748091,-1.0534351145038168,-0.4404296875,-0.000732421875,-0.2568359375,1.6354
2.595419847328244,1.9236641221374047,-1.1908396946564885,-0.44580078125,0.000732421875,-0.259765625,1.6371
2.519083969465649,1.9541984732824427,-1.083969465648855,-0.4443359375,0.004638671875,-0.2548828125,1.6387999999999998
2.595419847328244,1.984732824427481,-1.083969465648855,-0.443603515625,0.01220703125,-0.259033203125,1.6404999999999998
2.3053435114503817,1.8931297709923665,-1.1297709923664123,-0.442138671875,0.002197265625,-0.260986328125,1.6421999999999999
2.549618320610687,1.9236641221374047,-1.2213740458015268,-0.445556640625,0.000244140625,-0.26025390625,1.6439
2.33587786259542,1.9236641221374047,-0.9312977099236641,-0.442626953125,0.001953125,-0.266357421875,1.6456
2.4732824427480917,2.045801526717557,-0.8702290076335878,-0.441650390625,0.004150390625,-0.260009765625,1.6473
2.366412213740458,1.9083969465648856,-0.9465648854961832,-0.44580078125,0.006103515625,-0.258056640625,1.6489999999999998
2.366412213740458,1.8931297709923665,-1.0687022900763359,-0.44677734375,0.005859375,-0.2578125,1.6506999999999998
2.381679389312977,1.9389312977099236,-1.2061068702290076,-0.44482421875,0.004638671875,-0.259765625,1.6523999999999999
2.381679389312977,1.7404580152671756,-1.282442748091603,-0.439453125,0.004638671875,-0.26953125,1.6541
2.4732824427480917,1.633587786259542,-0.9923664122137404,-0.440185546875,0.0029296875,-0.261962890625,1.6558
2.351145038167939,1.8778625954198473,-0.9770992366412213,-0.4453125,0.0,-0.25439453125,1.6575
2.6259541984732824,1.83206106870229,-0.9618320610687023,-0.443359375,0.00048828125,-0.263671875,1.6592
2.366412213740458,1.8625954198473282,-0.9312977099236641,-0.44091796875,-0.0009765625,-0.2626953125,1.6608999999999998
2.0916030534351147,1.83206106870229,-0.9770992366412213,-0.43994140625,0.00146484375,-0.26611328125,1.6625999999999999
2.2748091603053435,1.83206106870229,-0.8549618320610687,-0.443115234375,0.000244140625,-0.26904296875,1.6643
2.0916030534351147,1.8778625954198473,-0.8854961832061069,-0.44287109375,0.0029296875,-0.262939453125,1.666
2.3206106870229006,2.030534351145038,-0.9923664122137404,-0.446044921875,0.00244140625,-0.263916015625,1.6677
2.381679389312977,1.984732824427481,-0.7786259541984732,-0.4404296875,0.001953125,-0.260009765625,1.6694
2.122137404580153,1.9236641221374047,-0.7786259541984732,-0.441162109375,0.008544921875,-0.270263671875,1.6710999999999998
2.198473282442748,2.1068702290076335,-0.6870229007633588,-0.443359375,0.007568359375,-0.26806640625,1.6727999999999998
2.4580152671755724,2.1374045801526718,-0.7022900763358778,-0.44873046875,0.007080078125,-0.26318359375,1.6744999999999999
2.564885496183206,1.8778625954198473,-0.6412213740458015,-0.444580078125,0.007080078125,-0.2646484375,1.6762
2.3053435114503817,1.984732824427481,-0.549618320610687,-0.43896484375,0.005859375,-0.26025390625,1.6779
2.198473282442748,1.9236641221374047,-0.5954198473282443,-0.439697265625,0.001220703125,-0.263671875,1.6796
2.33587786259542,1.8778625954198473,-0.6717557251908397,-0.443115234375,0.008544921875,-0.25341796875,1.6813
2.198473282442748,1.8625954198473282,-0.549618320610687,-0.439453125,0.009033203125,-0.264892578125,1.6829999999999998
1.9236641221374047,1.9236641221374047,-0.549618320610687,-0.43994140625,0.004638671875,-0.25341796875,1.6846999999999999
1.9083969465648856,1.9236641221374047,-0.5343511450381679,-0.4423828125,0.00341796875,-0.25732421875,1.6864
1.8931297709923665,1.9694656488549618,-0.5648854961832062,-0.44482421875,0.0009765625,-0.26513671875,1.6881
1.8778625954198473,2.015267175572519,-0.2748091603053435,-0.447021484375,0.005615234375,-0.266845703125,1.6898
2.1374045801526718,1.9236641221374047,-0.4122137404580153,-0.447265625,-0.002197265625,-0.25634765625,1.6915
2.0916030534351147,1.9694656488549618,-0.4122137404580153,-0.445556640625,0.00439453125,-0.25732421875,1.6931999999999998
1.7251908396946565,2.045801526717557,-0.3053435114503817,-0.4453125,0.009521484375,-0.2578125,1.6948999999999999
1.8778625954198473,2.0610687022900764,-0.16793893129770993,-0.445068359375,0.001220703125,-0.269775390625,1.6965999999999999
2.1068702290076335,1.9083969465648856,-0.48854961832061067,-0.44482421875,0.003173828125,-0.260986328125,1.6983
1.984732824427481,2.0763358778625953,-0.2595419847328244,-0.445556640625,0.00634765625,-0.259521484375,1.7
1.6641221374045803,2.1374045801526718,-0.33587786259541985,-0.447021484375,0.004638671875,-0.265625,1.7017
1.7557251908396947,2.183206106870229,-0.2748091603053435,-0.447021484375,0.00390625,-0.260986328125,1.7033999999999998
1.9083969465648856,2.122137404580153,-0.5190839694656488,-0.4453125,0.003662109375,-0.26318359375,1.7050999999999998
1.4961832061068703,2.3053435114503817,-0.16793893129770993,-0.4453125,0.004638671875,-0.26171875,1.7067999999999999
1.6641221374045803,2.33587786259542,-0.5343511450381679,-0.4443359375,0.003662109375,-0.26220703125,1.7085
1.9389312977099236,2.33587786259542,-0.6412213740458015,-0.444580078125,0.0068359375,-0.258056640625,1.7102
1.6641221374045803,2.3969465648854964,-0.732824427480916,-0.447021484375,0.008056640625,-0.26220703125,1.7119
1.8625954198473282,2.4885496183206106,-0.6717557251908397,-0.445068359375,0.009033203125,-0.265625,1.7136
1.6488549618320612,2.50381679389313,-0.8702290076335878,-0.4423828125,0.00732421875,-0.266357421875,1.7152999999999998
1.786259541984733,2.4885496183206106,-0.8549618320610687,-0.439697265625,0.007568359375,-0.271728515625,1.7169999999999999
2.045801526717557,2.3206106870229006,-0.8702290076335878,-0.443603515625,0.00634765625,-0.26318359375,1.7187
1.7557251908396947,2.2595419847328246,-0.916030534351145,-0.4443359375,0.00341796875,-0.260009765625,1.7204
1.5572519083969465,2.3206106870229006,-1.2061068702290076,-0.43701171875,0.0048828125,-0.2626953125,1.7221
1.9083969465648856,2.366412213740458,-0.8549618320610687,-0.436767578125,0.00390625,-0.2626953125,1.7238
2.030534351145038,2.2595419847328246,-1.1755725190839694,-0.44287109375,0.003173828125,-0.270751953125,1.7254999999999998
1.816793893129771,2.366412213740458,-1.1297709923664123,-0.438232421875,0.00537109375,-0.265625,1.7271999999999998
2.015267175572519,2.33587786259542,-0.9923664122137404,-0.447265625,0.00634765625,-0.2646484375,1.7288999999999999
1.9083969465648856,2.122137404580153,-0.8702290076335878,-0.4384765625,0.0126953125,-0.2587890625,1.7306
1.8015267175572518,2.3053435114503817,-1.282442748091603,-0.441162109375,0.0048828125,-0.263671875,1.7323
1.984732824427481,2.16793893129771,-1.0534351145038168,-0.43798828125,0.007080078125,-0.263916015625,1.734
2.1374045801526718,2.16793893129771,-1.0687022900763359,-0.437744140625,0.001708984375,-0.259521484375,1.7356999999999998
1.7251908396946565,2.198473282442748,-1.099236641221374,-0.43408203125,0.006103515625,-0.26025390625,1.7373999999999998
1.786259541984733,2.0916030534351147,-1.083969465648855,-0.43798828125,0.002685546875,-0.263427734375,1.7390999999999999
1.9083969465648856,2.030534351145038,-0.916030534351145,-0.443603515625,0.005126953125,-0.2626953125,1.7408
1.8473282442748091,1.9541984732824427,-1.1297709923664123,-0.4375,0.00830078125,-0.259521484375,1.7425
1.633587786259542,2.183206106870229,-1.0534351145038168,-0.44140625,0.002685546875,-0.26318359375,1.7442
1.6946564885496183,2.198473282442748,-0.9007633587786259,-0.44140625,0.001708984375,-0.267578125,1.7459
1.6946564885496183,2.0916030534351147,-0.8091603053435115,-0.441650390625,0.00146484375,-0.260009765625,1.7475999999999998
1.6488549618320612,1.9694656488549618,-1.0229007633587786,-0.436767578125,0.00732421875,-0.263671875,1.7492999999999999
1.83206106870229,1.8625954198473282,-0.5190839694656488,-0.4384765625,0.005126953125,-0.2666015625,1.751
1.5572519083969465,1.8473282442748091,-0.7175572519083969,-0.4345703125,0.002685546875,-0.260009765625,1.7527
1.633587786259542,1.8931297709923665,-0.5801526717557252,-0.44482421875,0.00439453125,-0.27783203125,1.7544
1.4809160305343512,1.633587786259542,-0.6717557251908397,-0.442626953125,0.003662109375,-0.28076171875,1.7561
1.4045801526717556,1.4045801526717556,-0.48854961832061067,-0.443603515625,0.004638671875,-0.260009765625,1.7577999999999998
1.3282442748091603,1.465648854961832,-0.4732824427480916,-0.44140625,0.000244140625,-0.262939453125,1.7594999999999998
1.5114503816793894,1.450381679389313,-0.183206106870229,-0.439697265625,0.005859375,-0.260986328125,1.7611999999999999
1.465648854961832,1.2061068702290076,-0.366412213740458,-0.443359375,0.005615234375,-0.262451171875,1.7629
1.450381679389313,1.4045801526717556,-0.0916030534351145,-0.441650390625,0.005615234375,-0.256591796875,1.7646
1.6793893129770991,1.1908396946564885,-0.12213740458015267,-0.439208984375,0.007568359375,-0.26220703125,1.7663
1.3740458015267176,1.5267175572519085,0.04580152671755725,-0.44482421875,0.004638671875,-0.268798828125,1.7679999999999998
1.6030534351145038,1.3587786259541985,-0.16793893129770993,-0.44091796875,-0.001953125,-0.265869140625,1.7696999999999998
1.5572519083969465,1.7251908396946565,0.030534351145038167,-0.4423828125,0.006103515625,-0.2587890625,1.7713999999999999
1.4351145038167938,1.633587786259542,0.0,-0.44140625,0.00537109375,-0.261962890625,1.7731
1.618320610687023,1.5419847328244274,0.15267175572519084,-0.44287109375,0.00244140625,-0.264892578125,1.7748
1.6030534351145038,1.6793893129770991,0.33587786259541985,-0.44140625,0.002197265625,-0.2646484375,1.7765
1.618320610687023,1.450381679389313,0.4122137404580153,-0.44287109375,0.0068359375,-0.261474609375,1.7782
1.8625954198473282,1.450381679389313,0.5648854961832062,-0.44287109375,0.00537109375,-0.261962890625,1.7798999999999998
1.5572519083969465,1.465648854961832,0.6717557251908397,-0.447509765625,0.008544921875,-0.275634765625,1.7815999999999999
1.6030534351145038,1.465648854961832,0.8091603053435115,-0.44384765625,0.00244140625,-0.25634765625,1.7832999999999999
1.816793893129771,1.5572519083969465,1.0076335877862594,-0.440185546875,0.002685546875,-0.265869140625,1.785
1.7709923664122138,1.6793893129770991,1.0229007633587786,-0.440673828125,0.010009765625,-0.25732421875,1.7867
1.83206106870229,1.5267175572519085,1.083969465648855,-0.437744140625,0.005126953125,-0.259521484375,1.7884
1.7099236641221374,1.7099236641221374,1.3129770992366412,-0.441162109375,0.006103515625,-0.261962890625,1.7900999999999998
1.7251908396946565,1.7557251908396947,1.5572519083969465,-0.44189453125,-0.003173828125,-0.2626953125,1.7917999999999998
1.6488549618320612,1.83206106870229,1.6946564885496183,-0.443603515625,0.001708984375,-0.2607421875,1.7934999999999999
1.8473282442748091,1.9389312977099236,1.633587786259542,-0.443603515625,0.0029296875,-0.2607421875,1.7952
1.9541984732824427,1.9236641221374047,1.8473282442748091,-0.43994140625,0.00244140625,-0.2626953125,1.7969
1.816793893129771,1.83206106870229,1.984732824427481,-0.441650390625,0.003662109375,-0.267822265625,1.7986
1.8625954198473282,1.9389312977099236,1.9541984732824427,-0.43896484375,0.004150390625,-0.2548828125,1.8002999999999998
1.8015267175572518,2.045801526717557,2.1526717557251906,-0.44091796875,0.001220703125,-0.2587890625,1.8019999999999998
1.7404580152671756,2.0610687022900764,2.366412213740458,-0.43701171875,0.00390625,-0.263671875,1.8036999999999999
1.8473282442748091,2.1374045801526718,2.6717557251908395,-0.44189453125,-0.0009765625,-0.2607421875,1.8054
