gyrox1,gyroy1,gyroz1,accelx1,accely1,accelz1,Time
1.450381679389313,1.618320610687023,-2.5343511450381677,-0.424072265625,0.038330078125,-0.288818359375,0.0
1.282442748091603,1.5877862595419847,-2.6564885496183206,-0.424560546875,0.04052734375,-0.28662109375,0.0017
1.3282442748091603,1.5877862595419847,-2.4580152671755724,-0.427734375,0.040771484375,-0.2822265625,0.0034
1.633587786259542,1.3587786259541985,-2.549618320610687,-0.424560546875,0.03955078125,-0.283935546875,0.0050999999999999995
1.5725190839694656,1.4198473282442747,-2.427480916030534,-0.427001953125,0.036376953125,-0.285888671875,0.0068
1.6946564885496183,1.1450381679389312,-2.519083969465649,-0.42236328125,0.03564453125,-0.286376953125,0.008499999999999999
1.7557251908396947,0.8854961832061069,-2.351145038167939,-0.42578125,0.036865234375,-0.29443359375,0.010199999999999999
1.6946564885496183,1.0687022900763359,-2.427480916030534,-0.42626953125,0.038330078125,-0.287109375,0.011899999999999999
1.7709923664122138,0.8396946564885496,-2.427480916030534,-0.427734375,0.041015625,-0.287109375,0.0136
1.465648854961832,0.8091603053435115,-2.33587786259542,-0.4248046875,0.0341796875,-0.27880859375,0.0153
1.5419847328244274,0.5801526717557252,-2.1068702290076335,-0.427490234375,0.036865234375,-0.285400390625,0.016999999999999998
1.8931297709923665,0.7786259541984732,-2.2595419847328246,-0.430908203125,0.034423828125,-0.284912109375,0.018699999999999998
1.9389312977099236,0.8244274809160306,-2.3053435114503817,-0.432373046875,0.026611328125,-0.282470703125,0.020399999999999998
1.8778625954198473,0.3969465648854962,-2.3969465648854964,-0.43359375,0.031494140625,-0.285888671875,0.022099999999999998
1.7404580152671756,0.5801526717557252,-2.1374045801526718,-0.4326171875,0.03515625,-0.28515625,0.023799999999999998
1.6641221374045803,0.6106870229007634,-2.351145038167939,-0.43212890625,0.030029296875,-0.28173828125,0.0255
1.8473282442748091,0.6564885496183206,-2.3969465648854964,-0.4296875,0.02978515625,-0.284423828125,0.0272
1.9236641221374047,0.48854961832061067,-2.213740458015267,-0.43115234375,0.03173828125,-0.285888671875,0.0289
1.8473282442748091,0.48854961832061067,-2.2442748091603053,-0.424560546875,0.03076171875,-0.287109375,0.0306
2.183206106870229,0.366412213740458,-2.2748091603053435,-0.425048828125,0.037353515625,-0.290283203125,0.032299999999999995
2.0763358778625953,0.5038167938931297,-2.2442748091603053,-0.42724609375,0.035400390625,-0.281494140625,0.033999999999999996
1.9236641221374047,0.3511450381679389,-2.3969465648854964,-0.427001953125,0.03564453125,-0.28271484375,0.035699999999999996
1.9694656488549618,0.22900763358778625,-2.213740458015267,-0.43359375,0.038818359375,-0.285888671875,0.037399999999999996
2.015267175572519,0.22900763358778625,-2.1374045801526718,-0.431396484375,0.032958984375,-0.2880859375,0.039099999999999996
1.9694656488549618,0.33587786259541985,-2.3053435114503817,-0.431884765625,0.0302734375,-0.283203125,0.040799999999999996
2.2290076335877864,0.15267175572519084,-2.213740458015267,-0.427734375,0.030029296875,-0.27880859375,0.042499999999999996
2.045801526717557,0.21374045801526717,-2.183206106870229,-0.425048828125,0.031494140625,-0.281494140625,0.044199999999999996
1.984732824427481,0.15267175572519084,-2.4885496183206106,-0.425048828125,0.027587890625,-0.28125,0.045899999999999996
2.2900763358778624,-0.0916030534351145,-2.1526717557251906,-0.437255859375,0.02978515625,-0.283447265625,0.047599999999999996
2.16793893129771,0.061068702290076333,-2.16793893129771,-0.429931640625,0.03564453125,-0.285400390625,0.0493
2.1068702290076335,0.16793893129770993,-2.015267175572519,-0.42919921875,0.037109375,-0.2880859375,0.051
1.9694656488549618,0.1984732824427481,-2.0916030534351147,-0.428955078125,0.03271484375,-0.27978515625,0.0527
2.16793893129771,0.1984732824427481,-1.984732824427481,-0.431640625,0.029296875,-0.280029296875,0.0544
2.2595419847328246,0.33587786259541985,-1.9236641221374047,-0.432861328125,0.035400390625,-0.28076171875,0.0561
2.0610687022900764,0.44274809160305345,-1.9389312977099236,-0.43359375,0.035888671875,-0.2802734375,0.0578
2.1068702290076335,0.3816793893129771,-2.045801526717557,-0.436279296875,0.029296875,-0.275634765625,0.0595
2.045801526717557,0.48854961832061067,-1.9389312977099236,-0.42822265625,0.033203125,-0.286376953125,0.0612
1.8625954198473282,0.7175572519083969,-1.8473282442748091,-0.432861328125,0.032470703125,-0.2861328125,0.0629
1.9541984732824427,0.8244274809160306,-1.786259541984733,-0.43115234375,0.03076171875,-0.278564453125,0.06459999999999999
2.030534351145038,0.8549618320610687,-1.8015267175572518,-0.434814453125,0.033935546875,-0.2861328125,0.0663
2.183206106870229,0.6717557251908397,-1.5725190839694656,-0.435302734375,0.03466796875,-0.2744140625,0.06799999999999999
2.1374045801526718,1.2061068702290076,-1.633587786259542,-0.433837890625,0.0361328125,-0.276123046875,0.0697
2.1374045801526718,0.9618320610687023,-1.6030534351145038,-0.437255859375,0.0419921875,-0.282958984375,0.07139999999999999
2.3206106870229006,1.0229007633587786,-1.816793893129771,-0.431884765625,0.03857421875,-0.28369140625,0.0731
2.0610687022900764,1.3129770992366412,-1.8625954198473282,-0.432861328125,0.0341796875,-0.2802734375,0.07479999999999999
2.0916030534351147,1.282442748091603,-1.8778625954198473,-0.428466796875,0.036865234375,-0.271484375,0.0765
2.2290076335877864,1.4351145038167938,-1.4351145038167938,-0.4306640625,0.03271484375,-0.27978515625,0.07819999999999999
2.3969465648854964,1.1603053435114503,-1.633587786259542,-0.43115234375,0.037353515625,-0.274658203125,0.0799
2.351145038167939,1.3282442748091603,-1.7404580152671756,-0.430419921875,0.0361328125,-0.27685546875,0.08159999999999999
2.2748091603053435,1.6030534351145038,-1.7404580152671756,-0.427001953125,0.037109375,-0.28125,0.0833
2.2900763358778624,1.6793893129770991,-1.5877862595419847,-0.4287109375,0.03564453125,-0.285400390625,0.08499999999999999
2.3969465648854964,1.5572519083969465,-1.8015267175572518,-0.4384765625,0.0341796875,-0.275390625,0.0867
2.4122137404580153,1.282442748091603,-1.5114503816793894,-0.430908203125,0.032958984375,-0.27685546875,0.08839999999999999
2.2595419847328246,1.297709923664122,-1.5725190839694656,-0.430908203125,0.029541015625,-0.2705078125,0.0901
2.2900763358778624,1.6488549618320612,-1.6793893129770991,-0.434326171875,0.033935546875,-0.286865234375,0.09179999999999999
2.4427480916030535,1.786259541984733,-1.5877862595419847,-0.429931640625,0.037109375,-0.27978515625,0.0935
2.50381679389313,1.633587786259542,-1.5419847328244274,-0.43408203125,0.032470703125,-0.28564453125,0.09519999999999999
2.3206106870229006,1.8625954198473282,-1.5114503816793894,-0.430419921875,0.03369140625,-0.2744140625,0.0969
2.4732824427480917,1.9236641221374047,-1.7404580152671756,-0.435302734375,0.0380859375,-0.276611328125,0.0986
2.366412213740458,1.9541984732824427,-1.633587786259542,-0.43408203125,0.0341796875,-0.280029296875,0.1003
2.519083969465649,2.0763358778625953,-1.5877862595419847,-0.435302734375,0.036376953125,-0.28515625,0.102
2.427480916030534,2.045801526717557,-1.5267175572519085,-0.432861328125,0.039306640625,-0.282470703125,0.1037
2.381679389312977,2.0610687022900764,-1.5877862595419847,-0.4326171875,0.034423828125,-0.2783203125,0.1054
2.6259541984732824,2.2290076335877864,-1.6793893129770991,-0.43310546875,0.03173828125,-0.27734375,0.1071
2.595419847328244,2.0763358778625953,-1.450381679389313,-0.429931640625,0.029296875,-0.281982421875,0.1088
2.3206106870229006,2.33587786259542,-1.786259541984733,-0.435302734375,0.041748046875,-0.274658203125,0.11049999999999999
2.4580152671755724,2.4580152671755724,-1.6641221374045803,-0.428466796875,0.040283203125,-0.274169921875,0.1122
2.4580152671755724,2.50381679389313,-1.5572519083969465,-0.432861328125,0.031982421875,-0.29248046875,0.11389999999999999
2.595419847328244,2.5343511450381677,-1.5725190839694656,-0.43212890625,0.0322265625,-0.28515625,0.1156
2.595419847328244,2.717557251908397,-1.5725190839694656,-0.43505859375,0.033935546875,-0.276611328125,0.11729999999999999
2.6106870229007635,2.763358778625954,-1.5725190839694656,-0.42919921875,0.033447265625,-0.286376953125,0.119
2.595419847328244,2.6412213740458017,-1.5725190839694656,-0.426513671875,0.029541015625,-0.27734375,0.12069999999999999
2.4122137404580153,2.763358778625954,-1.5114503816793894,-0.43505859375,0.031982421875,-0.282470703125,0.1224
2.3969465648854964,2.732824427480916,-1.6946564885496183,-0.434326171875,0.03173828125,-0.279296875,0.12409999999999999
2.4732824427480917,2.854961832061069,-1.6641221374045803,-0.431396484375,0.03173828125,-0.2802734375,0.1258
2.7022900763358777,2.8396946564885495,-1.450381679389313,-0.43017578125,0.04052734375,-0.2900390625,0.1275
2.50381679389313,2.931297709923664,-1.6030534351145038,-0.433837890625,0.038330078125,-0.285888671875,0.12919999999999998
2.2748091603053435,3.0229007633587788,-1.8015267175572518,-0.43115234375,0.03125,-0.284912109375,0.1309
2.183206106870229,3.0229007633587788,-1.618320610687023,-0.428955078125,0.031494140625,-0.280029296875,0.1326
2.366412213740458,3.1297709923664123,-1.5725190839694656,-0.431640625,0.029541015625,-0.284423828125,0.1343
2.4427480916030535,3.2061068702290076,-1.7557251908396947,-0.432373046875,0.02880859375,-0.27685546875,0.13599999999999998
2.3206106870229006,3.267175572519084,-1.7709923664122138,-0.42919921875,0.02978515625,-0.28759765625,0.1377
2.366412213740458,3.068702290076336,-1.7557251908396947,-0.427978515625,0.031982421875,-0.28125,0.1394
2.366412213740458,3.312977099236641,-1.6793893129770991,-0.42626953125,0.033447265625,-0.283447265625,0.1411
2.2748091603053435,2.9923664122137406,-1.8473282442748091,-0.42919921875,0.029541015625,-0.28564453125,0.14279999999999998
2.213740458015267,3.236641221374046,-1.6946564885496183,-0.429931640625,0.031005859375,-0.273193359375,0.1445
2.4580152671755724,3.2519083969465647,-1.8778625954198473,-0.434326171875,0.031494140625,-0.28369140625,0.1462
2.381679389312977,3.2977099236641223,-1.8473282442748091,-0.43310546875,0.03564453125,-0.27978515625,0.1479
2.351145038167939,3.236641221374046,-1.8015267175572518,-0.4287109375,0.032470703125,-0.284423828125,0.14959999999999998
2.16793893129771,3.3587786259541983,-1.816793893129771,-0.431884765625,0.028564453125,-0.28173828125,0.1513
2.183206106870229,3.236641221374046,-1.9236641221374047,-0.42578125,0.0322265625,-0.289794921875,0.153
2.1068702290076335,3.1755725190839694,-1.8931297709923665,-0.428955078125,0.033447265625,-0.284423828125,0.1547
2.16793893129771,3.0839694656488548,-1.8625954198473282,-0.428955078125,0.03076171875,-0.279296875,0.15639999999999998
2.2595419847328246,3.068702290076336,-1.9389312977099236,-0.421142578125,0.037353515625,-0.291259765625,0.1581
2.4580152671755724,3.053435114503817,-2.2900763358778624,-0.4267578125,0.03173828125,-0.28076171875,0.1598
2.2442748091603053,3.053435114503817,-2.0763358778625953,-0.4248046875,0.0361328125,-0.291015625,0.1615
2.1526717557251906,3.2061068702290076,-2.351145038167939,-0.4248046875,0.03173828125,-0.283935546875,0.16319999999999998
2.381679389312977,2.931297709923664,-2.16793893129771,-0.4306640625,0.027587890625,-0.285400390625,0.1649
2.2290076335877864,2.7938931297709924,-2.3206106870229006,-0.426025390625,0.033447265625,-0.28955078125,0.1666
2.2595419847328246,2.8244274809160306,-2.0763358778625953,-0.423583984375,0.032470703125,-0.28271484375,0.16829999999999998
2.122137404580153,2.9923664122137406,-2.045801526717557,-0.425537109375,0.036376953125,-0.286865234375,0.16999999999999998
2.0763358778625953,2.8091603053435112,-2.0916030534351147,-0.43017578125,0.03759765625,-0.285888671875,0.1717
2.1374045801526718,2.7022900763358777,-2.0763358778625953,-0.43212890625,0.03271484375,-0.28564453125,0.1734
2.030534351145038,2.9160305343511452,-2.0,-0.43212890625,0.029296875,-0.287109375,0.17509999999999998
2.0916030534351147,3.053435114503817,-2.2442748091603053,-0.428955078125,0.036376953125,-0.29345703125,0.17679999999999998
1.984732824427481,2.946564885496183,-2.16793893129771,-0.42578125,0.033203125,-0.291015625,0.1785
1.83206106870229,2.8396946564885495,-2.1068702290076335,-0.430419921875,0.0341796875,-0.292236328125,0.1802
1.8625954198473282,2.8091603053435112,-2.198473282442748,-0.42919921875,0.033447265625,-0.281005859375,0.18189999999999998
1.7404580152671756,2.8702290076335877,-2.366412213740458,-0.425048828125,0.0322265625,-0.2900390625,0.18359999999999999
1.5572519083969465,3.0076335877862594,-2.3206106870229006,-0.427001953125,0.033203125,-0.29052734375,0.1853
1.6488549618320612,2.9770992366412212,-2.4122137404580153,-0.431884765625,0.03076171875,-0.297607421875,0.187
1.7251908396946565,2.900763358778626,-2.351145038167939,-0.4326171875,0.029296875,-0.279541015625,0.18869999999999998
1.5267175572519085,3.099236641221374,-2.427480916030534,-0.428466796875,0.032958984375,-0.27880859375,0.19039999999999999
1.7557251908396947,3.053435114503817,-2.381679389312977,-0.429443359375,0.028076171875,-0.287841796875,0.1921
1.6488549618320612,3.0381679389312977,-2.3053435114503817,-0.429443359375,0.029296875,-0.285400390625,0.1938
1.7099236641221374,2.946564885496183,-2.366412213740458,-0.427490234375,0.034912109375,-0.288818359375,0.19549999999999998
1.8931297709923665,2.8702290076335877,-2.564885496183206,-0.430419921875,0.031982421875,-0.291015625,0.1972
1.6641221374045803,3.068702290076336,-2.5343511450381677,-0.4306640625,0.03271484375,-0.289306640625,0.1989
1.6946564885496183,2.763358778625954,-2.5801526717557253,-0.42919921875,0.029296875,-0.29150390625,0.2006
1.6793893129770991,2.33587786259542,-2.732824427480916,-0.4228515625,0.028564453125,-0.286865234375,0.20229999999999998
1.6946564885496183,2.50381679389313,-2.5343511450381677,-0.42822265625,0.02734375,-0.28564453125,0.204
1.4045801526717556,2.6717557251908395,-2.7480916030534353,-0.423828125,0.032958984375,-0.28857421875,0.2057
1.7099236641221374,2.6564885496183206,-2.854961832061069,-0.42431640625,0.033935546875,-0.2958984375,0.2074
1.6946564885496183,2.687022900763359,-2.7022900763358777,-0.423583984375,0.037109375,-0.28076171875,0.20909999999999998
1.5877862595419847,2.564885496183206,-2.885496183206107,-0.4248046875,0.033203125,-0.29443359375,0.2108
1.6946564885496183,2.564885496183206,-2.7480916030534353,-0.423828125,0.033447265625,-0.28466796875,0.2125
1.9541984732824427,2.564885496183206,-3.0839694656488548,-0.429443359375,0.032470703125,-0.290771484375,0.2142
1.8625954198473282,2.4732824427480917,-3.0839694656488548,-0.426025390625,0.03173828125,-0.28955078125,0.21589999999999998
2.0,2.5343511450381677,-2.9160305343511452,-0.427001953125,0.030029296875,-0.286865234375,0.2176
1.8473282442748091,2.5801526717557253,-3.0381679389312977,-0.42578125,0.030517578125,-0.280517578125,0.2193
1.633587786259542,2.5801526717557253,-3.1908396946564888,-0.419921875,0.02880859375,-0.285400390625,0.22099999999999997
1.8625954198473282,2.549618320610687,-2.900763358778626,-0.42724609375,0.03271484375,-0.295166015625,0.22269999999999998
1.8778625954198473,2.366412213740458,-3.114503816793893,-0.430908203125,0.030029296875,-0.285888671875,0.2244
2.0,2.5343511450381677,-3.1603053435114505,-0.431640625,0.031005859375,-0.290283203125,0.2261
1.9083969465648856,2.7022900763358777,-3.0229007633587788,-0.420166015625,0.037353515625,-0.294677734375,0.22779999999999997
1.9694656488549618,2.381679389312977,-2.7938931297709924,-0.425048828125,0.029052734375,-0.291015625,0.22949999999999998
2.183206106870229,2.33587786259542,-3.1755725190839694,-0.4287109375,0.033935546875,-0.286865234375,0.2312
1.8473282442748091,2.1068702290076335,-2.946564885496183,-0.424072265625,0.029296875,-0.285400390625,0.2329
2.1526717557251906,2.213740458015267,-3.0839694656488548,-0.417724609375,0.02685546875,-0.287353515625,0.23459999999999998
2.0916030534351147,2.183206106870229,-3.0076335877862594,-0.4208984375,0.0341796875,-0.29345703125,0.23629999999999998
2.1068702290076335,1.9694656488549618,-3.0229007633587788,-0.423583984375,0.03173828125,-0.290283203125,0.238
2.3053435114503817,1.9694656488549618,-3.0381679389312977,-0.42822265625,0.033935546875,-0.29345703125,0.2397
2.366412213740458,1.9083969465648856,-3.068702290076336,-0.42626953125,0.03369140625,-0.283935546875,0.24139999999999998
2.213740458015267,1.9389312977099236,-3.068702290076336,-0.422607421875,0.02783203125,-0.289794921875,0.24309999999999998
2.2595419847328246,2.16793893129771,-3.0839694656488548,-0.425048828125,0.03125,-0.296630859375,0.2448
2.427480916030534,1.83206106870229,-3.0076335877862594,-0.426025390625,0.027587890625,-0.29345703125,0.2465
2.2900763358778624,1.8778625954198473,-2.946564885496183,-0.42431640625,0.031982421875,-0.28662109375,0.24819999999999998
2.4580152671755724,1.816793893129771,-2.9160305343511452,-0.43017578125,0.029296875,-0.28955078125,0.24989999999999998
2.3206106870229006,1.7709923664122138,-2.931297709923664,-0.419921875,0.02685546875,-0.27685546875,0.2516
2.3053435114503817,1.9236641221374047,-2.946564885496183,-0.42138671875,0.02978515625,-0.28076171875,0.25329999999999997
2.213740458015267,1.8931297709923665,-2.854961832061069,-0.427978515625,0.025634765625,-0.283447265625,0.255
2.0763358778625953,1.8015267175572518,-2.732824427480916,-0.42724609375,0.033203125,-0.284912109375,0.2567
2.1068702290076335,1.618320610687023,-2.7938931297709924,-0.424072265625,0.029296875,-0.27685546875,0.25839999999999996
2.2595419847328246,1.4045801526717556,-2.427480916030534,-0.42578125,0.024658203125,-0.28662109375,0.2601
2.33587786259542,1.6641221374045803,-2.7938931297709924,-0.42529296875,0.03076171875,-0.2802734375,0.2618
1.9083969465648856,1.3893129770992367,-2.4885496183206106,-0.427734375,0.02978515625,-0.283447265625,0.2635
2.16793893129771,1.3740458015267176,-2.427480916030534,-0.426513671875,0.02490234375,-0.288818359375,0.2652
2.1526717557251906,1.3893129770992367,-2.549618320610687,-0.4228515625,0.022216796875,-0.30029296875,0.26689999999999997
1.984732824427481,1.2671755725190839,-2.3969465648854964,-0.428466796875,0.02734375,-0.29296875,0.2686
1.9389312977099236,1.3740458015267176,-2.4580152671755724,-0.4306640625,0.03271484375,-0.280517578125,0.2703
1.8015267175572518,1.1755725190839694,-2.4732824427480917,-0.424072265625,0.02587890625,-0.29052734375,0.27199999999999996
1.9083969465648856,1.083969465648855,-2.427480916030534,-0.424072265625,0.02783203125,-0.282958984375,0.2737
2.0610687022900764,1.0534351145038168,-2.351145038167939,-0.423828125,0.02685546875,-0.288818359375,0.2754
1.7404580152671756,1.0229007633587786,-2.351145038167939,-0.426513671875,0.022705078125,-0.293212890625,0.27709999999999996
1.984732824427481,1.1603053435114503,-2.2595419847328246,-0.42578125,0.028076171875,-0.2900390625,0.2788
2.015267175572519,1.1297709923664123,-2.351145038167939,-0.422607421875,0.02880859375,-0.290771484375,0.28049999999999997
1.6793893129770991,0.7633587786259542,-2.122137404580153,-0.427734375,0.0244140625,-0.2822265625,0.2822
1.6946564885496183,0.7786259541984732,-2.0763358778625953,-0.423095703125,0.029052734375,-0.281005859375,0.2839
1.8778625954198473,0.6564885496183206,-2.16793893129771,-0.424072265625,0.0361328125,-0.282470703125,0.28559999999999997
1.8625954198473282,0.8549618320610687,-2.122137404580153,-0.4248046875,0.0263671875,-0.296875,0.2873
1.8778625954198473,0.5648854961832062,-2.1526717557251906,-0.4267578125,0.03271484375,-0.28515625,0.289
1.8625954198473282,0.4580152671755725,-2.1526717557251906,-0.427001953125,0.027099609375,-0.28173828125,0.29069999999999996
1.7251908396946565,0.6564885496183206,-2.0763358778625953,-0.423583984375,0.028076171875,-0.286376953125,0.2924
1.8473282442748091,0.5190839694656488,-2.015267175572519,-0.42578125,0.02880859375,-0.284912109375,0.2941
1.8473282442748091,0.3969465648854962,-2.2900763358778624,-0.423583984375,0.031494140625,-0.2822265625,0.2958
1.984732824427481,0.5954198473282443,-2.122137404580153,-0.42578125,0.02978515625,-0.291748046875,0.2975
1.8625954198473282,0.33587786259541985,-2.183206106870229,-0.428955078125,0.029296875,-0.283447265625,0.29919999999999997
1.8015267175572518,0.42748091603053434,-2.0763358778625953,-0.42236328125,0.0341796875,-0.289306640625,0.3009
1.8473282442748091,0.4732824427480916,-2.183206106870229,-0.42529296875,0.03076171875,-0.284912109375,0.3026
2.1068702290076335,0.6717557251908397,-2.030534351145038,-0.4267578125,0.031005859375,-0.295166015625,0.30429999999999996
1.984732824427481,0.549618320610687,-2.213740458015267,-0.4326171875,0.029052734375,-0.296142578125,0.306
2.015267175572519,0.33587786259541985,-2.030534351145038,-0.43017578125,0.029541015625,-0.2900390625,0.3077
2.0610687022900764,0.33587786259541985,-2.16793893129771,-0.427978515625,0.03076171875,-0.285400390625,0.3094
1.984732824427481,0.5190839694656488,-1.984732824427481,-0.43115234375,0.029296875,-0.2939453125,0.3111
1.9389312977099236,0.6106870229007634,-1.9694656488549618,-0.42919921875,0.037841796875,-0.284912109375,0.31279999999999997
1.8473282442748091,0.6717557251908397,-2.0763358778625953,-0.42578125,0.03271484375,-0.28125,0.3145
2.2748091603053435,0.549618320610687,-2.1526717557251906,-0.428955078125,0.033203125,-0.285400390625,0.3162
2.2748091603053435,0.42748091603053434,-2.015267175572519,-0.427490234375,0.031982421875,-0.296142578125,0.31789999999999996
2.3053435114503817,0.33587786259541985,-2.3053435114503817,-0.430908203125,0.03125,-0.28466796875,0.3196
2.3969465648854964,0.549618320610687,-2.2748091603053435,-0.427978515625,0.036376953125,-0.287109375,0.3213
2.4427480916030535,0.549618320610687,-2.2748091603053435,-0.43212890625,0.029052734375,-0.28271484375,0.323
2.366412213740458,0.42748091603053434,-2.2442748091603053,-0.429443359375,0.0322265625,-0.281494140625,0.3247
2.427480916030534,0.6106870229007634,-2.2900763358778624,-0.427490234375,0.032470703125,-0.28662109375,0.32639999999999997
2.381679389312977,0.6106870229007634,-2.0763358778625953,-0.42822265625,0.036376953125,-0.291015625,0.3281
2.519083969465649,0.6717557251908397,-2.1068702290076335,-0.427001953125,0.02685546875,-0.28662109375,0.3298
2.519083969465649,0.549618320610687,-2.16793893129771,-0.427490234375,0.030029296875,-0.287353515625,0.33149999999999996
2.3969465648854964,0.7022900763358778,-1.9694656488549618,-0.436767578125,0.035400390625,-0.2861328125,0.3332
2.4732824427480917,0.7633587786259542,-2.4885496183206106,-0.430419921875,0.0283203125,-0.291748046875,0.3349
2.4885496183206106,0.5648854961832062,-2.2748091603053435,-0.43017578125,0.028564453125,-0.294921875,0.33659999999999995
2.4732824427480917,0.6717557251908397,-2.2595419847328246,-0.429931640625,0.031494140625,-0.28662109375,0.3383
2.50381679389313,0.7175572519083969,-2.381679389312977,-0.431884765625,0.029052734375,-0.2880859375,0.33999999999999997
2.3969465648854964,0.8244274809160306,-2.2900763358778624,-0.42724609375,0.03271484375,-0.2890625,0.3417
2.4885496183206106,0.8702290076335878,-2.427480916030534,-0.43359375,0.026611328125,-0.291259765625,0.3434
2.4732824427480917,0.8091603053435115,-2.213740458015267,-0.427978515625,0.02734375,-0.296142578125,0.34509999999999996
2.4732824427480917,0.8091603053435115,-2.3053435114503817,-0.427978515625,0.025146484375,-0.293701171875,0.3468
2.4427480916030535,0.732824427480916,-2.3053435114503817,-0.42578125,0.036865234375,-0.283203125,0.3485
2.595419847328244,0.7633587786259542,-2.1374045801526718,-0.433349609375,0.026611328125,-0.29150390625,0.35019999999999996
2.3969465648854964,0.8702290076335878,-2.16793893129771,-0.42822265625,0.026123046875,-0.28759765625,0.3519
2.122137404580153,0.9618320610687023,-2.2595419847328246,-0.4296875,0.02978515625,-0.289794921875,0.35359999999999997
2.50381679389313,0.9770992366412213,-2.213740458015267,-0.431884765625,0.02294921875,-0.28173828125,0.3553
2.4885496183206106,1.0381679389312977,-2.198473282442748,-0.43310546875,0.024658203125,-0.2890625,0.357
2.3053435114503817,0.9465648854961832,-2.3969465648854964,-0.429931640625,0.023193359375,-0.287353515625,0.35869999999999996
2.0916030534351147,1.0076335877862594,-2.0916030534351147,-0.434814453125,0.028564453125,-0.292236328125,0.3604
2.2748091603053435,0.9618320610687023,-2.1526717557251906,-0.430908203125,0.029052734375,-0.292724609375,0.3621
2.366412213740458,1.1603053435114503,-2.198473282442748,-0.433349609375,0.031494140625,-0.291259765625,0.36379999999999996
2.33587786259542,1.1297709923664123,-2.0610687022900764,-0.421630859375,0.025390625,-0.289306640625,0.3655
2.16793893129771,1.3129770992366412,-2.030534351145038,-0.4306640625,0.025390625,-0.277587890625,0.36719999999999997
2.122137404580153,1.2061068702290076,-1.9694656488549618,-0.428955078125,0.03173828125,-0.288818359375,0.3689
2.33587786259542,1.282442748091603,-2.0610687022900764,-0.42919921875,0.03076171875,-0.28662109375,0.3706
1.9236641221374047,1.465648854961832,-2.2442748091603053,-0.43212890625,0.021484375,-0.28759765625,0.37229999999999996
2.015267175572519,1.5877862595419847,-2.030534351145038,-0.43017578125,0.0283203125,-0.288818359375,0.374
2.351145038167939,1.5572519083969465,-1.816793893129771,-0.4267578125,0.02685546875,-0.29443359375,0.3757
2.2290076335877864,1.4961832061068703,-2.1374045801526718,-0.42626953125,0.0322265625,-0.301513671875,0.37739999999999996
2.2900763358778624,1.7557251908396947,-2.16793893129771,-0.43115234375,0.0302734375,-0.2880859375,0.3791
2.015267175572519,1.6488549618320612,-2.015267175572519,-0.430908203125,0.03076171875,-0.29052734375,0.38079999999999997
2.045801526717557,1.786259541984733,-2.0,-0.4267578125,0.029296875,-0.282470703125,0.38249999999999995
2.16793893129771,1.4809160305343512,-2.213740458015267,-0.429931640625,0.02978515625,-0.291259765625,0.3842
1.9694656488549618,1.450381679389313,-2.213740458015267,-0.42822265625,0.033447265625,-0.28662109375,0.38589999999999997
2.16793893129771,1.5877862595419847,-2.2290076335877864,-0.429443359375,0.027099609375,-0.289306640625,0.3876
2.0916030534351147,1.6030534351145038,-2.0763358778625953,-0.428955078125,0.027587890625,-0.286376953125,0.3893
2.213740458015267,1.5877862595419847,-2.0916030534351147,-0.42431640625,0.022216796875,-0.292236328125,0.39099999999999996
2.213740458015267,1.5572519083969465,-2.351145038167939,-0.427734375,0.028076171875,-0.28662109375,0.3927
2.2290076335877864,1.4809160305343512,-2.4580152671755724,-0.426025390625,0.02734375,-0.286865234375,0.3944
2.351145038167939,1.633587786259542,-2.3206106870229006,-0.429443359375,0.027587890625,-0.29052734375,0.39609999999999995
2.2900763358778624,1.83206106870229,-2.16793893129771,-0.42919921875,0.0263671875,-0.28759765625,0.3978
2.213740458015267,1.7099236641221374,-2.0763358778625953,-0.43603515625,0.03125,-0.294921875,0.39949999999999997
2.1068702290076335,1.5572519083969465,-2.2290076335877864,-0.427490234375,0.031494140625,-0.28759765625,0.4012
2.2290076335877864,1.465648854961832,-2.3969465648854964,-0.424560546875,0.032958984375,-0.29296875,0.4029
2.030534351145038,1.6488549618320612,-2.122137404580153,-0.42626953125,0.030029296875,-0.287353515625,0.40459999999999996
2.1526717557251906,1.7251908396946565,-2.381679389312977,-0.423583984375,0.0322265625,-0.288330078125,0.4063
2.213740458015267,1.5419847328244274,-2.2748091603053435,-0.424560546875,0.02587890625,-0.29736328125,0.408
2.0763358778625953,1.6641221374045803,-2.381679389312977,-0.4248046875,0.02587890625,-0.294921875,0.40969999999999995
2.2290076335877864,1.5114503816793894,-2.1526717557251906,-0.429931640625,0.0302734375,-0.29150390625,0.4114
2.2442748091603053,1.633587786259542,-2.1526717557251906,-0.42822265625,0.0283203125,-0.29638671875,0.41309999999999997
2.0610687022900764,1.465648854961832,-2.3206106870229006,-0.425537109375,0.026123046875,-0.292236328125,0.4148
2.0916030534351147,1.5267175572519085,-2.4732824427480917,-0.4228515625,0.03125,-0.29296875,0.4165
2.1526717557251906,1.5725190839694656,-2.427480916030534,-0.424560546875,0.025634765625,-0.288330078125,0.41819999999999996
2.0,1.3587786259541985,-2.4122137404580153,-0.4248046875,0.024658203125,-0.285888671875,0.4199
2.3206106870229006,1.4961832061068703,-2.2900763358778624,-0.42822265625,0.027099609375,-0.287109375,0.4216
2.015267175572519,1.3435114503816794,-2.198473282442748,-0.4287109375,0.0283203125,-0.288818359375,0.42329999999999995
1.8473282442748091,1.2213740458015268,-2.2290076335877864,-0.429931640625,0.023193359375,-0.2841796875,0.425
2.0916030534351147,1.4198473282442747,-2.351145038167939,-0.425537109375,0.028076171875,-0.28955078125,0.42669999999999997
2.122137404580153,1.4809160305343512,-2.1526717557251906,-0.429931640625,0.028564453125,-0.28076171875,0.4284
1.8931297709923665,1.618320610687023,-2.3969465648854964,-0.430908203125,0.026611328125,-0.286865234375,0.4301
1.8015267175572518,1.5572519083969465,-2.213740458015267,-0.428955078125,0.025146484375,-0.284423828125,0.43179999999999996
2.0610687022900764,1.5419847328244274,-2.50381679389313,-0.427978515625,0.028564453125,-0.291259765625,0.4335
1.984732824427481,1.5114503816793894,-2.2900763358778624,-0.42822265625,0.031494140625,-0.29150390625,0.4352
1.9236641221374047,1.5877862595419847,-2.3969465648854964,-0.427734375,0.0263671875,-0.290771484375,0.43689999999999996
1.6641221374045803,1.450381679389313,-2.16793893129771,-0.42529296875,0.028564453125,-0.297607421875,0.4386
1.5725190839694656,1.5877862595419847,-2.3969465648854964,-0.427978515625,0.029541015625,-0.28857421875,0.44029999999999997
1.6641221374045803,1.4961832061068703,-2.33587786259542,-0.42724609375,0.02880859375,-0.29248046875,0.44199999999999995
1.5877862595419847,1.4198473282442747,-2.4427480916030535,-0.424072265625,0.025390625,-0.28759765625,0.4437
1.6641221374045803,1.3893129770992367,-2.4122137404580153,-0.425537109375,0.027099609375,-0.29296875,0.44539999999999996
1.7099236641221374,1.282442748091603,-2.4732824427480917,-0.42626953125,0.03076171875,-0.289306640625,0.4471
1.5725190839694656,1.3893129770992367,-2.3969465648854964,-0.42626953125,0.0244140625,-0.2890625,0.4488
1.6946564885496183,1.4351145038167938,-2.6564885496183206,-0.427734375,0.026611328125,-0.290283203125,0.45049999999999996
1.5877862595419847,1.6641221374045803,-2.4732824427480917,-0.4296875,0.029052734375,-0.286865234375,0.4522
1.3893129770992367,1.7251908396946565,-2.6412213740458017,-0.431640625,0.02734375,-0.287353515625,0.45389999999999997
1.5877862595419847,1.6641221374045803,-2.687022900763359,-0.42822265625,0.022216796875,-0.293212890625,0.45559999999999995
1.4351145038167938,1.5572519083969465,-2.50381679389313,-0.43017578125,0.027099609375,-0.290771484375,0.4573
1.4809160305343512,1.6641221374045803,-2.2900763358778624,-0.426025390625,0.0283203125,-0.2919921875,0.45899999999999996
1.6030534351145038,1.7251908396946565,-2.549618320610687,-0.427978515625,0.02734375,-0.289306640625,0.4607
1.3740458015267176,1.6793893129770991,-2.50381679389313,-0.426513671875,0.0205078125,-0.290283203125,0.4624
1.2213740458015268,1.984732824427481,-2.5801526717557253,-0.42236328125,0.02587890625,-0.290283203125,0.46409999999999996
1.5267175572519085,1.6793893129770991,-2.50381679389313,-0.4267578125,0.02734375,-0.289306640625,0.4658
1.4809160305343512,1.7251908396946565,-2.6412213740458017,-0.428955078125,0.025390625,-0.2919921875,0.46749999999999997
1.251908396946565,1.7557251908396947,-2.50381679389313,-0.42431640625,0.02978515625,-0.277587890625,0.46919999999999995
1.5114503816793894,1.8625954198473282,-2.717557251908397,-0.42529296875,0.027587890625,-0.28125,0.4709
1.3129770992366412,1.7099236641221374,-2.6564885496183206,-0.42724609375,0.02880859375,-0.291748046875,0.47259999999999996
1.4961832061068703,1.6030534351145038,-2.687022900763359,-0.426025390625,0.022705078125,-0.293701171875,0.4743
1.5725190839694656,1.5267175572519085,-2.549618320610687,-0.42529296875,0.02001953125,-0.28759765625,0.476
1.3282442748091603,1.5419847328244274,-2.7022900763358777,-0.427490234375,0.02587890625,-0.283935546875,0.47769999999999996
1.4961832061068703,1.5572519083969465,-2.763358778625954,-0.427001953125,0.0244140625,-0.293701171875,0.4794
1.6030534351145038,1.450381679389313,-2.7786259541984735,-0.42626953125,0.031982421875,-0.287841796875,0.48109999999999997
1.5877862595419847,1.450381679389313,-2.7786259541984735,-0.420166015625,0.0263671875,-0.290771484375,0.48279999999999995
1.465648854961832,1.3740458015267176,-2.7022900763358777,-0.42431640625,0.0283203125,-0.2919921875,0.4845
1.6946564885496183,1.5725190839694656,-2.885496183206107,-0.42578125,0.028076171875,-0.295654296875,0.48619999999999997
1.3282442748091603,1.3587786259541985,-2.6717557251908395,-0.428466796875,0.0263671875,-0.292724609375,0.4879
1.4809160305343512,1.2213740458015268,-2.7022900763358777,-0.42919921875,0.025634765625,-0.283447265625,0.4896
1.6641221374045803,1.4198473282442747,-2.595419847328244,-0.424072265625,0.025390625,-0.2880859375,0.49129999999999996
1.6030534351145038,1.297709923664122,-2.4580152671755724,-0.42529296875,0.025390625,-0.290771484375,0.493
1.251908396946565,1.3282442748091603,-2.564885496183206,-0.42822265625,0.02685546875,-0.28662109375,0.4947
1.618320610687023,1.297709923664122,-2.732824427480916,-0.4248046875,0.026611328125,-0.28564453125,0.49639999999999995
1.6488549618320612,1.251908396946565,-2.5801526717557253,-0.424072265625,0.02880859375,-0.2939453125,0.4981
1.3129770992366412,1.1145038167938932,-2.5343511450381677,-0.4267578125,0.027587890625,-0.285888671875,0.49979999999999997
1.4351145038167938,1.0381679389312977,-2.6412213740458017,-0.42724609375,0.025634765625,-0.28515625,0.5015
1.5114503816793894,1.1603053435114503,-2.519083969465649,-0.422119140625,0.025146484375,-0.28369140625,0.5032
1.099236641221374,1.0076335877862594,-2.717557251908397,-0.427734375,0.025634765625,-0.286865234375,0.5049
1.297709923664122,0.9770992366412213,-2.6106870229007635,-0.422607421875,0.022705078125,-0.2880859375,0.5065999999999999
1.5419847328244274,0.9618320610687023,-2.595419847328244,-0.425048828125,0.02392578125,-0.28857421875,0.5083
1.4809160305343512,0.8244274809160306,-2.4732824427480917,-0.42529296875,0.027099609375,-0.28369140625,0.51
1.4351145038167938,0.7633587786259542,-2.595419847328244,-0.423583984375,0.028076171875,-0.287841796875,0.5116999999999999
1.2671755725190839,0.6412213740458015,-2.519083969465649,-0.42333984375,0.02783203125,-0.283935546875,0.5134
1.4045801526717556,0.6412213740458015,-2.3206106870229006,-0.42431640625,0.022705078125,-0.293701171875,0.5151
1.3893129770992367,0.6412213740458015,-2.687022900763359,-0.431640625,0.02490234375,-0.289794921875,0.5167999999999999
1.4351145038167938,0.7633587786259542,-2.5801526717557253,-0.42529296875,0.025634765625,-0.287353515625,0.5185
1.4045801526717556,0.7480916030534351,-2.519083969465649,-0.423095703125,0.032470703125,-0.2880859375,0.5202
1.4198473282442747,0.6564885496183206,-2.4885496183206106,-0.42529296875,0.025634765625,-0.29150390625,0.5218999999999999
1.3740458015267176,0.6717557251908397,-2.50381679389313,-0.42919921875,0.025634765625,-0.28857421875,0.5236
1.3587786259541985,0.6870229007633588,-2.564885496183206,-0.430908203125,0.021240234375,-0.289306640625,0.5253
1.4809160305343512,0.7633587786259542,-2.33587786259542,-0.426513671875,0.026123046875,-0.29443359375,0.527
1.4809160305343512,0.5343511450381679,-2.3969465648854964,-0.429931640625,0.02587890625,-0.291748046875,0.5287
1.3740458015267176,0.5801526717557252,-2.50381679389313,-0.427978515625,0.027099609375,-0.289794921875,0.5304
1.297709923664122,0.6717557251908397,-2.50381679389313,-0.4296875,0.0234375,-0.289306640625,0.5321
1.4198473282442747,0.5801526717557252,-2.33587786259542,-0.431884765625,0.0263671875,-0.287109375,0.5337999999999999
1.251908396946565,0.4580152671755725,-2.1374045801526718,-0.430908203125,0.025390625,-0.291015625,0.5355
0.9923664122137404,0.5190839694656488,-2.16793893129771,-0.436279296875,0.025634765625,-0.289794921875,0.5372
1.1145038167938932,0.549618320610687,-2.2900763358778624,-0.430419921875,0.029296875,-0.2841796875,0.5388999999999999
1.2366412213740459,0.48854961832061067,-2.1526717557251906,-0.4267578125,0.0224609375,-0.287841796875,0.5406
1.251908396946565,0.6106870229007634,-1.9694656488549618,-0.427734375,0.023681640625,-0.291259765625,0.5423
1.2061068702290076,0.3969465648854962,-2.1526717557251906,-0.426025390625,0.027587890625,-0.29296875,0.5439999999999999
1.282442748091603,0.6717557251908397,-2.183206106870229,-0.427001953125,0.0283203125,-0.279296875,0.5457
1.282442748091603,0.7022900763358778,-2.1526717557251906,-0.428466796875,0.032958984375,-0.2841796875,0.5474
1.4198473282442747,0.6259541984732825,-2.0610687022900764,-0.426025390625,0.025146484375,-0.290283203125,0.5490999999999999
1.4198473282442747,0.5648854961832062,-2.0916030534351147,-0.4296875,0.02587890625,-0.28662109375,0.5508
1.3435114503816794,0.6106870229007634,-2.0763358778625953,-0.429931640625,0.02783203125,-0.290283203125,0.5525
1.1450381679389312,0.7175572519083969,-2.1526717557251906,-0.42919921875,0.025390625,-0.28955078125,0.5541999999999999
1.4198473282442747,0.9007633587786259,-1.9236641221374047,-0.4296875,0.030029296875,-0.283447265625,0.5559
1.3435114503816794,0.9465648854961832,-2.015267175572519,-0.4365234375,0.023193359375,-0.2890625,0.5576
1.282442748091603,0.9465648854961832,-1.816793893129771,-0.432373046875,0.022705078125,-0.291015625,0.5593
1.3740458015267176,1.1603053435114503,-2.015267175572519,-0.432861328125,0.021240234375,-0.2880859375,0.5609999999999999
1.2366412213740459,1.099236641221374,-1.6030534351145038,-0.429931640625,0.026123046875,-0.285400390625,0.5627
1.282442748091603,1.2061068702290076,-1.8931297709923665,-0.4326171875,0.027099609375,-0.287841796875,0.5644
1.099236641221374,1.1297709923664123,-1.8931297709923665,-0.425537109375,0.0244140625,-0.28466796875,0.5660999999999999
1.2061068702290076,1.3893129770992367,-1.9083969465648856,-0.43115234375,0.022705078125,-0.28759765625,0.5678
1.1603053435114503,1.4045801526717556,-1.6793893129770991,-0.4326171875,0.025634765625,-0.28466796875,0.5695
0.9923664122137404,1.4809160305343512,-1.7709923664122138,-0.427978515625,0.02490234375,-0.2890625,0.5711999999999999
1.1603053435114503,1.465648854961832,-1.5572519083969465,-0.42919921875,0.025390625,-0.2890625,0.5729
1.3740458015267176,1.6793893129770991,-1.8015267175572518,-0.4375,0.023193359375,-0.290771484375,0.5746
1.1145038167938932,1.618320610687023,-1.9541984732824427,-0.432861328125,0.01953125,-0.28515625,0.5762999999999999
0.9770992366412213,1.6488549618320612,-1.6946564885496183,-0.435546875,0.02490234375,-0.291015625,0.578
1.297709923664122,1.816793893129771,-1.5572519083969465,-0.431640625,0.025634765625,-0.29150390625,0.5797
1.1603053435114503,1.7709923664122138,-1.8473282442748091,-0.4306640625,0.02294921875,-0.287353515625,0.5813999999999999
1.1908396946564885,1.83206106870229,-1.5877862595419847,-0.429931640625,0.025634765625,-0.29248046875,0.5831
1.0381679389312977,1.9236641221374047,-1.8931297709923665,-0.427978515625,0.02734375,-0.290283203125,0.5848
1.4045801526717556,1.7404580152671756,-1.5877862595419847,-0.430908203125,0.025390625,-0.283447265625,0.5865
0.9923664122137404,1.9541984732824427,-1.6488549618320612,-0.431884765625,0.027099609375,-0.291259765625,0.5882
1.1145038167938932,1.9083969465648856,-1.5114503816793894,-0.4326171875,0.02685546875,-0.294921875,0.5899
1.0687022900763359,1.8473282442748091,-1.7404580152671756,-0.43212890625,0.022216796875,-0.29541015625,0.5916
1.1755725190839694,2.015267175572519,-1.6030534351145038,-0.427978515625,0.02783203125,-0.2880859375,0.5932999999999999
1.0687022900763359,2.0916030534351147,-1.7251908396946565,-0.4287109375,0.026611328125,-0.293701171875,0.595
1.083969465648855,1.8778625954198473,-1.8015267175572518,-0.4267578125,0.026611328125,-0.28955078125,0.5967
1.251908396946565,2.0610687022900764,-1.83206106870229,-0.43115234375,0.02490234375,-0.289794921875,0.5983999999999999
1.3435114503816794,1.8625954198473282,-1.7709923664122138,-0.426025390625,0.026123046875,-0.294677734375,0.6001
1.1755725190839694,1.8625954198473282,-1.9389312977099236,-0.4228515625,0.029052734375,-0.28173828125,0.6018
1.2671755725190839,1.8778625954198473,-1.6793893129770991,-0.429443359375,0.026611328125,-0.28125,0.6034999999999999
1.4198473282442747,1.7251908396946565,-1.8473282442748091,-0.425048828125,0.027587890625,-0.29052734375,0.6052
1.4809160305343512,1.6946564885496183,-1.7709923664122138,-0.423583984375,0.02978515625,-0.283447265625,0.6069
1.3740458015267176,1.5267175572519085,-2.0610687022900764,-0.43212890625,0.027587890625,-0.283935546875,0.6085999999999999
1.4045801526717556,1.5877862595419847,-1.7099236641221374,-0.43017578125,0.0244140625,-0.288330078125,0.6103
1.2671755725190839,1.3740458015267176,-1.8778625954198473,-0.425048828125,0.023193359375,-0.2822265625,0.612
1.282442748091603,1.282442748091603,-1.786259541984733,-0.4267578125,0.027587890625,-0.28759765625,0.6136999999999999
1.465648854961832,1.2366412213740459,-1.8625954198473282,-0.426025390625,0.023681640625,-0.2880859375,0.6154
1.3740458015267176,1.251908396946565,-1.6946564885496183,-0.428466796875,0.031494140625,-0.287109375,0.6171
1.3893129770992367,1.2213740458015268,-1.618320610687023,-0.427490234375,0.029541015625,-0.289794921875,0.6188
1.7557251908396947,1.0687022900763359,-1.6641221374045803,-0.42578125,0.0283203125,-0.28515625,0.6204999999999999
1.3740458015267176,0.7480916030534351,-1.8778625954198473,-0.42724609375,0.03125,-0.288330078125,0.6222
1.282442748091603,1.0076335877862594,-1.5267175572519085,-0.4306640625,0.0263671875,-0.28515625,0.6239
1.465648854961832,0.9923664122137404,-1.7709923664122138,-0.431884765625,0.024169921875,-0.283203125,0.6255999999999999
1.3435114503816794,0.7480916030534351,-1.5877862595419847,-0.431396484375,0.024658203125,-0.281005859375,0.6273
1.1297709923664123,0.6717557251908397,-1.7251908396946565,-0.434814453125,0.0263671875,-0.289306640625,0.629
1.3740458015267176,0.6106870229007634,-1.633587786259542,-0.430908203125,0.027587890625,-0.288818359375,0.6306999999999999
1.3740458015267176,0.4580152671755725,-1.8625954198473282,-0.426025390625,0.025146484375,-0.284912109375,0.6324
1.099236641221374,0.5648854961832062,-1.5114503816793894,-0.4248046875,0.025390625,-0.285888671875,0.6341
1.1297709923664123,0.3969465648854962,-1.4045801526717556,-0.428955078125,0.017822265625,-0.2841796875,0.6357999999999999
1.282442748091603,0.5190839694656488,-1.5267175572519085,-0.434326171875,0.02099609375,-0.2900390625,0.6375
1.2366412213740459,0.32061068702290074,-1.6946564885496183,-0.429443359375,0.026611328125,-0.285400390625,0.6392
1.1603053435114503,0.4580152671755725,-1.4809160305343512,-0.42822265625,0.02734375,-0.287841796875,0.6408999999999999
0.9618320610687023,0.5190839694656488,-1.4809160305343512,-0.43017578125,0.025390625,-0.28662109375,0.6426
1.1450381679389312,0.5038167938931297,-1.7251908396946565,-0.434326171875,0.026123046875,-0.284912109375,0.6443
1.1603053435114503,0.48854961832061067,-1.5572519083969465,-0.43017578125,0.029296875,-0.283203125,0.646
1.0687022900763359,0.5954198473282443,-1.3282442748091603,-0.43212890625,0.033935546875,-0.285888671875,0.6476999999999999
0.8702290076335878,0.5801526717557252,-1.7709923664122138,-0.431640625,0.031494140625,-0.28515625,0.6494
0.9923664122137404,0.42748091603053434,-1.5877862595419847,-0.432373046875,0.024658203125,-0.291259765625,0.6511
1.1297709923664123,0.6259541984732825,-1.7709923664122138,-0.427978515625,0.027587890625,-0.2802734375,0.6527999999999999
1.099236641221374,0.4732824427480916,-1.5725190839694656,-0.42578125,0.03076171875,-0.288330078125,0.6545
0.9312977099236641,0.48854961832061067,-1.5114503816793894,-0.426025390625,0.02880859375,-0.284423828125,0.6562
0.9923664122137404,0.6870229007633588,-1.5877862595419847,-0.434814453125,0.020751953125,-0.277587890625,0.6578999999999999
0.9312977099236641,0.5343511450381679,-1.6641221374045803,-0.432373046875,0.028564453125,-0.286376953125,0.6596
0.7633587786259542,0.6717557251908397,-1.465648854961832,-0.4287109375,0.0322265625,-0.28271484375,0.6613
0.916030534351145,0.5954198473282443,-1.5267175572519085,-0.428955078125,0.02783203125,-0.287353515625,0.6629999999999999
1.0076335877862594,0.5648854961832062,-1.7251908396946565,-0.435791015625,0.028564453125,-0.2900390625,0.6647
0.8702290076335878,0.6717557251908397,-1.6946564885496183,-0.43505859375,0.0302734375,-0.285400390625,0.6664
1.0076335877862594,0.7022900763358778,-1.465648854961832,-0.43017578125,0.03173828125,-0.276611328125,0.6680999999999999
0.8091603053435115,0.732824427480916,-1.618320610687023,-0.431396484375,0.027587890625,-0.285888671875,0.6698
1.0229007633587786,0.916030534351145,-1.5725190839694656,-0.431396484375,0.027587890625,-0.29638671875,0.6715
1.0076335877862594,0.7786259541984732,-1.786259541984733,-0.4326171875,0.0244140625,-0.284912109375,0.6731999999999999
1.0534351145038168,0.8854961832061069,-1.5114503816793894,-0.42822265625,0.032470703125,-0.278564453125,0.6748999999999999
0.8091603053435115,0.7175572519083969,-1.5725190839694656,-0.427978515625,0.0302734375,-0.283447265625,0.6766
1.2366412213740459,0.6412213740458015,-1.6793893129770991,-0.428466796875,0.027587890625,-0.287109375,0.6783
1.1755725190839694,0.8702290076335878,-1.8625954198473282,-0.4306640625,0.029296875,-0.283935546875,0.6799999999999999
0.8091603053435115,0.8244274809160306,-1.618320610687023,-0.435791015625,0.025146484375,-0.292724609375,0.6817
1.3740458015267176,0.6717557251908397,-1.465648854961832,-0.43603515625,0.0302734375,-0.28759765625,0.6834
1.3129770992366412,0.7480916030534351,-1.633587786259542,-0.43115234375,0.02685546875,-0.281982421875,0.6850999999999999
1.4198473282442747,0.48854961832061067,-1.8015267175572518,-0.4306640625,0.02978515625,-0.281982421875,0.6868
1.3740458015267176,0.5343511450381679,-1.7557251908396947,-0.42822265625,0.02880859375,-0.283935546875,0.6885
1.251908396946565,0.48854961832061067,-1.83206106870229,-0.4345703125,0.027099609375,-0.290283203125,0.6901999999999999
1.3435114503816794,0.3053435114503817,-1.984732824427481,-0.43115234375,0.031982421875,-0.2783203125,0.6919
1.297709923664122,0.7175572519083969,-2.015267175572519,-0.4296875,0.02880859375,-0.2744140625,0.6936
1.5725190839694656,0.6564885496183206,-1.8778625954198473,-0.4287109375,0.031494140625,-0.289794921875,0.6952999999999999
1.618320610687023,0.5954198473282443,-1.786259541984733,-0.427978515625,0.02392578125,-0.279296875,0.697
1.5572519083969465,0.6717557251908397,-1.7099236641221374,-0.427978515625,0.029296875,-0.28662109375,0.6987
1.7404580152671756,0.33587786259541985,-1.816793893129771,-0.43310546875,0.029296875,-0.283447265625,0.7003999999999999
1.6488549618320612,0.3511450381679389,-1.9541984732824427,-0.431884765625,0.026611328125,-0.28173828125,0.7021
1.4961832061068703,0.33587786259541985,-1.8473282442748091,-0.42919921875,0.031982421875,-0.28125,0.7038
1.7099236641221374,0.5190839694656488,-2.0,-0.42919921875,0.028076171875,-0.28662109375,0.7055
1.7709923664122138,0.42748091603053434,-1.7404580152671756,-0.4345703125,0.028564453125,-0.28662109375,0.7071999999999999
1.5877862595419847,0.6106870229007634,-1.7557251908396947,-0.430908203125,0.026611328125,-0.285400390625,0.7089
1.618320610687023,0.4732824427480916,-1.83206106870229,-0.434326171875,0.0244140625,-0.28369140625,0.7106
1.5725190839694656,0.5038167938931297,-1.7099236641221374,-0.43115234375,0.02099609375,-0.290771484375,0.7122999999999999
1.7404580152671756,0.42748091603053434,-1.8015267175572518,-0.43359375,0.02587890625,-0.288818359375,0.714
1.5267175572519085,0.4122137404580153,-1.8473282442748091,-0.426513671875,0.024658203125,-0.290771484375,0.7157
1.5572519083969465,0.5343511450381679,-1.5572519083969465,-0.4287109375,0.02880859375,-0.28125,0.7173999999999999
1.7099236641221374,0.5801526717557252,-1.6030534351145038,-0.429931640625,0.031494140625,-0.28076171875,0.7191
1.3587786259541985,0.6106870229007634,-1.8625954198473282,-0.424072265625,0.0205078125,-0.285400390625,0.7208
1.786259541984733,0.6106870229007634,-1.7557251908396947,-0.424560546875,0.023681640625,-0.279541015625,0.7224999999999999
1.8625954198473282,0.4580152671755725,-1.6946564885496183,-0.4267578125,0.028564453125,-0.28369140625,0.7242
1.6488549618320612,0.6106870229007634,-1.5725190839694656,-0.429443359375,0.02978515625,-0.283447265625,0.7259
1.7557251908396947,0.5648854961832062,-1.6946564885496183,-0.427490234375,0.029052734375,-0.28759765625,0.7275999999999999
1.633587786259542,0.3969465648854962,-1.5877862595419847,-0.427978515625,0.032470703125,-0.2919921875,0.7293
1.633587786259542,0.42748091603053434,-1.4961832061068703,-0.43115234375,0.0224609375,-0.287353515625,0.731
1.8015267175572518,0.48854961832061067,-1.5725190839694656,-0.426025390625,0.025146484375,-0.286376953125,0.7326999999999999
1.7251908396946565,0.4122137404580153,-1.7099236641221374,-0.43115234375,0.029541015625,-0.285888671875,0.7343999999999999
1.6946564885496183,0.366412213740458,-1.5267175572519085,-0.428955078125,0.0234375,-0.283203125,0.7361
1.7404580152671756,0.549618320610687,-1.5419847328244274,-0.423095703125,0.02392578125,-0.2841796875,0.7378
1.7099236641221374,0.6870229007633588,-1.4809160305343512,-0.4306640625,0.02685546875,-0.2861328125,0.7394999999999999
1.6946564885496183,0.33587786259541985,-1.4809160305343512,-0.433837890625,0.028076171875,-0.28173828125,0.7412
1.6488549618320612,0.5954198473282443,-1.5877862595419847,-0.423828125,0.025146484375,-0.283203125,0.7429
1.786259541984733,0.5801526717557252,-1.6946564885496183,-0.425537109375,0.028564453125,-0.279052734375,0.7445999999999999
1.465648854961832,0.3511450381679389,-1.6488549618320612,-0.43310546875,0.022705078125,-0.279541015625,0.7463
1.4961832061068703,0.3511450381679389,-1.4961832061068703,-0.43115234375,0.0263671875,-0.2880859375,0.748
1.7251908396946565,0.183206106870229,-1.5267175572519085,-0.42822265625,0.028564453125,-0.292724609375,0.7496999999999999
1.450381679389313,0.015267175572519083,-1.5267175572519085,-0.429931640625,0.029296875,-0.2802734375,0.7514
1.6488549618320612,0.24427480916030533,-1.633587786259542,-0.428955078125,0.02978515625,-0.286376953125,0.7531
1.633587786259542,0.3053435114503817,-1.6488549618320612,-0.4267578125,0.029541015625,-0.288330078125,0.7547999999999999
1.816793893129771,0.2748091603053435,-1.4351145038167938,-0.425537109375,0.024169921875,-0.284912109375,0.7565
1.6488549618320612,0.1984732824427481,-1.7099236641221374,-0.430419921875,0.024169921875,-0.2861328125,0.7582
1.7557251908396947,0.10687022900763359,-1.8473282442748091,-0.42431640625,0.0283203125,-0.2841796875,0.7598999999999999
1.4351145038167938,0.0916030534351145,-1.465648854961832,-0.42333984375,0.0322265625,-0.28076171875,0.7615999999999999
1.5572519083969465,-0.015267175572519083,-1.786259541984733,-0.422607421875,0.0263671875,-0.278564453125,0.7633
1.5877862595419847,-0.12213740458015267,-1.83206106870229,-0.423583984375,0.0244140625,-0.28125,0.7649999999999999
1.5419847328244274,-0.0916030534351145,-1.7709923664122138,-0.42822265625,0.01904296875,-0.28173828125,0.7666999999999999
1.7251908396946565,0.030534351145038167,-1.7099236641221374,-0.423828125,0.027099609375,-0.27880859375,0.7684
1.7404580152671756,-0.0916030534351145,-1.8778625954198473,-0.427734375,0.02490234375,-0.2783203125,0.7701
1.4809160305343512,-0.07633587786259542,-1.7557251908396947,-0.423828125,0.0263671875,-0.28515625,0.7717999999999999
1.3740458015267176,-0.24427480916030533,-1.7557251908396947,-0.424560546875,0.023681640625,-0.284423828125,0.7735
1.4961832061068703,-0.2595419847328244,-1.7557251908396947,-0.424560546875,0.015869140625,-0.28173828125,0.7752
1.5114503816793894,-0.33587786259541985,-1.984732824427481,-0.427001953125,0.025634765625,-0.284912109375,0.7768999999999999
1.282442748091603,-0.13740458015267176,-2.015267175572519,-0.427001953125,0.019775390625,-0.2841796875,0.7786
1.1755725190839694,-0.15267175572519084,-2.0916030534351147,-0.43017578125,0.027099609375,-0.293701171875,0.7803
1.3740458015267176,-0.16793893129770993,-1.9389312977099236,-0.42578125,0.024658203125,-0.286376953125,0.7819999999999999
1.3435114503816794,0.0,-1.9389312977099236,-0.421142578125,0.01953125,-0.2822265625,0.7837
1.282442748091603,0.0,-2.030534351145038,-0.435546875,0.029052734375,-0.288818359375,0.7854
1.083969465648855,0.12213740458015267,-2.1374045801526718,-0.435546875,0.02294921875,-0.284423828125,0.7870999999999999
0.916030534351145,0.2748091603053435,-2.1526717557251906,-0.431396484375,0.0263671875,-0.28564453125,0.7888
1.0381679389312977,0.366412213740458,-2.183206106870229,-0.429443359375,0.026123046875,-0.29345703125,0.7905
1.2213740458015268,0.2748091603053435,-2.2748091603053435,-0.4287109375,0.031005859375,-0.289794921875,0.7921999999999999
1.0381679389312977,0.4732824427480916,-2.3206106870229006,-0.434326171875,0.028076171875,-0.29296875,0.7938999999999999
1.083969465648855,0.4732824427480916,-2.351145038167939,-0.4267578125,0.026611328125,-0.28662109375,0.7956
0.9618320610687023,0.42748091603053434,-2.4580152671755724,-0.432861328125,0.026611328125,-0.284912109375,0.7973
1.1145038167938932,0.4732824427480916,-2.366412213740458,-0.43115234375,0.02197265625,-0.2841796875,0.7989999999999999
0.8091603053435115,0.6564885496183206,-2.183206106870229,-0.4306640625,0.02587890625,-0.289794921875,0.8007
0.9007633587786259,0.5801526717557252,-2.16793893129771,-0.433837890625,0.031494140625,-0.283935546875,0.8024
0.9007633587786259,0.4732824427480916,-2.549618320610687,-0.43017578125,0.02294921875,-0.2919921875,0.8040999999999999
0.732824427480916,0.8396946564885496,-2.2900763358778624,-0.4306640625,0.029052734375,-0.301025390625,0.8058
0.8091603053435115,0.7175572519083969,-2.4122137404580153,-0.433349609375,0.022705078125,-0.278564453125,0.8075
0.7633587786259542,0.6717557251908397,-2.2900763358778624,-0.433837890625,0.0234375,-0.284423828125,0.8091999999999999
0.916030534351145,0.7633587786259542,-2.351145038167939,-0.43017578125,0.027587890625,-0.28759765625,0.8109
0.916030534351145,0.7633587786259542,-2.4122137404580153,-0.43359375,0.026611328125,-0.28662109375,0.8126
0.732824427480916,0.6717557251908397,-2.5343511450381677,-0.433349609375,0.0244140625,-0.286376953125,0.8142999999999999
0.732824427480916,0.7786259541984732,-2.351145038167939,-0.4296875,0.028076171875,-0.287841796875,0.816
0.7938931297709924,0.8854961832061069,-2.564885496183206,-0.427734375,0.0224609375,-0.290771484375,0.8177
0.6564885496183206,0.8549618320610687,-2.33587786259542,-0.430908203125,0.02734375,-0.2861328125,0.8193999999999999
0.6564885496183206,0.8244274809160306,-2.3969465648854964,-0.430419921875,0.022216796875,-0.296142578125,0.8210999999999999
0.8244274809160306,0.8091603053435115,-2.4580152671755724,-0.432373046875,0.025634765625,-0.290283203125,0.8228
0.732824427480916,0.916030534351145,-2.7022900763358777,-0.432861328125,0.02392578125,-0.282470703125,0.8244999999999999
0.7175572519083969,0.9312977099236641,-2.564885496183206,-0.427978515625,0.023193359375,-0.28955078125,0.8261999999999999
0.9770992366412213,0.9312977099236641,-2.6717557251908395,-0.43310546875,0.026611328125,-0.28857421875,0.8279
1.0381679389312977,1.083969465648855,-2.4580152671755724,-0.431884765625,0.02490234375,-0.29931640625,0.8296
0.7633587786259542,1.0076335877862594,-2.854961832061069,-0.431396484375,0.030517578125,-0.28271484375,0.8312999999999999
0.8854961832061069,1.099236641221374,-2.6106870229007635,-0.430908203125,0.03173828125,-0.279296875,0.833
1.1145038167938932,1.0381679389312977,-2.5343511450381677,-0.434326171875,0.0263671875,-0.285888671875,0.8347
1.099236641221374,1.0381679389312977,-2.6259541984732824,-0.425048828125,0.033935546875,-0.2890625,0.8363999999999999
1.2061068702290076,1.0687022900763359,-2.564885496183206,-0.4326171875,0.02783203125,-0.2861328125,0.8381
1.1297709923664123,0.9465648854961832,-2.366412213740458,-0.433837890625,0.025634765625,-0.2890625,0.8398
0.9618320610687023,1.0687022900763359,-2.519083969465649,-0.42822265625,0.02392578125,-0.291748046875,0.8414999999999999
0.9770992366412213,1.0534351145038168,-2.198473282442748,-0.43115234375,0.029052734375,-0.288330078125,0.8432
1.1603053435114503,0.9465648854961832,-2.213740458015267,-0.431640625,0.02880859375,-0.287841796875,0.8449
0.8549618320610687,1.0229007633587786,-2.2748091603053435,-0.426025390625,0.025390625,-0.287353515625,0.8465999999999999
0.8549618320610687,1.1145038167938932,-2.2290076335877864,-0.429443359375,0.023193359375,-0.291748046875,0.8482999999999999
1.099236641221374,0.8854961832061069,-2.1068702290076335,-0.428955078125,0.022705078125,-0.293701171875,0.85
0.8702290076335878,1.0687022900763359,-2.2442748091603053,-0.43359375,0.02587890625,-0.28857421875,0.8516999999999999
0.916030534351145,0.9465648854961832,-2.0,-0.429931640625,0.02734375,-0.284912109375,0.8533999999999999
0.916030534351145,0.7938931297709924,-2.015267175572519,-0.435791015625,0.030029296875,-0.28857421875,0.8551
1.083969465648855,0.916030534351145,-1.9694656488549618,-0.424072265625,0.027099609375,-0.281982421875,0.8568
0.916030534351145,0.6259541984732825,-2.213740458015267,-0.433349609375,0.02392578125,-0.28515625,0.8584999999999999
1.1297709923664123,0.7633587786259542,-1.6946564885496183,-0.429931640625,0.0224609375,-0.289306640625,0.8602
0.7175572519083969,0.7022900763358778,-1.786259541984733,-0.427978515625,0.023681640625,-0.288818359375,0.8619
0.6870229007633588,0.6259541984732825,-1.7557251908396947,-0.4287109375,0.029296875,-0.28857421875,0.8635999999999999
0.7938931297709924,0.6870229007633588,-1.7709923664122138,-0.42529296875,0.028076171875,-0.28271484375,0.8653
0.8854961832061069,0.8244274809160306,-1.5114503816793894,-0.426513671875,0.0263671875,-0.28955078125,0.867
0.7175572519083969,0.7480916030534351,-1.5419847328244274,-0.42919921875,0.02685546875,-0.291015625,0.8686999999999999
0.7022900763358778,0.7022900763358778,-1.5877862595419847,-0.433349609375,0.02783203125,-0.28271484375,0.8704
0.6412213740458015,0.6106870229007634,-1.6641221374045803,-0.428955078125,0.02490234375,-0.284912109375,0.8721
0.7022900763358778,0.5648854961832062,-1.4351145038167938,-0.4306640625,0.0234375,-0.286376953125,0.8737999999999999
0.732824427480916,0.549618320610687,-1.5725190839694656,-0.432373046875,0.0224609375,-0.28759765625,0.8755
0.7938931297709924,0.5038167938931297,-1.3587786259541985,-0.42919921875,0.02490234375,-0.282958984375,0.8772
0.6717557251908397,0.7633587786259542,-1.465648854961832,-0.430908203125,0.0224609375,-0.283935546875,0.8788999999999999
0.3511450381679389,0.7480916030534351,-1.450381679389313,-0.430419921875,0.021484375,-0.287353515625,0.8805999999999999
0.7480916030534351,0.7786259541984732,-1.5114503816793894,-0.428955078125,0.0244140625,-0.283935546875,0.8823
0.4732824427480916,0.7938931297709924,-1.2213740458015268,-0.43310546875,0.028076171875,-0.2763671875,0.8839999999999999
0.5648854961832062,0.8244274809160306,-1.4809160305343512,-0.43408203125,0.024658203125,-0.284423828125,0.8856999999999999
0.6412213740458015,0.8396946564885496,-1.4045801526717556,-0.4306640625,0.019775390625,-0.274658203125,0.8874
0.7633587786259542,0.6870229007633588,-1.2671755725190839,-0.43359375,0.025634765625,-0.27978515625,0.8891
0.7786259541984732,0.9007633587786259,-1.2671755725190839,-0.43017578125,0.02734375,-0.28369140625,0.8907999999999999
0.5954198473282443,0.916030534351145,-1.3740458015267176,-0.431884765625,0.025390625,-0.28662109375,0.8925
0.48854961832061067,0.8549618320610687,-1.3587786259541985,-0.43115234375,0.02294921875,-0.27880859375,0.8942
0.7480916030534351,0.7938931297709924,-1.2671755725190839,-0.431640625,0.027587890625,-0.292724609375,0.8958999999999999
0.6564885496183206,0.7786259541984732,-1.297709923664122,-0.43310546875,0.028076171875,-0.285888671875,0.8976
0.6412213740458015,0.9312977099236641,-1.3587786259541985,-0.42431640625,0.022705078125,-0.281494140625,0.8993
0.8854961832061069,0.7938931297709924,-1.4809160305343512,-0.43115234375,0.0234375,-0.278564453125,0.9009999999999999
0.7175572519083969,0.6870229007633588,-1.3282442748091603,-0.4345703125,0.021240234375,-0.286376953125,0.9027
0.7175572519083969,0.8244274809160306,-1.282442748091603,-0.432861328125,0.02734375,-0.285400390625,0.9044
0.7480916030534351,0.8091603053435115,-1.3740458015267176,-0.4326171875,0.02685546875,-0.284423828125,0.9060999999999999
0.6412213740458015,0.8396946564885496,-1.297709923664122,-0.43115234375,0.029296875,-0.2890625,0.9077999999999999
0.5954198473282443,1.0229007633587786,-1.4961832061068703,-0.434814453125,0.02587890625,-0.29150390625,0.9095
0.7175572519083969,0.9770992366412213,-1.3587786259541985,-0.430419921875,0.02685546875,-0.28662109375,0.9111999999999999
0.6870229007633588,1.0381679389312977,-1.3740458015267176,-0.431884765625,0.028076171875,-0.283447265625,0.9128999999999999
0.8702290076335878,0.916030534351145,-1.3129770992366412,-0.430419921875,0.025634765625,-0.294921875,0.9146
0.7938931297709924,0.9618320610687023,-1.3740458015267176,-0.436279296875,0.029296875,-0.2880859375,0.9163
0.5954198473282443,1.1145038167938932,-1.282442748091603,-0.433349609375,0.027587890625,-0.2890625,0.9179999999999999
0.549618320610687,0.9770992366412213,-1.5267175572519085,-0.428466796875,0.02734375,-0.28759765625,0.9197
0.8702290076335878,1.1145038167938932,-1.3893129770992367,-0.431640625,0.028076171875,-0.28271484375,0.9214
0.9770992366412213,1.1603053435114503,-1.5419847328244274,-0.425537109375,0.0283203125,-0.2841796875,0.9230999999999999
1.1297709923664123,1.2213740458015268,-1.3282442748091603,-0.424560546875,0.024658203125,-0.28271484375,0.9248
0.8854961832061069,1.2671755725190839,-1.4809160305343512,-0.431640625,0.026123046875,-0.289306640625,0.9265
0.8702290076335878,1.3587786259541985,-1.5267175572519085,-0.4287109375,0.030517578125,-0.2919921875,0.9281999999999999
0.8702290076335878,1.3740458015267176,-1.6946564885496183,-0.4345703125,0.02587890625,-0.2880859375,0.9299
1.251908396946565,1.297709923664122,-1.5572519083969465,-0.433837890625,0.021484375,-0.283447265625,0.9316
1.0076335877862594,1.465648854961832,-1.4351145038167938,-0.43359375,0.0224609375,-0.280029296875,0.9332999999999999
0.7633587786259542,1.4198473282442747,-1.4809160305343512,-0.437744140625,0.02490234375,-0.281982421875,0.9349999999999999
0.9007633587786259,1.297709923664122,-1.7404580152671756,-0.429443359375,0.022705078125,-0.279296875,0.9367
0.6412213740458015,1.251908396946565,-1.450381679389313,-0.431396484375,0.023193359375,-0.286865234375,0.9383999999999999
1.0534351145038168,1.4198473282442747,-1.6793893129770991,-0.427734375,0.03125,-0.290283203125,0.9400999999999999
0.9465648854961832,1.6030534351145038,-1.6488549618320612,-0.42431640625,0.022216796875,-0.287353515625,0.9418
1.0229007633587786,1.4351145038167938,-1.7404580152671756,-0.427490234375,0.0283203125,-0.282958984375,0.9434999999999999
0.9312977099236641,1.5725190839694656,-1.6030534351145038,-0.4306640625,0.03125,-0.289306640625,0.9451999999999999
0.8244274809160306,1.4809160305343512,-1.3129770992366412,-0.429443359375,0.024169921875,-0.28369140625,0.9469
0.8396946564885496,1.465648854961832,-1.7557251908396947,-0.43115234375,0.02587890625,-0.298583984375,0.9486
0.8549618320610687,1.6641221374045803,-1.6488549618320612,-0.431640625,0.024169921875,-0.290771484375,0.9502999999999999
0.7175572519083969,1.8931297709923665,-1.3740458015267176,-0.431396484375,0.0244140625,-0.28173828125,0.952
0.5954198473282443,1.5419847328244274,-1.5572519083969465,-0.431396484375,0.025146484375,-0.289794921875,0.9537
0.8396946564885496,1.7099236641221374,-1.5267175572519085,-0.42919921875,0.0283203125,-0.287353515625,0.9553999999999999
0.7633587786259542,1.618320610687023,-1.450381679389313,-0.431396484375,0.02685546875,-0.28955078125,0.9571
0.48854961832061067,1.618320610687023,-1.5419847328244274,-0.43505859375,0.027587890625,-0.281982421875,0.9588
0.6412213740458015,1.633587786259542,-1.6641221374045803,-0.432861328125,0.025146484375,-0.282958984375,0.9604999999999999
0.8396946564885496,1.8473282442748091,-1.633587786259542,-0.4306640625,0.03076171875,-0.278564453125,0.9621999999999999
0.6870229007633588,1.8625954198473282,-1.6946564885496183,-0.431884765625,0.02490234375,-0.28564453125,0.9639
0.6106870229007634,1.83206106870229,-1.3587786259541985,-0.42919921875,0.024658203125,-0.287841796875,0.9655999999999999
0.732824427480916,1.9541984732824427,-1.5572519083969465,-0.428955078125,0.0263671875,-0.287109375,0.9672999999999999
0.5954198473282443,1.9236641221374047,-1.8015267175572518,-0.4326171875,0.028076171875,-0.28466796875,0.969
0.6870229007633588,2.045801526717557,-1.6946564885496183,-0.43408203125,0.028076171875,-0.2900390625,0.9706999999999999
0.6564885496183206,1.9083969465648856,-1.6946564885496183,-0.432861328125,0.030029296875,-0.287109375,0.9723999999999999
0.7022900763358778,1.9541984732824427,-1.6793893129770991,-0.4296875,0.02734375,-0.293212890625,0.9741
0.6564885496183206,2.0763358778625953,-1.7709923664122138,-0.435302734375,0.025634765625,-0.2802734375,0.9758
0.4732824427480916,2.198473282442748,-1.7557251908396947,-0.43310546875,0.026123046875,-0.289794921875,0.9774999999999999
0.6717557251908397,2.33587786259542,-1.816793893129771,-0.42822265625,0.03076171875,-0.2861328125,0.9792
0.5954198473282443,2.1526717557251906,-1.786259541984733,-0.4306640625,0.025146484375,-0.285888671875,0.9809
0.5038167938931297,2.1374045801526718,-1.8931297709923665,-0.43017578125,0.024169921875,-0.2841796875,0.9825999999999999
0.6870229007633588,2.4580152671755724,-1.7404580152671756,-0.429443359375,0.023681640625,-0.2861328125,0.9843
0.6412213740458015,2.427480916030534,-1.8625954198473282,-0.430419921875,0.031494140625,-0.288330078125,0.986
0.4732824427480916,2.427480916030534,-1.8015267175572518,-0.432861328125,0.028076171875,-0.279541015625,0.9876999999999999
0.916030534351145,2.33587786259542,-1.9236641221374047,-0.43212890625,0.03076171875,-0.291015625,0.9894
0.6259541984732825,2.5343511450381677,-1.9389312977099236,-0.432373046875,0.027099609375,-0.28759765625,0.9911
0.7480916030534351,2.5801526717557253,-1.9694656488549618,-0.43212890625,0.0283203125,-0.28466796875,0.9927999999999999
0.5038167938931297,2.732824427480916,-1.816793893129771,-0.4296875,0.029296875,-0.291748046875,0.9944999999999999
0.7786259541984732,2.763358778625954,-1.9236641221374047,-0.434326171875,0.028076171875,-0.294189453125,0.9962
0.7022900763358778,2.7022900763358777,-1.6030534351145038,-0.426025390625,0.028076171875,-0.290283203125,0.9978999999999999
0.5038167938931297,2.732824427480916,-1.7251908396946565,-0.435546875,0.02490234375,-0.28857421875,0.9995999999999999
0.9007633587786259,2.549618320610687,-1.8625954198473282,-0.433349609375,0.028564453125,-0.283203125,1.0012999999999999
0.732824427480916,2.687022900763359,-1.7404580152671756,-0.428466796875,0.029296875,-0.28857421875,1.003
0.732824427480916,2.564885496183206,-1.786259541984733,-0.42919921875,0.02734375,-0.289794921875,1.0047
0.8244274809160306,2.717557251908397,-1.8015267175572518,-0.429931640625,0.029296875,-0.282958984375,1.0064
0.8091603053435115,2.366412213740458,-1.7251908396946565,-0.433349609375,0.02392578125,-0.282958984375,1.0081
0.8549618320610687,2.3969465648854964,-1.8931297709923665,-0.434326171875,0.0302734375,-0.287353515625,1.0098
0.8244274809160306,2.595419847328244,-1.9236641221374047,-0.42919921875,0.02880859375,-0.2841796875,1.0114999999999998
0.9465648854961832,2.381679389312977,-1.8015267175572518,-0.42724609375,0.028076171875,-0.27978515625,1.0131999999999999
0.8549618320610687,2.3969465648854964,-1.6641221374045803,-0.427734375,0.02587890625,-0.28564453125,1.0149
0.9618320610687023,2.5801526717557253,-1.7251908396946565,-0.435302734375,0.025390625,-0.2880859375,1.0166
0.7480916030534351,2.4732824427480917,-1.7557251908396947,-0.431884765625,0.0234375,-0.29248046875,1.0183
0.8091603053435115,2.6412213740458017,-1.9389312977099236,-0.43017578125,0.02490234375,-0.281005859375,1.02
0.8854961832061069,2.549618320610687,-1.6641221374045803,-0.431396484375,0.025146484375,-0.28662109375,1.0217
0.8854961832061069,2.4427480916030535,-1.8015267175572518,-0.4296875,0.027099609375,-0.286865234375,1.0233999999999999
0.7786259541984732,2.4732824427480917,-1.7251908396946565,-0.428466796875,0.024169921875,-0.29150390625,1.0251
1.0076335877862594,2.4580152671755724,-1.8625954198473282,-0.426025390625,0.026611328125,-0.28662109375,1.0268
0.9007633587786259,2.4580152671755724,-1.6030534351145038,-0.426513671875,0.0263671875,-0.2841796875,1.0285
0.9618320610687023,2.4122137404580153,-1.7251908396946565,-0.43017578125,0.02978515625,-0.289794921875,1.0302
1.0229007633587786,2.2442748091603053,-1.5419847328244274,-0.4306640625,0.0283203125,-0.289306640625,1.0319
0.8702290076335878,2.3206106870229006,-1.7709923664122138,-0.428955078125,0.027099609375,-0.294921875,1.0335999999999999
0.9770992366412213,2.2900763358778624,-1.6946564885496183,-0.435302734375,0.029052734375,-0.289794921875,1.0352999999999999
0.9312977099236641,2.381679389312977,-1.8625954198473282,-0.429931640625,0.02685546875,-0.28466796875,1.037
1.0381679389312977,2.4122137404580153,-1.5725190839694656,-0.42578125,0.034423828125,-0.281982421875,1.0387
0.916030534351145,2.427480916030534,-1.6030534351145038,-0.423583984375,0.02880859375,-0.289794921875,1.0404
0.916030534351145,2.122137404580153,-1.5572519083969465,-0.429931640625,0.028564453125,-0.288330078125,1.0421
1.0687022900763359,2.122137404580153,-1.6030534351145038,-0.429931640625,0.025146484375,-0.285888671875,1.0437999999999998
0.8091603053435115,2.2442748091603053,-1.5725190839694656,-0.433349609375,0.028076171875,-0.29052734375,1.0454999999999999
0.8549618320610687,2.4732824427480917,-1.7557251908396947,-0.43115234375,0.028564453125,-0.287109375,1.0472
0.8854961832061069,2.2748091603053435,-1.4809160305343512,-0.427978515625,0.027587890625,-0.289794921875,1.0489
0.7938931297709924,2.2748091603053435,-1.4961832061068703,-0.431884765625,0.026611328125,-0.287353515625,1.0506
0.9312977099236641,2.2595419847328246,-1.450381679389313,-0.430908203125,0.022705078125,-0.2900390625,1.0523
0.8854961832061069,2.3053435114503817,-1.7404580152671756,-0.425048828125,0.023681640625,-0.28466796875,1.054
0.7480916030534351,2.198473282442748,-1.3587786259541985,-0.430419921875,0.029541015625,-0.281005859375,1.0556999999999999
0.916030534351145,2.3206106870229006,-1.450381679389313,-0.428466796875,0.029296875,-0.291748046875,1.0574
0.8244274809160306,2.427480916030534,-1.6641221374045803,-0.42578125,0.029541015625,-0.294921875,1.0591
0.7938931297709924,2.2442748091603053,-1.7557251908396947,-0.42626953125,0.03076171875,-0.28076171875,1.0608
0.732824427480916,2.213740458015267,-1.3740458015267176,-0.428955078125,0.025390625,-0.285888671875,1.0625
0.6259541984732825,2.0916030534351147,-1.618320610687023,-0.426025390625,0.02734375,-0.28466796875,1.0642
0.48854961832061067,2.015267175572519,-1.618320610687023,-0.428955078125,0.029052734375,-0.288330078125,1.0658999999999998
0.8396946564885496,2.0610687022900764,-1.5877862595419847,-0.429931640625,0.0283203125,-0.290283203125,1.0675999999999999
0.7786259541984732,1.8625954198473282,-1.5877862595419847,-0.431640625,0.032470703125,-0.287109375,1.0693
0.6870229007633588,2.0,-1.618320610687023,-0.4248046875,0.0302734375,-0.28857421875,1.071
0.7480916030534351,2.030534351145038,-1.5877862595419847,-0.42529296875,0.030029296875,-0.285888671875,1.0727
0.732824427480916,2.183206106870229,-1.4351145038167938,-0.427978515625,0.02734375,-0.28076171875,1.0744
0.6870229007633588,2.0916030534351147,-1.5572519083969465,-0.42822265625,0.0302734375,-0.292724609375,1.0760999999999998
0.5038167938931297,2.1526717557251906,-1.5572519083969465,-0.4267578125,0.025146484375,-0.282470703125,1.0777999999999999
0.5801526717557252,2.030534351145038,-1.4351145038167938,-0.4287109375,0.023681640625,-0.289306640625,1.0795
0.549618320610687,2.1526717557251906,-1.633587786259542,-0.423828125,0.02685546875,-0.29150390625,1.0812
0.5343511450381679,2.183206106870229,-1.4961832061068703,-0.425048828125,0.0263671875,-0.288330078125,1.0829
0.6564885496183206,2.2595419847328246,-1.5877862595419847,-0.42578125,0.02978515625,-0.287109375,1.0846
0.8396946564885496,1.984732824427481,-1.5725190839694656,-0.4306640625,0.029296875,-0.28564453125,1.0863
0.7786259541984732,2.1068702290076335,-1.6793893129770991,-0.42529296875,0.0263671875,-0.289306640625,1.0879999999999999
0.42748091603053434,2.045801526717557,-1.5267175572519085,-0.427001953125,0.02587890625,-0.28466796875,1.0897
0.6412213740458015,2.0916030534351147,-1.4961832061068703,-0.422607421875,0.0302734375,-0.2900390625,1.0914
0.6259541984732825,1.8015267175572518,-1.5877862595419847,-0.42919921875,0.030517578125,-0.28125,1.0931
0.42748091603053434,2.0,-1.7709923664122138,-0.428466796875,0.029296875,-0.282470703125,1.0948
0.7480916030534351,2.030534351145038,-1.6488549618320612,-0.423583984375,0.0283203125,-0.279052734375,1.0965
0.7022900763358778,1.9236641221374047,-1.816793893129771,-0.430419921875,0.02978515625,-0.28759765625,1.0981999999999998
0.32061068702290074,1.816793893129771,-1.83206106870229,-0.4248046875,0.0244140625,-0.283447265625,1.0998999999999999
0.6259541984732825,1.7557251908396947,-1.816793893129771,-0.424560546875,0.026123046875,-0.27978515625,1.1016
0.7175572519083969,1.8778625954198473,-1.9083969465648856,-0.423828125,0.02734375,-0.275390625,1.1033
0.7480916030534351,1.7557251908396947,-1.7251908396946565,-0.424560546875,0.02587890625,-0.2822265625,1.105
0.6259541984732825,1.7099236641221374,-1.6641221374045803,-0.42431640625,0.0283203125,-0.2919921875,1.1067
0.5038167938931297,1.6641221374045803,-1.8931297709923665,-0.42529296875,0.025146484375,-0.288818359375,1.1083999999999998
0.6870229007633588,1.83206106870229,-1.7557251908396947,-0.42529296875,0.0302734375,-0.2802734375,1.1100999999999999
0.7633587786259542,1.5267175572519085,-1.816793893129771,-0.430419921875,0.029052734375,-0.287109375,1.1118
0.7480916030534351,1.633587786259542,-1.633587786259542,-0.429931640625,0.027587890625,-0.289794921875,1.1135
0.549618320610687,1.618320610687023,-1.6641221374045803,-0.421630859375,0.0283203125,-0.28466796875,1.1152
0.5954198473282443,1.5114503816793894,-1.786259541984733,-0.427001953125,0.02783203125,-0.28076171875,1.1169
0.7022900763358778,1.6793893129770991,-1.8778625954198473,-0.420654296875,0.02880859375,-0.28369140625,1.1186
0.7175572519083969,1.5572519083969465,-1.4961832061068703,-0.4248046875,0.024169921875,-0.2822265625,1.1202999999999999
0.7175572519083969,1.465648854961832,-1.7404580152671756,-0.42578125,0.02587890625,-0.28955078125,1.1219999999999999
0.5954198473282443,1.465648854961832,-1.8473282442748091,-0.42431640625,0.025146484375,-0.283447265625,1.1237
0.7022900763358778,1.5572519083969465,-1.7709923664122138,-0.427490234375,0.0263671875,-0.285888671875,1.1254
0.6106870229007634,1.4198473282442747,-1.7557251908396947,-0.42529296875,0.030029296875,-0.29345703125,1.1271
0.5190839694656488,1.3893129770992367,-1.6793893129770991,-0.424072265625,0.025146484375,-0.29736328125,1.1288
0.549618320610687,1.3893129770992367,-1.6793893129770991,-0.422119140625,0.02880859375,-0.285400390625,1.1304999999999998
0.5038167938931297,1.297709923664122,-1.6488549618320612,-0.4248046875,0.02685546875,-0.2919921875,1.1321999999999999
0.8091603053435115,1.251908396946565,-1.633587786259542,-0.431640625,0.03076171875,-0.296875,1.1339
0.7480916030534351,1.3893129770992367,-1.83206106870229,-0.427001953125,0.027587890625,-0.287109375,1.1356
0.7175572519083969,1.450381679389313,-1.9083969465648856,-0.425537109375,0.030029296875,-0.29248046875,1.1373
0.6870229007633588,1.3587786259541985,-1.6946564885496183,-0.425537109375,0.029296875,-0.29345703125,1.139
0.549618320610687,1.4198473282442747,-1.633587786259542,-0.423828125,0.027099609375,-0.287841796875,1.1407
0.7938931297709924,1.3740458015267176,-1.6488549618320612,-0.427978515625,0.033935546875,-0.291748046875,1.1423999999999999
0.8396946564885496,1.4198473282442747,-1.6946564885496183,-0.4267578125,0.0302734375,-0.2939453125,1.1441
0.7175572519083969,1.4351145038167938,-1.83206106870229,-0.42529296875,0.0263671875,-0.290283203125,1.1458
0.6259541984732825,1.4045801526717556,-1.8015267175572518,-0.4287109375,0.02880859375,-0.286865234375,1.1475
0.8702290076335878,1.251908396946565,-1.7557251908396947,-0.42919921875,0.027099609375,-0.2900390625,1.1492
0.8854961832061069,1.2061068702290076,-1.7709923664122138,-0.42529296875,0.031494140625,-0.28662109375,1.1509
0.9312977099236641,1.2213740458015268,-1.7404580152671756,-0.421630859375,0.03125,-0.281982421875,1.1525999999999998
0.7633587786259542,1.2213740458015268,-1.7404580152671756,-0.424560546875,0.03271484375,-0.2890625,1.1542999999999999
0.8396946564885496,1.083969465648855,-1.7099236641221374,-0.427001953125,0.026123046875,-0.292724609375,1.156
1.251908396946565,1.0229007633587786,-1.7099236641221374,-0.42578125,0.033203125,-0.291748046875,1.1577
0.8702290076335878,1.1755725190839694,-1.633587786259542,-0.42529296875,0.02783203125,-0.28515625,1.1594
0.8549618320610687,0.9312977099236641,-1.6030534351145038,-0.42919921875,0.027587890625,-0.2900390625,1.1611
1.1145038167938932,1.099236641221374,-1.786259541984733,-0.42919921875,0.0302734375,-0.2822265625,1.1627999999999998
1.099236641221374,0.7633587786259542,-1.633587786259542,-0.42919921875,0.03125,-0.284423828125,1.1644999999999999
0.9618320610687023,0.916030534351145,-1.786259541984733,-0.428466796875,0.029296875,-0.287109375,1.1662
1.0687022900763359,0.6870229007633588,-1.6641221374045803,-0.4267578125,0.032470703125,-0.29248046875,1.1679
0.9770992366412213,0.8091603053435115,-1.618320610687023,-0.424560546875,0.026611328125,-0.28662109375,1.1696
1.1450381679389312,0.8854961832061069,-1.465648854961832,-0.42724609375,0.03076171875,-0.290771484375,1.1713
1.0534351145038168,0.8396946564885496,-1.7251908396946565,-0.426513671875,0.032958984375,-0.2880859375,1.173
1.1755725190839694,0.6259541984732825,-1.9389312977099236,-0.427001953125,0.031494140625,-0.28662109375,1.1746999999999999
1.0381679389312977,0.9618320610687023,-1.7099236641221374,-0.428466796875,0.02685546875,-0.287109375,1.1764
1.1603053435114503,0.9618320610687023,-1.7709923664122138,-0.42431640625,0.031494140625,-0.2900390625,1.1781
1.0229007633587786,0.9465648854961832,-1.6488549618320612,-0.424560546875,0.03125,-0.28662109375,1.1798
1.1450381679389312,1.1908396946564885,-1.786259541984733,-0.426025390625,0.032958984375,-0.283935546875,1.1815
1.083969465648855,0.9465648854961832,-1.5419847328244274,-0.425048828125,0.029541015625,-0.289306640625,1.1832
1.1145038167938932,1.0381679389312977,-1.6793893129770991,-0.4287109375,0.02978515625,-0.287109375,1.1848999999999998
1.1755725190839694,1.0229007633587786,-1.5877862595419847,-0.425048828125,0.031982421875,-0.287841796875,1.1865999999999999
1.1755725190839694,1.083969465648855,-1.7557251908396947,-0.42333984375,0.032470703125,-0.287109375,1.1883
1.1145038167938932,0.9923664122137404,-1.4961832061068703,-0.4287109375,0.032470703125,-0.289794921875,1.19
1.4351145038167938,1.251908396946565,-1.5267175572519085,-0.42822265625,0.032470703125,-0.281005859375,1.1917
1.251908396946565,1.3740458015267176,-1.633587786259542,-0.421630859375,0.031005859375,-0.283203125,1.1934
1.0534351145038168,1.297709923664122,-1.5267175572519085,-0.4287109375,0.02978515625,-0.2841796875,1.1950999999999998
1.0076335877862594,1.465648854961832,-1.450381679389313,-0.43115234375,0.0283203125,-0.2880859375,1.1967999999999999
1.5572519083969465,1.099236641221374,-1.7709923664122138,-0.426025390625,0.0302734375,-0.29541015625,1.1985
1.3587786259541985,1.4961832061068703,-1.6030534351145038,-0.427734375,0.030517578125,-0.284912109375,1.2002
1.297709923664122,1.5572519083969465,-1.7557251908396947,-0.43212890625,0.033935546875,-0.287353515625,1.2019
1.3587786259541985,1.6946564885496183,-1.4351145038167938,-0.42724609375,0.028076171875,-0.294189453125,1.2036
1.251908396946565,1.633587786259542,-1.6641221374045803,-0.427490234375,0.033203125,-0.297119140625,1.2053
1.1297709923664123,1.6030534351145038,-1.5572519083969465,-0.42431640625,0.031494140625,-0.295166015625,1.2069999999999999
1.1755725190839694,1.618320610687023,-1.8015267175572518,-0.423828125,0.02978515625,-0.285888671875,1.2086999999999999
1.297709923664122,1.618320610687023,-1.8778625954198473,-0.429931640625,0.0263671875,-0.28515625,1.2104
1.297709923664122,1.5419847328244274,-1.7557251908396947,-0.4287109375,0.0302734375,-0.28369140625,1.2121
1.4351145038167938,1.6488549618320612,-1.7709923664122138,-0.426513671875,0.031005859375,-0.284912109375,1.2138
1.4045801526717556,1.83206106870229,-1.8778625954198473,-0.43310546875,0.03369140625,-0.2861328125,1.2155
1.3129770992366412,1.6793893129770991,-1.6946564885496183,-0.43212890625,0.029541015625,-0.28857421875,1.2171999999999998
1.3740458015267176,1.816793893129771,-1.8778625954198473,-0.427978515625,0.032958984375,-0.28759765625,1.2188999999999999
1.3435114503816794,1.7557251908396947,-1.8931297709923665,-0.427978515625,0.034423828125,-0.293212890625,1.2206
1.3587786259541985,1.7099236641221374,-1.83206106870229,-0.422119140625,0.03564453125,-0.29443359375,1.2223
1.5725190839694656,1.6030534351145038,-1.7099236641221374,-0.425048828125,0.0400390625,-0.290283203125,1.224
1.6030534351145038,1.6946564885496183,-1.9083969465648856,-0.427734375,0.0302734375,-0.2861328125,1.2257
1.7404580152671756,1.633587786259542,-2.0763358778625953,-0.426025390625,0.031494140625,-0.284912109375,1.2273999999999998
1.6488549618320612,1.7709923664122138,-2.0763358778625953,-0.427978515625,0.03125,-0.283447265625,1.2290999999999999
1.6641221374045803,1.5725190839694656,-1.9083969465648856,-0.423828125,0.031494140625,-0.28173828125,1.2308
1.6946564885496183,1.450381679389313,-2.1374045801526718,-0.425048828125,0.0302734375,-0.286865234375,1.2325
1.6946564885496183,1.5725190839694656,-1.9694656488549618,-0.42822265625,0.0322265625,-0.291748046875,1.2342
2.030534351145038,1.4961832061068703,-2.2900763358778624,-0.422119140625,0.032958984375,-0.298095703125,1.2359
2.015267175572519,1.5725190839694656,-2.1068702290076335,-0.42919921875,0.02880859375,-0.28662109375,1.2376
1.984732824427481,1.297709923664122,-2.045801526717557,-0.42626953125,0.031005859375,-0.28466796875,1.2392999999999998
2.015267175572519,1.2061068702290076,-2.183206106870229,-0.42578125,0.030029296875,-0.29052734375,1.2409999999999999
1.7404580152671756,1.1450381679389312,-2.1526717557251906,-0.42431640625,0.033447265625,-0.28662109375,1.2427
2.213740458015267,1.1755725190839694,-1.8625954198473282,-0.425048828125,0.030517578125,-0.2939453125,1.2444
1.9083969465648856,1.0534351145038168,-1.9541984732824427,-0.425537109375,0.03076171875,-0.296142578125,1.2461
1.8778625954198473,0.916030534351145,-2.030534351145038,-0.426513671875,0.02880859375,-0.29052734375,1.2478
2.2290076335877864,0.7022900763358778,-2.183206106870229,-0.423583984375,0.031005859375,-0.291748046875,1.2494999999999998
2.2595419847328246,0.5954198473282443,-2.030534351145038,-0.4267578125,0.02978515625,-0.281005859375,1.2511999999999999
2.2442748091603053,0.6870229007633588,-1.9541984732824427,-0.428466796875,0.03173828125,-0.278564453125,1.2529
2.1526717557251906,0.5038167938931297,-1.8931297709923665,-0.426513671875,0.03466796875,-0.28857421875,1.2546
2.2900763358778624,0.3969465648854962,-1.8625954198473282,-0.42138671875,0.029541015625,-0.29345703125,1.2563
2.122137404580153,0.4122137404580153,-2.0610687022900764,-0.427978515625,0.027587890625,-0.295654296875,1.258
2.366412213740458,0.366412213740458,-2.1068702290076335,-0.426513671875,0.031005859375,-0.28564453125,1.2596999999999998
2.2900763358778624,0.0916030534351145,-1.9389312977099236,-0.427734375,0.0302734375,-0.2890625,1.2613999999999999
2.213740458015267,0.07633587786259542,-2.0916030534351147,-0.427490234375,0.0302734375,-0.29052734375,1.2631
2.351145038167939,0.2748091603053435,-2.0610687022900764,-0.427734375,0.02880859375,-0.29052734375,1.2648
2.16793893129771,0.030534351145038167,-2.030534351145038,-0.424560546875,0.030029296875,-0.2939453125,1.2665
2.3969465648854964,0.0916030534351145,-1.7557251908396947,-0.427490234375,0.032470703125,-0.29541015625,1.2682
2.4885496183206106,-0.015267175572519083,-2.122137404580153,-0.427978515625,0.030517578125,-0.294189453125,1.2699
2.2595419847328246,0.0,-1.9083969465648856,-0.428466796875,0.027587890625,-0.289794921875,1.2715999999999998
2.4732824427480917,0.15267175572519084,-2.1068702290076335,-0.427001953125,0.024169921875,-0.28564453125,1.2732999999999999
2.2595419847328246,-0.0916030534351145,-2.1374045801526718,-0.4296875,0.03125,-0.28759765625,1.275
2.198473282442748,-0.0916030534351145,-2.16793893129771,-0.42822265625,0.032958984375,-0.29443359375,1.2767
2.381679389312977,-0.1984732824427481,-1.9694656488549618,-0.4306640625,0.02734375,-0.289306640625,1.2784
2.33587786259542,-0.1984732824427481,-2.16793893129771,-0.427490234375,0.025146484375,-0.288330078125,1.2801
2.213740458015267,-0.21374045801526717,-2.1526717557251906,-0.42529296875,0.029052734375,-0.284912109375,1.2817999999999998
2.3206106870229006,-0.061068702290076333,-2.045801526717557,-0.42236328125,0.02978515625,-0.28369140625,1.2834999999999999
2.564885496183206,-0.2748091603053435,-2.1068702290076335,-0.426025390625,0.030517578125,-0.285888671875,1.2852
2.50381679389313,-0.33587786259541985,-2.0763358778625953,-0.426513671875,0.025146484375,-0.28076171875,1.2869
2.519083969465649,-0.4580152671755725,-2.0763358778625953,-0.42431640625,0.025634765625,-0.2841796875,1.2886
2.2595419847328246,-0.42748091603053434,-2.198473282442748,-0.427490234375,0.031494140625,-0.2890625,1.2903
2.427480916030534,-0.2748091603053435,-2.1068702290076335,-0.431884765625,0.02880859375,-0.291259765625,1.292
2.5343511450381677,-0.22900763358778625,-2.213740458015267,-0.429443359375,0.02734375,-0.287353515625,1.2936999999999999
2.5801526717557253,-0.21374045801526717,-2.0610687022900764,-0.429443359375,0.0283203125,-0.27880859375,1.2953999999999999
2.4732824427480917,-0.22900763358778625,-2.122137404580153,-0.427490234375,0.023681640625,-0.285400390625,1.2971
2.6564885496183206,-0.22900763358778625,-2.183206106870229,-0.433837890625,0.0244140625,-0.281005859375,1.2988
2.732824427480916,-0.07633587786259542,-2.1526717557251906,-0.427001953125,0.031005859375,-0.286865234375,1.3005
2.6564885496183206,-0.061068702290076333,-2.2900763358778624,-0.429443359375,0.027099609375,-0.28271484375,1.3022
2.732824427480916,-0.13740458015267176,-2.213740458015267,-0.427001953125,0.03271484375,-0.2919921875,1.3038999999999998
3.0381679389312977,-0.13740458015267176,-2.0916030534351147,-0.42431640625,0.031005859375,-0.27978515625,1.3055999999999999
3.0229007633587788,-0.13740458015267176,-2.1526717557251906,-0.427978515625,0.0263671875,-0.280029296875,1.3073
2.9160305343511452,-0.030534351145038167,-2.381679389312977,-0.42724609375,0.02294921875,-0.28564453125,1.309
2.9618320610687023,0.0,-2.366412213740458,-0.42236328125,0.0283203125,-0.281494140625,1.3107
2.8396946564885495,0.061068702290076333,-2.3053435114503817,-0.429443359375,0.029052734375,-0.27978515625,1.3124
3.145038167938931,-0.10687022900763359,-2.427480916030534,-0.43017578125,0.021240234375,-0.283935546875,1.3140999999999998
2.9770992366412212,-0.16793893129770993,-2.198473282442748,-0.4296875,0.02783203125,-0.284423828125,1.3157999999999999
3.3435114503816794,-0.22900763358778625,-2.6106870229007635,-0.434814453125,0.033935546875,-0.27587890625,1.3175
3.2061068702290076,-0.0916030534351145,-2.4427480916030535,-0.42919921875,0.02880859375,-0.2822265625,1.3192
3.3740458015267176,-0.33587786259541985,-2.4427480916030535,-0.432373046875,0.03125,-0.284423828125,1.3209
3.2519083969465647,-0.549618320610687,-2.381679389312977,-0.43115234375,0.0234375,-0.283447265625,1.3226
3.1603053435114505,-0.22900763358778625,-2.5343511450381677,-0.43310546875,0.023193359375,-0.28173828125,1.3243
3.3282442748091605,0.015267175572519083,-2.351145038167939,-0.429931640625,0.0263671875,-0.281494140625,1.3259999999999998
3.435114503816794,-0.366412213740458,-2.4427480916030535,-0.433837890625,0.026611328125,-0.29052734375,1.3276999999999999
3.404580152671756,-0.22900763358778625,-2.351145038167939,-0.432373046875,0.024169921875,-0.28076171875,1.3294
3.2213740458015265,-0.07633587786259542,-2.2595419847328246,-0.433349609375,0.026123046875,-0.28759765625,1.3311
3.145038167938931,-0.183206106870229,-2.519083969465649,-0.435302734375,0.02294921875,-0.291015625,1.3328
3.236641221374046,-0.1984732824427481,-2.519083969465649,-0.435302734375,0.025146484375,-0.282470703125,1.3345
3.3435114503816794,-0.1984732824427481,-2.2595419847328246,-0.43017578125,0.02978515625,-0.286865234375,1.3361999999999998
3.435114503816794,0.0,-2.366412213740458,-0.436279296875,0.027099609375,-0.28759765625,1.3378999999999999
3.0839694656488548,0.2900763358778626,-2.213740458015267,-0.4306640625,0.02978515625,-0.28515625,1.3396
3.3740458015267176,0.24427480916030533,-2.33587786259542,-0.4306640625,0.025390625,-0.283935546875,1.3413
3.2977099236641223,0.549618320610687,-2.366412213740458,-0.432373046875,0.028076171875,-0.285888671875,1.343
3.282442748091603,0.4580152671755725,-2.2442748091603053,-0.430419921875,0.0234375,-0.28955078125,1.3447
3.145038167938931,0.48854961832061067,-2.2442748091603053,-0.43701171875,0.0263671875,-0.2841796875,1.3463999999999998
3.0229007633587788,0.5801526717557252,-2.16793893129771,-0.4296875,0.02978515625,-0.28515625,1.3480999999999999
3.404580152671756,0.5801526717557252,-2.213740458015267,-0.432861328125,0.02197265625,-0.287841796875,1.3497999999999999
3.2061068702290076,0.732824427480916,-2.198473282442748,-0.4306640625,0.0263671875,-0.288818359375,1.3515
3.1908396946564888,0.6717557251908397,-2.122137404580153,-0.430908203125,0.02587890625,-0.28076171875,1.3532
3.145038167938931,0.5343511450381679,-2.16793893129771,-0.433837890625,0.028076171875,-0.27490234375,1.3549
3.1603053435114505,0.7633587786259542,-2.1374045801526718,-0.43017578125,0.026611328125,-0.2890625,1.3566
3.4198473282442747,0.8091603053435115,-2.030534351145038,-0.430419921875,0.02392578125,-0.28662109375,1.3582999999999998
3.435114503816794,0.9923664122137404,-2.0763358778625953,-0.433349609375,0.025390625,-0.28271484375,1.3599999999999999
3.282442748091603,0.9923664122137404,-2.0763358778625953,-0.431640625,0.028076171875,-0.278076171875,1.3617
3.4198473282442747,1.2061068702290076,-2.183206106870229,-0.434814453125,0.02880859375,-0.279296875,1.3634
3.5419847328244276,1.083969465648855,-2.16793893129771,-0.435546875,0.02490234375,-0.285888671875,1.3651
3.3282442748091605,1.2671755725190839,-2.0916030534351147,-0.435791015625,0.02587890625,-0.2900390625,1.3668
3.3893129770992365,1.2061068702290076,-2.16793893129771,-0.4306640625,0.02587890625,-0.286865234375,1.3684999999999998
3.3435114503816794,1.1755725190839694,-2.0763358778625953,-0.427978515625,0.03271484375,-0.28857421875,1.3701999999999999
3.236641221374046,1.2671755725190839,-1.9389312977099236,-0.427734375,0.02294921875,-0.289306640625,1.3719
3.404580152671756,1.251908396946565,-2.1374045801526718,-0.43115234375,0.02978515625,-0.2822265625,1.3736
3.4198473282442747,1.5419847328244274,-2.030534351145038,-0.432373046875,0.026611328125,-0.284423828125,1.3753
3.5114503816793894,1.4961832061068703,-2.030534351145038,-0.431640625,0.0224609375,-0.2939453125,1.377
3.5572519083969465,1.4809160305343512,-2.1526717557251906,-0.432373046875,0.0283203125,-0.29248046875,1.3786999999999998
3.3740458015267176,1.450381679389313,-2.213740458015267,-0.425537109375,0.026611328125,-0.29248046875,1.3803999999999998
3.282442748091603,1.297709923664122,-2.1526717557251906,-0.429931640625,0.022705078125,-0.28759765625,1.3820999999999999
3.5114503816793894,1.465648854961832,-2.351145038167939,-0.429931640625,0.0244140625,-0.280029296875,1.3838
3.49618320610687,1.5267175572519085,-2.198473282442748,-0.4296875,0.025634765625,-0.284423828125,1.3855
3.49618320610687,1.4961832061068703,-2.2595419847328246,-0.43359375,0.02294921875,-0.280029296875,1.3872
3.6030534351145036,1.6641221374045803,-2.213740458015267,-0.4267578125,0.027099609375,-0.2880859375,1.3889
3.49618320610687,1.618320610687023,-2.3969465648854964,-0.43017578125,0.028076171875,-0.276611328125,1.3905999999999998
3.66412213740458,1.5877862595419847,-2.122137404580153,-0.42578125,0.023681640625,-0.28857421875,1.3922999999999999
3.9083969465648853,1.6793893129770991,-2.2900763358778624,-0.423828125,0.02197265625,-0.280029296875,1.394
3.7404580152671754,1.7557251908396947,-2.2900763358778624,-0.42822265625,0.01806640625,-0.285400390625,1.3957
3.572519083969466,1.4809160305343512,-2.3053435114503817,-0.43212890625,0.018310546875,-0.285888671875,1.3974
3.7251908396946565,1.786259541984733,-2.16793893129771,-0.429443359375,0.0185546875,-0.283447265625,1.3991
3.6030534351145036,1.6488549618320612,-2.366412213740458,-0.4306640625,0.021728515625,-0.28173828125,1.4007999999999998
3.633587786259542,1.465648854961832,-2.198473282442748,-0.429931640625,0.02197265625,-0.286376953125,1.4024999999999999
3.312977099236641,1.6488549618320612,-2.2748091603053435,-0.42529296875,0.023193359375,-0.288330078125,1.4042
3.6946564885496183,1.6488549618320612,-2.122137404580153,-0.42578125,0.019287109375,-0.291748046875,1.4059
3.5267175572519083,1.5267175572519085,-2.16793893129771,-0.428466796875,0.0244140625,-0.281494140625,1.4076
3.5114503816793894,1.3282442748091603,-2.0610687022900764,-0.429443359375,0.019775390625,-0.28759765625,1.4093
3.312977099236641,1.633587786259542,-2.0,-0.429443359375,0.019287109375,-0.297607421875,1.411
3.435114503816794,1.7251908396946565,-2.0,-0.424560546875,0.021484375,-0.28955078125,1.4126999999999998
3.3893129770992365,1.4809160305343512,-1.8931297709923665,-0.4287109375,0.022705078125,-0.28857421875,1.4143999999999999
3.435114503816794,1.5114503816793894,-1.83206106870229,-0.426513671875,0.021728515625,-0.287841796875,1.4161
3.5267175572519083,1.4809160305343512,-2.122137404580153,-0.43359375,0.019287109375,-0.286376953125,1.4178
3.3282442748091605,1.7099236641221374,-2.030534351145038,-0.43017578125,0.018310546875,-0.287109375,1.4195
3.114503816793893,1.5114503816793894,-1.8931297709923665,-0.432373046875,0.016845703125,-0.28857421875,1.4212
3.1603053435114505,1.4809160305343512,-1.8625954198473282,-0.42578125,0.02001953125,-0.292724609375,1.4228999999999998
3.4198473282442747,1.465648854961832,-2.1068702290076335,-0.431884765625,0.016845703125,-0.289306640625,1.4245999999999999
3.068702290076336,1.4351145038167938,-1.83206106870229,-0.43017578125,0.021484375,-0.29248046875,1.4263
3.1908396946564888,1.450381679389313,-1.8473282442748091,-0.42138671875,0.02099609375,-0.288330078125,1.428
3.0229007633587788,1.450381679389313,-1.8473282442748091,-0.427001953125,0.02001953125,-0.28759765625,1.4297
3.145038167938931,1.3282442748091603,-1.6793893129770991,-0.423828125,0.02197265625,-0.291015625,1.4314
3.1908396946564888,1.2671755725190839,-1.5877862595419847,-0.429443359375,0.021240234375,-0.28662109375,1.4330999999999998
2.931297709923664,1.3587786259541985,-1.7709923664122138,-0.42578125,0.021240234375,-0.28564453125,1.4347999999999999
2.6412213740458017,1.2061068702290076,-1.6488549618320612,-0.42529296875,0.0224609375,-0.290283203125,1.4364999999999999
2.7938931297709924,0.9770992366412213,-1.5419847328244274,-0.4248046875,0.02099609375,-0.2890625,1.4382
2.8702290076335877,1.1145038167938932,-1.5877862595419847,-0.42822265625,0.0244140625,-0.290771484375,1.4399
2.946564885496183,1.3129770992366412,-1.7099236641221374,-0.426025390625,0.0205078125,-0.289794921875,1.4416
2.8396946564885495,1.2061068702290076,-1.5725190839694656,-0.427734375,0.0205078125,-0.285400390625,1.4433
2.717557251908397,0.9312977099236641,-1.6488549618320612,-0.428955078125,0.0185546875,-0.28466796875,1.4449999999999998
2.6564885496183206,1.0687022900763359,-1.3893129770992367,-0.4306640625,0.020751953125,-0.28515625,1.4466999999999999
2.7480916030534353,1.3893129770992367,-1.8473282442748091,-0.425048828125,0.021240234375,-0.293701171875,1.4484
2.4885496183206106,1.297709923664122,-1.5572519083969465,-0.423583984375,0.022216796875,-0.285400390625,1.4501
2.519083969465649,1.099236641221374,-1.6641221374045803,-0.427490234375,0.02490234375,-0.292236328125,1.4518
2.717557251908397,1.0534351145038168,-1.6030534351145038,-0.42578125,0.0205078125,-0.29443359375,1.4535
2.7480916030534353,1.0229007633587786,-1.7251908396946565,-0.42236328125,0.0224609375,-0.2919921875,1.4551999999999998
2.6259541984732824,0.6564885496183206,-1.5267175572519085,-0.42724609375,0.019775390625,-0.291259765625,1.4568999999999999
2.732824427480916,0.6259541984732825,-1.618320610687023,-0.4208984375,0.022705078125,-0.294189453125,1.4586
2.8396946564885495,0.6870229007633588,-1.4961832061068703,-0.42138671875,0.0234375,-0.285400390625,1.4603
2.7786259541984735,0.5801526717557252,-1.5114503816793894,-0.423583984375,0.022216796875,-0.2900390625,1.462
2.8091603053435112,0.3511450381679389,-1.4351145038167938,-0.4296875,0.020751953125,-0.29296875,1.4637
2.9160305343511452,0.22900763358778625,-1.4961832061068703,-0.427490234375,0.021484375,-0.293701171875,1.4653999999999998
2.854961832061069,0.13740458015267176,-1.4198473282442747,-0.426513671875,0.0205078125,-0.29150390625,1.4670999999999998
2.900763358778626,0.3053435114503817,-1.618320610687023,-0.42919921875,0.026123046875,-0.28173828125,1.4687999999999999
2.7480916030534353,0.21374045801526717,-1.4198473282442747,-0.431884765625,0.025146484375,-0.28759765625,1.4705
2.6564885496183206,0.33587786259541985,-1.3587786259541985,-0.4267578125,0.022216796875,-0.292236328125,1.4722
2.717557251908397,0.1984732824427481,-1.3740458015267176,-0.427734375,0.020263671875,-0.290771484375,1.4739
2.7938931297709924,0.2900763358778626,-1.5114503816793894,-0.434326171875,0.0185546875,-0.291748046875,1.4756
2.7022900763358777,0.3816793893129771,-1.3129770992366412,-0.43017578125,0.01953125,-0.29052734375,1.4772999999999998
2.7480916030534353,0.366412213740458,-1.633587786259542,-0.42578125,0.020263671875,-0.292724609375,1.4789999999999999
2.5343511450381677,0.22900763358778625,-1.4045801526717556,-0.427734375,0.0185546875,-0.2958984375,1.4807
2.564885496183206,0.32061068702290074,-1.4045801526717556,-0.429443359375,0.0224609375,-0.294677734375,1.4824
2.732824427480916,0.42748091603053434,-1.3129770992366412,-0.427001953125,0.019775390625,-0.293212890625,1.4841
2.8396946564885495,0.22900763358778625,-1.2671755725190839,-0.43115234375,0.017822265625,-0.2880859375,1.4858
2.4885496183206106,0.24427480916030533,-1.1603053435114503,-0.427490234375,0.015380859375,-0.28271484375,1.4874999999999998
2.4732824427480917,0.3511450381679389,-1.3435114503816794,-0.42529296875,0.01806640625,-0.28759765625,1.4891999999999999
2.4732824427480917,0.2595419847328244,-1.297709923664122,-0.42822265625,0.020263671875,-0.29052734375,1.4909
2.3206106870229006,0.2900763358778626,-1.1450381679389312,-0.422607421875,0.01708984375,-0.287109375,1.4926
2.2595419847328246,0.16793893129770993,-1.0687022900763359,-0.421630859375,0.0185546875,-0.287109375,1.4943
2.50381679389313,0.12213740458015267,-1.0229007633587786,-0.431884765625,0.02001953125,-0.288330078125,1.496
2.2290076335877864,0.15267175572519084,-1.1755725190839694,-0.427490234375,0.020263671875,-0.28515625,1.4976999999999998
2.33587786259542,0.21374045801526717,-1.0076335877862594,-0.43212890625,0.020263671875,-0.2890625,1.4993999999999998
2.015267175572519,0.21374045801526717,-1.099236641221374,-0.42822265625,0.019287109375,-0.28271484375,1.5010999999999999
1.8931297709923665,0.0916030534351145,-1.2061068702290076,-0.42578125,0.0234375,-0.298583984375,1.5028
2.0,-0.12213740458015267,-0.9923664122137404,-0.42333984375,0.019775390625,-0.29541015625,1.5045
2.2595419847328246,0.183206106870229,-1.1755725190839694,-0.428955078125,0.02001953125,-0.284912109375,1.5062
1.8778625954198473,0.22900763358778625,-0.8854961832061069,-0.4296875,0.017822265625,-0.29443359375,1.5079
2.0,0.16793893129770993,-0.8549618320610687,-0.43212890625,0.01953125,-0.28857421875,1.5095999999999998
1.9083969465648856,0.07633587786259542,-0.8549618320610687,-0.425537109375,0.02001953125,-0.290771484375,1.5112999999999999
2.0763358778625953,0.12213740458015267,-1.1755725190839694,-0.4296875,0.022216796875,-0.289794921875,1.513
1.9389312977099236,0.030534351145038167,-1.0687022900763359,-0.427001953125,0.016845703125,-0.283203125,1.5147
2.030534351145038,0.10687022900763359,-1.099236641221374,-0.4287109375,0.019287109375,-0.294921875,1.5164
1.9541984732824427,0.32061068702290074,-1.083969465648855,-0.427978515625,0.02294921875,-0.28271484375,1.5181
1.8931297709923665,0.15267175572519084,-1.0534351145038168,-0.426513671875,0.0205078125,-0.28271484375,1.5197999999999998
1.9694656488549618,0.24427480916030533,-0.9618320610687023,-0.429443359375,0.020263671875,-0.291259765625,1.5214999999999999
1.9083969465648856,0.3053435114503817,-1.1908396946564885,-0.428955078125,0.018798828125,-0.291748046875,1.5231999999999999
1.7404580152671756,0.2748091603053435,-0.9618320610687023,-0.431396484375,0.0244140625,-0.281982421875,1.5249
1.7709923664122138,0.32061068702290074,-0.8396946564885496,-0.426025390625,0.022705078125,-0.28515625,1.5266
1.83206106870229,0.33587786259541985,-0.9312977099236641,-0.42529296875,0.0234375,-0.286376953125,1.5283
1.7709923664122138,0.3969465648854962,-1.0229007633587786,-0.42529296875,0.017822265625,-0.288818359375,1.5299999999999998
1.5114503816793894,0.22900763358778625,-1.0687022900763359,-0.429931640625,0.021484375,-0.28515625,1.5316999999999998
1.618320610687023,0.22900763358778625,-1.1450381679389312,-0.423828125,0.0166015625,-0.291259765625,1.5333999999999999
1.5572519083969465,0.22900763358778625,-0.916030534351145,-0.43505859375,0.017333984375,-0.293701171875,1.5351
1.6488549618320612,0.2595419847328244,-1.0076335877862594,-0.4384765625,0.016845703125,-0.292236328125,1.5368
1.5267175572519085,0.22900763358778625,-0.9618320610687023,-0.428466796875,0.01611328125,-0.292236328125,1.5385
1.465648854961832,0.24427480916030533,-1.1908396946564885,-0.431884765625,0.017578125,-0.28271484375,1.5402
1.5114503816793894,0.24427480916030533,-1.083969465648855,-0.429443359375,0.019287109375,-0.283447265625,1.5418999999999998
1.5114503816793894,0.4580152671755725,-1.1145038167938932,-0.43017578125,0.01953125,-0.28271484375,1.5435999999999999
1.5267175572519085,0.16793893129770993,-1.0534351145038168,-0.43505859375,0.01806640625,-0.289794921875,1.5453
1.633587786259542,0.2748091603053435,-1.1450381679389312,-0.43310546875,0.0205078125,-0.289794921875,1.547
1.4809160305343512,0.04580152671755725,-1.2366412213740459,-0.431396484375,0.0234375,-0.287841796875,1.5487
1.4045801526717556,0.2595419847328244,-1.2061068702290076,-0.43017578125,0.022705078125,-0.28564453125,1.5504
1.450381679389313,0.3969465648854962,-0.9312977099236641,-0.43310546875,0.02294921875,-0.284912109375,1.5520999999999998
1.3587786259541985,0.2595419847328244,-1.1450381679389312,-0.429443359375,0.021484375,-0.28662109375,1.5537999999999998
1.1450381679389312,0.2748091603053435,-1.2213740458015268,-0.42919921875,0.021728515625,-0.2802734375,1.5554999999999999
1.6793893129770991,0.42748091603053434,-1.3435114503816794,-0.42822265625,0.02001953125,-0.282958984375,1.5572
1.5877862595419847,0.4580152671755725,-1.1450381679389312,-0.43408203125,0.022705078125,-0.286376953125,1.5589
1.450381679389313,0.5190839694656488,-1.297709923664122,-0.435302734375,0.021484375,-0.288818359375,1.5606
1.251908396946565,0.6870229007633588,-1.251908396946565,-0.437744140625,0.017578125,-0.287109375,1.5623
1.4198473282442747,0.6412213740458015,-1.3587786259541985,-0.431396484375,0.022216796875,-0.284912109375,1.5639999999999998
1.3893129770992367,0.7786259541984732,-1.2061068702290076,-0.431396484375,0.01904296875,-0.281494140625,1.5656999999999999
1.4809160305343512,0.9312977099236641,-1.1908396946564885,-0.4326171875,0.02392578125,-0.28173828125,1.5674
1.3282442748091603,0.9465648854961832,-1.251908396946565,-0.435302734375,0.015625,-0.2900390625,1.5691
1.3435114503816794,0.9923664122137404,-1.4198473282442747,-0.4365234375,0.017578125,-0.289306640625,1.5708
1.0534351145038168,0.9465648854961832,-1.3129770992366412,-0.43212890625,0.01708984375,-0.281982421875,1.5725
1.297709923664122,1.0381679389312977,-1.2061068702290076,-0.432373046875,0.020263671875,-0.29052734375,1.5741999999999998
1.1755725190839694,1.1908396946564885,-1.3282442748091603,-0.432373046875,0.023681640625,-0.29052734375,1.5758999999999999
1.2213740458015268,1.2213740458015268,-1.3740458015267176,-0.435302734375,0.02197265625,-0.281982421875,1.5776
1.0229007633587786,1.1603053435114503,-1.5419847328244274,-0.4365234375,0.019287109375,-0.283447265625,1.5793
1.282442748091603,1.2671755725190839,-1.282442748091603,-0.435302734375,0.027099609375,-0.28076171875,1.581
0.9770992366412213,1.2671755725190839,-1.5114503816793894,-0.43798828125,0.022216796875,-0.2783203125,1.5827
1.0229007633587786,1.1603053435114503,-1.5572519083969465,-0.430419921875,0.024169921875,-0.278076171875,1.5843999999999998
1.099236641221374,1.3129770992366412,-1.3740458015267176,-0.429443359375,0.02001953125,-0.291748046875,1.5860999999999998
1.1145038167938932,1.3435114503816794,-1.3893129770992367,-0.43017578125,0.02001953125,-0.288330078125,1.5877999999999999
1.1603053435114503,1.5114503816793894,-1.4045801526717556,-0.43115234375,0.0205078125,-0.27734375,1.5895
1.1450381679389312,1.465648854961832,-1.3587786259541985,-0.433837890625,0.023681640625,-0.28662109375,1.5912
0.8549618320610687,1.5877862595419847,-1.4198473282442747,-0.43603515625,0.022705078125,-0.284423828125,1.5929
1.0534351145038168,1.5419847328244274,-1.6641221374045803,-0.433349609375,0.021484375,-0.285400390625,1.5946
1.0381679389312977,1.618320610687023,-1.5267175572519085,-0.42919921875,0.022216796875,-0.28662109375,1.5962999999999998
1.083969465648855,1.5114503816793894,-1.5725190839694656,-0.42724609375,0.025390625,-0.29052734375,1.5979999999999999
1.1450381679389312,1.7099236641221374,-1.618320610687023,-0.427978515625,0.024169921875,-0.283935546875,1.5997
1.0381679389312977,1.6641221374045803,-1.5877862595419847,-0.43505859375,0.021728515625,-0.285400390625,1.6014
1.282442748091603,1.618320610687023,-1.5572519083969465,-0.427734375,0.024658203125,-0.283203125,1.6031
1.2061068702290076,1.4961832061068703,-1.5114503816793894,-0.430908203125,0.026123046875,-0.273193359375,1.6048
1.0229007633587786,1.618320610687023,-1.5419847328244274,-0.427734375,0.021240234375,-0.279052734375,1.6064999999999998
1.0229007633587786,1.7099236641221374,-1.4045801526717556,-0.42822265625,0.0205078125,-0.27734375,1.6081999999999999
1.1450381679389312,1.7099236641221374,-1.5419847328244274,-0.427734375,0.025146484375,-0.2861328125,1.6098999999999999
1.0534351145038168,1.7557251908396947,-1.5725190839694656,-0.43017578125,0.0244140625,-0.273681640625,1.6116
1.3282442748091603,1.7557251908396947,-1.5114503816793894,-0.439208984375,0.02490234375,-0.2783203125,1.6133
1.2213740458015268,2.030534351145038,-1.6641221374045803,-0.436767578125,0.02001953125,-0.287353515625,1.615
1.1450381679389312,2.045801526717557,-1.6030534351145038,-0.434326171875,0.02099609375,-0.28369140625,1.6166999999999998
1.1603053435114503,1.984732824427481,-1.465648854961832,-0.429931640625,0.028076171875,-0.2919921875,1.6183999999999998
1.251908396946565,2.0763358778625953,-1.465648854961832,-0.432373046875,0.02734375,-0.28759765625,1.6200999999999999
1.251908396946565,2.0916030534351147,-1.5419847328244274,-0.43115234375,0.02587890625,-0.28173828125,1.6218
1.1755725190839694,2.1374045801526718,-1.6793893129770991,-0.42724609375,0.02734375,-0.280029296875,1.6235
1.3893129770992367,2.0,-1.6030534351145038,-0.430908203125,0.02197265625,-0.279541015625,1.6252
1.3893129770992367,2.0916030534351147,-1.4809160305343512,-0.4296875,0.021484375,-0.28662109375,1.6269
1.3282442748091603,2.122137404580153,-1.6946564885496183,-0.4296875,0.029296875,-0.29443359375,1.6285999999999998
1.450381679389313,2.0916030534351147,-1.9389312977099236,-0.4326171875,0.02197265625,-0.287109375,1.6302999999999999
1.2671755725190839,2.2290076335877864,-1.786259541984733,-0.4326171875,0.021728515625,-0.285888671875,1.632
1.450381679389313,2.2442748091603053,-1.7099236641221374,-0.432373046875,0.02197265625,-0.281494140625,1.6337
1.3282442748091603,2.213740458015267,-1.5267175572519085,-0.427734375,0.02734375,-0.284423828125,1.6354
1.2671755725190839,2.213740458015267,-1.7099236641221374,-0.42919921875,0.027099609375,-0.28466796875,1.6371
1.2366412213740459,2.2290076335877864,-1.816793893129771,-0.430908203125,0.01904296875,-0.2841796875,1.6387999999999998
1.4045801526717556,2.213740458015267,-1.8473282442748091,-0.43408203125,0.02490234375,-0.28125,1.6404999999999998
1.3435114503816794,2.213740458015267,-1.5572519083969465,-0.43017578125,0.02001953125,-0.285888671875,1.6421999999999999
1.3435114503816794,2.2748091603053435,-1.816793893129771,-0.431640625,0.02197265625,-0.28515625,1.6439
1.282442748091603,2.1526717557251906,-1.8931297709923665,-0.429443359375,0.019775390625,-0.286376953125,1.6456
1.3129770992366412,2.2900763358778624,-1.83206106870229,-0.427978515625,0.026611328125,-0.291748046875,1.6473
1.4045801526717556,2.0763358778625953,-1.5725190839694656,-0.4267578125,0.02490234375,-0.289794921875,1.6489999999999998
1.1908396946564885,2.2900763358778624,-1.7404580152671756,-0.423583984375,0.02001953125,-0.291259765625,1.6506999999999998
1.1755725190839694,2.122137404580153,-1.7099236641221374,-0.427734375,0.019287109375,-0.286865234375,1.6523999999999999
1.3587786259541985,2.2442748091603053,-1.816793893129771,-0.431396484375,0.01953125,-0.2890625,1.6541
1.2671755725190839,2.2595419847328246,-1.83206106870229,-0.428955078125,0.021728515625,-0.280029296875,1.6558
1.282442748091603,2.16793893129771,-1.8015267175572518,-0.427978515625,0.02490234375,-0.282958984375,1.6575
1.2671755725190839,2.2442748091603053,-1.4198473282442747,-0.427001953125,0.023681640625,-0.290283203125,1.6592
1.2671755725190839,2.2290076335877864,-1.7251908396946565,-0.426513671875,0.021240234375,-0.28466796875,1.6608999999999998
1.083969465648855,2.33587786259542,-1.5572519083969465,-0.428466796875,0.021728515625,-0.2880859375,1.6625999999999999
1.1450381679389312,2.122137404580153,-1.7557251908396947,-0.432373046875,0.017822265625,-0.28173828125,1.6643
1.2213740458015268,2.2442748091603053,-1.8015267175572518,-0.429443359375,0.019287109375,-0.287109375,1.666
0.9618320610687023,2.0763358778625953,-1.633587786259542,-0.427001953125,0.018310546875,-0.2890625,1.6677
1.1450381679389312,2.0610687022900764,-1.3587786259541985,-0.430419921875,0.012451171875,-0.290771484375,1.6694
1.0381679389312977,2.2595419847328246,-1.6488549618320612,-0.430908203125,0.017333984375,-0.294677734375,1.6710999999999998
0.9923664122137404,2.0,-1.5572519083969465,-0.422119140625,0.0205078125,-0.28515625,1.6727999999999998
0.8396946564885496,2.030534351145038,-1.5419847328244274,-0.42529296875,0.022216796875,-0.2880859375,1.6744999999999999
0.9770992366412213,1.9694656488549618,-1.465648854961832,-0.424560546875,0.02197265625,-0.284912109375,1.6762
1.083969465648855,1.8015267175572518,-1.633587786259542,-0.42822265625,0.019775390625,-0.28125,1.6779
0.8396946564885496,1.9389312977099236,-1.450381679389313,-0.427734375,0.02001953125,-0.290283203125,1.6796
0.7175572519083969,1.9541984732824427,-1.3587786259541985,-0.429443359375,0.023193359375,-0.28759765625,1.6813
0.6870229007633588,1.9083969465648856,-1.2061068702290076,-0.4306640625,0.01904296875,-0.27880859375,1.6829999999999998
0.8396946564885496,1.7404580152671756,-1.3740458015267176,-0.42724609375,0.020751953125,-0.29541015625,1.6846999999999999
0.8702290076335878,1.7709923664122138,-1.282442748091603,-0.427001953125,0.022216796875,-0.296875,1.6864
0.9312977099236641,1.9389312977099236,-1.450381679389313,-0.4296875,0.028076171875,-0.2900390625,1.6881
0.9007633587786259,1.7404580152671756,-1.2061068702290076,-0.4248046875,0.024169921875,-0.28759765625,1.6898
0.7175572519083969,1.7557251908396947,-1.1603053435114503,-0.419677734375,0.026123046875,-0.28466796875,1.6915
0.8091603053435115,1.7099236641221374,-1.3893129770992367,-0.42919921875,0.023193359375,-0.273681640625,1.6931999999999998
0.6870229007633588,1.633587786259542,-1.2671755725190839,-0.42919921875,0.0234375,-0.288330078125,1.6948999999999999
0.8396946564885496,1.618320610687023,-1.3587786259541985,-0.42578125,0.025146484375,-0.283935546875,1.6965999999999999
0.7938931297709924,1.6946564885496183,-1.3435114503816794,-0.4296875,0.023681640625,-0.289794921875,1.6983
0.8549618320610687,1.618320610687023,-1.1755725190839694,-0.429931640625,0.023681640625,-0.288818359375,1.7
0.7786259541984732,1.3587786259541985,-1.3129770992366412,-0.4296875,0.02490234375,-0.2822265625,1.7017
0.916030534351145,1.450381679389313,-1.3587786259541985,-0.42138671875,0.023681640625,-0.28076171875,1.7033999999999998
1.0229007633587786,1.3129770992366412,-1.3587786259541985,-0.426513671875,0.024658203125,-0.285400390625,1.7050999999999998
0.8091603053435115,1.2213740458015268,-1.282442748091603,-0.4208984375,0.023681640625,-0.283447265625,1.7067999999999999
0.7480916030534351,1.3435114503816794,-1.099236641221374,-0.428955078125,0.019287109375,-0.28955078125,1.7085
0.7480916030534351,1.0381679389312977,-1.3893129770992367,-0.430908203125,0.024169921875,-0.28759765625,1.7102
0.9770992366412213,1.2061068702290076,-1.297709923664122,-0.4208984375,0.026123046875,-0.2919921875,1.7119
1.1297709923664123,1.1145038167938932,-1.2213740458015268,-0.425048828125,0.02685546875,-0.28857421875,1.7136
0.7480916030534351,1.1603053435114503,-1.450381679389313,-0.42529296875,0.025146484375,-0.293212890625,1.7152999999999998
0.9007633587786259,1.1450381679389312,-1.3282442748091603,-0.423583984375,0.0244140625,-0.28515625,1.7169999999999999
1.1145038167938932,1.0687022900763359,-1.4961832061068703,-0.42529296875,0.023193359375,-0.298095703125,1.7187
1.0687022900763359,1.1908396946564885,-1.251908396946565,-0.423095703125,0.022705078125,-0.294677734375,1.7204
1.0534351145038168,0.9618320610687023,-1.3129770992366412,-0.422119140625,0.021484375,-0.289794921875,1.7221
0.9618320610687023,1.1297709923664123,-1.2366412213740459,-0.426513671875,0.02880859375,-0.28369140625,1.7238
1.1145038167938932,1.1450381679389312,-1.465648854961832,-0.4267578125,0.026123046875,-0.292724609375,1.7254999999999998
1.0381679389312977,0.8854961832061069,-1.450381679389313,-0.422607421875,0.0263671875,-0.284423828125,1.7271999999999998
1.2671755725190839,1.0229007633587786,-1.5267175572519085,-0.43017578125,0.023681640625,-0.284912109375,1.7288999999999999
1.1450381679389312,0.8854961832061069,-1.6030534351145038,-0.42626953125,0.023681640625,-0.296142578125,1.7306
1.1450381679389312,0.9007633587786259,-1.5267175572519085,-0.422119140625,0.026123046875,-0.289306640625,1.7323
1.4045801526717556,1.0687022900763359,-1.4351145038167938,-0.425537109375,0.02587890625,-0.28857421875,1.734
1.282442748091603,1.0229007633587786,-1.3587786259541985,-0.427001953125,0.023681640625,-0.28857421875,1.7356999999999998
1.1908396946564885,0.7633587786259542,-1.4809160305343512,-0.426513671875,0.023193359375,-0.288818359375,1.7373999999999998
1.2366412213740459,0.8091603053435115,-1.5572519083969465,-0.427978515625,0.023193359375,-0.287109375,1.7390999999999999
1.2213740458015268,0.9770992366412213,-1.3740458015267176,-0.4287109375,0.029052734375,-0.28955078125,1.7408
1.633587786259542,0.9465648854961832,-1.4809160305343512,-0.425537109375,0.028076171875,-0.284423828125,1.7425
1.5419847328244274,0.9770992366412213,-1.5725190839694656,-0.42529296875,0.023193359375,-0.28662109375,1.7442
1.3282442748091603,0.8396946564885496,-1.5419847328244274,-0.426025390625,0.023681640625,-0.284423828125,1.7459
1.099236641221374,0.8702290076335878,-1.5114503816793894,-0.42626953125,0.0283203125,-0.28271484375,1.7475999999999998
1.4045801526717556,1.0229007633587786,-1.618320610687023,-0.42578125,0.02880859375,-0.2880859375,1.7492999999999999
1.4961832061068703,0.916030534351145,-1.7099236641221374,-0.42919921875,0.02197265625,-0.281982421875,1.751
1.5419847328244274,0.549618320610687,-1.5572519083969465,-0.427734375,0.027099609375,-0.28857421875,1.7527
1.4809160305343512,0.5801526717557252,-1.5267175572519085,-0.4306640625,0.0322265625,-0.291259765625,1.7544
1.6488549618320612,0.6564885496183206,-1.6793893129770991,-0.42822265625,0.0283203125,-0.27880859375,1.7561
1.7709923664122138,0.7022900763358778,-1.7251908396946565,-0.426025390625,0.02294921875,-0.2802734375,1.7577999999999998
1.5877862595419847,0.7786259541984732,-1.5419847328244274,-0.424072265625,0.02880859375,-0.287841796875,1.7594999999999998
1.5572519083969465,0.7022900763358778,-1.6030534351145038,-0.42529296875,0.02197265625,-0.288330078125,1.7611999999999999
1.465648854961832,0.9007633587786259,-1.5267175572519085,-0.425048828125,0.0283203125,-0.293212890625,1.7629
1.4351145038167938,0.6412213740458015,-1.618320610687023,-0.427734375,0.022705078125,-0.284912109375,1.7646
1.5114503816793894,0.6412213740458015,-1.4809160305343512,-0.42822265625,0.024658203125,-0.29296875,1.7663
1.618320610687023,0.7938931297709924,-1.4351145038167938,-0.43115234375,0.021484375,-0.281005859375,1.7679999999999998
1.816793893129771,0.7786259541984732,-1.4351145038167938,-0.42578125,0.0234375,-0.2880859375,1.7696999999999998
1.633587786259542,0.5190839694656488,-1.4198473282442747,-0.429443359375,0.02294921875,-0.290283203125,1.7713999999999999
1.4809160305343512,0.5343511450381679,-1.4961832061068703,-0.42431640625,0.02685546875,-0.28369140625,1.7731
1.5877862595419847,0.732824427480916,-1.4961832061068703,-0.42822265625,0.02294921875,-0.293212890625,1.7748
1.5419847328244274,0.5801526717557252,-1.4198473282442747,-0.428466796875,0.020751953125,-0.2744140625,1.7765
1.6946564885496183,0.6412213740458015,-1.6641221374045803,-0.428955078125,0.0263671875,-0.284423828125,1.7782
1.9236641221374047,0.6106870229007634,-1.5725190839694656,-0.432373046875,0.027587890625,-0.293701171875,1.7798999999999998
1.5572519083969465,0.6412213740458015,-1.4961832061068703,-0.42529296875,0.021728515625,-0.291748046875,1.7815999999999999
1.8015267175572518,0.5801526717557252,-1.5267175572519085,-0.423583984375,0.02099609375,-0.29052734375,1.7832999999999999
1.8473282442748091,0.5190839694656488,-1.5877862595419847,-0.425537109375,0.025146484375,-0.27734375,1.785
1.8015267175572518,0.5648854961832062,-1.4961832061068703,-0.42822265625,0.0224609375,-0.286865234375,1.7867
1.816793893129771,0.5038167938931297,-1.6793893129770991,-0.43115234375,0.02001953125,-0.284423828125,1.7884
1.633587786259542,0.7786259541984732,-1.4809160305343512,-0.432373046875,0.022705078125,-0.287353515625,1.7900999999999998
1.8778625954198473,0.5801526717557252,-1.5419847328244274,-0.43017578125,0.020263671875,-0.290771484375,1.7917999999999998
2.0763358778625953,0.3053435114503817,-1.4198473282442747,-0.423095703125,0.023681640625,-0.28857421875,1.7934999999999999
1.9236641221374047,0.33587786259541985,-1.2213740458015268,-0.428466796875,0.02099609375,-0.2861328125,1.7952
1.9541984732824427,0.22900763358778625,-1.2213740458015268,-0.426025390625,0.021484375,-0.28564453125,1.7969
1.9389312977099236,0.0916030534351145,-1.4045801526717556,-0.428955078125,0.0234375,-0.283447265625,1.7986
1.7099236641221374,0.15267175572519084,-1.297709923664122,-0.428955078125,0.0224609375,-0.287109375,1.8002999999999998
1.7099236641221374,0.2748091603053435,-1.3435114503816794,-0.428955078125,0.024169921875,-0.289794921875,1.8019999999999998
1.83206106870229,0.15267175572519084,-1.4198473282442747,-0.4287109375,0.01904296875,-0.286376953125,1.8036999999999999
1.618320610687023,-0.030534351145038167,-1.3435114503816794,-0.43115234375,0.02294921875,-0.291259765625,1.8054
1.6641221374045803,0.12213740458015267,-1.297709923664122,-0.4296875,0.023193359375,-0.27490234375,1.8071
