gyrox1,gyroy1,gyroz1,accelx1,accely1,accelz1,Time
0.7480916030534351,0.8396946564885496,-1.2671755725190839,-0.455322265625,-0.062255859375,-0.24072265625,0.0
0.6564885496183206,1.083969465648855,-1.450381679389313,-0.456787109375,-0.060302734375,-0.23583984375,0.0017
0.8396946564885496,1.3282442748091603,-1.618320610687023,-0.45458984375,-0.055908203125,-0.240478515625,0.0034
0.8702290076335878,1.5572519083969465,-1.6946564885496183,-0.448974609375,-0.052490234375,-0.236572265625,0.0050999999999999995
0.7633587786259542,1.5725190839694656,-1.465648854961832,-0.451904296875,-0.05126953125,-0.230712890625,0.0068
1.1145038167938932,1.4198473282442747,-1.6641221374045803,-0.45263671875,-0.055908203125,-0.23095703125,0.008499999999999999
1.251908396946565,1.9083969465648856,-1.8015267175572518,-0.44775390625,-0.051513671875,-0.23388671875,0.010199999999999999
1.3740458015267176,2.045801526717557,-1.4351145038167938,-0.45361328125,-0.051513671875,-0.239501953125,0.011899999999999999
1.465648854961832,2.366412213740458,-1.5725190839694656,-0.45458984375,-0.047607421875,-0.230712890625,0.0136
1.6946564885496183,2.1068702290076335,-1.5877862595419847,-0.458251953125,-0.053466796875,-0.2294921875,0.0153
1.9083969465648856,2.4122137404580153,-1.6641221374045803,-0.456298828125,-0.044677734375,-0.227783203125,0.016999999999999998
1.8015267175572518,2.3206106870229006,-1.5267175572519085,-0.450927734375,-0.048828125,-0.227783203125,0.018699999999999998
1.7251908396946565,2.351145038167939,-1.7099236641221374,-0.4521484375,-0.05126953125,-0.226318359375,0.020399999999999998
1.5419847328244274,2.183206106870229,-1.6641221374045803,-0.4501953125,-0.04833984375,-0.2265625,0.022099999999999998
1.450381679389313,1.9083969465648856,-1.5114503816793894,-0.44970703125,-0.041015625,-0.236083984375,0.023799999999999998
1.4961832061068703,1.9541984732824427,-1.282442748091603,-0.454345703125,-0.05029296875,-0.22412109375,0.0255
1.5267175572519085,1.465648854961832,-1.4351145038167938,-0.4521484375,-0.047607421875,-0.221435546875,0.0272
1.4045801526717556,1.5419847328244274,-1.4351145038167938,-0.451416015625,-0.04931640625,-0.224853515625,0.0289
1.3740458015267176,1.2671755725190839,-1.4809160305343512,-0.451904296875,-0.046875,-0.22705078125,0.0306
1.4045801526717556,1.1908396946564885,-1.2061068702290076,-0.450439453125,-0.045166015625,-0.22314453125,0.032299999999999995
1.2366412213740459,1.2366412213740459,-1.4198473282442747,-0.4482421875,-0.044677734375,-0.226318359375,0.033999999999999996
1.2366412213740459,1.251908396946565,-1.0076335877862594,-0.44677734375,-0.04833984375,-0.219482421875,0.035699999999999996
1.297709923664122,1.083969465648855,-1.1450381679389312,-0.448974609375,-0.0439453125,-0.2275390625,0.037399999999999996
1.2061068702290076,1.251908396946565,-0.9007633587786259,-0.452880859375,-0.0478515625,-0.22509765625,0.039099999999999996
1.1297709923664123,1.297709923664122,-0.9770992366412213,-0.45361328125,-0.047119140625,-0.2314453125,0.040799999999999996
0.9770992366412213,1.4809160305343512,-1.0076335877862594,-0.450439453125,-0.044189453125,-0.227294921875,0.042499999999999996
1.1755725190839694,1.4961832061068703,-1.083969465648855,-0.450439453125,-0.04443359375,-0.226318359375,0.044199999999999996
1.282442748091603,1.450381679389313,-0.9007633587786259,-0.44873046875,-0.0546875,-0.226318359375,0.045899999999999996
1.0381679389312977,1.2366412213740459,-1.0381679389312977,-0.447021484375,-0.046630859375,-0.2275390625,0.047599999999999996
1.1603053435114503,1.3435114503816794,-0.7938931297709924,-0.446533203125,-0.048828125,-0.22705078125,0.0493
1.450381679389313,1.5572519083969465,-0.8244274809160306,-0.446044921875,-0.045166015625,-0.236083984375,0.051
1.5877862595419847,1.0229007633587786,-0.9618320610687023,-0.4521484375,-0.04541015625,-0.2275390625,0.0527
1.4961832061068703,0.7175572519083969,-1.0229007633587786,-0.448486328125,-0.04345703125,-0.22314453125,0.0544
2.0,0.8244274809160306,-0.8244274809160306,-0.449951171875,-0.0439453125,-0.220703125,0.0561
2.0916030534351147,0.4580152671755725,-1.1755725190839694,-0.44970703125,-0.048095703125,-0.22998046875,0.0578
2.183206106870229,0.3511450381679389,-1.1755725190839694,-0.450439453125,-0.04833984375,-0.225341796875,0.0595
2.2290076335877864,0.2748091603053435,-1.0534351145038168,-0.451171875,-0.0458984375,-0.21533203125,0.0612
2.3053435114503817,0.1984732824427481,-1.083969465648855,-0.449462890625,-0.0498046875,-0.222900390625,0.0629
2.4122137404580153,0.22900763358778625,-1.1603053435114503,-0.4501953125,-0.053955078125,-0.224609375,0.06459999999999999
2.2595419847328246,0.183206106870229,-1.297709923664122,-0.447265625,-0.048095703125,-0.225830078125,0.0663
2.2290076335877864,0.5801526717557252,-1.0381679389312977,-0.454345703125,-0.052734375,-0.232666015625,0.06799999999999999
2.045801526717557,0.7022900763358778,-0.7786259541984732,-0.454345703125,-0.054443359375,-0.2265625,0.0697
1.984732824427481,0.7938931297709924,-1.1450381679389312,-0.4560546875,-0.048828125,-0.230224609375,0.07139999999999999
1.8473282442748091,1.0229007633587786,-1.1603053435114503,-0.450927734375,-0.051513671875,-0.220947265625,0.0731
1.786259541984733,1.3587786259541985,-1.2366412213740459,-0.450439453125,-0.049560546875,-0.2255859375,0.07479999999999999
1.8015267175572518,1.8015267175572518,-1.1908396946564885,-0.449951171875,-0.05126953125,-0.232421875,0.0765
1.9694656488549618,1.8625954198473282,-1.3129770992366412,-0.45361328125,-0.056396484375,-0.2314453125,0.07819999999999999
1.8778625954198473,1.9541984732824427,-1.2061068702290076,-0.4541015625,-0.05712890625,-0.235107421875,0.0799
2.122137404580153,2.198473282442748,-1.1450381679389312,-0.45166015625,-0.0576171875,-0.231689453125,0.08159999999999999
2.2748091603053435,2.1068702290076335,-1.1908396946564885,-0.448974609375,-0.05908203125,-0.2265625,0.0833
2.4427480916030535,2.122137404580153,-1.2213740458015268,-0.453125,-0.056884765625,-0.228759765625,0.08499999999999999
2.564885496183206,2.1068702290076335,-1.2366412213740459,-0.44970703125,-0.05078125,-0.233642578125,0.0867
2.50381679389313,2.198473282442748,-1.4198473282442747,-0.447509765625,-0.05322265625,-0.230712890625,0.08839999999999999
2.4885496183206106,2.1374045801526718,-1.3435114503816794,-0.446044921875,-0.052978515625,-0.232177734375,0.0901
2.732824427480916,1.8778625954198473,-1.6488549618320612,-0.450439453125,-0.053466796875,-0.2265625,0.09179999999999999
2.7786259541984735,1.9083969465648856,-1.3129770992366412,-0.4541015625,-0.0546875,-0.2275390625,0.0935
2.6106870229007635,1.7404580152671756,-1.4351145038167938,-0.456298828125,-0.0556640625,-0.22998046875,0.09519999999999999
2.519083969465649,1.6641221374045803,-1.4045801526717556,-0.451416015625,-0.05322265625,-0.229248046875,0.0969
2.16793893129771,1.5572519083969465,-1.7251908396946565,-0.45166015625,-0.05517578125,-0.225830078125,0.0986
2.3206106870229006,1.4198473282442747,-1.5419847328244274,-0.44384765625,-0.053466796875,-0.228271484375,0.1003
2.0,1.4198473282442747,-1.633587786259542,-0.443603515625,-0.04931640625,-0.2314453125,0.102
1.7099236641221374,1.1908396946564885,-1.450381679389313,-0.447265625,-0.05810546875,-0.223876953125,0.1037
1.5267175572519085,1.0687022900763359,-1.5267175572519085,-0.451904296875,-0.058349609375,-0.231201171875,0.1054
1.2366412213740459,0.9007633587786259,-1.4961832061068703,-0.4443359375,-0.056640625,-0.232177734375,0.1071
1.4045801526717556,0.8854961832061069,-1.6488549618320612,-0.453125,-0.05859375,-0.230712890625,0.1088
1.3587786259541985,0.8854961832061069,-1.5267175572519085,-0.44775390625,-0.058837890625,-0.226318359375,0.11049999999999999
1.1603053435114503,0.7480916030534351,-1.633587786259542,-0.455322265625,-0.056884765625,-0.230224609375,0.1122
1.0687022900763359,0.5954198473282443,-1.6946564885496183,-0.44775390625,-0.05078125,-0.233642578125,0.11389999999999999
1.2366412213740459,0.7786259541984732,-1.7099236641221374,-0.453857421875,-0.054931640625,-0.23876953125,0.1156
1.2061068702290076,0.5343511450381679,-1.6946564885496183,-0.44775390625,-0.057373046875,-0.23388671875,0.11729999999999999
1.297709923664122,0.3053435114503817,-1.5725190839694656,-0.4521484375,-0.053466796875,-0.240966796875,0.119
1.2671755725190839,0.3511450381679389,-1.5725190839694656,-0.4443359375,-0.056396484375,-0.231201171875,0.12069999999999999
1.0534351145038168,0.3511450381679389,-1.6641221374045803,-0.448974609375,-0.0546875,-0.228271484375,0.1224
1.0534351145038168,0.24427480916030533,-1.3893129770992367,-0.452880859375,-0.049560546875,-0.23046875,0.12409999999999999
1.2061068702290076,0.24427480916030533,-1.5725190839694656,-0.44970703125,-0.053466796875,-0.22021484375,0.1258
1.0229007633587786,0.12213740458015267,-1.3282442748091603,-0.450439453125,-0.05029296875,-0.225341796875,0.1275
1.1908396946564885,0.030534351145038167,-1.5114503816793894,-0.452880859375,-0.05029296875,-0.231689453125,0.12919999999999998
0.8091603053435115,0.3053435114503817,-1.2366412213740459,-0.451904296875,-0.05322265625,-0.222900390625,0.1309
0.732824427480916,0.183206106870229,-1.5877862595419847,-0.451416015625,-0.051513671875,-0.22021484375,0.1326
0.549618320610687,0.2748091603053435,-1.5572519083969465,-0.44970703125,-0.048828125,-0.228515625,0.1343
0.4732824427480916,0.5801526717557252,-1.2366412213740459,-0.447021484375,-0.0458984375,-0.2265625,0.13599999999999998
0.22900763358778625,0.32061068702290074,-1.0229007633587786,-0.44970703125,-0.048583984375,-0.22900390625,0.1377
0.366412213740458,0.4580152671755725,-1.251908396946565,-0.45263671875,-0.052001953125,-0.23046875,0.1394
0.32061068702290074,0.6717557251908397,-1.1297709923664123,-0.45068359375,-0.046630859375,-0.23291015625,0.1411
0.3969465648854962,0.916030534351145,-1.1145038167938932,-0.453125,-0.04296875,-0.231689453125,0.14279999999999998
0.33587786259541985,0.8396946564885496,-1.1145038167938932,-0.44873046875,-0.0498046875,-0.221923828125,0.1445
0.5343511450381679,0.916030534351145,-1.3587786259541985,-0.45166015625,-0.051513671875,-0.222412109375,0.1462
0.6717557251908397,0.8854961832061069,-1.0534351145038168,-0.454833984375,-0.0458984375,-0.235107421875,0.1479
0.7633587786259542,0.9923664122137404,-1.3282442748091603,-0.456298828125,-0.047119140625,-0.238037109375,0.14959999999999998
0.8091603053435115,1.1450381679389312,-1.1450381679389312,-0.451416015625,-0.0458984375,-0.22705078125,0.1513
0.8396946564885496,0.9618320610687023,-1.2061068702290076,-0.451416015625,-0.048828125,-0.223388671875,0.153
0.9312977099236641,1.1755725190839694,-1.1450381679389312,-0.451904296875,-0.04931640625,-0.22607421875,0.1547
0.6870229007633588,1.1755725190839694,-1.3282442748091603,-0.44677734375,-0.051513671875,-0.237548828125,0.15639999999999998
0.5038167938931297,0.9312977099236641,-1.1755725190839694,-0.45068359375,-0.0458984375,-0.226806640625,0.1581
0.7022900763358778,0.8854961832061069,-1.1603053435114503,-0.45263671875,-0.04833984375,-0.227294921875,0.1598
0.5954198473282443,0.7633587786259542,-1.1145038167938932,-0.4541015625,-0.04248046875,-0.221435546875,0.1615
0.7786259541984732,0.3511450381679389,-1.083969465648855,-0.45361328125,-0.040283203125,-0.225341796875,0.16319999999999998
0.7786259541984732,0.2595419847328244,-1.1145038167938932,-0.44775390625,-0.04443359375,-0.225830078125,0.1649
0.7022900763358778,0.1984732824427481,-0.9923664122137404,-0.450439453125,-0.04736328125,-0.2236328125,0.1666
0.7480916030534351,0.0916030534351145,-1.0381679389312977,-0.448974609375,-0.048095703125,-0.226806640625,0.16829999999999998
0.916030534351145,0.0,-1.251908396946565,-0.451904296875,-0.044921875,-0.222900390625,0.16999999999999998
0.8854961832061069,0.0,-1.282442748091603,-0.451171875,-0.046875,-0.235107421875,0.1717
1.282442748091603,0.015267175572519083,-1.1297709923664123,-0.454345703125,-0.04833984375,-0.225341796875,0.1734
1.3893129770992367,0.07633587786259542,-1.297709923664122,-0.46044921875,-0.04638671875,-0.236572265625,0.17509999999999998
1.3587786259541985,0.3053435114503817,-1.3129770992366412,-0.455810546875,-0.04296875,-0.226318359375,0.17679999999999998
1.7099236641221374,0.549618320610687,-1.4198473282442747,-0.45361328125,-0.046630859375,-0.229736328125,0.1785
2.0916030534351147,0.9923664122137404,-1.4198473282442747,-0.453125,-0.050048828125,-0.23486328125,0.1802
2.015267175572519,0.8244274809160306,-1.4961832061068703,-0.452880859375,-0.051513671875,-0.226318359375,0.18189999999999998
2.366412213740458,0.732824427480916,-1.4809160305343512,-0.450439453125,-0.04931640625,-0.224609375,0.18359999999999999
2.717557251908397,0.7022900763358778,-1.3587786259541985,-0.45654296875,-0.05078125,-0.228759765625,0.1853
2.885496183206107,0.8244274809160306,-1.297709923664122,-0.45556640625,-0.0498046875,-0.2333984375,0.187
2.7938931297709924,0.8702290076335878,-1.4045801526717556,-0.44921875,-0.0478515625,-0.233642578125,0.18869999999999998
2.732824427480916,0.8549618320610687,-1.3282442748091603,-0.45361328125,-0.0498046875,-0.230712890625,0.19039999999999999
3.068702290076336,0.916030534351145,-1.282442748091603,-0.45166015625,-0.048828125,-0.230224609375,0.1921
2.9618320610687023,0.9770992366412213,-1.3740458015267176,-0.4560546875,-0.04638671875,-0.2275390625,0.1938
2.9770992366412212,0.7480916030534351,-1.3129770992366412,-0.450439453125,-0.042724609375,-0.234619140625,0.19549999999999998
2.946564885496183,0.9770992366412213,-1.2366412213740459,-0.448486328125,-0.04833984375,-0.23291015625,0.1972
2.9923664122137406,0.8549618320610687,-1.5114503816793894,-0.451171875,-0.046630859375,-0.23974609375,0.1989
2.946564885496183,0.6106870229007634,-1.282442748091603,-0.453857421875,-0.0458984375,-0.229248046875,0.2006
2.854961832061069,0.9770992366412213,-1.3893129770992367,-0.44921875,-0.0498046875,-0.232177734375,0.20229999999999998
2.7480916030534353,0.9312977099236641,-1.633587786259542,-0.4462890625,-0.053955078125,-0.234619140625,0.204
2.900763358778626,0.7175572519083969,-1.5267175572519085,-0.44775390625,-0.04736328125,-0.230712890625,0.2057
2.931297709923664,0.8396946564885496,-1.4961832061068703,-0.45263671875,-0.050048828125,-0.235595703125,0.2074
2.4732824427480917,0.9007633587786259,-1.5877862595419847,-0.455078125,-0.051025390625,-0.231689453125,0.20909999999999998
2.427480916030534,0.7786259541984732,-1.4961832061068703,-0.452880859375,-0.053466796875,-0.231689453125,0.2108
2.763358778625954,0.916030534351145,-1.5419847328244274,-0.45361328125,-0.053466796875,-0.23291015625,0.2125
2.6564885496183206,0.7480916030534351,-1.3587786259541985,-0.454345703125,-0.04833984375,-0.231201171875,0.2142
2.6106870229007635,0.9007633587786259,-1.7557251908396947,-0.45166015625,-0.053466796875,-0.23046875,0.21589999999999998
2.519083969465649,0.9312977099236641,-1.5114503816793894,-0.448486328125,-0.05419921875,-0.23291015625,0.2176
2.2442748091603053,0.8091603053435115,-1.633587786259542,-0.4462890625,-0.055419921875,-0.23193359375,0.2193
2.7022900763358777,0.6259541984732825,-1.5267175572519085,-0.449462890625,-0.053466796875,-0.240966796875,0.22099999999999997
2.564885496183206,0.8549618320610687,-1.6488549618320612,-0.448486328125,-0.05517578125,-0.234375,0.22269999999999998
2.4885496183206106,0.5648854961832062,-1.6793893129770991,-0.449462890625,-0.054443359375,-0.223388671875,0.2244
2.50381679389313,0.549618320610687,-1.6946564885496183,-0.44677734375,-0.054443359375,-0.22314453125,0.2261
2.5801526717557253,0.6106870229007634,-1.618320610687023,-0.447998046875,-0.056396484375,-0.221435546875,0.22779999999999997
2.351145038167939,0.6259541984732825,-1.618320610687023,-0.4482421875,-0.05908203125,-0.238037109375,0.22949999999999998
2.122137404580153,0.7633587786259542,-1.450381679389313,-0.4580078125,-0.056640625,-0.239013671875,0.2312
2.045801526717557,0.6717557251908397,-1.6793893129770991,-0.4541015625,-0.05810546875,-0.23583984375,0.2329
2.366412213740458,0.8091603053435115,-1.4045801526717556,-0.4462890625,-0.052001953125,-0.230224609375,0.23459999999999998
2.0763358778625953,0.9465648854961832,-1.4351145038167938,-0.4501953125,-0.04931640625,-0.234375,0.23629999999999998
1.6946564885496183,0.8091603053435115,-1.2366412213740459,-0.444580078125,-0.05224609375,-0.232421875,0.238
2.1374045801526718,0.9007633587786259,-1.3740458015267176,-0.448486328125,-0.05419921875,-0.224853515625,0.2397
1.984732824427481,0.916030534351145,-1.297709923664122,-0.45166015625,-0.059326171875,-0.228515625,0.24139999999999998
1.8015267175572518,0.8091603053435115,-1.2213740458015268,-0.443603515625,-0.0546875,-0.22705078125,0.24309999999999998
1.7404580152671756,0.7480916030534351,-1.2061068702290076,-0.447509765625,-0.055908203125,-0.22314453125,0.2448
1.8473282442748091,0.5801526717557252,-1.1908396946564885,-0.449462890625,-0.051025390625,-0.2236328125,0.2465
1.7251908396946565,0.6717557251908397,-1.083969465648855,-0.441650390625,-0.052978515625,-0.230712890625,0.24819999999999998
1.6030534351145038,0.7786259541984732,-1.251908396946565,-0.444580078125,-0.048828125,-0.22509765625,0.24989999999999998
1.3435114503816794,0.7480916030534351,-1.099236641221374,-0.448486328125,-0.055908203125,-0.2333984375,0.2516
1.4198473282442747,0.5038167938931297,-1.099236641221374,-0.44921875,-0.053466796875,-0.241943359375,0.25329999999999997
1.2061068702290076,0.4732824427480916,-0.9007633587786259,-0.449951171875,-0.059814453125,-0.230712890625,0.255
1.1755725190839694,0.3511450381679389,-1.0534351145038168,-0.44873046875,-0.056396484375,-0.2294921875,0.2567
1.0687022900763359,0.549618320610687,-0.916030534351145,-0.448486328125,-0.057373046875,-0.228759765625,0.25839999999999996
0.7633587786259542,0.3816793893129771,-1.1297709923664123,-0.446044921875,-0.0537109375,-0.232421875,0.2601
0.9465648854961832,0.366412213740458,-1.1450381679389312,-0.446044921875,-0.04931640625,-0.224853515625,0.2618
0.8702290076335878,0.21374045801526717,-1.0381679389312977,-0.447509765625,-0.0576171875,-0.228759765625,0.2635
0.9312977099236641,0.030534351145038167,-0.8549618320610687,-0.451171875,-0.05810546875,-0.232177734375,0.2652
0.9618320610687023,0.12213740458015267,-1.0381679389312977,-0.453125,-0.05517578125,-0.22216796875,0.26689999999999997
1.1297709923664123,0.0,-0.9618320610687023,-0.4482421875,-0.052490234375,-0.220703125,0.2686
1.1297709923664123,-0.12213740458015267,-1.251908396946565,-0.44677734375,-0.0546875,-0.218505859375,0.2703
1.1755725190839694,0.030534351145038167,-1.1145038167938932,-0.453369140625,-0.048828125,-0.228759765625,0.27199999999999996
0.8854961832061069,0.04580152671755725,-1.2061068702290076,-0.454833984375,-0.05322265625,-0.2314453125,0.2737
1.099236641221374,-0.04580152671755725,-1.1145038167938932,-0.451171875,-0.0517578125,-0.2236328125,0.2754
1.3587786259541985,0.0,-1.1755725190839694,-0.45361328125,-0.0576171875,-0.229736328125,0.27709999999999996
1.2366412213740459,0.015267175572519083,-1.0076335877862594,-0.451171875,-0.052490234375,-0.237060546875,0.2788
1.2061068702290076,0.24427480916030533,-1.2366412213740459,-0.45166015625,-0.051513671875,-0.2314453125,0.28049999999999997
1.4351145038167938,0.2595419847328244,-1.1603053435114503,-0.454833984375,-0.053955078125,-0.234619140625,0.2822
1.0534351145038168,0.3816793893129771,-1.3587786259541985,-0.449462890625,-0.05517578125,-0.23486328125,0.2839
1.1603053435114503,0.6106870229007634,-1.297709923664122,-0.451171875,-0.04833984375,-0.241455078125,0.28559999999999997
1.465648854961832,0.5648854961832062,-1.1908396946564885,-0.455078125,-0.05224609375,-0.226806640625,0.2873
0.916030534351145,0.7938931297709924,-1.297709923664122,-0.447998046875,-0.049560546875,-0.234375,0.289
1.1603053435114503,1.0229007633587786,-1.251908396946565,-0.4521484375,-0.053955078125,-0.228271484375,0.29069999999999996
1.450381679389313,1.0229007633587786,-1.450381679389313,-0.447021484375,-0.05517578125,-0.23486328125,0.2924
1.4198473282442747,1.1145038167938932,-1.5267175572519085,-0.447021484375,-0.0537109375,-0.234375,0.2941
1.297709923664122,1.1755725190839694,-1.3129770992366412,-0.451171875,-0.052734375,-0.23046875,0.2958
1.4809160305343512,1.251908396946565,-1.5114503816793894,-0.455810546875,-0.0546875,-0.234619140625,0.2975
1.5877862595419847,1.3587786259541985,-1.4045801526717556,-0.453369140625,-0.05029296875,-0.223388671875,0.29919999999999997
1.4809160305343512,1.4198473282442747,-1.6030534351145038,-0.452392578125,-0.0458984375,-0.224365234375,0.3009
1.6946564885496183,1.1908396946564885,-1.5114503816793894,-0.45361328125,-0.048828125,-0.227783203125,0.3026
1.6030534351145038,1.099236641221374,-1.4045801526717556,-0.447998046875,-0.04736328125,-0.2275390625,0.30429999999999996
1.6946564885496183,1.0534351145038168,-1.4198473282442747,-0.447021484375,-0.048583984375,-0.221435546875,0.306
1.4045801526717556,0.7022900763358778,-1.3587786259541985,-0.448486328125,-0.041015625,-0.226318359375,0.3077
1.3893129770992367,0.6870229007633588,-1.1297709923664123,-0.451904296875,-0.0498046875,-0.231201171875,0.3094
1.5725190839694656,0.42748091603053434,-1.282442748091603,-0.455078125,-0.048095703125,-0.234375,0.3111
1.6488549618320612,0.13740458015267176,-1.297709923664122,-0.447509765625,-0.052490234375,-0.228271484375,0.31279999999999997
1.2061068702290076,0.12213740458015267,-1.1145038167938932,-0.446533203125,-0.049072265625,-0.229736328125,0.3145
1.6030534351145038,0.04580152671755725,-0.9770992366412213,-0.4462890625,-0.049072265625,-0.2353515625,0.3162
1.4198473282442747,-0.030534351145038167,-1.2671755725190839,-0.453125,-0.043701171875,-0.23046875,0.31789999999999996
1.1755725190839694,0.015267175572519083,-1.0381679389312977,-0.453857421875,-0.0458984375,-0.22802734375,0.3196
1.282442748091603,-0.061068702290076333,-0.8702290076335878,-0.4521484375,-0.048583984375,-0.230224609375,0.3213
1.251908396946565,-0.15267175572519084,-1.083969465648855,-0.448974609375,-0.048583984375,-0.2275390625,0.323
1.2213740458015268,-0.061068702290076333,-1.0687022900763359,-0.45458984375,-0.043212890625,-0.220947265625,0.3247
1.251908396946565,0.061068702290076333,-1.0534351145038168,-0.452392578125,-0.05029296875,-0.23583984375,0.32639999999999997
1.282442748091603,0.015267175572519083,-0.9923664122137404,-0.451904296875,-0.04638671875,-0.233642578125,0.3281
1.3740458015267176,0.183206106870229,-0.9465648854961832,-0.45263671875,-0.04736328125,-0.239013671875,0.3298
1.3587786259541985,0.2900763358778626,-0.9465648854961832,-0.45556640625,-0.05224609375,-0.228759765625,0.33149999999999996
1.465648854961832,0.183206106870229,-0.8549618320610687,-0.451904296875,-0.047119140625,-0.23388671875,0.3332
1.6030534351145038,0.3053435114503817,-0.6717557251908397,-0.4541015625,-0.047119140625,-0.227783203125,0.3349
1.6793893129770991,0.2595419847328244,-0.7480916030534351,-0.455078125,-0.048583984375,-0.22802734375,0.33659999999999995
1.8625954198473282,0.4122137404580153,-0.7480916030534351,-0.45654296875,-0.047119140625,-0.228515625,0.3383
2.0,0.6870229007633588,-0.7786259541984732,-0.451171875,-0.04638671875,-0.23046875,0.33999999999999997
1.9694656488549618,0.6259541984732825,-0.7175572519083969,-0.45361328125,-0.050537109375,-0.22900390625,0.3417
1.83206106870229,0.8396946564885496,-0.7480916030534351,-0.453857421875,-0.0458984375,-0.232666015625,0.3434
1.9236641221374047,1.0687022900763359,-0.5801526717557252,-0.453125,-0.04833984375,-0.229248046875,0.34509999999999996
1.8015267175572518,1.1603053435114503,-0.6870229007633588,-0.45361328125,-0.050537109375,-0.23388671875,0.3468
1.816793893129771,1.1297709923664123,-0.8091603053435115,-0.4560546875,-0.046875,-0.234619140625,0.3485
1.6946564885496183,1.251908396946565,-0.5954198473282443,-0.45263671875,-0.050048828125,-0.238525390625,0.35019999999999996
1.8931297709923665,1.2366412213740459,-0.7022900763358778,-0.451904296875,-0.050537109375,-0.22607421875,0.3519
1.816793893129771,1.2366412213740459,-0.8396946564885496,-0.45361328125,-0.05419921875,-0.23046875,0.35359999999999997
1.8625954198473282,1.3893129770992367,-1.099236641221374,-0.457275390625,-0.0537109375,-0.224609375,0.3553
2.16793893129771,1.3435114503816794,-0.9770992366412213,-0.454345703125,-0.049072265625,-0.23193359375,0.357
2.3053435114503817,1.3740458015267176,-1.0687022900763359,-0.451904296875,-0.0498046875,-0.227783203125,0.35869999999999996
2.564885496183206,1.3435114503816794,-1.2366412213740459,-0.4521484375,-0.043701171875,-0.22314453125,0.3604
2.8244274809160306,1.1145038167938932,-1.251908396946565,-0.454833984375,-0.044677734375,-0.23291015625,0.3621
2.6412213740458017,1.1145038167938932,-1.4809160305343512,-0.454833984375,-0.057861328125,-0.235107421875,0.36379999999999996
2.8702290076335877,1.083969465648855,-1.3435114503816794,-0.45556640625,-0.054443359375,-0.231689453125,0.3655
3.145038167938931,1.1145038167938932,-1.465648854961832,-0.45751953125,-0.057373046875,-0.2333984375,0.36719999999999997
3.282442748091603,1.099236641221374,-1.5725190839694656,-0.44873046875,-0.0498046875,-0.232421875,0.3689
3.2977099236641223,1.0687022900763359,-1.7099236641221374,-0.447998046875,-0.05126953125,-0.23095703125,0.3706
3.4198473282442747,1.083969465648855,-1.4809160305343512,-0.453125,-0.05029296875,-0.236328125,0.37229999999999996
3.5419847328244276,1.099236641221374,-1.3893129770992367,-0.45263671875,-0.0498046875,-0.22509765625,0.374
3.404580152671756,1.083969465648855,-1.6030534351145038,-0.45263671875,-0.050537109375,-0.236083984375,0.3757
3.3740458015267176,1.1755725190839694,-1.465648854961832,-0.45263671875,-0.05029296875,-0.234619140625,0.37739999999999996
3.068702290076336,1.2061068702290076,-1.465648854961832,-0.454833984375,-0.0498046875,-0.234130859375,0.3791
2.854961832061069,0.9312977099236641,-1.618320610687023,-0.448486328125,-0.052978515625,-0.237060546875,0.38079999999999997
2.8091603053435112,1.083969465648855,-1.3129770992366412,-0.457275390625,-0.052490234375,-0.230712890625,0.38249999999999995
2.732824427480916,1.297709923664122,-1.5267175572519085,-0.454833984375,-0.054443359375,-0.236083984375,0.3842
2.6412213740458017,1.3282442748091603,-1.282442748091603,-0.458984375,-0.055908203125,-0.235107421875,0.38589999999999997
2.50381679389313,1.2061068702290076,-1.3740458015267176,-0.45361328125,-0.05859375,-0.222412109375,0.3876
2.4885496183206106,1.0534351145038168,-1.3282442748091603,-0.45263671875,-0.056640625,-0.23486328125,0.3893
2.3206106870229006,1.1450381679389312,-1.2061068702290076,-0.4501953125,-0.05859375,-0.227783203125,0.39099999999999996
2.183206106870229,0.9465648854961832,-1.3893129770992367,-0.450927734375,-0.054443359375,-0.237548828125,0.3927
2.2748091603053435,0.916030534351145,-1.3435114503816794,-0.453125,-0.055908203125,-0.236083984375,0.3944
2.0916030534351147,1.0534351145038168,-1.0229007633587786,-0.45068359375,-0.055419921875,-0.239990234375,0.39609999999999995
2.0763358778625953,1.3129770992366412,-1.2213740458015268,-0.451416015625,-0.048828125,-0.2275390625,0.3978
1.83206106870229,0.9465648854961832,-0.9770992366412213,-0.450927734375,-0.055419921875,-0.224365234375,0.39949999999999997
1.6488549618320612,1.0229007633587786,-1.0076335877862594,-0.452392578125,-0.0546875,-0.22412109375,0.4012
1.5725190839694656,0.9923664122137404,-0.9007633587786259,-0.449462890625,-0.052490234375,-0.2294921875,0.4029
1.6946564885496183,0.8702290076335878,-1.0534351145038168,-0.45361328125,-0.051513671875,-0.233154296875,0.40459999999999996
1.6030534351145038,0.732824427480916,-0.9007633587786259,-0.451416015625,-0.055908203125,-0.224853515625,0.4063
1.3893129770992367,1.0534351145038168,-1.1450381679389312,-0.450927734375,-0.052734375,-0.2197265625,0.408
1.4809160305343512,1.1145038167938932,-1.1908396946564885,-0.45263671875,-0.06005859375,-0.22802734375,0.40969999999999995
1.2213740458015268,1.099236641221374,-1.1908396946564885,-0.451904296875,-0.0576171875,-0.2265625,0.4114
1.3587786259541985,1.0229007633587786,-0.9007633587786259,-0.447265625,-0.0556640625,-0.230224609375,0.41309999999999997
0.9770992366412213,1.0229007633587786,-1.3282442748091603,-0.450927734375,-0.05419921875,-0.216552734375,0.4148
1.1908396946564885,1.0534351145038168,-1.2213740458015268,-0.45068359375,-0.05712890625,-0.218505859375,0.4165
1.1450381679389312,0.8396946564885496,-1.3893129770992367,-0.4462890625,-0.05224609375,-0.22509765625,0.41819999999999996
1.0229007633587786,0.9770992366412213,-1.5267175572519085,-0.44873046875,-0.0517578125,-0.22412109375,0.4199
1.0229007633587786,0.5801526717557252,-1.4961832061068703,-0.4462890625,-0.050048828125,-0.228515625,0.4216
0.8702290076335878,0.5038167938931297,-1.5267175572519085,-0.44873046875,-0.046875,-0.22705078125,0.42329999999999995
0.7786259541984732,0.6564885496183206,-1.450381679389313,-0.451904296875,-0.051025390625,-0.226318359375,0.425
0.9923664122137404,0.32061068702290074,-1.5572519083969465,-0.4501953125,-0.04541015625,-0.221923828125,0.42669999999999997
1.3129770992366412,0.13740458015267176,-1.7099236641221374,-0.451416015625,-0.048095703125,-0.225830078125,0.4284
0.9618320610687023,0.030534351145038167,-1.4961832061068703,-0.45068359375,-0.03955078125,-0.225341796875,0.4301
0.8091603053435115,-0.061068702290076333,-1.633587786259542,-0.445556640625,-0.045654296875,-0.22314453125,0.43179999999999996
1.0076335877862594,-0.0916030534351145,-1.1450381679389312,-0.451171875,-0.043701171875,-0.224365234375,0.4335
1.0687022900763359,-0.16793893129770993,-1.450381679389313,-0.4462890625,-0.045654296875,-0.22705078125,0.4352
0.8549618320610687,-0.32061068702290074,-1.1755725190839694,-0.4443359375,-0.048828125,-0.224853515625,0.43689999999999996
0.6564885496183206,-0.2595419847328244,-1.282442748091603,-0.447509765625,-0.04248046875,-0.22412109375,0.4386
0.6412213740458015,0.04580152671755725,-1.0381679389312977,-0.443359375,-0.04296875,-0.228515625,0.44029999999999997
0.8244274809160306,-0.030534351145038167,-0.9923664122137404,-0.450439453125,-0.048828125,-0.228759765625,0.44199999999999995
1.0076335877862594,0.24427480916030533,-0.7786259541984732,-0.447021484375,-0.051025390625,-0.23486328125,0.4437
0.8549618320610687,0.6106870229007634,-0.8854961832061069,-0.44970703125,-0.044677734375,-0.23486328125,0.44539999999999996
0.8702290076335878,0.7938931297709924,-0.7633587786259542,-0.445556640625,-0.051025390625,-0.22705078125,0.4471
0.9007633587786259,0.9007633587786259,-0.7786259541984732,-0.44970703125,-0.050537109375,-0.228515625,0.4488
1.0687022900763359,0.8549618320610687,-0.7633587786259542,-0.447021484375,-0.046875,-0.24462890625,0.45049999999999996
1.3740458015267176,1.1450381679389312,-0.8702290076335878,-0.443359375,-0.04833984375,-0.225341796875,0.4522
1.2366412213740459,1.3282442748091603,-0.7480916030534351,-0.454833984375,-0.04833984375,-0.2275390625,0.45389999999999997
0.9007633587786259,1.251908396946565,-1.0076335877862594,-0.44775390625,-0.04736328125,-0.2314453125,0.45559999999999995
1.3740458015267176,1.4198473282442747,-1.282442748091603,-0.44873046875,-0.049560546875,-0.23291015625,0.4573
1.2671755725190839,1.450381679389313,-1.5267175572519085,-0.447998046875,-0.052978515625,-0.232421875,0.45899999999999996
1.3893129770992367,1.4045801526717556,-1.1755725190839694,-0.443359375,-0.05078125,-0.225341796875,0.4607
1.4961832061068703,1.3129770992366412,-1.3740458015267176,-0.446533203125,-0.05078125,-0.23095703125,0.4624
1.8778625954198473,1.4198473282442747,-1.5267175572519085,-0.451416015625,-0.047607421875,-0.2373046875,0.46409999999999996
1.6793893129770991,1.450381679389313,-1.5877862595419847,-0.451171875,-0.0556640625,-0.22802734375,0.4658
1.9236641221374047,1.4961832061068703,-1.5725190839694656,-0.44970703125,-0.056396484375,-0.228759765625,0.46749999999999997
2.1068702290076335,1.83206106870229,-1.6793893129770991,-0.451171875,-0.054931640625,-0.23291015625,0.46919999999999995
2.0,1.5267175572519085,-1.5725190839694656,-0.45458984375,-0.04638671875,-0.2373046875,0.4709
2.2442748091603053,1.9083969465648856,-1.3587786259541985,-0.45849609375,-0.050537109375,-0.237548828125,0.47259999999999996
2.4732824427480917,1.7404580152671756,-1.2061068702290076,-0.45703125,-0.051513671875,-0.22607421875,0.4743
2.33587786259542,1.9236641221374047,-1.1450381679389312,-0.453857421875,-0.05517578125,-0.22998046875,0.476
2.427480916030534,2.015267175572519,-0.9618320610687023,-0.45556640625,-0.05517578125,-0.2353515625,0.47769999999999996
2.6717557251908395,2.0610687022900764,-0.9312977099236641,-0.451416015625,-0.0546875,-0.231689453125,0.4794
2.213740458015267,2.2442748091603053,-0.8091603053435115,-0.455810546875,-0.05322265625,-0.232421875,0.48109999999999997
2.427480916030534,2.4122137404580153,-0.732824427480916,-0.4560546875,-0.056396484375,-0.23876953125,0.48279999999999995
2.183206106870229,2.381679389312977,-0.6564885496183206,-0.4560546875,-0.05810546875,-0.228515625,0.4845
2.1526717557251906,2.5801526717557253,-0.5038167938931297,-0.449951171875,-0.052490234375,-0.224365234375,0.48619999999999997
2.0610687022900764,2.1526717557251906,-0.6870229007633588,-0.4541015625,-0.06201171875,-0.230712890625,0.4879
2.0610687022900764,2.366412213740458,-0.9618320610687023,-0.45947265625,-0.05908203125,-0.2353515625,0.4896
1.6641221374045803,2.2442748091603053,-0.8396946564885496,-0.456787109375,-0.060302734375,-0.23291015625,0.49129999999999996
1.4961832061068703,2.1068702290076335,-0.9618320610687023,-0.452392578125,-0.06103515625,-0.23095703125,0.493
1.5419847328244274,1.9083969465648856,-1.3282442748091603,-0.4501953125,-0.0595703125,-0.229248046875,0.4947
1.1145038167938932,1.7404580152671756,-1.083969465648855,-0.451416015625,-0.0546875,-0.233642578125,0.49639999999999995
0.9465648854961832,1.4351145038167938,-1.2061068702290076,-0.455810546875,-0.0595703125,-0.22900390625,0.4981
0.5801526717557252,1.251908396946565,-1.5114503816793894,-0.457763671875,-0.058349609375,-0.227783203125,0.49979999999999997
0.5343511450381679,1.1297709923664123,-1.5725190839694656,-0.455810546875,-0.05517578125,-0.234130859375,0.5015
0.44274809160305345,0.916030534351145,-1.7557251908396947,-0.4482421875,-0.055419921875,-0.22314453125,0.5032
0.32061068702290074,0.6412213740458015,-1.786259541984733,-0.44921875,-0.052734375,-0.239990234375,0.5049
0.12213740458015267,0.8091603053435115,-1.816793893129771,-0.4521484375,-0.05029296875,-0.234130859375,0.5065999999999999
0.0,0.366412213740458,-1.8473282442748091,-0.45556640625,-0.0556640625,-0.22265625,0.5083
-0.030534351145038167,0.6106870229007634,-1.9083969465648856,-0.456787109375,-0.05322265625,-0.2255859375,0.51
0.15267175572519084,0.7633587786259542,-1.6641221374045803,-0.454345703125,-0.055419921875,-0.22900390625,0.5116999999999999
0.183206106870229,0.4732824427480916,-1.6488549618320612,-0.45263671875,-0.047119140625,-0.22509765625,0.5134
0.030534351145038167,0.6564885496183206,-1.83206106870229,-0.455322265625,-0.05322265625,-0.22998046875,0.5151
0.04580152671755725,0.6564885496183206,-1.7709923664122138,-0.4541015625,-0.045654296875,-0.2255859375,0.5167999999999999
0.2595419847328244,0.8396946564885496,-1.8778625954198473,-0.45361328125,-0.042236328125,-0.236328125,0.5185
0.13740458015267176,1.0381679389312977,-1.5725190839694656,-0.453369140625,-0.0439453125,-0.227294921875,0.5202
0.22900763358778625,1.3282442748091603,-1.5725190839694656,-0.45947265625,-0.046875,-0.229248046875,0.5218999999999999
0.24427480916030533,1.3435114503816794,-1.450381679389313,-0.45849609375,-0.03955078125,-0.228759765625,0.5236
0.24427480916030533,1.4045801526717556,-1.5572519083969465,-0.45751953125,-0.04736328125,-0.2275390625,0.5253
0.3511450381679389,1.816793893129771,-1.3435114503816794,-0.4580078125,-0.045166015625,-0.229248046875,0.527
0.2900763358778626,1.7099236641221374,-1.450381679389313,-0.45751953125,-0.039306640625,-0.223876953125,0.5287
0.2595419847328244,1.8015267175572518,-1.1450381679389312,-0.456298828125,-0.0458984375,-0.23095703125,0.5304
0.5954198473282443,2.122137404580153,-1.3282442748091603,-0.44921875,-0.042724609375,-0.2333984375,0.5321
0.6259541984732825,1.8625954198473282,-1.1450381679389312,-0.456298828125,-0.040283203125,-0.2265625,0.5337999999999999
0.7175572519083969,2.0,-1.251908396946565,-0.457763671875,-0.048095703125,-0.226806640625,0.5355
1.099236641221374,2.1526717557251906,-1.4045801526717556,-0.44775390625,-0.041015625,-0.225830078125,0.5372
1.0534351145038168,2.2442748091603053,-1.450381679389313,-0.45068359375,-0.04296875,-0.23681640625,0.5388999999999999
1.4045801526717556,2.0916030534351147,-1.4809160305343512,-0.451171875,-0.041015625,-0.235595703125,0.5406
1.4351145038167938,1.83206106870229,-1.282442748091603,-0.450927734375,-0.047607421875,-0.22509765625,0.5423
1.6641221374045803,1.8015267175572518,-1.2366412213740459,-0.4482421875,-0.0380859375,-0.223876953125,0.5439999999999999
2.2748091603053435,1.9236641221374047,-1.2366412213740459,-0.447998046875,-0.043212890625,-0.21728515625,0.5457
2.4427480916030535,1.618320610687023,-1.251908396946565,-0.445556640625,-0.0478515625,-0.213134765625,0.5474
2.50381679389313,1.5419847328244274,-1.099236641221374,-0.451416015625,-0.046142578125,-0.222900390625,0.5490999999999999
2.6717557251908395,1.6030534351145038,-1.3129770992366412,-0.4541015625,-0.044677734375,-0.216552734375,0.5508
2.7938931297709924,1.5267175572519085,-1.297709923664122,-0.449462890625,-0.04638671875,-0.222900390625,0.5525
3.0229007633587788,1.633587786259542,-1.282442748091603,-0.4521484375,-0.050537109375,-0.224853515625,0.5541999999999999
2.7786259541984735,1.633587786259542,-1.450381679389313,-0.45068359375,-0.048828125,-0.222900390625,0.5559
2.8396946564885495,1.9083969465648856,-1.3282442748091603,-0.453369140625,-0.04833984375,-0.228515625,0.5576
2.519083969465649,1.83206106870229,-1.5114503816793894,-0.449951171875,-0.0537109375,-0.232666015625,0.5593
2.4122137404580153,1.9541984732824427,-1.5267175572519085,-0.452880859375,-0.053955078125,-0.236572265625,0.5609999999999999
2.122137404580153,2.0763358778625953,-1.4961832061068703,-0.449462890625,-0.05322265625,-0.2265625,0.5627
2.1526717557251906,2.2290076335877864,-1.6641221374045803,-0.447509765625,-0.0537109375,-0.234375,0.5644
2.33587786259542,2.3206106870229006,-2.030534351145038,-0.44775390625,-0.055908203125,-0.231201171875,0.5660999999999999
2.0610687022900764,2.2748091603053435,-1.984732824427481,-0.447998046875,-0.052001953125,-0.230224609375,0.5678
2.0763358778625953,2.427480916030534,-2.2900763358778624,-0.44921875,-0.05712890625,-0.223876953125,0.5695
2.183206106870229,2.2748091603053435,-2.16793893129771,-0.451171875,-0.05517578125,-0.22314453125,0.5711999999999999
2.0,2.366412213740458,-2.4885496183206106,-0.451171875,-0.052734375,-0.231689453125,0.5729
2.3053435114503817,2.2442748091603053,-2.5343511450381677,-0.450927734375,-0.050537109375,-0.2197265625,0.5746
2.198473282442748,2.2900763358778624,-2.4580152671755724,-0.445068359375,-0.05859375,-0.224365234375,0.5762999999999999
2.3969465648854964,2.4885496183206106,-2.33587786259542,-0.455322265625,-0.05224609375,-0.225830078125,0.578
2.7480916030534353,2.2442748091603053,-2.4580152671755724,-0.448974609375,-0.0546875,-0.22216796875,0.5797
2.687022900763359,2.2595419847328246,-2.366412213740458,-0.44677734375,-0.053466796875,-0.224853515625,0.5813999999999999
2.7022900763358777,2.0610687022900764,-2.6106870229007635,-0.448974609375,-0.059814453125,-0.22509765625,0.5831
2.717557251908397,2.045801526717557,-2.4427480916030535,-0.451171875,-0.055419921875,-0.228515625,0.5848
2.564885496183206,1.9541984732824427,-2.50381679389313,-0.45263671875,-0.0498046875,-0.227294921875,0.5865
2.7938931297709924,1.7251908396946565,-2.2900763358778624,-0.445068359375,-0.05322265625,-0.225830078125,0.5882
2.7786259541984735,1.7709923664122138,-2.33587786259542,-0.445068359375,-0.050537109375,-0.22265625,0.5899
2.519083969465649,1.7251908396946565,-2.2290076335877864,-0.44775390625,-0.0556640625,-0.22705078125,0.5916
2.33587786259542,1.6793893129770991,-2.381679389312977,-0.446533203125,-0.050048828125,-0.22900390625,0.5932999999999999
2.381679389312977,1.7709923664122138,-2.33587786259542,-0.44970703125,-0.05419921875,-0.231201171875,0.595
2.0763358778625953,1.450381679389313,-2.3206106870229006,-0.447265625,-0.060791015625,-0.238037109375,0.5967
1.984732824427481,1.7557251908396947,-2.198473282442748,-0.451171875,-0.05224609375,-0.232666015625,0.5983999999999999
1.8473282442748091,1.7251908396946565,-2.2900763358778624,-0.454345703125,-0.05224609375,-0.226806640625,0.6001
1.4809160305343512,1.7557251908396947,-2.030534351145038,-0.44775390625,-0.04833984375,-0.23486328125,0.6018
1.465648854961832,1.8778625954198473,-2.3206106870229006,-0.4482421875,-0.052978515625,-0.225341796875,0.6034999999999999
1.1297709923664123,1.633587786259542,-2.366412213740458,-0.45458984375,-0.0498046875,-0.22607421875,0.6052
1.450381679389313,1.5725190839694656,-2.549618320610687,-0.455078125,-0.05029296875,-0.228515625,0.6069
1.1603053435114503,1.4809160305343512,-2.4580152671755724,-0.448974609375,-0.052001953125,-0.2392578125,0.6085999999999999
1.0534351145038168,1.3435114503816794,-2.4885496183206106,-0.451416015625,-0.051513671875,-0.22900390625,0.6103
1.4198473282442747,1.1297709923664123,-2.1526717557251906,-0.45068359375,-0.0498046875,-0.234375,0.612
1.5877862595419847,0.9618320610687023,-2.213740458015267,-0.452880859375,-0.04931640625,-0.228515625,0.6136999999999999
1.618320610687023,1.0229007633587786,-2.1374045801526718,-0.44970703125,-0.05078125,-0.2265625,0.6154
1.7099236641221374,0.8702290076335878,-2.381679389312977,-0.451416015625,-0.054931640625,-0.227294921875,0.6171
1.4809160305343512,0.7938931297709924,-2.183206106870229,-0.44970703125,-0.05224609375,-0.235107421875,0.6188
1.5114503816793894,0.9465648854961832,-1.816793893129771,-0.449951171875,-0.0498046875,-0.229248046875,0.6204999999999999
1.618320610687023,1.083969465648855,-1.9389312977099236,-0.456787109375,-0.055419921875,-0.22998046875,0.6222
1.4351145038167938,1.251908396946565,-1.9694656488549618,-0.45458984375,-0.050537109375,-0.231201171875,0.6239
1.3435114503816794,1.8931297709923665,-1.9694656488549618,-0.4521484375,-0.05419921875,-0.229248046875,0.6255999999999999
1.3282442748091603,2.0916030534351147,-1.984732824427481,-0.450439453125,-0.05224609375,-0.234619140625,0.6273
1.251908396946565,2.5801526717557253,-1.83206106870229,-0.453369140625,-0.0556640625,-0.233642578125,0.629
1.0229007633587786,2.8091603053435112,-2.0763358778625953,-0.45751953125,-0.05615234375,-0.236572265625,0.6306999999999999
1.1297709923664123,2.946564885496183,-2.198473282442748,-0.455810546875,-0.0537109375,-0.22412109375,0.6324
1.3129770992366412,3.145038167938931,-2.030534351145038,-0.4580078125,-0.05126953125,-0.232421875,0.6341
1.297709923664122,3.3587786259541983,-2.0610687022900764,-0.45556640625,-0.054443359375,-0.229248046875,0.6357999999999999
1.633587786259542,3.3435114503816794,-2.122137404580153,-0.447509765625,-0.060546875,-0.227783203125,0.6375
1.5725190839694656,3.435114503816794,-2.2290076335877864,-0.45068359375,-0.05517578125,-0.233154296875,0.6392
1.7709923664122138,3.3282442748091605,-2.3053435114503817,-0.448486328125,-0.055419921875,-0.225830078125,0.6408999999999999
2.0,3.1603053435114505,-2.198473282442748,-0.447021484375,-0.049072265625,-0.231201171875,0.6426
2.183206106870229,3.114503816793893,-1.9694656488549618,-0.451904296875,-0.046630859375,-0.228271484375,0.6443
2.381679389312977,2.8244274809160306,-2.213740458015267,-0.449951171875,-0.049560546875,-0.226318359375,0.646
2.7022900763358777,2.6106870229007635,-2.183206106870229,-0.44873046875,-0.052490234375,-0.224365234375,0.6476999999999999
2.33587786259542,2.366412213740458,-2.213740458015267,-0.4482421875,-0.0546875,-0.232421875,0.6494
2.122137404580153,2.3053435114503817,-2.213740458015267,-0.450439453125,-0.055419921875,-0.2294921875,0.6511
2.015267175572519,1.9694656488549618,-2.198473282442748,-0.447021484375,-0.053466796875,-0.22900390625,0.6527999999999999
2.1068702290076335,1.8015267175572518,-2.122137404580153,-0.45361328125,-0.0537109375,-0.23291015625,0.6545
1.7404580152671756,1.8015267175572518,-2.33587786259542,-0.443359375,-0.0517578125,-0.23388671875,0.6562
1.2213740458015268,1.633587786259542,-2.213740458015267,-0.449462890625,-0.04931640625,-0.228759765625,0.6578999999999999
1.3129770992366412,1.5725190839694656,-2.1526717557251906,-0.451904296875,-0.048828125,-0.228759765625,0.6596
1.1450381679389312,1.4351145038167938,-2.0763358778625953,-0.44580078125,-0.04931640625,-0.235595703125,0.6613
0.9618320610687023,1.282442748091603,-2.2442748091603053,-0.451904296875,-0.05224609375,-0.237060546875,0.6629999999999999
1.0229007633587786,1.3740458015267176,-2.1526717557251906,-0.4521484375,-0.054443359375,-0.230224609375,0.6647
0.9007633587786259,1.2213740458015268,-2.5343511450381677,-0.444580078125,-0.052734375,-0.223876953125,0.6664
0.6717557251908397,1.1297709923664123,-2.50381679389313,-0.44873046875,-0.0556640625,-0.22607421875,0.6680999999999999
0.732824427480916,1.3129770992366412,-2.4122137404580153,-0.4501953125,-0.048095703125,-0.225341796875,0.6698
0.8091603053435115,1.3282442748091603,-2.213740458015267,-0.44873046875,-0.050537109375,-0.235595703125,0.6715
0.9465648854961832,1.1603053435114503,-2.2595419847328246,-0.449951171875,-0.0537109375,-0.2294921875,0.6731999999999999
0.8244274809160306,1.0076335877862594,-2.33587786259542,-0.44921875,-0.052001953125,-0.22021484375,0.6748999999999999
1.083969465648855,1.3129770992366412,-2.2442748091603053,-0.445556640625,-0.04833984375,-0.224853515625,0.6766
1.1450381679389312,1.465648854961832,-2.366412213740458,-0.444580078125,-0.049560546875,-0.232421875,0.6783
1.1755725190839694,1.2213740458015268,-2.213740458015267,-0.447509765625,-0.050537109375,-0.232666015625,0.6799999999999999
1.4351145038167938,1.1450381679389312,-2.198473282442748,-0.44677734375,-0.05078125,-0.23779296875,0.6817
1.6641221374045803,1.3129770992366412,-2.2595419847328246,-0.449462890625,-0.044921875,-0.224609375,0.6834
1.8015267175572518,1.297709923664122,-2.1374045801526718,-0.447509765625,-0.05126953125,-0.22998046875,0.6850999999999999
1.5572519083969465,1.4961832061068703,-2.3206106870229006,-0.4521484375,-0.048828125,-0.229248046875,0.6868
1.5572519083969465,1.6488549618320612,-2.2442748091603053,-0.450439453125,-0.0537109375,-0.230224609375,0.6885
1.5725190839694656,1.7557251908396947,-2.1068702290076335,-0.4541015625,-0.048095703125,-0.230712890625,0.6901999999999999
1.5114503816793894,1.8015267175572518,-2.2748091603053435,-0.4501953125,-0.054931640625,-0.2255859375,0.6919
1.6946564885496183,2.030534351145038,-2.198473282442748,-0.453125,-0.051513671875,-0.231201171875,0.6936
1.7709923664122138,2.427480916030534,-2.0610687022900764,-0.451904296875,-0.05126953125,-0.222412109375,0.6952999999999999
1.633587786259542,2.4732824427480917,-2.1374045801526718,-0.45458984375,-0.05419921875,-0.22412109375,0.697
1.5725190839694656,2.6412213740458017,-2.2290076335877864,-0.454345703125,-0.049560546875,-0.222900390625,0.6987
1.618320610687023,2.717557251908397,-2.122137404580153,-0.451171875,-0.0537109375,-0.229248046875,0.7003999999999999
1.633587786259542,2.8244274809160306,-1.9541984732824427,-0.447021484375,-0.052001953125,-0.22900390625,0.7021
1.6488549618320612,2.885496183206107,-2.366412213740458,-0.44921875,-0.051513671875,-0.223388671875,0.7038
1.7709923664122138,2.885496183206107,-2.2442748091603053,-0.448974609375,-0.048583984375,-0.22509765625,0.7055
1.5572519083969465,2.732824427480916,-2.198473282442748,-0.453125,-0.047119140625,-0.216064453125,0.7071999999999999
1.8015267175572518,2.50381679389313,-2.2748091603053435,-0.450439453125,-0.052001953125,-0.2265625,0.7089
1.8778625954198473,2.2442748091603053,-2.2748091603053435,-0.448486328125,-0.05078125,-0.218505859375,0.7106
1.816793893129771,2.2290076335877864,-2.1526717557251906,-0.44921875,-0.051025390625,-0.219970703125,0.7122999999999999
1.8015267175572518,1.9236641221374047,-2.198473282442748,-0.442626953125,-0.050048828125,-0.224609375,0.714
1.7557251908396947,1.8015267175572518,-2.0916030534351147,-0.447265625,-0.054443359375,-0.228515625,0.7157
1.786259541984733,1.8473282442748091,-2.4427480916030535,-0.44970703125,-0.050048828125,-0.22119140625,0.7173999999999999
1.7099236641221374,1.7557251908396947,-2.4427480916030535,-0.451416015625,-0.059814453125,-0.21923828125,0.7191
1.4198473282442747,1.3740458015267176,-2.4427480916030535,-0.448486328125,-0.053955078125,-0.23388671875,0.7208
1.3435114503816794,1.1908396946564885,-2.1526717557251906,-0.450439453125,-0.052978515625,-0.2275390625,0.7224999999999999
1.3129770992366412,1.0534351145038168,-2.213740458015267,-0.44677734375,-0.0537109375,-0.228515625,0.7242
0.8854961832061069,0.7175572519083969,-2.366412213740458,-0.452880859375,-0.048095703125,-0.226806640625,0.7259
0.916030534351145,0.7022900763358778,-2.4885496183206106,-0.4462890625,-0.049072265625,-0.224365234375,0.7275999999999999
0.7786259541984732,0.7633587786259542,-2.33587786259542,-0.448486328125,-0.0498046875,-0.2255859375,0.7293
1.0381679389312977,0.4732824427480916,-2.519083969465649,-0.44921875,-0.054931640625,-0.2197265625,0.731
0.8702290076335878,0.5801526717557252,-2.351145038167939,-0.454345703125,-0.042724609375,-0.226806640625,0.7326999999999999
0.6870229007633588,0.3816793893129771,-2.427480916030534,-0.452392578125,-0.048583984375,-0.225341796875,0.7343999999999999
0.8091603053435115,0.21374045801526717,-2.427480916030534,-0.450439453125,-0.049072265625,-0.22021484375,0.7361
1.0381679389312977,0.549618320610687,-2.6564885496183206,-0.454833984375,-0.051025390625,-0.22705078125,0.7378
1.4809160305343512,0.8244274809160306,-2.4122137404580153,-0.4560546875,-0.048095703125,-0.233642578125,0.7394999999999999
1.4961832061068703,0.732824427480916,-2.4885496183206106,-0.450439453125,-0.051025390625,-0.238525390625,0.7412
1.633587786259542,0.8091603053435115,-2.4580152671755724,-0.456787109375,-0.050537109375,-0.239501953125,0.7429
1.6641221374045803,0.9923664122137404,-2.595419847328244,-0.461181640625,-0.0498046875,-0.23388671875,0.7445999999999999
1.786259541984733,1.3282442748091603,-2.1068702290076335,-0.453857421875,-0.049560546875,-0.23486328125,0.7463
1.8473282442748091,1.5267175572519085,-2.2595419847328246,-0.4560546875,-0.05126953125,-0.23291015625,0.748
1.5267175572519085,1.6793893129770991,-2.2748091603053435,-0.453857421875,-0.048583984375,-0.245361328125,0.7496999999999999
1.618320610687023,1.9694656488549618,-2.16793893129771,-0.456787109375,-0.048095703125,-0.233642578125,0.7514
1.4809160305343512,2.16793893129771,-2.2442748091603053,-0.45556640625,-0.046875,-0.236083984375,0.7531
1.6030534351145038,2.2290076335877864,-2.366412213740458,-0.456298828125,-0.050048828125,-0.23828125,0.7547999999999999
1.4351145038167938,2.4885496183206106,-2.3206106870229006,-0.45849609375,-0.04931640625,-0.232666015625,0.7565
1.5419847328244274,2.717557251908397,-2.595419847328244,-0.4560546875,-0.050537109375,-0.234375,0.7582
1.4351145038167938,3.0076335877862594,-2.687022900763359,-0.451904296875,-0.05224609375,-0.232421875,0.7598999999999999
1.6488549618320612,3.267175572519084,-2.687022900763359,-0.45361328125,-0.05126953125,-0.22265625,0.7615999999999999
1.8778625954198473,3.2519083969465647,-2.4885496183206106,-0.45458984375,-0.05517578125,-0.22900390625,0.7633
2.0610687022900764,3.2519083969465647,-2.763358778625954,-0.457763671875,-0.0498046875,-0.234375,0.7649999999999999
2.030534351145038,3.3435114503816794,-2.717557251908397,-0.450439453125,-0.05224609375,-0.22705078125,0.7666999999999999
2.2595419847328246,3.450381679389313,-2.8702290076335877,-0.44970703125,-0.044921875,-0.2236328125,0.7684
2.6717557251908395,3.3893129770992365,-2.854961832061069,-0.4521484375,-0.050537109375,-0.22802734375,0.7701
2.7938931297709924,3.3740458015267176,-2.885496183206107,-0.456298828125,-0.047607421875,-0.23095703125,0.7717999999999999
3.0076335877862594,3.3282442748091605,-2.717557251908397,-0.450439453125,-0.052001953125,-0.2314453125,0.7735
3.1755725190839694,3.2519083969465647,-2.854961832061069,-0.453369140625,-0.0478515625,-0.233154296875,0.7752
3.099236641221374,3.1908396946564888,-2.6412213740458017,-0.453125,-0.05078125,-0.22216796875,0.7768999999999999
2.9770992366412212,3.068702290076336,-2.8244274809160306,-0.449951171875,-0.05224609375,-0.227783203125,0.7786
3.312977099236641,3.0839694656488548,-2.900763358778626,-0.456787109375,-0.0478515625,-0.22509765625,0.7803
3.282442748091603,2.7938931297709924,-2.9160305343511452,-0.44677734375,-0.05322265625,-0.225341796875,0.7819999999999999
3.267175572519084,2.732824427480916,-2.8244274809160306,-0.451416015625,-0.049072265625,-0.225341796875,0.7837
3.2977099236641223,2.7022900763358777,-2.595419847328244,-0.450439453125,-0.04931640625,-0.22216796875,0.7854
3.4198473282442747,2.6717557251908395,-2.4580152671755724,-0.44384765625,-0.055419921875,-0.22265625,0.7870999999999999
3.3740458015267176,2.2442748091603053,-2.687022900763359,-0.448974609375,-0.050048828125,-0.23046875,0.7888
3.435114503816794,1.984732824427481,-2.5343511450381677,-0.449951171875,-0.05859375,-0.225341796875,0.7905
3.2977099236641223,1.7404580152671756,-2.6106870229007635,-0.45263671875,-0.056396484375,-0.219970703125,0.7921999999999999
3.236641221374046,1.7099236641221374,-2.6412213740458017,-0.451171875,-0.04931640625,-0.216796875,0.7938999999999999
3.572519083969466,1.5114503816793894,-2.50381679389313,-0.450439453125,-0.050537109375,-0.222900390625,0.7956
3.5419847328244276,1.4045801526717556,-2.6106870229007635,-0.450439453125,-0.05029296875,-0.22265625,0.7973
3.4198473282442747,1.2366412213740459,-2.519083969465649,-0.4501953125,-0.051025390625,-0.2158203125,0.7989999999999999
3.572519083969466,1.0687022900763359,-2.5801526717557253,-0.44921875,-0.052978515625,-0.228271484375,0.8007
3.480916030534351,1.1603053435114503,-2.7022900763358777,-0.4521484375,-0.05224609375,-0.2275390625,0.8024
3.480916030534351,1.297709923664122,-2.366412213740458,-0.448486328125,-0.055419921875,-0.23291015625,0.8040999999999999
3.114503816793893,1.1908396946564885,-2.595419847328244,-0.453369140625,-0.054443359375,-0.22900390625,0.8058
3.068702290076336,1.2671755725190839,-2.519083969465649,-0.4541015625,-0.051513671875,-0.230712890625,0.8075
2.7480916030534353,1.3587786259541985,-2.564885496183206,-0.456787109375,-0.05322265625,-0.232421875,0.8091999999999999
2.6106870229007635,1.633587786259542,-2.5343511450381677,-0.44970703125,-0.053466796875,-0.237060546875,0.8109
2.2595419847328246,1.4809160305343512,-2.4427480916030535,-0.452880859375,-0.052001953125,-0.23388671875,0.8126
2.3969465648854964,1.7251908396946565,-2.732824427480916,-0.45556640625,-0.051025390625,-0.235595703125,0.8142999999999999
2.366412213740458,1.8473282442748091,-2.7786259541984735,-0.455078125,-0.052978515625,-0.240234375,0.816
2.198473282442748,1.984732824427481,-2.885496183206107,-0.447021484375,-0.05419921875,-0.228759765625,0.8177
2.2900763358778624,1.6641221374045803,-2.9160305343511452,-0.447265625,-0.04833984375,-0.238037109375,0.8193999999999999
2.549618320610687,2.030534351145038,-2.763358778625954,-0.4482421875,-0.059326171875,-0.233154296875,0.8210999999999999
2.946564885496183,2.1068702290076335,-2.9618320610687023,-0.45361328125,-0.056396484375,-0.229248046875,0.8228
3.114503816793893,2.0763358778625953,-3.0381679389312977,-0.44873046875,-0.056640625,-0.2265625,0.8244999999999999
3.282442748091603,2.1526717557251906,-3.1603053435114505,-0.454833984375,-0.0537109375,-0.24072265625,0.8261999999999999
3.4656488549618323,2.381679389312977,-3.2213740458015265,-0.45068359375,-0.051513671875,-0.234375,0.8279
3.8473282442748094,2.4580152671755724,-3.267175572519084,-0.4541015625,-0.058837890625,-0.234619140625,0.8296
3.8625954198473282,2.4122137404580153,-3.3587786259541983,-0.450927734375,-0.05517578125,-0.241455078125,0.8312999999999999
3.954198473282443,2.381679389312977,-3.5114503816793894,-0.45458984375,-0.054931640625,-0.23388671875,0.833
3.9083969465648853,2.717557251908397,-3.3282442748091605,-0.4501953125,-0.055419921875,-0.220947265625,0.8347
3.8931297709923665,2.549618320610687,-3.3893129770992365,-0.450439453125,-0.056396484375,-0.219970703125,0.8363999999999999
3.786259541984733,2.717557251908397,-3.5267175572519083,-0.44140625,-0.053466796875,-0.23291015625,0.8381
3.7251908396946565,2.6717557251908395,-3.633587786259542,-0.445556640625,-0.05712890625,-0.23828125,0.8398
3.633587786259542,2.854961832061069,-3.4656488549618323,-0.4443359375,-0.060791015625,-0.2236328125,0.8414999999999999
3.480916030534351,2.946564885496183,-3.5114503816793894,-0.44873046875,-0.05615234375,-0.22802734375,0.8432
3.4656488549618323,2.8702290076335877,-3.7099236641221376,-0.450439453125,-0.056640625,-0.23779296875,0.8449
3.312977099236641,2.931297709923664,-3.66412213740458,-0.4482421875,-0.0537109375,-0.233154296875,0.8465999999999999
3.053435114503817,2.6717557251908395,-3.66412213740458,-0.447509765625,-0.05322265625,-0.232177734375,0.8482999999999999
3.0839694656488548,2.6717557251908395,-3.618320610687023,-0.446044921875,-0.05810546875,-0.230712890625,0.85
3.282442748091603,2.5343511450381677,-3.5114503816793894,-0.441650390625,-0.059326171875,-0.22705078125,0.8516999999999999
3.053435114503817,2.564885496183206,-3.282442748091603,-0.443359375,-0.0546875,-0.228271484375,0.8533999999999999
2.9160305343511452,2.7786259541984735,-3.3587786259541983,-0.4521484375,-0.0537109375,-0.223876953125,0.8551
2.9618320610687023,2.7480916030534353,-3.4198473282442747,-0.45166015625,-0.05078125,-0.22607421875,0.8568
2.885496183206107,2.6717557251908395,-3.2061068702290076,-0.44677734375,-0.051025390625,-0.22802734375,0.8584999999999999
2.946564885496183,2.4427480916030535,-2.9923664122137406,-0.4462890625,-0.060302734375,-0.225830078125,0.8602
2.763358778625954,2.4122137404580153,-2.946564885496183,-0.44482421875,-0.05517578125,-0.230712890625,0.8619
2.8091603053435112,2.549618320610687,-2.8396946564885495,-0.444091796875,-0.056640625,-0.23046875,0.8635999999999999
2.595419847328244,2.5343511450381677,-2.717557251908397,-0.4501953125,-0.052490234375,-0.232421875,0.8653
2.687022900763359,2.4122137404580153,-2.732824427480916,-0.448974609375,-0.057861328125,-0.22705078125,0.867
2.8091603053435112,2.549618320610687,-2.7480916030534353,-0.4482421875,-0.053955078125,-0.22802734375,0.8686999999999999
2.6259541984732824,2.4732824427480917,-2.6564885496183206,-0.447021484375,-0.057373046875,-0.234375,0.8704
2.4885496183206106,2.2442748091603053,-2.4732824427480917,-0.450439453125,-0.05322265625,-0.22705078125,0.8721
2.50381679389313,2.0,-2.50381679389313,-0.44677734375,-0.05322265625,-0.224609375,0.8737999999999999
2.4580152671755724,1.984732824427481,-2.33587786259542,-0.447021484375,-0.055419921875,-0.23193359375,0.8755
2.4885496183206106,2.015267175572519,-2.3206106870229006,-0.446044921875,-0.05615234375,-0.228515625,0.8772
2.2900763358778624,1.9083969465648856,-2.519083969465649,-0.445556640625,-0.0595703125,-0.230224609375,0.8788999999999999
2.1374045801526718,1.6030534351145038,-2.6564885496183206,-0.448974609375,-0.055908203125,-0.22802734375,0.8805999999999999
2.2290076335877864,1.4961832061068703,-2.7022900763358777,-0.44921875,-0.056396484375,-0.2255859375,0.8823
1.984732824427481,1.4351145038167938,-2.6106870229007635,-0.447998046875,-0.05810546875,-0.22998046875,0.8839999999999999
1.8473282442748091,1.282442748091603,-2.717557251908397,-0.447509765625,-0.0537109375,-0.231689453125,0.8856999999999999
1.6946564885496183,1.4198473282442747,-2.7786259541984735,-0.445556640625,-0.052001953125,-0.230712890625,0.8874
1.8015267175572518,1.2671755725190839,-2.854961832061069,-0.44873046875,-0.055908203125,-0.23388671875,0.8891
1.83206106870229,1.2061068702290076,-2.6259541984732824,-0.44677734375,-0.05712890625,-0.231689453125,0.8907999999999999
1.786259541984733,1.1603053435114503,-2.931297709923664,-0.451171875,-0.05419921875,-0.228515625,0.8925
1.7557251908396947,1.1755725190839694,-2.885496183206107,-0.447265625,-0.057373046875,-0.237060546875,0.8942
1.618320610687023,1.4198473282442747,-2.854961832061069,-0.44775390625,-0.05712890625,-0.2314453125,0.8958999999999999
1.6030534351145038,1.7404580152671756,-2.6564885496183206,-0.450439453125,-0.0576171875,-0.229736328125,0.8976
1.7709923664122138,1.6946564885496183,-2.6259541984732824,-0.4521484375,-0.052734375,-0.22998046875,0.8993
1.7251908396946565,1.5114503816793894,-2.549618320610687,-0.451171875,-0.0546875,-0.22802734375,0.9009999999999999
1.6793893129770991,1.7099236641221374,-2.6412213740458017,-0.451416015625,-0.0537109375,-0.230224609375,0.9027
1.6030534351145038,1.4961832061068703,-2.381679389312977,-0.455322265625,-0.0517578125,-0.234619140625,0.9044
2.0,1.618320610687023,-2.4122137404580153,-0.452880859375,-0.05078125,-0.232421875,0.9060999999999999
2.16793893129771,1.8015267175572518,-2.0763358778625953,-0.45361328125,-0.04833984375,-0.232421875,0.9077999999999999
2.0610687022900764,1.7557251908396947,-2.351145038167939,-0.4541015625,-0.0458984375,-0.229736328125,0.9095
1.9541984732824427,1.8015267175572518,-2.122137404580153,-0.451171875,-0.05029296875,-0.234375,0.9111999999999999
2.122137404580153,1.6793893129770991,-1.9389312977099236,-0.455078125,-0.0498046875,-0.229248046875,0.9128999999999999
2.213740458015267,1.8473282442748091,-1.7404580152671756,-0.4521484375,-0.04931640625,-0.232421875,0.9146
2.183206106870229,1.7404580152671756,-1.7404580152671756,-0.452392578125,-0.0498046875,-0.231689453125,0.9163
2.351145038167939,1.7709923664122138,-1.5419847328244274,-0.451171875,-0.047119140625,-0.2333984375,0.9179999999999999
2.16793893129771,2.0,-1.4809160305343512,-0.450927734375,-0.047607421875,-0.2294921875,0.9197
2.213740458015267,1.8015267175572518,-1.297709923664122,-0.4482421875,-0.04931640625,-0.23583984375,0.9214
2.2290076335877864,2.045801526717557,-1.450381679389313,-0.4521484375,-0.051025390625,-0.233642578125,0.9230999999999999
2.16793893129771,1.9389312977099236,-1.3282442748091603,-0.45361328125,-0.047119140625,-0.23876953125,0.9248
1.8015267175572518,2.1068702290076335,-1.5877862595419847,-0.453369140625,-0.0498046875,-0.23583984375,0.9265
1.5419847328244274,1.9389312977099236,-1.3435114503816794,-0.45068359375,-0.052001953125,-0.23095703125,0.9281999999999999
1.7099236641221374,2.0610687022900764,-1.450381679389313,-0.44970703125,-0.048095703125,-0.230712890625,0.9299
1.7404580152671756,1.8931297709923665,-1.3893129770992367,-0.44970703125,-0.054443359375,-0.22607421875,0.9316
1.5267175572519085,1.7251908396946565,-1.3435114503816794,-0.4501953125,-0.05859375,-0.232666015625,0.9332999999999999
1.5114503816793894,1.633587786259542,-1.297709923664122,-0.4521484375,-0.0556640625,-0.225830078125,0.9349999999999999
1.8015267175572518,1.4198473282442747,-1.4351145038167938,-0.44921875,-0.052734375,-0.231689453125,0.9367
1.786259541984733,1.1908396946564885,-1.2061068702290076,-0.45458984375,-0.05322265625,-0.23388671875,0.9383999999999999
1.6641221374045803,1.1145038167938932,-1.5267175572519085,-0.45263671875,-0.055908203125,-0.2265625,0.9400999999999999
1.633587786259542,0.6564885496183206,-1.0534351145038168,-0.4521484375,-0.05322265625,-0.236083984375,0.9418
1.9236641221374047,0.5190839694656488,-1.099236641221374,-0.450927734375,-0.052001953125,-0.234619140625,0.9434999999999999
1.5725190839694656,0.0916030534351145,-1.0381679389312977,-0.44921875,-0.052734375,-0.23291015625,0.9451999999999999
1.6030534351145038,-0.061068702290076333,-1.0534351145038168,-0.45068359375,-0.0537109375,-0.228515625,0.9469
1.984732824427481,-0.15267175572519084,-1.0076335877862594,-0.44970703125,-0.0546875,-0.236328125,0.9486
1.7557251908396947,-0.3969465648854962,-0.9770992366412213,-0.45361328125,-0.056396484375,-0.234375,0.9502999999999999
1.7557251908396947,-0.7175572519083969,-0.9007633587786259,-0.45703125,-0.064208984375,-0.237548828125,0.952
1.83206106870229,-0.7633587786259542,-0.6259541984732825,-0.459228515625,-0.059814453125,-0.238525390625,0.9537
1.8015267175572518,-0.9312977099236641,-0.4580152671755725,-0.455078125,-0.053955078125,-0.22802734375,0.9553999999999999
1.6946564885496183,-0.9618320610687023,-0.549618320610687,-0.462646484375,-0.059326171875,-0.238525390625,0.9571
1.83206106870229,-1.0229007633587786,-0.3816793893129771,-0.463134765625,-0.060302734375,-0.240234375,0.9588
1.7251908396946565,-1.1297709923664123,-0.3511450381679389,-0.46337890625,-0.059326171875,-0.231689453125,0.9604999999999999
1.7251908396946565,-0.9312977099236641,-0.3511450381679389,-0.461669921875,-0.0576171875,-0.23681640625,0.9621999999999999
1.8931297709923665,-0.8396946564885496,-0.24427480916030533,-0.458251953125,-0.059326171875,-0.239501953125,0.9639
1.5267175572519085,-0.6717557251908397,-0.3969465648854962,-0.45703125,-0.058349609375,-0.239501953125,0.9655999999999999
1.5114503816793894,-0.6259541984732825,-0.2595419847328244,-0.46435546875,-0.067138671875,-0.242919921875,0.9672999999999999
1.6793893129770991,-0.44274809160305345,-0.12213740458015267,-0.4599609375,-0.06201171875,-0.2373046875,0.969
1.465648854961832,-0.4122137404580153,-0.48854961832061067,-0.460693359375,-0.05859375,-0.2314453125,0.9706999999999999
1.2671755725190839,-0.1984732824427481,-0.3816793893129771,-0.45703125,-0.061767578125,-0.2392578125,0.9723999999999999
1.251908396946565,-0.10687022900763359,-0.42748091603053434,-0.4677734375,-0.064208984375,-0.2314453125,0.9741
1.297709923664122,-0.15267175572519084,-0.44274809160305345,-0.46240234375,-0.063232421875,-0.235107421875,0.9758
0.9465648854961832,-0.030534351145038167,-0.6717557251908397,-0.459716796875,-0.062255859375,-0.229736328125,0.9774999999999999
0.8244274809160306,0.24427480916030533,-0.7022900763358778,-0.4609375,-0.063720703125,-0.23779296875,0.9792
0.916030534351145,0.24427480916030533,-0.9770992366412213,-0.46044921875,-0.064208984375,-0.228515625,0.9809
0.732824427480916,0.04580152671755725,-1.0381679389312977,-0.457763671875,-0.063720703125,-0.234130859375,0.9825999999999999
0.7786259541984732,0.10687022900763359,-1.2213740458015268,-0.456787109375,-0.0615234375,-0.2275390625,0.9843
0.7022900763358778,-0.04580152671755725,-1.282442748091603,-0.454833984375,-0.06640625,-0.23193359375,0.986
0.6259541984732825,0.0,-1.4045801526717556,-0.455322265625,-0.06640625,-0.22998046875,0.9876999999999999
0.9312977099236641,0.21374045801526717,-1.4351145038167938,-0.455810546875,-0.061279296875,-0.236083984375,0.9894
1.0687022900763359,0.15267175572519084,-1.5877862595419847,-0.4560546875,-0.055419921875,-0.23193359375,0.9911
0.8854961832061069,0.04580152671755725,-1.5114503816793894,-0.45947265625,-0.06494140625,-0.228759765625,0.9927999999999999
1.1908396946564885,0.12213740458015267,-1.6488549618320612,-0.4560546875,-0.059326171875,-0.2353515625,0.9944999999999999
1.5419847328244274,0.2900763358778626,-1.5572519083969465,-0.459716796875,-0.05712890625,-0.2265625,0.9962
1.2061068702290076,0.42748091603053434,-1.8473282442748091,-0.452880859375,-0.0595703125,-0.233642578125,0.9978999999999999
1.297709923664122,0.5648854961832062,-1.8931297709923665,-0.454833984375,-0.05712890625,-0.233154296875,0.9995999999999999
1.5419847328244274,0.8702290076335878,-1.8931297709923665,-0.456787109375,-0.057373046875,-0.231689453125,1.0012999999999999
1.4351145038167938,1.1145038167938932,-1.7251908396946565,-0.457275390625,-0.059326171875,-0.2392578125,1.003
1.3893129770992367,1.1603053435114503,-1.8015267175572518,-0.454833984375,-0.059326171875,-0.238037109375,1.0047
1.6946564885496183,1.297709923664122,-1.9541984732824427,-0.4580078125,-0.0546875,-0.225830078125,1.0064
1.8778625954198473,1.7557251908396947,-1.9389312977099236,-0.456787109375,-0.058349609375,-0.223876953125,1.0081
1.83206106870229,1.786259541984733,-1.83206106870229,-0.456298828125,-0.057373046875,-0.228515625,1.0098
1.6793893129770991,1.83206106870229,-1.8778625954198473,-0.45458984375,-0.0546875,-0.22509765625,1.0114999999999998
1.7251908396946565,1.6641221374045803,-1.9236641221374047,-0.453857421875,-0.0546875,-0.2216796875,1.0131999999999999
1.1755725190839694,1.8015267175572518,-1.9083969465648856,-0.452880859375,-0.05712890625,-0.219482421875,1.0149
1.251908396946565,2.0610687022900764,-2.0916030534351147,-0.4482421875,-0.05615234375,-0.228515625,1.0166
1.2366412213740459,1.8931297709923665,-1.984732824427481,-0.44970703125,-0.050537109375,-0.219970703125,1.0183
0.9923664122137404,1.7557251908396947,-1.83206106870229,-0.449462890625,-0.052001953125,-0.228515625,1.02
1.1603053435114503,1.7709923664122138,-2.3206106870229006,-0.4462890625,-0.05517578125,-0.221923828125,1.0217
0.732824427480916,1.6641221374045803,-2.4732824427480917,-0.448486328125,-0.05126953125,-0.226318359375,1.0233999999999999
0.6564885496183206,1.4351145038167938,-2.427480916030534,-0.44970703125,-0.05419921875,-0.221435546875,1.0251
0.42748091603053434,1.282442748091603,-2.6412213740458017,-0.44189453125,-0.055419921875,-0.22509765625,1.0268
0.48854961832061067,1.2671755725190839,-2.6259541984732824,-0.44287109375,-0.054443359375,-0.22314453125,1.0285
0.2900763358778626,1.1145038167938932,-2.50381679389313,-0.44677734375,-0.05322265625,-0.22021484375,1.0302
0.4122137404580153,0.7938931297709924,-2.6564885496183206,-0.4453125,-0.0537109375,-0.2255859375,1.0319
0.2748091603053435,0.9770992366412213,-2.6564885496183206,-0.439697265625,-0.0498046875,-0.225830078125,1.0335999999999999
0.22900763358778625,0.732824427480916,-2.8091603053435112,-0.446533203125,-0.051025390625,-0.225341796875,1.0352999999999999
0.12213740458015267,0.549618320610687,-2.8396946564885495,-0.4453125,-0.050537109375,-0.22265625,1.037
0.2595419847328244,0.42748091603053434,-2.687022900763359,-0.44091796875,-0.053955078125,-0.23291015625,1.0387
0.2900763358778626,0.4580152671755725,-2.7480916030534353,-0.4453125,-0.046875,-0.226806640625,1.0404
0.22900763358778625,0.48854961832061067,-2.50381679389313,-0.441650390625,-0.049072265625,-0.229736328125,1.0421
0.3969465648854962,0.549618320610687,-2.7480916030534353,-0.439453125,-0.055419921875,-0.225341796875,1.0437999999999998
0.3053435114503817,0.4122137404580153,-2.50381679389313,-0.449951171875,-0.051513671875,-0.2197265625,1.0454999999999999
0.5801526717557252,0.7175572519083969,-2.4427480916030535,-0.442138671875,-0.048095703125,-0.226318359375,1.0472
0.732824427480916,0.9007633587786259,-2.2595419847328246,-0.447998046875,-0.0439453125,-0.231689453125,1.0489
0.8396946564885496,0.7480916030534351,-2.1526717557251906,-0.44775390625,-0.050537109375,-0.222412109375,1.0506
0.6717557251908397,0.732824427480916,-1.984732824427481,-0.442138671875,-0.05029296875,-0.2177734375,1.0523
0.8091603053435115,0.9312977099236641,-1.816793893129771,-0.4404296875,-0.0537109375,-0.2216796875,1.054
1.0687022900763359,0.8702290076335878,-1.6030534351145038,-0.439453125,-0.0498046875,-0.23388671875,1.0556999999999999
0.9465648854961832,0.9923664122137404,-1.4198473282442747,-0.43603515625,-0.051513671875,-0.218994140625,1.0574
1.1297709923664123,1.0381679389312977,-1.099236641221374,-0.44189453125,-0.053955078125,-0.21728515625,1.0591
1.4351145038167938,1.0229007633587786,-1.0687022900763359,-0.437255859375,-0.050048828125,-0.217529296875,1.0608
1.0381679389312977,1.0687022900763359,-0.6259541984732825,-0.443359375,-0.052978515625,-0.22119140625,1.0625
0.9923664122137404,0.732824427480916,-0.732824427480916,-0.438232421875,-0.05419921875,-0.228515625,1.0642
1.1603053435114503,0.9007633587786259,-0.6259541984732825,-0.440185546875,-0.05224609375,-0.22802734375,1.0658999999999998
0.8091603053435115,0.9465648854961832,-0.7633587786259542,-0.44482421875,-0.055419921875,-0.2177734375,1.0675999999999999
0.7633587786259542,0.8091603053435115,-0.4122137404580153,-0.440673828125,-0.0546875,-0.228271484375,1.0693
0.7022900763358778,0.6564885496183206,-0.4122137404580153,-0.444091796875,-0.0546875,-0.223388671875,1.071
0.7022900763358778,0.549618320610687,-0.1984732824427481,-0.443603515625,-0.05810546875,-0.221923828125,1.0727
0.6717557251908397,0.5190839694656488,-0.3053435114503817,-0.445068359375,-0.05908203125,-0.217529296875,1.0744
0.44274809160305345,0.3816793893129771,-0.3969465648854962,-0.439453125,-0.061279296875,-0.22119140625,1.0760999999999998
0.5343511450381679,0.5038167938931297,-0.3053435114503817,-0.448974609375,-0.058837890625,-0.227783203125,1.0777999999999999
0.4122137404580153,0.24427480916030533,-0.21374045801526717,-0.4443359375,-0.058349609375,-0.2275390625,1.0795
0.42748091603053434,0.42748091603053434,-0.6106870229007634,-0.44580078125,-0.062744140625,-0.228515625,1.0812
0.5038167938931297,0.6259541984732825,-0.33587786259541985,-0.44482421875,-0.06103515625,-0.22998046875,1.0829
0.3511450381679389,0.42748091603053434,-0.33587786259541985,-0.4462890625,-0.0595703125,-0.2177734375,1.0846
0.549618320610687,0.5648854961832062,-0.32061068702290074,-0.440673828125,-0.057373046875,-0.229736328125,1.0863
0.2748091603053435,0.5190839694656488,-0.32061068702290074,-0.44482421875,-0.057861328125,-0.228759765625,1.0879999999999999
-0.030534351145038167,0.5801526717557252,-0.3511450381679389,-0.44970703125,-0.057861328125,-0.223876953125,1.0897
0.16793893129770993,0.5801526717557252,-0.5801526717557252,-0.450927734375,-0.06005859375,-0.22802734375,1.0914
-0.0916030534351145,0.732824427480916,-0.4580152671755725,-0.45068359375,-0.057373046875,-0.23681640625,1.0931
-0.13740458015267176,0.9007633587786259,-0.3053435114503817,-0.447509765625,-0.05859375,-0.23828125,1.0948
-0.33587786259541985,0.732824427480916,-0.24427480916030533,-0.45458984375,-0.06689453125,-0.2353515625,1.0965
-0.42748091603053434,0.8702290076335878,-0.6717557251908397,-0.451904296875,-0.061279296875,-0.230712890625,1.0981999999999998
-0.7022900763358778,1.0534351145038168,-0.5801526717557252,-0.449951171875,-0.0615234375,-0.22998046875,1.0998999999999999
-0.8702290076335878,0.9923664122137404,-0.3816793893129771,-0.440673828125,-0.05859375,-0.2373046875,1.1016
-0.9312977099236641,0.8549618320610687,-0.3969465648854962,-0.443603515625,-0.064453125,-0.235595703125,1.1033
-1.0076335877862594,0.9618320610687023,-0.6870229007633588,-0.44140625,-0.060302734375,-0.234375,1.105
-0.8702290076335878,0.7786259541984732,-0.4580152671755725,-0.442626953125,-0.057861328125,-0.232421875,1.1067
-1.0534351145038168,0.9312977099236641,-0.549618320610687,-0.441162109375,-0.057861328125,-0.230224609375,1.1083999999999998
-1.1603053435114503,0.9007633587786259,-0.5648854961832062,-0.4453125,-0.0595703125,-0.22802734375,1.1100999999999999
-0.7022900763358778,0.916030534351145,-0.6870229007633588,-0.446533203125,-0.05615234375,-0.239013671875,1.1118
-0.8091603053435115,0.7633587786259542,-0.6564885496183206,-0.4443359375,-0.0576171875,-0.232421875,1.1135
-0.9770992366412213,0.6564885496183206,-0.7022900763358778,-0.443115234375,-0.058349609375,-0.22998046875,1.1152
-1.0687022900763359,0.549618320610687,-0.3511450381679389,-0.4462890625,-0.060302734375,-0.229248046875,1.1169
-1.099236641221374,0.6870229007633588,-0.5801526717557252,-0.442138671875,-0.059814453125,-0.2255859375,1.1186
-1.0381679389312977,0.3053435114503817,-0.6870229007633588,-0.444091796875,-0.052734375,-0.230224609375,1.1202999999999999
-1.099236641221374,-0.015267175572519083,-0.6412213740458015,-0.44140625,-0.052490234375,-0.228515625,1.1219999999999999
-1.1603053435114503,0.0,-0.5038167938931297,-0.4443359375,-0.054443359375,-0.225830078125,1.1237
-0.9007633587786259,-0.2748091603053435,-0.6564885496183206,-0.445068359375,-0.052734375,-0.2255859375,1.1254
-1.0229007633587786,-0.5038167938931297,-0.5954198473282443,-0.4443359375,-0.052490234375,-0.22216796875,1.1271
-1.099236641221374,-0.5190839694656488,-0.24427480916030533,-0.443115234375,-0.051025390625,-0.22900390625,1.1288
-0.9007633587786259,-0.6564885496183206,-0.2748091603053435,-0.442138671875,-0.05078125,-0.229736328125,1.1304999999999998
-0.7175572519083969,-0.6717557251908397,-0.2900763358778626,-0.438720703125,-0.05029296875,-0.22216796875,1.1321999999999999
-0.7480916030534351,-0.5343511450381679,-0.33587786259541985,-0.44384765625,-0.048828125,-0.219482421875,1.1339
-0.9618320610687023,-0.366412213740458,-0.32061068702290074,-0.44677734375,-0.050537109375,-0.228271484375,1.1356
-0.7022900763358778,-0.4122137404580153,-0.24427480916030533,-0.44921875,-0.0517578125,-0.231689453125,1.1373
-0.5801526717557252,-0.24427480916030533,-0.2748091603053435,-0.447998046875,-0.044921875,-0.232666015625,1.139
-0.4580152671755725,-0.21374045801526717,-0.183206106870229,-0.44384765625,-0.041259765625,-0.232421875,1.1407
-0.44274809160305345,-0.2748091603053435,-0.061068702290076333,-0.44970703125,-0.048583984375,-0.232421875,1.1423999999999999
-0.33587786259541985,-0.2595419847328244,0.15267175572519084,-0.45361328125,-0.049072265625,-0.2294921875,1.1441
-0.16793893129770993,-0.12213740458015267,0.15267175572519084,-0.45263671875,-0.042724609375,-0.23828125,1.1458
0.0916030534351145,0.12213740458015267,0.07633587786259542,-0.446044921875,-0.052734375,-0.22802734375,1.1475
0.2748091603053435,0.32061068702290074,0.15267175572519084,-0.44921875,-0.0478515625,-0.223388671875,1.1492
0.21374045801526717,0.3511450381679389,0.16793893129770993,-0.45068359375,-0.043212890625,-0.22509765625,1.1509
0.4580152671755725,0.4732824427480916,0.12213740458015267,-0.4453125,-0.036376953125,-0.226318359375,1.1525999999999998
0.4732824427480916,0.6106870229007634,0.366412213740458,-0.445556640625,-0.041748046875,-0.22705078125,1.1542999999999999
0.732824427480916,0.732824427480916,0.48854961832061067,-0.453857421875,-0.0439453125,-0.228515625,1.156
0.6564885496183206,0.6259541984732825,0.3053435114503817,-0.447265625,-0.04541015625,-0.22998046875,1.1577
0.6717557251908397,0.7175572519083969,0.3816793893129771,-0.4462890625,-0.041259765625,-0.227294921875,1.1594
0.7786259541984732,1.083969465648855,0.5190839694656488,-0.446044921875,-0.04638671875,-0.228271484375,1.1611
0.8396946564885496,0.8244274809160306,0.4732824427480916,-0.4443359375,-0.039794921875,-0.229736328125,1.1627999999999998
1.1603053435114503,0.9312977099236641,0.5648854961832062,-0.4521484375,-0.046875,-0.23486328125,1.1644999999999999
1.2671755725190839,0.8396946564885496,0.4580152671755725,-0.453369140625,-0.044189453125,-0.230224609375,1.1662
1.0687022900763359,0.9007633587786259,0.5648854961832062,-0.44482421875,-0.0498046875,-0.23095703125,1.1679
1.3282442748091603,1.099236641221374,0.6259541984732825,-0.447998046875,-0.054931640625,-0.229736328125,1.1696
1.297709923664122,0.9618320610687023,0.5954198473282443,-0.449462890625,-0.051513671875,-0.23486328125,1.1713
1.1603053435114503,1.0229007633587786,0.6717557251908397,-0.449462890625,-0.05615234375,-0.239013671875,1.173
1.1603053435114503,1.1297709923664123,0.7175572519083969,-0.449951171875,-0.05712890625,-0.232666015625,1.1746999999999999
1.3893129770992367,1.251908396946565,0.8244274809160306,-0.451904296875,-0.0615234375,-0.22509765625,1.1764
1.0076335877862594,1.3129770992366412,0.7175572519083969,-0.4501953125,-0.05419921875,-0.230712890625,1.1781
0.9312977099236641,1.3893129770992367,0.7022900763358778,-0.451416015625,-0.052490234375,-0.237548828125,1.1798
0.9618320610687023,1.5877862595419847,0.5801526717557252,-0.4501953125,-0.059326171875,-0.233154296875,1.1815
0.8549618320610687,1.7709923664122138,0.549618320610687,-0.4501953125,-0.0546875,-0.236083984375,1.1832
0.7022900763358778,1.8473282442748091,0.4122137404580153,-0.44580078125,-0.061279296875,-0.230224609375,1.1848999999999998
0.9007633587786259,1.8931297709923665,0.549618320610687,-0.45166015625,-0.063232421875,-0.225341796875,1.1865999999999999
0.7480916030534351,2.2748091603053435,0.33587786259541985,-0.4521484375,-0.063720703125,-0.23193359375,1.1883
0.7938931297709924,2.015267175572519,0.16793893129770993,-0.4501953125,-0.060302734375,-0.23291015625,1.19
0.7480916030534351,1.8473282442748091,0.1984732824427481,-0.447021484375,-0.0625,-0.22607421875,1.1917
0.6717557251908397,1.5725190839694656,-0.15267175572519084,-0.447265625,-0.060791015625,-0.223876953125,1.1934
1.1297709923664123,1.7404580152671756,0.061068702290076333,-0.4462890625,-0.058837890625,-0.224853515625,1.1950999999999998
1.083969465648855,1.5877862595419847,-0.10687022900763359,-0.45166015625,-0.058837890625,-0.227783203125,1.1967999999999999
1.3435114503816794,1.3587786259541985,-0.16793893129770993,-0.451904296875,-0.05908203125,-0.22412109375,1.1985
1.083969465648855,0.9923664122137404,-0.07633587786259542,-0.450927734375,-0.057861328125,-0.22021484375,1.2002
1.2213740458015268,0.9007633587786259,-0.2595419847328244,-0.447509765625,-0.05419921875,-0.229248046875,1.2019
1.3587786259541985,0.7022900763358778,-0.2595419847328244,-0.45166015625,-0.056884765625,-0.22998046875,1.2036
1.5267175572519085,0.3969465648854962,-0.2748091603053435,-0.451416015625,-0.04833984375,-0.2294921875,1.2053
1.4809160305343512,0.2595419847328244,-0.4732824427480916,-0.446044921875,-0.05419921875,-0.22900390625,1.2069999999999999
1.083969465648855,0.030534351145038167,-0.5801526717557252,-0.455322265625,-0.05517578125,-0.227294921875,1.2086999999999999
1.3129770992366412,0.33587786259541985,-0.33587786259541985,-0.45361328125,-0.060791015625,-0.227294921875,1.2104
0.9618320610687023,0.0916030534351145,-0.5648854961832062,-0.449462890625,-0.05615234375,-0.22900390625,1.2121
0.8091603053435115,0.13740458015267176,-0.32061068702290074,-0.449462890625,-0.0546875,-0.232666015625,1.2138
0.6717557251908397,0.44274809160305345,-0.2900763358778626,-0.451416015625,-0.051025390625,-0.23486328125,1.2155
0.24427480916030533,0.2748091603053435,-0.366412213740458,-0.44970703125,-0.0546875,-0.235107421875,1.2171999999999998
0.0,0.5954198473282443,-0.3969465648854962,-0.447998046875,-0.056884765625,-0.236083984375,1.2188999999999999
-0.22900763358778625,0.5648854961832062,-0.42748091603053434,-0.451171875,-0.057861328125,-0.2353515625,1.2206
-0.33587786259541985,0.6412213740458015,-0.5038167938931297,-0.450927734375,-0.0537109375,-0.233642578125,1.2223
-0.44274809160305345,0.8854961832061069,-0.2748091603053435,-0.44970703125,-0.05029296875,-0.233154296875,1.224
-0.6259541984732825,1.1297709923664123,-0.5648854961832062,-0.449462890625,-0.056884765625,-0.2314453125,1.2257
-0.7022900763358778,1.1603053435114503,-0.3816793893129771,-0.451171875,-0.05712890625,-0.22998046875,1.2273999999999998
-0.7786259541984732,1.251908396946565,-0.33587786259541985,-0.450439453125,-0.055419921875,-0.230224609375,1.2290999999999999
-0.7022900763358778,1.5114503816793894,-0.2900763358778626,-0.44775390625,-0.0517578125,-0.23291015625,1.2308
-0.6564885496183206,1.5725190839694656,-0.24427480916030533,-0.44677734375,-0.052734375,-0.244384765625,1.2325
-0.5343511450381679,1.6488549618320612,-0.16793893129770993,-0.44580078125,-0.055908203125,-0.230712890625,1.2342
-0.3053435114503817,1.3893129770992367,-0.22900763358778625,-0.449462890625,-0.054443359375,-0.23095703125,1.2359
-0.0916030534351145,1.450381679389313,-0.12213740458015267,-0.448486328125,-0.05517578125,-0.230224609375,1.2376
0.0916030534351145,1.3587786259541985,-0.21374045801526717,-0.44873046875,-0.057373046875,-0.236572265625,1.2392999999999998
0.5954198473282443,1.3587786259541985,0.21374045801526717,-0.4462890625,-0.054931640625,-0.23486328125,1.2409999999999999
0.5038167938931297,1.3587786259541985,-0.2595419847328244,-0.44677734375,-0.048583984375,-0.236083984375,1.2427
0.6106870229007634,1.3282442748091603,-0.030534351145038167,-0.4443359375,-0.0537109375,-0.23583984375,1.2444
1.099236641221374,1.2671755725190839,0.030534351145038167,-0.4501953125,-0.053466796875,-0.235107421875,1.2461
1.2213740458015268,1.1450381679389312,0.2748091603053435,-0.44873046875,-0.057861328125,-0.230224609375,1.2478
0.8702290076335878,0.8396946564885496,0.3816793893129771,-0.447265625,-0.053466796875,-0.224365234375,1.2494999999999998
1.0076335877862594,0.6106870229007634,0.4122137404580153,-0.44873046875,-0.0546875,-0.226806640625,1.2511999999999999
1.282442748091603,0.5038167938931297,0.4122137404580153,-0.450927734375,-0.055908203125,-0.235595703125,1.2529
1.1450381679389312,0.4580152671755725,0.3816793893129771,-0.448974609375,-0.0595703125,-0.23681640625,1.2546
1.0687022900763359,0.3053435114503817,0.32061068702290074,-0.451904296875,-0.053955078125,-0.2353515625,1.2563
1.2061068702290076,0.3053435114503817,0.366412213740458,-0.45654296875,-0.06103515625,-0.233154296875,1.258
1.3129770992366412,0.3053435114503817,0.2595419847328244,-0.451171875,-0.0546875,-0.2353515625,1.2596999999999998
1.465648854961832,0.366412213740458,0.4732824427480916,-0.451171875,-0.05810546875,-0.23291015625,1.2613999999999999
1.5267175572519085,0.42748091603053434,0.15267175572519084,-0.453369140625,-0.060791015625,-0.230712890625,1.2631
1.465648854961832,0.732824427480916,0.22900763358778625,-0.450927734375,-0.0537109375,-0.234375,1.2648
1.5419847328244274,0.8854961832061069,0.061068702290076333,-0.453369140625,-0.052734375,-0.236083984375,1.2665
1.5725190839694656,1.0534351145038168,-0.030534351145038167,-0.450927734375,-0.055419921875,-0.23095703125,1.2682
1.4198473282442747,1.465648854961832,-0.04580152671755725,-0.454833984375,-0.056640625,-0.2294921875,1.2699
1.0534351145038168,1.7099236641221374,-0.1984732824427481,-0.452392578125,-0.055908203125,-0.232666015625,1.2715999999999998
1.0381679389312977,1.8473282442748091,-0.5038167938931297,-0.451904296875,-0.052978515625,-0.24072265625,1.2732999999999999
1.1908396946564885,2.1526717557251906,-0.549618320610687,-0.4580078125,-0.051513671875,-0.231201171875,1.275
1.1297709923664123,1.9541984732824427,-0.8396946564885496,-0.44970703125,-0.055419921875,-0.2353515625,1.2767
0.8549618320610687,2.2595419847328246,-0.6870229007633588,-0.449462890625,-0.05810546875,-0.23583984375,1.2784
0.5648854961832062,2.4885496183206106,-0.8244274809160306,-0.45263671875,-0.05029296875,-0.22705078125,1.2801
0.8244274809160306,2.50381679389313,-0.8854961832061069,-0.451904296875,-0.051513671875,-0.2265625,1.2817999999999998
0.9465648854961832,2.4580152671755724,-1.1145038167938932,-0.445556640625,-0.050537109375,-0.23388671875,1.2834999999999999
0.8091603053435115,2.3969465648854964,-1.1145038167938932,-0.447998046875,-0.05224609375,-0.232421875,1.2852
1.0687022900763359,2.4122137404580153,-1.1755725190839694,-0.447021484375,-0.05322265625,-0.22900390625,1.2869
1.0534351145038168,2.4427480916030535,-1.1755725190839694,-0.449462890625,-0.047607421875,-0.231201171875,1.2886
1.3740458015267176,2.1068702290076335,-1.099236641221374,-0.446044921875,-0.046630859375,-0.223876953125,1.2903
1.7557251908396947,1.9236641221374047,-1.3435114503816794,-0.452392578125,-0.045166015625,-0.224365234375,1.292
1.633587786259542,2.0916030534351147,-1.5267175572519085,-0.44873046875,-0.044677734375,-0.228271484375,1.2936999999999999
1.7099236641221374,1.9389312977099236,-1.282442748091603,-0.4462890625,-0.046142578125,-0.234619140625,1.2953999999999999
1.9389312977099236,1.7099236641221374,-1.3282442748091603,-0.445068359375,-0.04443359375,-0.224365234375,1.2971
1.8931297709923665,1.8015267175572518,-1.2671755725190839,-0.4443359375,-0.049072265625,-0.224365234375,1.2988
2.122137404580153,1.7251908396946565,-1.3893129770992367,-0.446044921875,-0.042724609375,-0.2265625,1.3005
1.816793893129771,1.5267175572519085,-1.1755725190839694,-0.445556640625,-0.047119140625,-0.22509765625,1.3022
1.6488549618320612,1.4809160305343512,-1.0534351145038168,-0.445068359375,-0.0498046875,-0.225830078125,1.3038999999999998
1.786259541984733,1.3587786259541985,-0.9618320610687023,-0.448486328125,-0.043701171875,-0.222900390625,1.3055999999999999
1.5877862595419847,1.465648854961832,-0.7786259541984732,-0.447998046875,-0.047607421875,-0.219482421875,1.3073
1.7404580152671756,1.2366412213740459,-0.6564885496183206,-0.4462890625,-0.0390625,-0.22412109375,1.309
2.0610687022900764,0.9618320610687023,-0.5954198473282443,-0.443359375,-0.036865234375,-0.231201171875,1.3107
1.633587786259542,0.9923664122137404,-0.4732824427480916,-0.452392578125,-0.04736328125,-0.222900390625,1.3124
1.9083969465648856,0.7786259541984732,-0.22900763358778625,-0.44873046875,-0.04638671875,-0.22998046875,1.3140999999999998
2.2442748091603053,0.549618320610687,0.0916030534351145,-0.45068359375,-0.04150390625,-0.22021484375,1.3157999999999999
2.122137404580153,0.2748091603053435,0.13740458015267176,-0.44873046875,-0.04248046875,-0.22265625,1.3175
2.366412213740458,0.366412213740458,0.24427480916030533,-0.44775390625,-0.041748046875,-0.23388671875,1.3192
2.427480916030534,0.061068702290076333,0.3816793893129771,-0.44677734375,-0.04541015625,-0.23193359375,1.3209
2.549618320610687,0.07633587786259542,0.4580152671755725,-0.449462890625,-0.04248046875,-0.232666015625,1.3226
2.4732824427480917,-0.3053435114503817,0.6717557251908397,-0.443359375,-0.04541015625,-0.21533203125,1.3243
2.2900763358778624,-0.4122137404580153,0.5190839694656488,-0.450439453125,-0.04931640625,-0.22802734375,1.3259999999999998
2.33587786259542,-0.183206106870229,0.5801526717557252,-0.452880859375,-0.04638671875,-0.22900390625,1.3276999999999999
2.595419847328244,-0.24427480916030533,0.33587786259541985,-0.44873046875,-0.047119140625,-0.22802734375,1.3294
2.2900763358778624,-0.061068702290076333,0.3511450381679389,-0.450927734375,-0.046142578125,-0.219482421875,1.3311
2.427480916030534,-0.07633587786259542,0.366412213740458,-0.450439453125,-0.0556640625,-0.235107421875,1.3328
2.2900763358778624,0.015267175572519083,0.10687022900763359,-0.450439453125,-0.049072265625,-0.228759765625,1.3345
2.4122137404580153,-0.04580152671755725,0.16793893129770993,-0.44775390625,-0.0498046875,-0.23291015625,1.3361999999999998
2.3053435114503817,-0.04580152671755725,0.10687022900763359,-0.447021484375,-0.05517578125,-0.234375,1.3378999999999999
2.366412213740458,0.030534351145038167,-0.15267175572519084,-0.4443359375,-0.04931640625,-0.23876953125,1.3396
2.549618320610687,0.42748091603053434,-0.10687022900763359,-0.447021484375,-0.05029296875,-0.23828125,1.3413
2.6106870229007635,0.4122137404580153,-0.2748091603053435,-0.447265625,-0.048583984375,-0.234375,1.343
2.8244274809160306,0.5343511450381679,-0.183206106870229,-0.451904296875,-0.04931640625,-0.24169921875,1.3447
3.053435114503817,1.0076335877862594,-0.3969465648854962,-0.449951171875,-0.05029296875,-0.2373046875,1.3463999999999998
3.2213740458015265,1.1145038167938932,-0.48854961832061067,-0.4541015625,-0.0556640625,-0.239013671875,1.3480999999999999
3.49618320610687,1.2671755725190839,-0.5954198473282443,-0.451904296875,-0.05029296875,-0.23193359375,1.3497999999999999
3.480916030534351,1.6488549618320612,-0.549618320610687,-0.45263671875,-0.05078125,-0.23046875,1.3515
3.8931297709923665,2.2748091603053435,-0.732824427480916,-0.449951171875,-0.056396484375,-0.236572265625,1.3532
3.9389312977099236,2.3053435114503817,-0.7786259541984732,-0.447021484375,-0.051513671875,-0.239501953125,1.3549
3.954198473282443,2.7022900763358777,-0.9465648854961832,-0.447509765625,-0.053466796875,-0.23291015625,1.3566
4.229007633587786,3.0076335877862594,-1.083969465648855,-0.447021484375,-0.058837890625,-0.233154296875,1.3582999999999998
4.366412213740458,3.053435114503817,-1.2061068702290076,-0.4443359375,-0.0556640625,-0.236328125,1.3599999999999999
4.33587786259542,3.1297709923664123,-1.1603053435114503,-0.453125,-0.053466796875,-0.2333984375,1.3617
4.030534351145038,3.0229007633587788,-1.3282442748091603,-0.447265625,-0.054443359375,-0.232421875,1.3634
4.198473282442748,3.1603053435114505,-1.1450381679389312,-0.44677734375,-0.055419921875,-0.224853515625,1.3651
4.0458015267175576,2.900763358778626,-1.282442748091603,-0.442138671875,-0.052001953125,-0.230712890625,1.3668
3.786259541984733,3.053435114503817,-1.450381679389313,-0.4482421875,-0.055419921875,-0.22509765625,1.3684999999999998
4.0,2.8396946564885495,-1.618320610687023,-0.447998046875,-0.054443359375,-0.226318359375,1.3701999999999999
3.7099236641221376,2.7786259541984735,-1.3435114503816794,-0.44384765625,-0.05224609375,-0.224853515625,1.3719
3.5419847328244276,2.2900763358778624,-1.4198473282442747,-0.448486328125,-0.05224609375,-0.225830078125,1.3736
3.5572519083969465,2.0,-1.3587786259541985,-0.4453125,-0.055908203125,-0.21875,1.3753
3.572519083969466,1.984732824427481,-1.3740458015267176,-0.44677734375,-0.04931640625,-0.224365234375,1.377
3.1603053435114505,1.633587786259542,-1.1603053435114503,-0.4443359375,-0.048828125,-0.2265625,1.3786999999999998
2.8702290076335877,1.3282442748091603,-1.1755725190839694,-0.447265625,-0.04833984375,-0.220703125,1.3803999999999998
3.0229007633587788,1.2366412213740459,-1.2671755725190839,-0.444580078125,-0.047119140625,-0.223876953125,1.3820999999999999
2.763358778625954,0.9312977099236641,-1.2366412213740459,-0.4462890625,-0.0458984375,-0.22900390625,1.3838
2.2442748091603053,0.48854961832061067,-0.8396946564885496,-0.44091796875,-0.048828125,-0.223388671875,1.3855
2.0610687022900764,0.1984732824427481,-0.8854961832061069,-0.447021484375,-0.046630859375,-0.216796875,1.3872
2.1374045801526718,0.183206106870229,-0.8091603053435115,-0.4501953125,-0.045654296875,-0.218994140625,1.3889
1.7099236641221374,-0.22900763358778625,-0.7938931297709924,-0.44287109375,-0.052978515625,-0.226806640625,1.3905999999999998
1.7557251908396947,-0.3053435114503817,-0.5954198473282443,-0.444091796875,-0.048095703125,-0.224853515625,1.3922999999999999
1.8625954198473282,-0.48854961832061067,-0.5801526717557252,-0.44482421875,-0.045654296875,-0.225341796875,1.394
1.7404580152671756,-0.7786259541984732,-0.6870229007633588,-0.446533203125,-0.048828125,-0.22216796875,1.3957
1.3587786259541985,-0.9007633587786259,-0.5801526717557252,-0.449462890625,-0.04736328125,-0.2294921875,1.3974
1.3587786259541985,-0.9618320610687023,-0.2595419847328244,-0.447998046875,-0.04443359375,-0.238037109375,1.3991
1.2213740458015268,-1.099236641221374,-0.183206106870229,-0.445556640625,-0.048095703125,-0.240234375,1.4007999999999998
1.6488549618320612,-1.0534351145038168,0.061068702290076333,-0.44970703125,-0.052001953125,-0.227783203125,1.4024999999999999
1.3587786259541985,-0.9770992366412213,0.0916030534351145,-0.4501953125,-0.0478515625,-0.228271484375,1.4042
1.3435114503816794,-0.9618320610687023,0.42748091603053434,-0.44775390625,-0.044677734375,-0.234375,1.4059
1.5267175572519085,-0.9465648854961832,0.3511450381679389,-0.4453125,-0.05029296875,-0.2421875,1.4076
1.5114503816793894,-0.732824427480916,0.8549618320610687,-0.450927734375,-0.051025390625,-0.23681640625,1.4093
1.6793893129770991,-0.6564885496183206,0.8702290076335878,-0.45263671875,-0.054931640625,-0.233154296875,1.411
1.816793893129771,-0.3053435114503817,0.9923664122137404,-0.452392578125,-0.052490234375,-0.23193359375,1.4126999999999998
1.8931297709923665,-0.10687022900763359,1.083969465648855,-0.447998046875,-0.048583984375,-0.230224609375,1.4143999999999999
2.0916030534351147,0.07633587786259542,1.099236641221374,-0.44970703125,-0.0517578125,-0.231689453125,1.4161
2.3969465648854964,-0.015267175572519083,1.1755725190839694,-0.4580078125,-0.04541015625,-0.228515625,1.4178
2.519083969465649,0.04580152671755725,1.1908396946564885,-0.452392578125,-0.0537109375,-0.227783203125,1.4195
2.5343511450381677,0.2748091603053435,1.1145038167938932,-0.453369140625,-0.05908203125,-0.2333984375,1.4212
2.6717557251908395,0.44274809160305345,1.297709923664122,-0.4560546875,-0.055908203125,-0.235107421875,1.4228999999999998
2.8244274809160306,0.6717557251908397,1.3893129770992367,-0.45361328125,-0.04931640625,-0.22900390625,1.4245999999999999
2.6106870229007635,0.6259541984732825,1.083969465648855,-0.452392578125,-0.047607421875,-0.226318359375,1.4263
3.0381679389312977,0.9465648854961832,1.099236641221374,-0.445556640625,-0.05029296875,-0.232421875,1.428
3.236641221374046,0.9465648854961832,1.1297709923664123,-0.45166015625,-0.052978515625,-0.23583984375,1.4297
3.3740458015267176,0.7786259541984732,1.1755725190839694,-0.45703125,-0.058349609375,-0.236083984375,1.4314
3.267175572519084,0.9465648854961832,0.9007633587786259,-0.4521484375,-0.05615234375,-0.231689453125,1.4330999999999998
3.480916030534351,1.0381679389312977,0.7786259541984732,-0.453125,-0.04833984375,-0.24072265625,1.4347999999999999
3.8473282442748094,0.732824427480916,0.8702290076335878,-0.449951171875,-0.05908203125,-0.236328125,1.4364999999999999
3.618320610687023,0.6259541984732825,0.7480916030534351,-0.45361328125,-0.052001953125,-0.24462890625,1.4382
3.7251908396946565,0.5190839694656488,0.7786259541984732,-0.450927734375,-0.04736328125,-0.239501953125,1.4399
3.877862595419847,0.5190839694656488,0.5343511450381679,-0.45654296875,-0.050537109375,-0.237548828125,1.4416
3.5877862595419847,0.3969465648854962,0.7175572519083969,-0.452392578125,-0.048583984375,-0.235595703125,1.4433
3.7404580152671754,0.3053435114503817,0.6870229007633588,-0.454345703125,-0.04931640625,-0.24658203125,1.4449999999999998
3.7404580152671754,0.183206106870229,0.5954198473282443,-0.45458984375,-0.052978515625,-0.231201171875,1.4466999999999999
3.66412213740458,0.15267175572519084,0.42748091603053434,-0.452880859375,-0.050537109375,-0.2392578125,1.4484
3.5572519083969465,0.3511450381679389,0.4732824427480916,-0.455322265625,-0.048583984375,-0.234130859375,1.4501
3.5114503816793894,0.6412213740458015,0.3511450381679389,-0.45458984375,-0.048095703125,-0.238037109375,1.4518
3.2977099236641223,0.6717557251908397,0.5801526717557252,-0.451904296875,-0.054931640625,-0.23046875,1.4535
3.435114503816794,1.099236641221374,0.16793893129770993,-0.452880859375,-0.05419921875,-0.231689453125,1.4551999999999998
3.1755725190839694,1.099236641221374,0.1984732824427481,-0.45458984375,-0.055419921875,-0.232421875,1.4568999999999999
3.114503816793893,1.3435114503816794,0.15267175572519084,-0.45068359375,-0.05712890625,-0.23095703125,1.4586
2.9618320610687023,1.6488549618320612,0.22900763358778625,-0.453125,-0.05615234375,-0.237060546875,1.4603
3.0381679389312977,1.9083969465648856,0.030534351145038167,-0.4560546875,-0.051513671875,-0.239501953125,1.462
2.6259541984732824,1.8473282442748091,-0.04580152671755725,-0.451416015625,-0.0576171875,-0.2275390625,1.4637
2.900763358778626,2.0763358778625953,0.16793893129770993,-0.4580078125,-0.052978515625,-0.23583984375,1.4653999999999998
2.7480916030534353,2.2442748091603053,0.42748091603053434,-0.456787109375,-0.05419921875,-0.2333984375,1.4670999999999998
3.0229007633587788,2.2748091603053435,0.10687022900763359,-0.454833984375,-0.05322265625,-0.229736328125,1.4687999999999999
2.8702290076335877,2.351145038167939,0.16793893129770993,-0.4521484375,-0.057373046875,-0.224853515625,1.4705
2.6412213740458017,2.3053435114503817,0.16793893129770993,-0.452880859375,-0.0556640625,-0.22802734375,1.4722
2.595419847328244,2.427480916030534,0.1984732824427481,-0.4501953125,-0.0576171875,-0.224853515625,1.4739
2.885496183206107,2.519083969465649,0.15267175572519084,-0.4521484375,-0.0556640625,-0.232421875,1.4756
2.564885496183206,2.3053435114503817,0.5648854961832062,-0.45361328125,-0.055908203125,-0.21923828125,1.4772999999999998
2.351145038167939,2.16793893129771,0.6870229007633588,-0.450439453125,-0.057373046875,-0.21826171875,1.4789999999999999
2.366412213740458,2.2595419847328246,0.6870229007633588,-0.448486328125,-0.057373046875,-0.218994140625,1.4807
2.16793893129771,2.122137404580153,0.5954198473282443,-0.448974609375,-0.05615234375,-0.231689453125,1.4824
1.9541984732824427,1.83206106870229,0.8396946564885496,-0.4482421875,-0.061279296875,-0.22900390625,1.4841
1.9083969465648856,1.83206106870229,0.6717557251908397,-0.451904296875,-0.05859375,-0.231201171875,1.4858
1.6793893129770991,1.7099236641221374,0.7786259541984732,-0.45361328125,-0.05712890625,-0.224609375,1.4874999999999998
1.1450381679389312,1.5419847328244274,0.732824427480916,-0.45556640625,-0.06298828125,-0.22265625,1.4891999999999999
1.0687022900763359,1.3282442748091603,0.9007633587786259,-0.44921875,-0.057861328125,-0.21923828125,1.4909
0.916030534351145,1.282442748091603,1.0381679389312977,-0.448974609375,-0.055419921875,-0.224853515625,1.4926
0.4732824427480916,1.1450381679389312,0.9923664122137404,-0.450439453125,-0.061279296875,-0.223876953125,1.4943
0.42748091603053434,0.9007633587786259,0.9923664122137404,-0.453125,-0.067138671875,-0.223876953125,1.496
0.2748091603053435,0.7633587786259542,0.8244274809160306,-0.448486328125,-0.056396484375,-0.225341796875,1.4976999999999998
0.061068702290076333,0.7480916030534351,1.0229007633587786,-0.453369140625,-0.060302734375,-0.22314453125,1.4993999999999998
0.07633587786259542,0.6564885496183206,0.8702290076335878,-0.453125,-0.06103515625,-0.231201171875,1.5010999999999999
0.3053435114503817,0.5190839694656488,0.9312977099236641,-0.447265625,-0.06201171875,-0.228759765625,1.5028
0.15267175572519084,0.3816793893129771,0.7938931297709924,-0.451904296875,-0.052978515625,-0.2314453125,1.5045
0.0,0.15267175572519084,0.6564885496183206,-0.451171875,-0.056396484375,-0.232177734375,1.5062
-0.15267175572519084,0.13740458015267176,0.732824427480916,-0.4521484375,-0.056396484375,-0.229248046875,1.5079
-0.15267175572519084,0.22900763358778625,0.7175572519083969,-0.45263671875,-0.052001953125,-0.230224609375,1.5095999999999998
0.015267175572519083,0.061068702290076333,0.7175572519083969,-0.453857421875,-0.05224609375,-0.22802734375,1.5112999999999999
-0.24427480916030533,0.44274809160305345,0.6717557251908397,-0.45166015625,-0.05078125,-0.225830078125,1.513
-0.3053435114503817,0.3511450381679389,0.6717557251908397,-0.453125,-0.05029296875,-0.228515625,1.5147
-0.5801526717557252,0.4580152671755725,0.4732824427480916,-0.454833984375,-0.047607421875,-0.235595703125,1.5164
-0.2900763358778626,0.48854961832061067,0.48854961832061067,-0.44970703125,-0.054443359375,-0.227294921875,1.5181
-0.48854961832061067,0.6870229007633588,0.48854961832061067,-0.4482421875,-0.04736328125,-0.224609375,1.5197999999999998
-0.5954198473282443,0.6412213740458015,0.32061068702290074,-0.45361328125,-0.04833984375,-0.230712890625,1.5214999999999999
-0.5954198473282443,0.916030534351145,0.2748091603053435,-0.452392578125,-0.0439453125,-0.2265625,1.5231999999999999
-0.5954198473282443,0.9007633587786259,0.13740458015267176,-0.455322265625,-0.055908203125,-0.230712890625,1.5249
-0.6106870229007634,1.251908396946565,0.183206106870229,-0.45068359375,-0.046142578125,-0.222412109375,1.5266
-0.3969465648854962,1.1755725190839694,0.183206106870229,-0.452880859375,-0.048095703125,-0.227783203125,1.5283
-0.4122137404580153,1.4961832061068703,-0.030534351145038167,-0.452392578125,-0.048095703125,-0.22509765625,1.5299999999999998
-0.13740458015267176,1.5267175572519085,-0.061068702290076333,-0.45263671875,-0.047119140625,-0.233642578125,1.5316999999999998
-0.24427480916030533,1.6641221374045803,-0.16793893129770993,-0.453125,-0.044921875,-0.22607421875,1.5333999999999999
0.15267175572519084,1.786259541984733,-0.183206106870229,-0.451171875,-0.0439453125,-0.2265625,1.5351
0.5648854961832062,1.8778625954198473,-0.21374045801526717,-0.450439453125,-0.04638671875,-0.2333984375,1.5368
0.6106870229007634,1.9389312977099236,-0.2748091603053435,-0.4482421875,-0.0498046875,-0.226806640625,1.5385
0.8549618320610687,2.2595419847328246,-0.183206106870229,-0.4462890625,-0.04736328125,-0.230224609375,1.5402
0.9770992366412213,2.3969465648854964,-0.3969465648854962,-0.450439453125,-0.041015625,-0.2294921875,1.5418999999999998
1.2213740458015268,2.3053435114503817,-0.5648854961832062,-0.447265625,-0.04296875,-0.227294921875,1.5435999999999999
1.5572519083969465,2.2748091603053435,-0.5648854961832062,-0.449462890625,-0.049560546875,-0.225830078125,1.5453
1.618320610687023,2.2290076335877864,-0.183206106870229,-0.449462890625,-0.045654296875,-0.21923828125,1.547
1.6030534351145038,1.8473282442748091,-0.5801526717557252,-0.446533203125,-0.041748046875,-0.22314453125,1.5487
1.7557251908396947,1.8778625954198473,-0.33587786259541985,-0.445556640625,-0.044921875,-0.21533203125,1.5504
1.633587786259542,2.030534351145038,-0.4732824427480916,-0.447021484375,-0.04150390625,-0.21875,1.5520999999999998
1.633587786259542,1.9694656488549618,-0.3816793893129771,-0.447265625,-0.042236328125,-0.21337890625,1.5537999999999998
1.465648854961832,1.6488549618320612,-0.24427480916030533,-0.445556640625,-0.0400390625,-0.22119140625,1.5554999999999999
1.5114503816793894,1.7404580152671756,-0.2748091603053435,-0.446044921875,-0.034423828125,-0.2255859375,1.5572
1.4961832061068703,1.6488549618320612,-0.3816793893129771,-0.446044921875,-0.043212890625,-0.223876953125,1.5589
1.3740458015267176,1.3893129770992367,-0.12213740458015267,-0.446533203125,-0.040771484375,-0.22021484375,1.5606
1.3435114503816794,1.3435114503816794,-0.13740458015267176,-0.442626953125,-0.04150390625,-0.218994140625,1.5623
1.2366412213740459,1.465648854961832,0.07633587786259542,-0.4462890625,-0.042236328125,-0.220458984375,1.5639999999999998
1.1755725190839694,1.099236641221374,-0.04580152671755725,-0.443115234375,-0.047119140625,-0.22509765625,1.5656999999999999
1.1145038167938932,0.9618320610687023,0.04580152671755725,-0.445556640625,-0.040771484375,-0.218994140625,1.5674
0.9618320610687023,0.549618320610687,0.061068702290076333,-0.4443359375,-0.04150390625,-0.21484375,1.5691
0.9923664122137404,0.32061068702290074,0.22900763358778625,-0.447998046875,-0.04296875,-0.2265625,1.5708
1.282442748091603,-0.030534351145038167,0.366412213740458,-0.43994140625,-0.044677734375,-0.22021484375,1.5725
0.9923664122137404,-0.030534351145038167,0.6564885496183206,-0.438720703125,-0.040283203125,-0.223388671875,1.5741999999999998
1.1755725190839694,-0.4122137404580153,0.32061068702290074,-0.445556640625,-0.0458984375,-0.228271484375,1.5758999999999999
0.8549618320610687,-0.6717557251908397,0.7938931297709924,-0.445556640625,-0.046142578125,-0.227783203125,1.5776
0.6106870229007634,-0.9465648854961832,1.0229007633587786,-0.44384765625,-0.047119140625,-0.225341796875,1.5793
0.916030534351145,-1.297709923664122,0.9770992366412213,-0.445556640625,-0.046142578125,-0.223876953125,1.581
0.7175572519083969,-1.4809160305343512,0.8091603053435115,-0.43994140625,-0.04736328125,-0.222412109375,1.5827
0.7786259541984732,-1.5572519083969465,0.7938931297709924,-0.442138671875,-0.048828125,-0.230712890625,1.5843999999999998
0.5954198473282443,-1.6030534351145038,0.916030534351145,-0.446044921875,-0.048828125,-0.2294921875,1.5860999999999998
0.3969465648854962,-1.4198473282442747,1.2213740458015268,-0.446044921875,-0.045654296875,-0.22900390625,1.5877999999999999
0.549618320610687,-1.5877862595419847,1.1603053435114503,-0.4462890625,-0.04541015625,-0.2353515625,1.5895
0.5343511450381679,-1.3129770992366412,1.1908396946564885,-0.453857421875,-0.051513671875,-0.234375,1.5912
0.5038167938931297,-1.1603053435114503,1.1450381679389312,-0.447998046875,-0.053466796875,-0.22900390625,1.5929
0.6106870229007634,-0.7175572519083969,1.1145038167938932,-0.45703125,-0.050537109375,-0.229736328125,1.5946
0.5954198473282443,-0.549618320610687,1.2213740458015268,-0.45458984375,-0.055908203125,-0.22998046875,1.5962999999999998
0.4580152671755725,-0.44274809160305345,1.0229007633587786,-0.447509765625,-0.05712890625,-0.237548828125,1.5979999999999999
0.42748091603053434,-0.24427480916030533,0.8091603053435115,-0.44970703125,-0.0546875,-0.2353515625,1.5997
0.5343511450381679,0.07633587786259542,0.9007633587786259,-0.451171875,-0.05810546875,-0.2333984375,1.6014
0.3816793893129771,0.48854961832061067,0.732824427480916,-0.451416015625,-0.057373046875,-0.231201171875,1.6031
0.3969465648854962,0.6412213740458015,0.5801526717557252,-0.451416015625,-0.055908203125,-0.236083984375,1.6048
0.48854961832061067,0.8549618320610687,0.2595419847328244,-0.4541015625,-0.056396484375,-0.235595703125,1.6064999999999998
0.15267175572519084,1.1145038167938932,0.4122137404580153,-0.446533203125,-0.056884765625,-0.23974609375,1.6081999999999999
0.42748091603053434,1.251908396946565,0.04580152671755725,-0.452392578125,-0.05419921875,-0.232177734375,1.6098999999999999
0.6564885496183206,1.1450381679389312,-0.183206106870229,-0.451904296875,-0.056396484375,-0.22802734375,1.6116
0.7633587786259542,1.0229007633587786,-0.15267175572519084,-0.451416015625,-0.057373046875,-0.220947265625,1.6133
0.7022900763358778,1.099236641221374,-0.2900763358778626,-0.44970703125,-0.05419921875,-0.229736328125,1.615
1.0534351145038168,1.2061068702290076,-0.7175572519083969,-0.45263671875,-0.053955078125,-0.230712890625,1.6166999999999998
1.0076335877862594,1.2671755725190839,-0.5801526717557252,-0.453125,-0.0537109375,-0.222900390625,1.6183999999999998
0.9465648854961832,0.9770992366412213,-0.7175572519083969,-0.451904296875,-0.052490234375,-0.226806640625,1.6200999999999999
0.8702290076335878,0.8091603053435115,-0.9618320610687023,-0.453857421875,-0.04833984375,-0.21875,1.6218
0.7786259541984732,0.8702290076335878,-0.7022900763358778,-0.451171875,-0.050048828125,-0.2119140625,1.6235
0.916030534351145,0.916030534351145,-0.7633587786259542,-0.448486328125,-0.049560546875,-0.224853515625,1.6252
0.7175572519083969,0.6259541984732825,-0.9770992366412213,-0.45166015625,-0.051025390625,-0.213134765625,1.6269
0.6106870229007634,0.7175572519083969,-0.7022900763358778,-0.455078125,-0.0498046875,-0.21923828125,1.6285999999999998
0.3816793893129771,0.42748091603053434,-0.7786259541984732,-0.4462890625,-0.0517578125,-0.221435546875,1.6302999999999999
0.07633587786259542,0.24427480916030533,-0.9312977099236641,-0.451416015625,-0.048583984375,-0.220947265625,1.632
-0.07633587786259542,0.366412213740458,-0.732824427480916,-0.45068359375,-0.0478515625,-0.217529296875,1.6337
0.015267175572519083,-0.07633587786259542,-0.6106870229007634,-0.44970703125,-0.048095703125,-0.228271484375,1.6354
-0.1984732824427481,-0.061068702290076333,-0.6717557251908397,-0.447265625,-0.04638671875,-0.2158203125,1.6371
-0.183206106870229,-0.2595419847328244,-0.5648854961832062,-0.44482421875,-0.039794921875,-0.219970703125,1.6387999999999998
-0.2595419847328244,-0.366412213740458,-0.42748091603053434,-0.449462890625,-0.037109375,-0.219970703125,1.6404999999999998
-0.32061068702290074,-0.5954198473282443,-0.2595419847328244,-0.450439453125,-0.04541015625,-0.22314453125,1.6421999999999999
-0.12213740458015267,-0.8091603053435115,-0.16793893129770993,-0.44482421875,-0.040283203125,-0.21533203125,1.6439
-0.12213740458015267,-0.8702290076335878,0.04580152671755725,-0.447021484375,-0.039306640625,-0.212646484375,1.6456
-0.12213740458015267,-1.0076335877862594,-0.030534351145038167,-0.448974609375,-0.040771484375,-0.224609375,1.6473
0.0,-1.0229007633587786,0.10687022900763359,-0.44873046875,-0.045166015625,-0.218994140625,1.6489999999999998
0.183206106870229,-1.0534351145038168,0.21374045801526717,-0.452392578125,-0.037841796875,-0.217529296875,1.6506999999999998
0.366412213740458,-0.9465648854961832,0.5343511450381679,-0.453369140625,-0.04052734375,-0.2236328125,1.6523999999999999
0.42748091603053434,-0.9465648854961832,0.21374045801526717,-0.45068359375,-0.041259765625,-0.220947265625,1.6541
0.5343511450381679,-1.0534351145038168,0.42748091603053434,-0.451171875,-0.04443359375,-0.219482421875,1.6558
0.7786259541984732,-1.297709923664122,0.3511450381679389,-0.45068359375,-0.042724609375,-0.23046875,1.6575
1.0076335877862594,-0.9618320610687023,0.2748091603053435,-0.4541015625,-0.03955078125,-0.23193359375,1.6592
0.9770992366412213,-0.9618320610687023,0.22900763358778625,-0.4521484375,-0.046630859375,-0.224365234375,1.6608999999999998
0.8091603053435115,-0.8702290076335878,0.5038167938931297,-0.453857421875,-0.05029296875,-0.219970703125,1.6625999999999999
1.0534351145038168,-0.7938931297709924,0.3816793893129771,-0.457275390625,-0.0439453125,-0.22900390625,1.6643
1.0381679389312977,-0.6564885496183206,0.44274809160305345,-0.454833984375,-0.042236328125,-0.222900390625,1.666
0.8549618320610687,-0.7480916030534351,0.5038167938931297,-0.4560546875,-0.0458984375,-0.2255859375,1.6677
0.9923664122137404,-0.5343511450381679,0.549618320610687,-0.45556640625,-0.04052734375,-0.228759765625,1.6694
1.297709923664122,-0.366412213740458,0.7175572519083969,-0.451416015625,-0.0400390625,-0.225830078125,1.6710999999999998
1.2366412213740459,-0.22900763358778625,0.732824427480916,-0.461181640625,-0.0419921875,-0.2255859375,1.6727999999999998
1.297709923664122,-0.366412213740458,0.5648854961832062,-0.45849609375,-0.0400390625,-0.227294921875,1.6744999999999999
1.3282442748091603,-0.33587786259541985,0.6870229007633588,-0.455810546875,-0.0439453125,-0.230712890625,1.6762
1.633587786259542,-0.2900763358778626,0.7633587786259542,-0.4580078125,-0.040283203125,-0.234130859375,1.6779
1.6793893129770991,-0.3511450381679389,0.9465648854961832,-0.4609375,-0.043212890625,-0.22998046875,1.6796
1.4809160305343512,-0.2900763358778626,0.6870229007633588,-0.46142578125,-0.045654296875,-0.22705078125,1.6813
1.4351145038167938,-0.15267175572519084,0.5343511450381679,-0.456787109375,-0.039794921875,-0.234619140625,1.6829999999999998
1.3740458015267176,-0.1984732824427481,0.8244274809160306,-0.45458984375,-0.044921875,-0.231689453125,1.6846999999999999
1.4045801526717556,-0.21374045801526717,0.6106870229007634,-0.459716796875,-0.044921875,-0.227294921875,1.6864
1.450381679389313,0.07633587786259542,0.5801526717557252,-0.456787109375,-0.04296875,-0.233642578125,1.6881
1.1755725190839694,0.1984732824427481,0.6564885496183206,-0.4541015625,-0.04541015625,-0.22265625,1.6898
1.282442748091603,0.015267175572519083,0.6106870229007634,-0.45556640625,-0.05126953125,-0.221923828125,1.6915
1.3893129770992367,0.22900763358778625,0.2595419847328244,-0.4560546875,-0.0498046875,-0.229736328125,1.6931999999999998
1.0687022900763359,0.3511450381679389,0.5038167938931297,-0.45947265625,-0.051513671875,-0.231201171875,1.6948999999999999
0.916030534351145,0.1984732824427481,0.33587786259541985,-0.46044921875,-0.0478515625,-0.228271484375,1.6965999999999999
0.6259541984732825,0.33587786259541985,0.4122137404580153,-0.455322265625,-0.04833984375,-0.222412109375,1.6983
0.549618320610687,0.1984732824427481,0.32061068702290074,-0.458740234375,-0.0498046875,-0.229736328125,1.7
0.3816793893129771,0.061068702290076333,0.2595419847328244,-0.456787109375,-0.052001953125,-0.231201171875,1.7017
0.10687022900763359,0.10687022900763359,0.13740458015267176,-0.456298828125,-0.047119140625,-0.2216796875,1.7033999999999998
-0.07633587786259542,0.030534351145038167,0.2595419847328244,-0.45458984375,-0.0498046875,-0.219482421875,1.7050999999999998
-0.0916030534351145,-0.04580152671755725,0.1984732824427481,-0.45703125,-0.049072265625,-0.22509765625,1.7067999999999999
-0.2595419847328244,-0.07633587786259542,0.33587786259541985,-0.455322265625,-0.04833984375,-0.228271484375,1.7085
-0.2595419847328244,-0.10687022900763359,0.2595419847328244,-0.456787109375,-0.050048828125,-0.225830078125,1.7102
-0.2748091603053435,0.0,0.2748091603053435,-0.460205078125,-0.049072265625,-0.228515625,1.7119
-0.33587786259541985,-0.183206106870229,0.3511450381679389,-0.45703125,-0.049072265625,-0.22802734375,1.7136
-0.15267175572519084,-0.2595419847328244,0.366412213740458,-0.4541015625,-0.05078125,-0.22705078125,1.7152999999999998
-0.3816793893129771,-0.2748091603053435,0.3816793893129771,-0.454345703125,-0.048828125,-0.224853515625,1.7169999999999999
-0.33587786259541985,-0.10687022900763359,0.5648854961832062,-0.4541015625,-0.0458984375,-0.2275390625,1.7187
0.15267175572519084,-0.04580152671755725,0.3969465648854962,-0.455810546875,-0.0439453125,-0.216796875,1.7204
-0.015267175572519083,0.21374045801526717,0.6106870229007634,-0.45849609375,-0.04833984375,-0.232177734375,1.7221
-0.5038167938931297,0.10687022900763359,0.5801526717557252,-0.45361328125,-0.048583984375,-0.221923828125,1.7238
-0.13740458015267176,0.183206106870229,0.732824427480916,-0.45458984375,-0.05419921875,-0.2216796875,1.7254999999999998
-0.21374045801526717,0.24427480916030533,0.5954198473282443,-0.45263671875,-0.0439453125,-0.22216796875,1.7271999999999998
-0.3511450381679389,0.07633587786259542,0.3969465648854962,-0.44970703125,-0.048583984375,-0.21875,1.7288999999999999
-0.2748091603053435,0.061068702290076333,0.33587786259541985,-0.447998046875,-0.047607421875,-0.2255859375,1.7306
-0.15267175572519084,-0.061068702290076333,0.42748091603053434,-0.454345703125,-0.046142578125,-0.228759765625,1.7323
-0.3053435114503817,-0.366412213740458,0.1984732824427481,-0.449951171875,-0.046142578125,-0.22412109375,1.734
0.015267175572519083,-0.4122137404580153,0.42748091603053434,-0.4541015625,-0.04345703125,-0.2236328125,1.7356999999999998
-0.04580152671755725,-0.8549618320610687,0.3511450381679389,-0.44970703125,-0.046142578125,-0.2197265625,1.7373999999999998
-0.015267175572519083,-0.9007633587786259,0.21374045801526717,-0.445068359375,-0.042724609375,-0.222412109375,1.7390999999999999
0.015267175572519083,-0.9465648854961832,0.10687022900763359,-0.4501953125,-0.041259765625,-0.221923828125,1.7408
-0.015267175572519083,-1.1297709923664123,0.15267175572519084,-0.454345703125,-0.0458984375,-0.220947265625,1.7425
-0.07633587786259542,-1.5114503816793894,0.4122137404580153,-0.4453125,-0.043701171875,-0.22265625,1.7442
0.04580152671755725,-1.6488549618320612,0.0,-0.447998046875,-0.041015625,-0.225341796875,1.7459
0.12213740458015267,-1.4961832061068703,0.061068702290076333,-0.44921875,-0.0419921875,-0.22021484375,1.7475999999999998
0.15267175572519084,-1.450381679389313,0.4122137404580153,-0.455078125,-0.04248046875,-0.22216796875,1.7492999999999999
0.10687022900763359,-1.5725190839694656,0.13740458015267176,-0.45556640625,-0.044189453125,-0.22705078125,1.751
0.030534351145038167,-1.6030534351145038,0.32061068702290074,-0.455078125,-0.045166015625,-0.229736328125,1.7527
0.183206106870229,-1.2061068702290076,0.2748091603053435,-0.450927734375,-0.048828125,-0.232421875,1.7544
0.07633587786259542,-0.916030534351145,0.6259541984732825,-0.450927734375,-0.04443359375,-0.224853515625,1.7561
0.15267175572519084,-0.9465648854961832,0.2900763358778626,-0.455810546875,-0.050048828125,-0.23388671875,1.7577999999999998
-0.10687022900763359,-0.5190839694656488,0.5190839694656488,-0.451416015625,-0.048095703125,-0.2314453125,1.7594999999999998
0.15267175572519084,-0.5190839694656488,0.24427480916030533,-0.450439453125,-0.044189453125,-0.23095703125,1.7611999999999999
0.16793893129770993,-0.366412213740458,0.48854961832061067,-0.447265625,-0.045654296875,-0.22900390625,1.7629
0.3511450381679389,-0.12213740458015267,0.2595419847328244,-0.4541015625,-0.04443359375,-0.2255859375,1.7646
0.6564885496183206,-0.12213740458015267,0.42748091603053434,-0.452880859375,-0.052001953125,-0.2314453125,1.7663
0.7633587786259542,0.030534351145038167,0.2900763358778626,-0.454345703125,-0.046875,-0.229248046875,1.7679999999999998
0.7480916030534351,0.07633587786259542,0.3511450381679389,-0.452392578125,-0.05078125,-0.2294921875,1.7696999999999998
0.9312977099236641,0.0916030534351145,0.21374045801526717,-0.453369140625,-0.048828125,-0.232177734375,1.7713999999999999
0.9923664122137404,0.2595419847328244,0.366412213740458,-0.451416015625,-0.052490234375,-0.224365234375,1.7731
1.3282442748091603,0.16793893129770993,0.13740458015267176,-0.448974609375,-0.04248046875,-0.224609375,1.7748
1.251908396946565,0.15267175572519084,0.3053435114503817,-0.456298828125,-0.04638671875,-0.234619140625,1.7765
1.1450381679389312,0.3969465648854962,0.183206106870229,-0.46044921875,-0.0458984375,-0.231201171875,1.7782
1.4198473282442747,0.6717557251908397,0.10687022900763359,-0.45458984375,-0.048583984375,-0.228271484375,1.7798999999999998
1.4198473282442747,0.6870229007633588,0.10687022900763359,-0.453857421875,-0.0458984375,-0.23046875,1.7815999999999999
1.3587786259541985,0.6564885496183206,0.061068702290076333,-0.451416015625,-0.051513671875,-0.227783203125,1.7832999999999999
1.3893129770992367,0.5801526717557252,0.0,-0.451904296875,-0.047119140625,-0.223388671875,1.785
1.465648854961832,0.8091603053435115,-0.183206106870229,-0.454833984375,-0.0537109375,-0.226318359375,1.7867
1.3129770992366412,0.9923664122137404,-0.183206106870229,-0.44873046875,-0.052734375,-0.2314453125,1.7884
