gyrox1,gyroy1,gyroz1,accelx1,accely1,accelz1,Time
0.5648854961832062,1.6793893129770991,-1.4961832061068703,-0.46240234375,0.013671875,-0.1796875,0.0
0.48854961832061067,1.7557251908396947,-1.3282442748091603,-0.460693359375,0.0166015625,-0.17919921875,0.0017
0.2900763358778626,2.0763358778625953,-1.3435114503816794,-0.46435546875,0.0107421875,-0.1787109375,0.0034
0.44274809160305345,2.0610687022900764,-1.282442748091603,-0.465087890625,0.00830078125,-0.1728515625,0.0050999999999999995
0.32061068702290074,2.122137404580153,-1.3587786259541985,-0.463134765625,0.009033203125,-0.17431640625,0.0068
0.32061068702290074,2.045801526717557,-1.4045801526717556,-0.465087890625,0.011474609375,-0.181884765625,0.008499999999999999
0.2748091603053435,2.045801526717557,-1.5114503816793894,-0.460693359375,0.00927734375,-0.18603515625,0.010199999999999999
0.3511450381679389,2.030534351145038,-1.465648854961832,-0.461181640625,0.008056640625,-0.18505859375,0.011899999999999999
0.2900763358778626,1.9541984732824427,-1.5725190839694656,-0.456298828125,0.010986328125,-0.17529296875,0.0136
0.549618320610687,2.045801526717557,-1.450381679389313,-0.456787109375,0.0166015625,-0.1787109375,0.0153
0.16793893129770993,2.0763358778625953,-1.4198473282442747,-0.465087890625,0.008544921875,-0.1796875,0.016999999999999998
0.3511450381679389,2.015267175572519,-1.4351145038167938,-0.462890625,0.008056640625,-0.173828125,0.018699999999999998
0.5343511450381679,1.9083969465648856,-1.5267175572519085,-0.462890625,0.01220703125,-0.1787109375,0.020399999999999998
0.22900763358778625,1.8625954198473282,-1.5114503816793894,-0.46826171875,0.005859375,-0.173828125,0.022099999999999998
0.3053435114503817,1.9541984732824427,-1.5725190839694656,-0.461669921875,0.009521484375,-0.1787109375,0.023799999999999998
0.2748091603053435,2.0763358778625953,-1.6488549618320612,-0.462158203125,0.01171875,-0.17822265625,0.0255
0.366412213740458,1.9694656488549618,-1.6793893129770991,-0.4638671875,0.006591796875,-0.18359375,0.0272
0.1984732824427481,2.015267175572519,-1.6641221374045803,-0.4638671875,0.01025390625,-0.175048828125,0.0289
0.1984732824427481,2.045801526717557,-1.786259541984733,-0.454833984375,0.00927734375,-0.181884765625,0.0306
0.21374045801526717,1.7557251908396947,-1.816793893129771,-0.46533203125,0.014892578125,-0.183837890625,0.032299999999999995
0.5038167938931297,1.9389312977099236,-1.8473282442748091,-0.462158203125,0.006591796875,-0.175537109375,0.033999999999999996
0.42748091603053434,1.8015267175572518,-1.7099236641221374,-0.464111328125,0.010986328125,-0.173828125,0.035699999999999996
0.3053435114503817,1.816793893129771,-1.7099236641221374,-0.45947265625,0.01953125,-0.185791015625,0.037399999999999996
0.5801526717557252,1.7557251908396947,-1.8931297709923665,-0.4580078125,0.01025390625,-0.176513671875,0.039099999999999996
0.24427480916030533,1.786259541984733,-1.816793893129771,-0.45849609375,0.01025390625,-0.1787109375,0.040799999999999996
0.366412213740458,1.6793893129770991,-1.8625954198473282,-0.45751953125,0.006591796875,-0.18701171875,0.042499999999999996
0.5190839694656488,1.450381679389313,-1.9083969465648856,-0.461181640625,0.0087890625,-0.18017578125,0.044199999999999996
0.24427480916030533,1.4961832061068703,-1.633587786259542,-0.463623046875,0.009033203125,-0.181396484375,0.045899999999999996
0.44274809160305345,1.6488549618320612,-1.9541984732824427,-0.464599609375,0.008544921875,-0.176025390625,0.047599999999999996
0.5190839694656488,1.8015267175572518,-1.984732824427481,-0.46044921875,0.01025390625,-0.1826171875,0.0493
0.4580152671755725,1.618320610687023,-1.8473282442748091,-0.45849609375,0.010009765625,-0.176513671875,0.051
0.5038167938931297,1.4961832061068703,-1.816793893129771,-0.4609375,0.010498046875,-0.1796875,0.0527
0.44274809160305345,1.3740458015267176,-1.984732824427481,-0.45654296875,0.00537109375,-0.17529296875,0.0544
0.366412213740458,1.2671755725190839,-1.816793893129771,-0.4619140625,0.009765625,-0.1845703125,0.0561
0.7022900763358778,1.3587786259541985,-1.8015267175572518,-0.462158203125,0.010498046875,-0.173583984375,0.0578
0.5801526717557252,1.3740458015267176,-1.8778625954198473,-0.4619140625,0.01416015625,-0.1796875,0.0595
0.42748091603053434,1.3587786259541985,-1.816793893129771,-0.458740234375,0.0107421875,-0.17578125,0.0612
0.5343511450381679,1.2671755725190839,-1.7404580152671756,-0.453857421875,0.01025390625,-0.17333984375,0.0629
0.6564885496183206,1.1755725190839694,-1.786259541984733,-0.460205078125,0.00390625,-0.18017578125,0.06459999999999999
0.732824427480916,1.2671755725190839,-1.7709923664122138,-0.457275390625,0.01025390625,-0.17236328125,0.0663
0.7938931297709924,1.1145038167938932,-1.8931297709923665,-0.46240234375,0.0087890625,-0.1767578125,0.06799999999999999
0.5648854961832062,0.9618320610687023,-1.9083969465648856,-0.460693359375,0.005859375,-0.178955078125,0.0697
0.6564885496183206,0.916030534351145,-1.83206106870229,-0.460205078125,0.012939453125,-0.180908203125,0.07139999999999999
0.6870229007633588,1.0381679389312977,-1.8778625954198473,-0.458740234375,0.0078125,-0.171142578125,0.0731
0.5954198473282443,0.916030534351145,-1.7251908396946565,-0.4609375,0.009033203125,-0.185546875,0.07479999999999999
0.5343511450381679,0.7633587786259542,-1.9083969465648856,-0.462158203125,0.0068359375,-0.18310546875,0.0765
0.7022900763358778,0.8091603053435115,-1.786259541984733,-0.462158203125,0.005859375,-0.167236328125,0.07819999999999999
0.4732824427480916,0.8854961832061069,-1.8473282442748091,-0.46435546875,0.010009765625,-0.175537109375,0.0799
0.5801526717557252,0.6106870229007634,-1.633587786259542,-0.456787109375,0.01123046875,-0.178466796875,0.08159999999999999
0.6259541984732825,0.7175572519083969,-1.83206106870229,-0.458984375,0.010986328125,-0.17822265625,0.0833
0.6564885496183206,0.7175572519083969,-1.6946564885496183,-0.4658203125,0.0107421875,-0.175048828125,0.08499999999999999
0.4580152671755725,0.4732824427480916,-1.6793893129770991,-0.459716796875,0.005859375,-0.1787109375,0.0867
0.6717557251908397,0.6564885496183206,-1.6946564885496183,-0.46142578125,0.00634765625,-0.1845703125,0.08839999999999999
0.6717557251908397,0.2748091603053435,-1.8931297709923665,-0.46337890625,0.01025390625,-0.18310546875,0.0901
0.7175572519083969,0.24427480916030533,-1.6793893129770991,-0.454345703125,0.010498046875,-0.17529296875,0.09179999999999999
0.5648854961832062,0.3816793893129771,-1.7251908396946565,-0.461669921875,0.01220703125,-0.168701171875,0.0935
0.6106870229007634,0.32061068702290074,-1.618320610687023,-0.4560546875,0.01171875,-0.181640625,0.09519999999999999
0.6259541984732825,0.366412213740458,-1.9236641221374047,-0.465576171875,0.00634765625,-0.181396484375,0.0969
0.5190839694656488,0.22900763358778625,-1.618320610687023,-0.460693359375,0.003662109375,-0.170166015625,0.0986
0.6259541984732825,0.21374045801526717,-2.045801526717557,-0.45068359375,0.010498046875,-0.1728515625,0.1003
0.5954198473282443,0.24427480916030533,-1.816793893129771,-0.454345703125,0.01123046875,-0.17724609375,0.102
0.6259541984732825,0.15267175572519084,-1.786259541984733,-0.4580078125,0.01220703125,-0.172119140625,0.1037
0.732824427480916,0.22900763358778625,-1.786259541984733,-0.4599609375,0.010986328125,-0.1689453125,0.1054
0.7480916030534351,0.24427480916030533,-1.8473282442748091,-0.462890625,0.00927734375,-0.16650390625,0.1071
0.7786259541984732,0.030534351145038167,-1.8931297709923665,-0.46630859375,0.01171875,-0.175537109375,0.1088
0.6564885496183206,-0.061068702290076333,-1.8778625954198473,-0.464111328125,0.01220703125,-0.17041015625,0.11049999999999999
0.7938931297709924,0.12213740458015267,-1.9694656488549618,-0.4609375,0.00732421875,-0.17138671875,0.1122
0.9465648854961832,0.15267175572519084,-1.9083969465648856,-0.462646484375,0.005859375,-0.170654296875,0.11389999999999999
0.6564885496183206,0.030534351145038167,-2.0,-0.466552734375,0.013916015625,-0.17724609375,0.1156
0.8091603053435115,0.061068702290076333,-1.8625954198473282,-0.4638671875,0.012451171875,-0.17431640625,0.11729999999999999
0.8549618320610687,0.24427480916030533,-1.9236641221374047,-0.4599609375,0.01123046875,-0.18603515625,0.119
0.9007633587786259,0.12213740458015267,-2.030534351145038,-0.463623046875,0.0087890625,-0.173583984375,0.12069999999999999
0.9465648854961832,0.0916030534351145,-2.0,-0.468994140625,0.011962890625,-0.177001953125,0.1224
0.916030534351145,-0.030534351145038167,-2.183206106870229,-0.466064453125,0.012451171875,-0.171630859375,0.12409999999999999
1.0381679389312977,0.183206106870229,-1.633587786259542,-0.456787109375,0.007568359375,-0.175537109375,0.1258
1.1297709923664123,0.22900763358778625,-1.9389312977099236,-0.460693359375,0.005615234375,-0.171142578125,0.1275
0.8702290076335878,0.0,-1.8473282442748091,-0.46484375,0.006591796875,-0.173095703125,0.12919999999999998
1.0534351145038168,0.15267175572519084,-1.9541984732824427,-0.4609375,0.005615234375,-0.171142578125,0.1309
0.9923664122137404,0.21374045801526717,-1.8473282442748091,-0.46435546875,0.010498046875,-0.177734375,0.1326
0.916030534351145,0.3969465648854962,-1.9541984732824427,-0.46533203125,0.004638671875,-0.166015625,0.1343
1.0229007633587786,0.2900763358778626,-1.9236641221374047,-0.462890625,0.00732421875,-0.17041015625,0.13599999999999998
0.9923664122137404,0.44274809160305345,-2.030534351145038,-0.4658203125,0.009033203125,-0.17333984375,0.1377
0.8549618320610687,0.48854961832061067,-1.9083969465648856,-0.46142578125,0.00634765625,-0.1796875,0.1394
1.0076335877862594,0.5343511450381679,-1.6793893129770991,-0.4638671875,0.006103515625,-0.17822265625,0.1411
0.9618320610687023,0.6259541984732825,-1.6793893129770991,-0.463623046875,0.01025390625,-0.17431640625,0.14279999999999998
0.916030534351145,0.549618320610687,-1.618320610687023,-0.468017578125,0.005126953125,-0.17822265625,0.1445
0.9618320610687023,0.4732824427480916,-1.786259541984733,-0.465576171875,0.00634765625,-0.173583984375,0.1462
0.7938931297709924,0.7786259541984732,-1.6641221374045803,-0.464111328125,0.008544921875,-0.17724609375,0.1479
0.9465648854961832,0.7022900763358778,-1.6641221374045803,-0.46728515625,0.009033203125,-0.1728515625,0.14959999999999998
0.9618320610687023,0.7175572519083969,-1.4961832061068703,-0.457275390625,0.005126953125,-0.169677734375,0.1513
0.8702290076335878,0.7175572519083969,-1.4045801526717556,-0.461181640625,0.009033203125,-0.16943359375,0.153
0.6717557251908397,0.7938931297709924,-1.3587786259541985,-0.46142578125,0.006591796875,-0.17529296875,0.1547
0.8244274809160306,0.9007633587786259,-1.7404580152671756,-0.46142578125,0.00732421875,-0.1689453125,0.15639999999999998
0.7938931297709924,0.7786259541984732,-1.4045801526717556,-0.46240234375,0.00341796875,-0.1728515625,0.1581
0.5954198473282443,0.8244274809160306,-1.1908396946564885,-0.46484375,0.004638671875,-0.168701171875,0.1598
0.6564885496183206,0.9465648854961832,-1.3587786259541985,-0.460205078125,0.01318359375,-0.17431640625,0.1615
0.5954198473282443,0.9007633587786259,-1.4045801526717556,-0.46044921875,0.0078125,-0.177490234375,0.16319999999999998
0.732824427480916,1.0229007633587786,-1.251908396946565,-0.466796875,0.0078125,-0.169189453125,0.1649
0.7175572519083969,1.1603053435114503,-1.1145038167938932,-0.467041015625,0.007568359375,-0.170166015625,0.1666
0.7022900763358778,1.0076335877862594,-1.1603053435114503,-0.466064453125,0.00390625,-0.1767578125,0.16829999999999998
0.42748091603053434,1.3740458015267176,-1.1908396946564885,-0.463623046875,0.00537109375,-0.171630859375,0.16999999999999998
0.2748091603053435,1.297709923664122,-1.3282442748091603,-0.464111328125,0.007568359375,-0.17529296875,0.1717
0.4122137404580153,1.4198473282442747,-1.1450381679389312,-0.466796875,0.0068359375,-0.17333984375,0.1734
0.4580152671755725,1.450381679389313,-0.9465648854961832,-0.463134765625,0.004638671875,-0.16845703125,0.17509999999999998
0.5190839694656488,1.6030534351145038,-0.916030534351145,-0.4619140625,0.005126953125,-0.175537109375,0.17679999999999998
0.32061068702290074,1.5572519083969465,-1.083969465648855,-0.462890625,0.010009765625,-0.1845703125,0.1785
0.22900763358778625,1.5114503816793894,-1.0534351145038168,-0.461669921875,0.007568359375,-0.17822265625,0.1802
0.5038167938931297,1.7099236641221374,-0.7786259541984732,-0.46435546875,0.008056640625,-0.17333984375,0.18189999999999998
0.6564885496183206,1.5725190839694656,-0.6259541984732825,-0.457763671875,0.003662109375,-0.176513671875,0.18359999999999999
0.030534351145038167,1.7709923664122138,-0.7480916030534351,-0.462646484375,0.00830078125,-0.176513671875,0.1853
0.3816793893129771,1.6030534351145038,-0.9618320610687023,-0.46875,0.008056640625,-0.17919921875,0.187
0.48854961832061067,1.7557251908396947,-0.7480916030534351,-0.469970703125,0.00830078125,-0.17724609375,0.18869999999999998
0.183206106870229,1.786259541984733,-0.9312977099236641,-0.462890625,0.00439453125,-0.181884765625,0.19039999999999999
0.1984732824427481,1.7251908396946565,-0.732824427480916,-0.4619140625,0.00732421875,-0.1748046875,0.1921
0.3969465648854962,1.8015267175572518,-0.9465648854961832,-0.4609375,0.00634765625,-0.17138671875,0.1938
0.2748091603053435,1.8473282442748091,-1.1145038167938932,-0.4638671875,0.009033203125,-0.16943359375,0.19549999999999998
0.183206106870229,1.8778625954198473,-0.8549618320610687,-0.4638671875,0.008544921875,-0.1748046875,0.1972
0.3053435114503817,1.816793893129771,-0.7480916030534351,-0.45703125,0.009033203125,-0.171142578125,0.1989
0.16793893129770993,1.816793893129771,-0.8091603053435115,-0.46142578125,0.00927734375,-0.175537109375,0.2006
0.0916030534351145,1.9236641221374047,-0.7786259541984732,-0.463623046875,0.01123046875,-0.176025390625,0.20229999999999998
0.24427480916030533,1.7557251908396947,-0.8244274809160306,-0.465087890625,0.00634765625,-0.178955078125,0.204
0.22900763358778625,1.8625954198473282,-0.8549618320610687,-0.465576171875,0.009521484375,-0.177490234375,0.2057
0.12213740458015267,2.030534351145038,-0.9770992366412213,-0.46533203125,0.001953125,-0.1708984375,0.2074
0.21374045801526717,2.045801526717557,-0.9007633587786259,-0.467529296875,0.00146484375,-0.177734375,0.20909999999999998
0.04580152671755725,2.0610687022900764,-1.0229007633587786,-0.46142578125,0.01708984375,-0.174560546875,0.2108
0.15267175572519084,2.2748091603053435,-0.8244274809160306,-0.45849609375,0.010498046875,-0.173828125,0.2125
0.366412213740458,2.16793893129771,-1.1145038167938932,-0.46484375,0.0107421875,-0.17333984375,0.2142
0.015267175572519083,2.2748091603053435,-1.083969465648855,-0.465087890625,0.0078125,-0.169921875,0.21589999999999998
0.16793893129770993,2.183206106870229,-0.916030534351145,-0.46533203125,0.004638671875,-0.169921875,0.2176
0.0,2.3053435114503817,-0.9923664122137404,-0.466064453125,0.000732421875,-0.1728515625,0.2193
-0.030534351145038167,2.519083969465649,-0.8854961832061069,-0.459716796875,0.011474609375,-0.1767578125,0.22099999999999997
-0.16793893129770993,2.3969465648854964,-0.9770992366412213,-0.4609375,0.01123046875,-0.181884765625,0.22269999999999998
0.07633587786259542,2.2900763358778624,-1.1603053435114503,-0.463623046875,0.01220703125,-0.180419921875,0.2244
-0.04580152671755725,2.4580152671755724,-0.8549618320610687,-0.463134765625,0.0107421875,-0.17822265625,0.2261
0.10687022900763359,2.549618320610687,-0.9923664122137404,-0.46240234375,0.008544921875,-0.17822265625,0.22779999999999997
0.061068702290076333,2.6717557251908395,-1.0534351145038168,-0.4658203125,0.00732421875,-0.17041015625,0.22949999999999998
-0.061068702290076333,2.4732824427480917,-1.1145038167938932,-0.464599609375,0.002685546875,-0.16845703125,0.2312
0.2595419847328244,2.4122137404580153,-0.9465648854961832,-0.457763671875,0.012451171875,-0.17822265625,0.2329
-0.015267175572519083,2.4580152671755724,-1.083969465648855,-0.4560546875,0.009033203125,-0.176025390625,0.23459999999999998
0.12213740458015267,2.213740458015267,-0.9770992366412213,-0.459228515625,0.01123046875,-0.17724609375,0.23629999999999998
-0.030534351145038167,2.2442748091603053,-1.0076335877862594,-0.462158203125,0.010986328125,-0.1796875,0.238
-0.07633587786259542,2.2442748091603053,-1.0076335877862594,-0.462158203125,0.005126953125,-0.177734375,0.2397
-0.061068702290076333,2.0916030534351147,-0.9618320610687023,-0.464599609375,0.01220703125,-0.17724609375,0.24139999999999998
0.0,2.0763358778625953,-0.8091603053435115,-0.460693359375,0.0107421875,-0.177978515625,0.24309999999999998
-0.13740458015267176,1.9083969465648856,-0.9465648854961832,-0.462158203125,0.0078125,-0.17724609375,0.2448
-0.1984732824427481,2.015267175572519,-0.9007633587786259,-0.463623046875,0.01171875,-0.17578125,0.2465
-0.030534351145038167,2.015267175572519,-0.916030534351145,-0.46240234375,0.009521484375,-0.1767578125,0.24819999999999998
-0.21374045801526717,1.9236641221374047,-0.8549618320610687,-0.46630859375,0.0107421875,-0.17724609375,0.24989999999999998
-0.13740458015267176,2.16793893129771,-0.7938931297709924,-0.4580078125,0.009521484375,-0.175537109375,0.2516
-0.24427480916030533,2.427480916030534,-0.7480916030534351,-0.454833984375,0.0068359375,-0.17626953125,0.25329999999999997
-0.16793893129770993,2.4732824427480917,-0.8396946564885496,-0.463134765625,0.009033203125,-0.1806640625,0.255
-0.0916030534351145,2.427480916030534,-0.7938931297709924,-0.46630859375,0.013427734375,-0.1806640625,0.2567
-0.3053435114503817,2.2748091603053435,-0.7480916030534351,-0.46240234375,0.013427734375,-0.184326171875,0.25839999999999996
-0.2595419847328244,2.3206106870229006,-0.7786259541984732,-0.46826171875,0.01123046875,-0.179931640625,0.2601
-0.1984732824427481,2.2900763358778624,-0.6564885496183206,-0.460693359375,0.01123046875,-0.18212890625,0.2618
-0.2748091603053435,2.2442748091603053,-0.6564885496183206,-0.466552734375,0.009033203125,-0.18603515625,0.2635
-0.015267175572519083,2.16793893129771,-0.7022900763358778,-0.459228515625,0.009033203125,-0.17529296875,0.2652
-0.3053435114503817,2.1374045801526718,-0.7480916030534351,-0.4609375,0.011962890625,-0.182861328125,0.26689999999999997
-0.33587786259541985,2.183206106870229,-0.7480916030534351,-0.46142578125,0.014892578125,-0.16845703125,0.2686
0.0916030534351145,2.1526717557251906,-0.8549618320610687,-0.46435546875,0.0146484375,-0.1806640625,0.2703
0.183206106870229,2.183206106870229,-0.8702290076335878,-0.462158203125,0.011474609375,-0.18359375,0.27199999999999996
0.04580152671755725,1.9541984732824427,-0.8702290076335878,-0.459716796875,0.01416015625,-0.17431640625,0.2737
0.0,2.122137404580153,-0.7633587786259542,-0.462158203125,0.011962890625,-0.181884765625,0.2754
-0.183206106870229,1.984732824427481,-0.7633587786259542,-0.4619140625,0.01123046875,-0.185302734375,0.27709999999999996
-0.061068702290076333,2.1374045801526718,-0.8854961832061069,-0.461181640625,0.0078125,-0.174072265625,0.2788
0.15267175572519084,2.1068702290076335,-0.8702290076335878,-0.460693359375,0.0087890625,-0.18017578125,0.28049999999999997
0.04580152671755725,2.030534351145038,-0.9007633587786259,-0.458740234375,0.011962890625,-0.18408203125,0.2822
-0.10687022900763359,2.045801526717557,-1.0229007633587786,-0.4638671875,0.01318359375,-0.1796875,0.2839
-0.2748091603053435,2.183206106870229,-1.0381679389312977,-0.464599609375,0.011962890625,-0.175048828125,0.28559999999999997
0.15267175572519084,2.0763358778625953,-1.2366412213740459,-0.46435546875,0.011962890625,-0.17578125,0.2873
0.015267175572519083,1.9083969465648856,-1.1297709923664123,-0.46240234375,0.0166015625,-0.18212890625,0.289
0.0,1.984732824427481,-1.1450381679389312,-0.4609375,0.011962890625,-0.172119140625,0.29069999999999996
0.183206106870229,2.0,-1.1755725190839694,-0.463623046875,0.0087890625,-0.180419921875,0.2924
0.32061068702290074,1.7557251908396947,-1.1908396946564885,-0.460693359375,0.012939453125,-0.178466796875,0.2941
0.32061068702290074,1.9389312977099236,-0.9923664122137404,-0.461181640625,0.017333984375,-0.178955078125,0.2958
0.366412213740458,2.015267175572519,-1.251908396946565,-0.464111328125,0.009765625,-0.177490234375,0.2975
0.1984732824427481,1.9083969465648856,-1.1755725190839694,-0.46240234375,0.0126953125,-0.175048828125,0.29919999999999997
0.3053435114503817,1.9541984732824427,-1.2061068702290076,-0.46240234375,0.016845703125,-0.181396484375,0.3009
0.48854961832061067,2.0916030534351147,-1.1450381679389312,-0.46044921875,0.01513671875,-0.184326171875,0.3026
0.4122137404580153,2.0763358778625953,-1.282442748091603,-0.461181640625,0.010009765625,-0.17578125,0.30429999999999996
0.4122137404580153,1.7557251908396947,-1.2061068702290076,-0.45849609375,0.0068359375,-0.182861328125,0.306
0.4580152671755725,2.0,-1.3282442748091603,-0.46044921875,0.012451171875,-0.18115234375,0.3077
0.3816793893129771,1.9389312977099236,-1.1755725190839694,-0.462646484375,0.0078125,-0.184326171875,0.3094
0.3053435114503817,1.9236641221374047,-1.3282442748091603,-0.45751953125,0.012939453125,-0.1845703125,0.3111
0.6564885496183206,2.0916030534351147,-1.0534351145038168,-0.459228515625,0.011474609375,-0.17578125,0.31279999999999997
0.4732824427480916,2.16793893129771,-1.297709923664122,-0.461181640625,0.013427734375,-0.17822265625,0.3145
0.5190839694656488,1.9389312977099236,-1.1450381679389312,-0.4619140625,0.01123046875,-0.174072265625,0.3162
0.5801526717557252,1.786259541984733,-1.3282442748091603,-0.46142578125,0.01220703125,-0.18310546875,0.31789999999999996
0.6717557251908397,2.045801526717557,-1.282442748091603,-0.4599609375,0.010498046875,-0.176025390625,0.3196
0.6870229007633588,1.984732824427481,-1.1755725190839694,-0.46240234375,0.0126953125,-0.173095703125,0.3213
0.7022900763358778,1.7709923664122138,-1.0076335877862594,-0.465576171875,0.0087890625,-0.176513671875,0.323
0.6412213740458015,1.8931297709923665,-1.1450381679389312,-0.46142578125,0.01611328125,-0.17919921875,0.3247
0.6870229007633588,1.984732824427481,-1.1908396946564885,-0.46240234375,0.014892578125,-0.187255859375,0.32639999999999997
0.549618320610687,1.7251908396946565,-1.1603053435114503,-0.46240234375,0.010986328125,-0.181884765625,0.3281
0.6564885496183206,1.7404580152671756,-0.9618320610687023,-0.46044921875,0.011474609375,-0.1796875,0.3298
0.5648854961832062,1.9541984732824427,-1.2671755725190839,-0.4677734375,0.013427734375,-0.17724609375,0.33149999999999996
0.5343511450381679,1.6641221374045803,-1.083969465648855,-0.460693359375,0.012451171875,-0.176025390625,0.3332
0.6870229007633588,1.9389312977099236,-1.1603053435114503,-0.460205078125,0.01171875,-0.16845703125,0.3349
0.7480916030534351,1.83206106870229,-1.0076335877862594,-0.46240234375,0.01025390625,-0.169189453125,0.33659999999999995
0.7175572519083969,1.83206106870229,-0.9007633587786259,-0.46044921875,0.0087890625,-0.1806640625,0.3383
0.732824427480916,1.8778625954198473,-0.9923664122137404,-0.46044921875,0.009033203125,-0.174072265625,0.33999999999999997
0.7938931297709924,1.9083969465648856,-0.9618320610687023,-0.45947265625,0.013916015625,-0.178955078125,0.3417
0.8396946564885496,1.9083969465648856,-0.9770992366412213,-0.463623046875,0.01318359375,-0.1689453125,0.3434
0.7480916030534351,1.83206106870229,-0.9312977099236641,-0.459228515625,0.015869140625,-0.18115234375,0.34509999999999996
0.6564885496183206,1.7404580152671756,-0.8854961832061069,-0.464111328125,0.010986328125,-0.17236328125,0.3468
0.732824427480916,1.5572519083969465,-1.0687022900763359,-0.461181640625,0.0078125,-0.171630859375,0.3485
0.7480916030534351,1.5572519083969465,-0.8702290076335878,-0.459716796875,0.010986328125,-0.180419921875,0.35019999999999996
0.8854961832061069,1.7404580152671756,-0.8396946564885496,-0.4619140625,0.0087890625,-0.175537109375,0.3519
0.6870229007633588,1.6793893129770991,-1.083969465648855,-0.4580078125,0.0146484375,-0.1748046875,0.35359999999999997
0.7786259541984732,1.5267175572519085,-1.1145038167938932,-0.45751953125,0.0068359375,-0.179931640625,0.3553
0.9770992366412213,1.4961832061068703,-0.8549618320610687,-0.45947265625,0.0087890625,-0.17724609375,0.357
0.8396946564885496,1.633587786259542,-1.2366412213740459,-0.460205078125,0.01025390625,-0.179443359375,0.35869999999999996
0.8702290076335878,1.633587786259542,-1.099236641221374,-0.462890625,0.0126953125,-0.180908203125,0.3604
0.9007633587786259,1.3740458015267176,-1.1603053435114503,-0.458740234375,0.0166015625,-0.173095703125,0.3621
0.9465648854961832,1.450381679389313,-1.083969465648855,-0.458740234375,0.01220703125,-0.1796875,0.36379999999999996
0.8244274809160306,1.450381679389313,-1.2213740458015268,-0.462890625,0.013916015625,-0.17626953125,0.3655
0.732824427480916,1.6946564885496183,-1.0076335877862594,-0.458740234375,0.010009765625,-0.17919921875,0.36719999999999997
0.9770992366412213,1.5267175572519085,-1.0687022900763359,-0.4599609375,0.01318359375,-0.174072265625,0.3689
1.1297709923664123,1.5572519083969465,-1.1297709923664123,-0.462646484375,0.00830078125,-0.171142578125,0.3706
0.8091603053435115,1.5725190839694656,-1.1297709923664123,-0.461669921875,0.015380859375,-0.177001953125,0.37229999999999996
0.8091603053435115,1.465648854961832,-1.099236641221374,-0.46044921875,0.00732421875,-0.177734375,0.374
1.1450381679389312,1.4198473282442747,-1.2213740458015268,-0.46044921875,0.00732421875,-0.1767578125,0.3757
1.1297709923664123,1.3435114503816794,-1.1450381679389312,-0.459716796875,0.013427734375,-0.176025390625,0.37739999999999996
1.0534351145038168,1.4351145038167938,-1.2366412213740459,-0.4609375,0.01025390625,-0.175048828125,0.3791
1.0534351145038168,1.4045801526717556,-1.083969465648855,-0.46044921875,0.017822265625,-0.180419921875,0.38079999999999997
0.9770992366412213,1.3435114503816794,-1.3740458015267176,-0.461669921875,0.0126953125,-0.177001953125,0.38249999999999995
1.0229007633587786,1.3435114503816794,-1.3129770992366412,-0.4599609375,0.012939453125,-0.163330078125,0.3842
1.0534351145038168,1.3282442748091603,-1.2671755725190839,-0.465087890625,0.0146484375,-0.182373046875,0.38589999999999997
1.1755725190839694,1.282442748091603,-1.282442748091603,-0.466064453125,0.013427734375,-0.1796875,0.3876
0.9465648854961832,1.3282442748091603,-1.3129770992366412,-0.45849609375,0.0126953125,-0.1806640625,0.3893
0.9618320610687023,1.2213740458015268,-1.3587786259541985,-0.4619140625,0.009521484375,-0.17431640625,0.39099999999999996
1.1908396946564885,1.3893129770992367,-1.5725190839694656,-0.4609375,0.009033203125,-0.180908203125,0.3927
1.1145038167938932,1.3740458015267176,-1.633587786259542,-0.460693359375,0.009033203125,-0.17529296875,0.3944
1.1297709923664123,1.2366412213740459,-1.3893129770992367,-0.46337890625,0.0087890625,-0.18359375,0.39609999999999995
1.1297709923664123,1.3893129770992367,-1.3129770992366412,-0.462890625,0.011962890625,-0.179931640625,0.3978
1.2366412213740459,1.3435114503816794,-1.3893129770992367,-0.4609375,0.011474609375,-0.178955078125,0.39949999999999997
1.2213740458015268,1.4198473282442747,-1.5877862595419847,-0.466064453125,0.010986328125,-0.177001953125,0.4012
1.1297709923664123,1.3129770992366412,-1.5572519083969465,-0.459228515625,0.00927734375,-0.1748046875,0.4029
0.916030534351145,1.282442748091603,-1.3435114503816794,-0.46142578125,0.0146484375,-0.18017578125,0.40459999999999996
1.0229007633587786,1.2671755725190839,-1.4045801526717556,-0.458740234375,0.015625,-0.1845703125,0.4063
1.0229007633587786,1.4351145038167938,-1.251908396946565,-0.4599609375,0.009521484375,-0.175048828125,0.408
0.9312977099236641,1.4045801526717556,-1.4809160305343512,-0.462158203125,0.015625,-0.184814453125,0.40969999999999995
0.7938931297709924,1.4045801526717556,-1.6030534351145038,-0.463134765625,0.014404296875,-0.17724609375,0.4114
0.7786259541984732,1.3740458015267176,-1.4198473282442747,-0.4609375,0.008056640625,-0.172607421875,0.41309999999999997
1.099236641221374,1.4351145038167938,-1.6030534351145038,-0.461669921875,0.0068359375,-0.178955078125,0.4148
0.916030534351145,1.297709923664122,-1.450381679389313,-0.465087890625,0.013427734375,-0.17236328125,0.4165
1.0534351145038168,1.2671755725190839,-1.633587786259542,-0.46240234375,0.0107421875,-0.17138671875,0.41819999999999996
0.9007633587786259,1.4351145038167938,-1.5114503816793894,-0.468017578125,0.01123046875,-0.18310546875,0.4199
1.0076335877862594,1.251908396946565,-1.3435114503816794,-0.463134765625,0.01123046875,-0.176513671875,0.4216
0.916030534351145,1.3282442748091603,-1.4351145038167938,-0.463623046875,0.01171875,-0.179931640625,0.42329999999999995
0.7786259541984732,1.2366412213740459,-1.5419847328244274,-0.4580078125,0.01220703125,-0.183349609375,0.425
0.8396946564885496,1.1145038167938932,-1.3587786259541985,-0.4599609375,0.01025390625,-0.176513671875,0.42669999999999997
0.7022900763358778,1.1908396946564885,-1.3587786259541985,-0.46044921875,0.010498046875,-0.1826171875,0.4284
0.8244274809160306,1.1603053435114503,-1.450381679389313,-0.456787109375,0.00927734375,-0.170654296875,0.4301
0.9007633587786259,1.2671755725190839,-1.5877862595419847,-0.459228515625,0.0087890625,-0.1748046875,0.43179999999999996
0.8549618320610687,1.1908396946564885,-1.465648854961832,-0.464111328125,0.013671875,-0.1787109375,0.4335
0.8091603053435115,1.1755725190839694,-1.5419847328244274,-0.46142578125,0.01025390625,-0.18115234375,0.4352
0.9465648854961832,1.282442748091603,-1.3282442748091603,-0.460693359375,0.01025390625,-0.175048828125,0.43689999999999996
0.7480916030534351,1.251908396946565,-1.5877862595419847,-0.4609375,0.010986328125,-0.1748046875,0.4386
0.7938931297709924,1.4198473282442747,-1.465648854961832,-0.462646484375,0.0126953125,-0.1806640625,0.44029999999999997
0.5954198473282443,1.1450381679389312,-1.4809160305343512,-0.46337890625,0.007568359375,-0.177978515625,0.44199999999999995
0.7633587786259542,1.2061068702290076,-1.5419847328244274,-0.4619140625,0.009033203125,-0.172119140625,0.4437
0.549618320610687,1.099236641221374,-1.7557251908396947,-0.457275390625,0.009033203125,-0.18212890625,0.44539999999999996
0.8091603053435115,0.9923664122137404,-1.5877862595419847,-0.458740234375,0.010498046875,-0.181640625,0.4471
0.8091603053435115,0.9312977099236641,-1.5877862595419847,-0.462890625,0.00732421875,-0.177978515625,0.4488
0.7480916030534351,0.8854961832061069,-1.3893129770992367,-0.462158203125,0.009521484375,-0.185302734375,0.45049999999999996
0.7786259541984732,1.0687022900763359,-1.5725190839694656,-0.4609375,0.0126953125,-0.177734375,0.4522
1.099236641221374,1.0229007633587786,-1.633587786259542,-0.466796875,0.009765625,-0.182373046875,0.45389999999999997
0.7786259541984732,1.0687022900763359,-1.5725190839694656,-0.4619140625,0.006591796875,-0.175048828125,0.45559999999999995
0.549618320610687,1.0229007633587786,-1.4961832061068703,-0.460205078125,0.01318359375,-0.18017578125,0.4573
0.5801526717557252,1.3129770992366412,-1.83206106870229,-0.463623046875,0.01171875,-0.183349609375,0.45899999999999996
0.7786259541984732,1.1603053435114503,-1.4045801526717556,-0.45556640625,0.0078125,-0.173095703125,0.4607
0.7938931297709924,0.8702290076335878,-1.618320610687023,-0.459228515625,0.009033203125,-0.1806640625,0.4624
0.5801526717557252,1.099236641221374,-1.618320610687023,-0.457275390625,0.012939453125,-0.178955078125,0.46409999999999996
0.916030534351145,1.0381679389312977,-1.6641221374045803,-0.458740234375,0.01025390625,-0.17919921875,0.4658
0.7938931297709924,1.0076335877862594,-1.7404580152671756,-0.460693359375,0.010498046875,-0.17333984375,0.46749999999999997
0.6564885496183206,1.0381679389312977,-1.7557251908396947,-0.4580078125,0.019775390625,-0.1708984375,0.46919999999999995
0.7786259541984732,1.0229007633587786,-1.3740458015267176,-0.46337890625,0.013916015625,-0.1689453125,0.4709
0.8549618320610687,1.1297709923664123,-1.5877862595419847,-0.4580078125,0.013916015625,-0.1826171875,0.47259999999999996
0.6106870229007634,0.9312977099236641,-1.7099236641221374,-0.456787109375,0.0087890625,-0.17578125,0.4743
0.8549618320610687,1.1297709923664123,-1.6793893129770991,-0.461181640625,0.010009765625,-0.18505859375,0.476
1.0381679389312977,0.9312977099236641,-1.465648854961832,-0.46240234375,0.00927734375,-0.179443359375,0.47769999999999996
0.8549618320610687,0.8702290076335878,-1.4351145038167938,-0.45849609375,0.00830078125,-0.173095703125,0.4794
1.0687022900763359,0.9465648854961832,-1.5267175572519085,-0.4580078125,0.010009765625,-0.17822265625,0.48109999999999997
0.9923664122137404,1.0381679389312977,-1.6641221374045803,-0.4599609375,0.015380859375,-0.1767578125,0.48279999999999995
0.8702290076335878,0.9312977099236641,-1.7557251908396947,-0.46044921875,0.012939453125,-0.18212890625,0.4845
0.7022900763358778,0.9007633587786259,-1.7557251908396947,-0.4599609375,0.005615234375,-0.17919921875,0.48619999999999997
0.9007633587786259,0.9770992366412213,-1.450381679389313,-0.4599609375,0.0107421875,-0.177490234375,0.4879
0.9007633587786259,0.9923664122137404,-1.5419847328244274,-0.45849609375,0.005615234375,-0.1748046875,0.4896
0.8854961832061069,0.916030534351145,-1.465648854961832,-0.462890625,0.012451171875,-0.174560546875,0.49129999999999996
0.9618320610687023,1.0534351145038168,-1.5877862595419847,-0.459228515625,0.011962890625,-0.173583984375,0.493
1.0229007633587786,1.1603053435114503,-1.6488549618320612,-0.465576171875,0.0087890625,-0.176025390625,0.4947
0.8396946564885496,1.0381679389312977,-1.6488549618320612,-0.463134765625,0.0087890625,-0.178466796875,0.49639999999999995
0.9618320610687023,1.251908396946565,-1.3740458015267176,-0.45947265625,0.005126953125,-0.17919921875,0.4981
0.9618320610687023,0.9465648854961832,-1.5114503816793894,-0.460693359375,0.008056640625,-0.1796875,0.49979999999999997
0.9312977099236641,1.0229007633587786,-1.5877862595419847,-0.466796875,0.00732421875,-0.177490234375,0.5015
1.0229007633587786,0.9923664122137404,-1.7404580152671756,-0.460205078125,0.008544921875,-0.17626953125,0.5032
1.0534351145038168,0.9923664122137404,-1.5877862595419847,-0.462158203125,0.009033203125,-0.1787109375,0.5049
1.3129770992366412,0.9007633587786259,-1.5114503816793894,-0.4599609375,0.01318359375,-0.1748046875,0.5065999999999999
1.1603053435114503,1.0076335877862594,-1.4809160305343512,-0.46240234375,0.01220703125,-0.177978515625,0.5083
0.9923664122137404,1.099236641221374,-1.4961832061068703,-0.4638671875,0.01220703125,-0.183837890625,0.51
1.2671755725190839,0.9312977099236641,-1.5267175572519085,-0.461669921875,0.012451171875,-0.175537109375,0.5116999999999999
1.2366412213740459,1.0381679389312977,-1.4198473282442747,-0.46533203125,0.007080078125,-0.18017578125,0.5134
1.1755725190839694,0.9923664122137404,-1.465648854961832,-0.46142578125,0.0078125,-0.177978515625,0.5151
1.099236641221374,1.0381679389312977,-1.6488549618320612,-0.454345703125,0.0078125,-0.1767578125,0.5167999999999999
1.0229007633587786,1.0076335877862594,-1.5725190839694656,-0.4599609375,0.010986328125,-0.175537109375,0.5185
1.3282442748091603,0.7786259541984732,-1.6488549618320612,-0.4609375,0.009765625,-0.170166015625,0.5202
0.9923664122137404,0.9007633587786259,-1.5572519083969465,-0.462646484375,0.01123046875,-0.173828125,0.5218999999999999
0.9618320610687023,0.916030534351145,-1.7709923664122138,-0.46142578125,0.00439453125,-0.178466796875,0.5236
1.3587786259541985,1.0076335877862594,-1.4809160305343512,-0.46435546875,0.010009765625,-0.17529296875,0.5253
1.1603053435114503,0.8702290076335878,-1.4045801526717556,-0.4599609375,0.010986328125,-0.18505859375,0.527
1.1603053435114503,0.9618320610687023,-1.5572519083969465,-0.465576171875,0.01171875,-0.1787109375,0.5287
1.3435114503816794,1.1145038167938932,-1.5267175572519085,-0.464599609375,0.009521484375,-0.177978515625,0.5304
1.1297709923664123,1.1908396946564885,-1.4809160305343512,-0.466552734375,0.009521484375,-0.175537109375,0.5321
1.2671755725190839,0.8396946564885496,-1.6030534351145038,-0.459228515625,0.00732421875,-0.16650390625,0.5337999999999999
1.2671755725190839,0.8702290076335878,-1.6030534351145038,-0.459716796875,0.0078125,-0.175048828125,0.5355
1.282442748091603,1.1603053435114503,-1.8015267175572518,-0.46337890625,0.0087890625,-0.177978515625,0.5372
1.4198473282442747,1.1145038167938932,-1.4351145038167938,-0.460693359375,0.00732421875,-0.184326171875,0.5388999999999999
1.282442748091603,1.1145038167938932,-1.4198473282442747,-0.461669921875,0.0107421875,-0.175537109375,0.5406
1.1145038167938932,1.0229007633587786,-1.7251908396946565,-0.462158203125,0.007080078125,-0.176025390625,0.5423
1.1755725190839694,0.916030534351145,-1.4961832061068703,-0.453857421875,0.0078125,-0.1826171875,0.5439999999999999
1.1908396946564885,1.0076335877862594,-1.6030534351145038,-0.461669921875,0.01220703125,-0.172607421875,0.5457
1.2366412213740459,0.9770992366412213,-1.5725190839694656,-0.45849609375,0.00634765625,-0.1787109375,0.5474
1.2366412213740459,1.0229007633587786,-1.5725190839694656,-0.457275390625,0.010498046875,-0.183349609375,0.5490999999999999
1.2366412213740459,0.916030534351145,-1.5114503816793894,-0.4599609375,0.013427734375,-0.17919921875,0.5508
1.3587786259541985,0.7480916030534351,-1.450381679389313,-0.457275390625,0.0078125,-0.184814453125,0.5525
1.282442748091603,0.916030534351145,-1.7099236641221374,-0.46142578125,0.009521484375,-0.17822265625,0.5541999999999999
1.2213740458015268,0.8854961832061069,-1.816793893129771,-0.45947265625,0.01123046875,-0.1748046875,0.5559
1.0381679389312977,0.8549618320610687,-1.4351145038167938,-0.465576171875,0.0068359375,-0.173828125,0.5576
1.2671755725190839,0.9312977099236641,-1.4045801526717556,-0.462158203125,0.00634765625,-0.181396484375,0.5593
1.282442748091603,0.7786259541984732,-1.633587786259542,-0.45947265625,0.004638671875,-0.181884765625,0.5609999999999999
1.1755725190839694,0.7938931297709924,-1.633587786259542,-0.46533203125,0.00439453125,-0.182373046875,0.5627
1.3435114503816794,1.0229007633587786,-1.3435114503816794,-0.4658203125,0.005859375,-0.18603515625,0.5644
1.2366412213740459,0.9465648854961832,-1.6793893129770991,-0.46533203125,0.01025390625,-0.1845703125,0.5660999999999999
1.1450381679389312,0.9312977099236641,-1.4198473282442747,-0.460693359375,0.008544921875,-0.174560546875,0.5678
0.9465648854961832,0.9618320610687023,-1.6030534351145038,-0.46240234375,0.001953125,-0.18017578125,0.5695
0.9923664122137404,1.099236641221374,-1.4045801526717556,-0.4560546875,0.008544921875,-0.1826171875,0.5711999999999999
0.9923664122137404,0.9312977099236641,-1.450381679389313,-0.463134765625,0.01025390625,-0.178955078125,0.5729
1.1145038167938932,0.9770992366412213,-1.4198473282442747,-0.46435546875,0.0078125,-0.18359375,0.5746
1.0534351145038168,0.9618320610687023,-1.282442748091603,-0.46533203125,0.0078125,-0.177734375,0.5762999999999999
1.0381679389312977,0.9770992366412213,-1.3282442748091603,-0.463134765625,0.006591796875,-0.17724609375,0.578
0.8854961832061069,1.2213740458015268,-1.4809160305343512,-0.461669921875,0.00732421875,-0.18408203125,0.5797
1.1145038167938932,1.0229007633587786,-1.3435114503816794,-0.461669921875,0.012451171875,-0.17333984375,0.5813999999999999
1.2061068702290076,1.083969465648855,-1.5877862595419847,-0.456298828125,0.01123046875,-0.178466796875,0.5831
0.8396946564885496,0.9923664122137404,-1.5572519083969465,-0.463623046875,0.0068359375,-0.176025390625,0.5848
0.8854961832061069,1.0534351145038168,-1.5114503816793894,-0.460693359375,0.012451171875,-0.17724609375,0.5865
0.8244274809160306,1.0076335877862594,-1.3893129770992367,-0.46240234375,0.01171875,-0.184326171875,0.5882
1.0229007633587786,0.9312977099236641,-1.4809160305343512,-0.45947265625,0.009521484375,-0.18212890625,0.5899
1.1297709923664123,0.9618320610687023,-1.3893129770992367,-0.463134765625,0.006103515625,-0.170654296875,0.5916
0.8244274809160306,0.8549618320610687,-1.6030534351145038,-0.45947265625,0.008544921875,-0.17578125,0.5932999999999999
0.9770992366412213,0.6106870229007634,-1.4045801526717556,-0.4619140625,0.014892578125,-0.178466796875,0.595
0.7786259541984732,1.0229007633587786,-1.5267175572519085,-0.46142578125,0.0107421875,-0.170166015625,0.5967
0.6564885496183206,1.0687022900763359,-1.5419847328244274,-0.459716796875,0.008056640625,-0.1748046875,0.5983999999999999
0.8244274809160306,0.8549618320610687,-1.5877862595419847,-0.458251953125,0.01171875,-0.179931640625,0.6001
0.6870229007633588,0.9312977099236641,-1.4961832061068703,-0.461669921875,0.008544921875,-0.1728515625,0.6018
0.7633587786259542,0.8702290076335878,-1.5419847328244274,-0.458740234375,0.014892578125,-0.182373046875,0.6034999999999999
0.7022900763358778,1.0534351145038168,-1.3893129770992367,-0.460693359375,0.013916015625,-0.18798828125,0.6052
0.8091603053435115,0.9312977099236641,-1.618320610687023,-0.46044921875,0.005859375,-0.17236328125,0.6069
0.7175572519083969,0.8396946564885496,-1.6488549618320612,-0.464111328125,0.01123046875,-0.1796875,0.6085999999999999
0.6717557251908397,0.9312977099236641,-1.6488549618320612,-0.46337890625,0.00634765625,-0.175048828125,0.6103
0.6106870229007634,0.6564885496183206,-1.5725190839694656,-0.458740234375,0.006591796875,-0.177978515625,0.612
0.5343511450381679,0.7480916030534351,-1.5877862595419847,-0.45751953125,0.010009765625,-0.185546875,0.6136999999999999
1.0229007633587786,0.8091603053435115,-1.5725190839694656,-0.4609375,0.00439453125,-0.1826171875,0.6154
0.5801526717557252,0.7938931297709924,-1.7404580152671756,-0.464599609375,0.0087890625,-0.175048828125,0.6171
0.42748091603053434,0.7480916030534351,-1.618320610687023,-0.459716796875,0.009033203125,-0.180419921875,0.6188
0.5954198473282443,0.7022900763358778,-1.7251908396946565,-0.453857421875,0.009765625,-0.182373046875,0.6204999999999999
0.5648854961832062,0.6412213740458015,-1.786259541984733,-0.4609375,0.0078125,-0.17919921875,0.6222
0.6870229007633588,0.732824427480916,-1.8015267175572518,-0.45849609375,0.00390625,-0.179443359375,0.6239
0.7480916030534351,0.6564885496183206,-1.8931297709923665,-0.46142578125,0.010986328125,-0.177490234375,0.6255999999999999
0.3969465648854962,0.6870229007633588,-1.6488549618320612,-0.46044921875,0.007568359375,-0.17578125,0.6273
0.3969465648854962,0.549618320610687,-1.6793893129770991,-0.463623046875,0.011962890625,-0.1806640625,0.629
0.48854961832061067,0.549618320610687,-1.7709923664122138,-0.461669921875,0.017578125,-0.181640625,0.6306999999999999
0.5190839694656488,0.732824427480916,-1.7557251908396947,-0.465576171875,0.009765625,-0.17431640625,0.6324
0.549618320610687,0.8091603053435115,-1.8931297709923665,-0.45849609375,0.007080078125,-0.181884765625,0.6341
0.5343511450381679,0.6717557251908397,-1.8015267175572518,-0.461669921875,0.00830078125,-0.175048828125,0.6357999999999999
0.4580152671755725,0.549618320610687,-1.8473282442748091,-0.465087890625,0.01171875,-0.17626953125,0.6375
0.32061068702290074,0.6564885496183206,-1.6946564885496183,-0.4638671875,0.01220703125,-0.18310546875,0.6392
0.5343511450381679,0.6412213740458015,-1.7709923664122138,-0.458740234375,0.005126953125,-0.179443359375,0.6408999999999999
0.3511450381679389,0.6106870229007634,-1.6641221374045803,-0.4619140625,0.015380859375,-0.176513671875,0.6426
0.15267175572519084,0.6717557251908397,-1.7099236641221374,-0.4638671875,0.015380859375,-0.171630859375,0.6443
0.44274809160305345,0.6259541984732825,-1.6488549618320612,-0.459228515625,0.010009765625,-0.16845703125,0.646
0.44274809160305345,0.6870229007633588,-1.5725190839694656,-0.462646484375,0.010498046875,-0.185791015625,0.6476999999999999
0.48854961832061067,0.6870229007633588,-1.297709923664122,-0.46728515625,0.008056640625,-0.1787109375,0.6494
0.5190839694656488,0.7938931297709924,-1.5572519083969465,-0.4609375,0.008544921875,-0.173828125,0.6511
0.4580152671755725,0.6717557251908397,-1.4809160305343512,-0.45947265625,0.01318359375,-0.176025390625,0.6527999999999999
0.32061068702290074,0.8091603053435115,-1.5725190839694656,-0.459716796875,0.007080078125,-0.16845703125,0.6545
0.2595419847328244,0.6412213740458015,-1.5267175572519085,-0.462158203125,0.00732421875,-0.17919921875,0.6562
0.3969465648854962,0.7786259541984732,-1.4198473282442747,-0.462646484375,0.011962890625,-0.17822265625,0.6578999999999999
0.5190839694656488,0.7022900763358778,-1.5725190839694656,-0.462646484375,0.006591796875,-0.183349609375,0.6596
0.2748091603053435,0.732824427480916,-1.4351145038167938,-0.46435546875,0.006103515625,-0.177490234375,0.6613
0.32061068702290074,0.7480916030534351,-1.3893129770992367,-0.46484375,0.01025390625,-0.17919921875,0.6629999999999999
0.4732824427480916,0.9465648854961832,-1.3740458015267176,-0.4638671875,0.009521484375,-0.182373046875,0.6647
0.5343511450381679,1.0076335877862594,-1.3740458015267176,-0.46240234375,0.004638671875,-0.17724609375,0.6664
0.5343511450381679,0.8091603053435115,-1.3282442748091603,-0.459716796875,0.0048828125,-0.178466796875,0.6680999999999999
0.2748091603053435,0.8854961832061069,-1.4351145038167938,-0.46630859375,0.009033203125,-0.174072265625,0.6698
0.4732824427480916,1.2061068702290076,-1.3282442748091603,-0.4638671875,0.006591796875,-0.173095703125,0.6715
0.44274809160305345,1.0534351145038168,-1.4198473282442747,-0.46533203125,0.0107421875,-0.1845703125,0.6731999999999999
0.3053435114503817,1.1908396946564885,-1.0381679389312977,-0.46533203125,0.013427734375,-0.1845703125,0.6748999999999999
0.44274809160305345,1.2213740458015268,-1.3587786259541985,-0.465576171875,0.01220703125,-0.1708984375,0.6766
0.5190839694656488,1.1908396946564885,-1.618320610687023,-0.462158203125,0.01171875,-0.169921875,0.6783
0.5343511450381679,1.1297709923664123,-1.2671755725190839,-0.461669921875,0.010986328125,-0.181884765625,0.6799999999999999
0.44274809160305345,1.3435114503816794,-1.0687022900763359,-0.46337890625,0.00634765625,-0.177978515625,0.6817
0.549618320610687,1.3893129770992367,-1.450381679389313,-0.45849609375,0.006591796875,-0.185302734375,0.6834
0.549618320610687,1.2671755725190839,-1.3282442748091603,-0.463623046875,0.01611328125,-0.174072265625,0.6850999999999999
0.5190839694656488,1.4045801526717556,-1.1603053435114503,-0.46875,0.00830078125,-0.18310546875,0.6868
0.2595419847328244,1.5877862595419847,-1.2366412213740459,-0.465087890625,0.00634765625,-0.180419921875,0.6885
0.2748091603053435,1.5419847328244274,-1.3129770992366412,-0.463134765625,0.008544921875,-0.1728515625,0.6901999999999999
0.6259541984732825,1.3587786259541985,-1.1755725190839694,-0.4677734375,0.012939453125,-0.171142578125,0.6919
0.4732824427480916,1.4045801526717556,-1.4045801526717556,-0.4677734375,0.013427734375,-0.173095703125,0.6936
0.44274809160305345,1.633587786259542,-1.1450381679389312,-0.461669921875,0.006103515625,-0.17431640625,0.6952999999999999
0.7480916030534351,1.3740458015267176,-1.297709923664122,-0.46240234375,0.009765625,-0.16796875,0.697
0.6717557251908397,1.5419847328244274,-1.1145038167938932,-0.46142578125,0.0078125,-0.175048828125,0.6987
0.3511450381679389,1.5114503816793894,-1.3129770992366412,-0.46240234375,0.007080078125,-0.180908203125,0.7003999999999999
0.42748091603053434,1.5114503816793894,-1.2061068702290076,-0.462646484375,0.0107421875,-0.166748046875,0.7021
0.549618320610687,1.786259541984733,-1.1603053435114503,-0.4609375,0.010009765625,-0.169189453125,0.7038
0.4580152671755725,1.6488549618320612,-1.1908396946564885,-0.456298828125,0.013916015625,-0.17236328125,0.7055
0.6717557251908397,1.83206106870229,-1.1603053435114503,-0.462158203125,0.0107421875,-0.175537109375,0.7071999999999999
0.33587786259541985,1.8931297709923665,-0.9923664122137404,-0.46533203125,0.012451171875,-0.185791015625,0.7089
0.32061068702290074,1.7251908396946565,-1.251908396946565,-0.4638671875,0.015380859375,-0.185546875,0.7106
0.3053435114503817,1.9083969465648856,-1.251908396946565,-0.464599609375,0.00927734375,-0.178955078125,0.7122999999999999
0.6717557251908397,1.8778625954198473,-1.2061068702290076,-0.468017578125,0.00927734375,-0.172119140625,0.714
0.366412213740458,1.9541984732824427,-1.099236641221374,-0.4580078125,0.005615234375,-0.174560546875,0.7157
0.4580152671755725,1.786259541984733,-1.251908396946565,-0.45458984375,0.009765625,-0.17724609375,0.7173999999999999
0.42748091603053434,1.9389312977099236,-1.1603053435114503,-0.461181640625,0.0068359375,-0.17529296875,0.7191
0.4122137404580153,1.9083969465648856,-1.1908396946564885,-0.4619140625,0.0068359375,-0.1806640625,0.7208
0.732824427480916,2.030534351145038,-1.2061068702290076,-0.4619140625,0.01220703125,-0.173828125,0.7224999999999999
0.5801526717557252,2.351145038167939,-1.1755725190839694,-0.462890625,0.00927734375,-0.18310546875,0.7242
0.5190839694656488,2.198473282442748,-1.1297709923664123,-0.463134765625,0.017333984375,-0.178466796875,0.7259
0.44274809160305345,2.1374045801526718,-1.1450381679389312,-0.464111328125,0.013671875,-0.17578125,0.7275999999999999
0.32061068702290074,2.1526717557251906,-1.1603053435114503,-0.459716796875,0.01220703125,-0.167724609375,0.7293
0.6564885496183206,2.366412213740458,-1.0381679389312977,-0.460205078125,0.0126953125,-0.183349609375,0.731
0.5190839694656488,2.4427480916030535,-1.2061068702290076,-0.465576171875,0.0068359375,-0.17236328125,0.7326999999999999
0.3969465648854962,2.366412213740458,-1.3282442748091603,-0.466796875,0.013916015625,-0.177978515625,0.7343999999999999
0.4122137404580153,2.2290076335877864,-1.0687022900763359,-0.462890625,0.013671875,-0.1767578125,0.7361
0.7175572519083969,2.2900763358778624,-1.0381679389312977,-0.458984375,0.010498046875,-0.1845703125,0.7378
0.732824427480916,2.4427480916030535,-1.2061068702290076,-0.46044921875,0.013671875,-0.177978515625,0.7394999999999999
0.4122137404580153,2.366412213740458,-1.3893129770992367,-0.463623046875,0.017333984375,-0.184814453125,0.7412
0.4580152671755725,2.1526717557251906,-1.2213740458015268,-0.462158203125,0.01220703125,-0.1806640625,0.7429
0.6259541984732825,2.4580152671755724,-1.251908396946565,-0.458251953125,0.016357421875,-0.182373046875,0.7445999999999999
0.5648854961832062,2.2748091603053435,-1.2061068702290076,-0.459228515625,0.012451171875,-0.1796875,0.7463
0.8396946564885496,2.122137404580153,-1.3740458015267176,-0.462890625,0.0087890625,-0.18359375,0.748
0.4580152671755725,2.2748091603053435,-1.1450381679389312,-0.462890625,0.0078125,-0.1787109375,0.7496999999999999
0.44274809160305345,2.3206106870229006,-1.3282442748091603,-0.46142578125,0.010009765625,-0.177734375,0.7514
0.5954198473282443,2.213740458015267,-1.450381679389313,-0.46142578125,0.0126953125,-0.1728515625,0.7531
0.7938931297709924,2.1374045801526718,-1.5877862595419847,-0.46435546875,0.0087890625,-0.1845703125,0.7547999999999999
0.5343511450381679,2.1374045801526718,-1.3740458015267176,-0.465576171875,0.00927734375,-0.173583984375,0.7565
0.549618320610687,2.2900763358778624,-1.3282442748091603,-0.461181640625,0.005615234375,-0.177490234375,0.7582
0.6564885496183206,2.3206106870229006,-1.3282442748091603,-0.460693359375,0.009521484375,-0.187744140625,0.7598999999999999
0.7175572519083969,2.1068702290076335,-1.282442748091603,-0.4609375,0.010009765625,-0.182861328125,0.7615999999999999
0.6259541984732825,2.16793893129771,-1.3893129770992367,-0.46435546875,0.0078125,-0.178955078125,0.7633
0.42748091603053434,2.122137404580153,-1.2671755725190839,-0.458740234375,0.011962890625,-0.1845703125,0.7649999999999999
0.6259541984732825,2.1526717557251906,-1.4045801526717556,-0.459716796875,0.01318359375,-0.187744140625,0.7666999999999999
0.7633587786259542,2.1374045801526718,-1.3435114503816794,-0.46484375,0.013671875,-0.176025390625,0.7684
0.6106870229007634,2.2442748091603053,-1.633587786259542,-0.459716796875,0.011474609375,-0.17578125,0.7701
0.5801526717557252,2.0916030534351147,-1.3282442748091603,-0.455810546875,0.01220703125,-0.1787109375,0.7717999999999999
0.9618320610687023,2.0,-1.465648854961832,-0.45947265625,0.012939453125,-0.17529296875,0.7735
0.6870229007633588,1.984732824427481,-1.5572519083969465,-0.459228515625,0.01123046875,-0.189208984375,0.7752
0.6870229007633588,1.8931297709923665,-1.6641221374045803,-0.4599609375,0.009521484375,-0.173583984375,0.7768999999999999
0.916030534351145,1.7251908396946565,-1.6641221374045803,-0.465576171875,0.01025390625,-0.17333984375,0.7786
0.7633587786259542,1.8625954198473282,-1.83206106870229,-0.458984375,0.01025390625,-0.177001953125,0.7803
0.8091603053435115,1.8015267175572518,-1.633587786259542,-0.45556640625,0.0126953125,-0.17041015625,0.7819999999999999
0.7786259541984732,1.816793893129771,-1.7557251908396947,-0.454833984375,0.010986328125,-0.171875,0.7837
0.8091603053435115,1.618320610687023,-1.8931297709923665,-0.459716796875,0.010498046875,-0.17919921875,0.7854
0.9007633587786259,1.465648854961832,-2.0,-0.4580078125,0.012939453125,-0.169677734375,0.7870999999999999
1.1145038167938932,1.4809160305343512,-1.8015267175572518,-0.46044921875,0.015380859375,-0.17919921875,0.7888
1.1450381679389312,1.6030534351145038,-1.786259541984733,-0.458740234375,0.011962890625,-0.169189453125,0.7905
1.0229007633587786,1.4961832061068703,-2.122137404580153,-0.458251953125,0.0146484375,-0.180908203125,0.7921999999999999
0.8244274809160306,1.3740458015267176,-2.122137404580153,-0.4609375,0.005615234375,-0.1748046875,0.7938999999999999
1.0229007633587786,1.4198473282442747,-1.9389312977099236,-0.457275390625,0.007080078125,-0.179443359375,0.7956
1.1908396946564885,1.3893129770992367,-1.9389312977099236,-0.4521484375,0.011474609375,-0.1806640625,0.7973
1.1755725190839694,1.3587786259541985,-1.8015267175572518,-0.45751953125,0.009033203125,-0.1806640625,0.7989999999999999
1.0687022900763359,1.099236641221374,-2.045801526717557,-0.45751953125,0.01318359375,-0.180908203125,0.8007
1.1450381679389312,0.8854961832061069,-1.816793893129771,-0.456787109375,0.0078125,-0.17822265625,0.8024
1.099236641221374,0.8091603053435115,-2.1374045801526718,-0.45703125,0.0126953125,-0.1826171875,0.8040999999999999
1.3893129770992367,0.8244274809160306,-2.1068702290076335,-0.454833984375,0.0166015625,-0.176513671875,0.8058
1.3740458015267176,0.7175572519083969,-2.1374045801526718,-0.460205078125,0.014892578125,-0.17138671875,0.8075
1.282442748091603,0.6106870229007634,-2.030534351145038,-0.4619140625,0.014404296875,-0.180908203125,0.8091999999999999
1.450381679389313,0.5038167938931297,-2.0610687022900764,-0.460205078125,0.010986328125,-0.177001953125,0.8109
1.297709923664122,0.3969465648854962,-1.9694656488549618,-0.454833984375,0.008056640625,-0.177978515625,0.8126
1.2671755725190839,0.7022900763358778,-2.16793893129771,-0.45849609375,0.01318359375,-0.178955078125,0.8142999999999999
1.2366412213740459,0.48854961832061067,-1.9541984732824427,-0.46044921875,0.010498046875,-0.17626953125,0.816
1.4198473282442747,0.2900763358778626,-1.9083969465648856,-0.460205078125,0.009765625,-0.1748046875,0.8177
1.2061068702290076,0.3511450381679389,-1.8778625954198473,-0.45849609375,0.010498046875,-0.17236328125,0.8193999999999999
1.4809160305343512,0.3053435114503817,-1.9541984732824427,-0.460205078125,0.006103515625,-0.1787109375,0.8210999999999999
1.3435114503816794,0.3511450381679389,-1.9389312977099236,-0.462158203125,0.007080078125,-0.17724609375,0.8228
1.3435114503816794,0.2900763358778626,-2.015267175572519,-0.459716796875,0.014404296875,-0.177490234375,0.8244999999999999
1.5572519083969465,0.3969465648854962,-1.9694656488549618,-0.456787109375,0.00439453125,-0.17626953125,0.8261999999999999
1.3587786259541985,0.3511450381679389,-2.045801526717557,-0.458251953125,0.00390625,-0.1796875,0.8279
1.5267175572519085,0.061068702290076333,-2.0763358778625953,-0.45849609375,0.011474609375,-0.1787109375,0.8296
1.450381679389313,-0.061068702290076333,-2.1374045801526718,-0.462890625,0.005126953125,-0.179443359375,0.8312999999999999
1.4351145038167938,-0.12213740458015267,-2.0610687022900764,-0.465576171875,0.01171875,-0.18115234375,0.833
1.4809160305343512,0.0,-2.122137404580153,-0.4609375,0.0146484375,-0.17236328125,0.8347
1.450381679389313,-0.2900763358778626,-1.9083969465648856,-0.46435546875,0.010986328125,-0.17578125,0.8363999999999999
1.4961832061068703,-0.2595419847328244,-2.0916030534351147,-0.46044921875,0.005126953125,-0.17822265625,0.8381
1.4198473282442747,-0.10687022900763359,-2.183206106870229,-0.46337890625,0.014404296875,-0.1708984375,0.8398
1.6793893129770991,-0.183206106870229,-1.984732824427481,-0.463623046875,0.014892578125,-0.185302734375,0.8414999999999999
1.6641221374045803,-0.183206106870229,-2.0,-0.458984375,0.0166015625,-0.183349609375,0.8432
1.5267175572519085,-0.24427480916030533,-2.0610687022900764,-0.4609375,0.016845703125,-0.17822265625,0.8449
1.465648854961832,-0.48854961832061067,-2.366412213740458,-0.458251953125,0.007568359375,-0.177001953125,0.8465999999999999
1.6488549618320612,-0.2595419847328244,-2.1068702290076335,-0.4619140625,0.00830078125,-0.17626953125,0.8482999999999999
1.6030534351145038,-0.32061068702290074,-1.9694656488549618,-0.45947265625,0.009521484375,-0.171142578125,0.85
1.465648854961832,-0.16793893129770993,-2.030534351145038,-0.4599609375,0.0078125,-0.178955078125,0.8516999999999999
1.5267175572519085,-0.3511450381679389,-2.16793893129771,-0.45849609375,0.00732421875,-0.176513671875,0.8533999999999999
1.4809160305343512,-0.2748091603053435,-2.183206106870229,-0.4599609375,0.011962890625,-0.1748046875,0.8551
1.5419847328244274,-0.44274809160305345,-1.9694656488549618,-0.462158203125,0.0068359375,-0.172607421875,0.8568
1.5419847328244274,-0.24427480916030533,-2.0,-0.4619140625,0.009033203125,-0.181396484375,0.8584999999999999
1.465648854961832,-0.0916030534351145,-2.1068702290076335,-0.462158203125,0.01025390625,-0.176513671875,0.8602
1.6030534351145038,-0.061068702290076333,-2.0763358778625953,-0.465576171875,0.01318359375,-0.181884765625,0.8619
1.4809160305343512,-0.030534351145038167,-1.8473282442748091,-0.46630859375,0.010009765625,-0.16650390625,0.8635999999999999
1.5572519083969465,-0.0916030534351145,-2.1068702290076335,-0.46337890625,0.012451171875,-0.169677734375,0.8653
1.7251908396946565,-0.12213740458015267,-1.9083969465648856,-0.463623046875,0.00830078125,-0.17626953125,0.867
1.618320610687023,-0.030534351145038167,-1.8625954198473282,-0.465576171875,0.011474609375,-0.17138671875,0.8686999999999999
1.5114503816793894,0.0,-2.015267175572519,-0.462890625,0.0048828125,-0.1689453125,0.8704
1.6488549618320612,-0.15267175572519084,-2.030534351145038,-0.46630859375,0.01171875,-0.18408203125,0.8721
1.3587786259541985,-0.030534351145038167,-1.984732824427481,-0.4677734375,0.00732421875,-0.17529296875,0.8737999999999999
1.3282442748091603,-0.015267175572519083,-1.8931297709923665,-0.46630859375,0.00927734375,-0.1728515625,0.8755
1.1297709923664123,0.030534351145038167,-2.015267175572519,-0.464599609375,0.009033203125,-0.169677734375,0.8772
1.450381679389313,0.15267175572519084,-1.9083969465648856,-0.464599609375,0.010498046875,-0.17236328125,0.8788999999999999
1.5419847328244274,0.12213740458015267,-1.984732824427481,-0.46630859375,0.004638671875,-0.17333984375,0.8805999999999999
1.3587786259541985,0.2900763358778626,-2.0916030534351147,-0.464599609375,0.0087890625,-0.176513671875,0.8823
1.3740458015267176,0.21374045801526717,-1.7709923664122138,-0.45947265625,0.00537109375,-0.166748046875,0.8839999999999999
1.3587786259541985,0.4732824427480916,-2.015267175572519,-0.46533203125,0.0068359375,-0.17041015625,0.8856999999999999
1.450381679389313,0.33587786259541985,-1.9083969465648856,-0.4658203125,0.005859375,-0.17333984375,0.8874
1.083969465648855,0.42748091603053434,-1.6946564885496183,-0.46484375,0.01171875,-0.176025390625,0.8891
1.1908396946564885,0.5038167938931297,-1.8625954198473282,-0.46533203125,0.007568359375,-0.18115234375,0.8907999999999999
1.3129770992366412,0.42748091603053434,-1.786259541984733,-0.46484375,0.00830078125,-0.180419921875,0.8925
1.083969465648855,0.32061068702290074,-1.816793893129771,-0.469482421875,0.007568359375,-0.172119140625,0.8942
1.2061068702290076,0.5038167938931297,-1.6641221374045803,-0.46435546875,0.007568359375,-0.17138671875,0.8958999999999999
1.1908396946564885,0.366412213740458,-1.6641221374045803,-0.46533203125,0.007568359375,-0.171630859375,0.8976
1.0229007633587786,0.5648854961832062,-1.6030534351145038,-0.462646484375,0.005615234375,-0.17431640625,0.8993
0.9465648854961832,0.366412213740458,-1.5419847328244274,-0.47021484375,0.009033203125,-0.178955078125,0.9009999999999999
1.0229007633587786,0.4732824427480916,-1.465648854961832,-0.462890625,0.0078125,-0.1767578125,0.9027
1.0534351145038168,0.6259541984732825,-1.633587786259542,-0.463134765625,0.0029296875,-0.177490234375,0.9044
0.8244274809160306,0.6564885496183206,-1.4351145038167938,-0.466552734375,0.00341796875,-0.180419921875,0.9060999999999999
0.7786259541984732,0.8396946564885496,-1.3893129770992367,-0.46875,0.009765625,-0.16845703125,0.9077999999999999
0.916030534351145,0.9312977099236641,-1.282442748091603,-0.47021484375,0.009521484375,-0.171875,0.9095
0.7938931297709924,0.8549618320610687,-1.2366412213740459,-0.46435546875,0.001953125,-0.17431640625,0.9111999999999999
0.7022900763358778,0.9312977099236641,-1.1603053435114503,-0.46240234375,0.009521484375,-0.1748046875,0.9128999999999999
0.732824427480916,0.9007633587786259,-1.3282442748091603,-0.462646484375,0.010009765625,-0.182373046875,0.9146
0.6412213740458015,1.0381679389312977,-1.1603053435114503,-0.459228515625,0.005615234375,-0.177001953125,0.9163
0.6564885496183206,1.2213740458015268,-1.3435114503816794,-0.46533203125,0.003662109375,-0.1748046875,0.9179999999999999
0.6870229007633588,1.1908396946564885,-1.083969465648855,-0.463623046875,0.006103515625,-0.173828125,0.9197
0.7786259541984732,1.1908396946564885,-1.2671755725190839,-0.46533203125,0.00390625,-0.174560546875,0.9214
0.6564885496183206,1.2061068702290076,-1.0687022900763359,-0.46240234375,0.00439453125,-0.17333984375,0.9230999999999999
0.33587786259541985,1.4045801526717556,-1.099236641221374,-0.46826171875,0.010498046875,-0.177734375,0.9248
0.1984732824427481,1.282442748091603,-1.083969465648855,-0.458984375,0.00830078125,-0.176513671875,0.9265
0.42748091603053434,1.0687022900763359,-1.099236641221374,-0.468994140625,0.0078125,-0.1728515625,0.9281999999999999
0.6106870229007634,1.4045801526717556,-1.1603053435114503,-0.462646484375,0.00341796875,-0.1708984375,0.9299
0.42748091603053434,1.4961832061068703,-1.297709923664122,-0.462158203125,0.008056640625,-0.1669921875,0.9316
0.2900763358778626,1.251908396946565,-1.0381679389312977,-0.463623046875,0.0068359375,-0.172119140625,0.9332999999999999
0.48854961832061067,1.3435114503816794,-1.1450381679389312,-0.461181640625,0.008056640625,-0.17822265625,0.9349999999999999
0.2748091603053435,1.4198473282442747,-1.1145038167938932,-0.46923828125,0.002685546875,-0.178955078125,0.9367
0.07633587786259542,1.6488549618320612,-1.0229007633587786,-0.465576171875,0.004150390625,-0.177001953125,0.9383999999999999
0.13740458015267176,1.633587786259542,-0.9923664122137404,-0.46484375,0.0048828125,-0.173583984375,0.9400999999999999
0.4122137404580153,1.4198473282442747,-0.9618320610687023,-0.465576171875,0.00830078125,-0.1767578125,0.9418
0.22900763358778625,1.7251908396946565,-0.8702290076335878,-0.46826171875,0.00390625,-0.173828125,0.9434999999999999
0.13740458015267176,1.7404580152671756,-0.9923664122137404,-0.46484375,0.005126953125,-0.175537109375,0.9451999999999999
0.2595419847328244,1.7251908396946565,-0.7938931297709924,-0.463623046875,0.0029296875,-0.180908203125,0.9469
0.2748091603053435,1.6793893129770991,-0.9618320610687023,-0.46337890625,0.008056640625,-0.17919921875,0.9486
0.13740458015267176,1.8778625954198473,-0.7633587786259542,-0.46435546875,0.0068359375,-0.172119140625,0.9502999999999999
0.0,2.1526717557251906,-0.8702290076335878,-0.46484375,0.000732421875,-0.1708984375,0.952
0.15267175572519084,2.2442748091603053,-0.9007633587786259,-0.468505859375,0.011962890625,-0.17529296875,0.9537
0.183206106870229,2.0916030534351147,-0.8244274809160306,-0.463623046875,0.009765625,-0.18701171875,0.9553999999999999
-0.015267175572519083,2.1526717557251906,-0.8854961832061069,-0.4619140625,0.01025390625,-0.1767578125,0.9571
-0.13740458015267176,2.2442748091603053,-1.0076335877862594,-0.4697265625,0.0126953125,-0.169677734375,0.9588
-0.15267175572519084,2.0,-0.7480916030534351,-0.463134765625,0.005859375,-0.1650390625,0.9604999999999999
0.15267175572519084,2.1374045801526718,-0.6412213740458015,-0.4619140625,0.00732421875,-0.171630859375,0.9621999999999999
-0.0916030534351145,2.16793893129771,-0.7480916030534351,-0.462890625,-0.001220703125,-0.18017578125,0.9639
-0.3053435114503817,2.122137404580153,-0.9312977099236641,-0.457763671875,0.00927734375,-0.176025390625,0.9655999999999999
-0.22900763358778625,2.16793893129771,-0.7938931297709924,-0.462158203125,0.008056640625,-0.17138671875,0.9672999999999999
-0.04580152671755725,2.2748091603053435,-0.8091603053435115,-0.4619140625,0.0087890625,-0.173828125,0.969
-0.07633587786259542,2.366412213740458,-1.0076335877862594,-0.46142578125,0.0087890625,-0.1796875,0.9706999999999999
-0.07633587786259542,2.2900763358778624,-0.5801526717557252,-0.462158203125,0.010986328125,-0.173583984375,0.9723999999999999
-0.183206106870229,2.2748091603053435,-0.5648854961832062,-0.46142578125,0.006591796875,-0.17578125,0.9741
-0.42748091603053434,2.33587786259542,-0.8549618320610687,-0.456298828125,0.01123046875,-0.166015625,0.9758
-0.21374045801526717,2.0916030534351147,-0.8396946564885496,-0.463623046875,0.010009765625,-0.17236328125,0.9774999999999999
0.0916030534351145,2.2595419847328246,-0.7633587786259542,-0.46240234375,0.00341796875,-0.17431640625,0.9792
-0.13740458015267176,2.1068702290076335,-0.7175572519083969,-0.46044921875,0.01123046875,-0.173828125,0.9809
-0.42748091603053434,2.015267175572519,-0.9618320610687023,-0.458251953125,0.00830078125,-0.177978515625,0.9825999999999999
-0.07633587786259542,1.9541984732824427,-0.6717557251908397,-0.46044921875,0.0078125,-0.1748046875,0.9843
-0.13740458015267176,1.984732824427481,-0.7786259541984732,-0.45947265625,0.011962890625,-0.17822265625,0.986
0.030534351145038167,2.015267175572519,-0.6717557251908397,-0.4609375,0.01025390625,-0.180419921875,0.9876999999999999
-0.04580152671755725,2.045801526717557,-0.7022900763358778,-0.4580078125,0.013916015625,-0.1728515625,0.9894
-0.16793893129770993,1.9083969465648856,-0.8396946564885496,-0.463134765625,0.016357421875,-0.17138671875,0.9911
-0.183206106870229,2.0610687022900764,-0.8244274809160306,-0.46728515625,0.012451171875,-0.1796875,0.9927999999999999
-0.42748091603053434,1.9694656488549618,-0.5190839694656488,-0.464111328125,0.0087890625,-0.1748046875,0.9944999999999999
-0.24427480916030533,2.0,-0.4732824427480916,-0.463134765625,0.010498046875,-0.17431640625,0.9962
-0.2595419847328244,2.0610687022900764,-0.549618320610687,-0.459228515625,0.010498046875,-0.171142578125,0.9978999999999999
-0.3969465648854962,2.381679389312977,-0.7022900763358778,-0.46923828125,0.012939453125,-0.175537109375,0.9995999999999999
-0.2748091603053435,2.2748091603053435,-0.6106870229007634,-0.462890625,0.010986328125,-0.177001953125,1.0012999999999999
-0.366412213740458,2.427480916030534,-0.6106870229007634,-0.459716796875,0.0078125,-0.177734375,1.003
-0.2900763358778626,2.183206106870229,-0.6564885496183206,-0.45654296875,0.009521484375,-0.17919921875,1.0047
-0.4732824427480916,2.3053435114503817,-0.6870229007633588,-0.45751953125,0.01171875,-0.1708984375,1.0064
-0.42748091603053434,2.3053435114503817,-0.5648854961832062,-0.458251953125,0.01220703125,-0.177490234375,1.0081
-0.2748091603053435,2.2748091603053435,-0.44274809160305345,-0.462158203125,0.007080078125,-0.18408203125,1.0098
-0.32061068702290074,2.015267175572519,-0.5954198473282443,-0.463623046875,0.0146484375,-0.17919921875,1.0114999999999998
-0.44274809160305345,2.122137404580153,-0.7022900763358778,-0.46533203125,0.008544921875,-0.182373046875,1.0131999999999999
-0.3511450381679389,2.2595419847328246,-0.6564885496183206,-0.46630859375,0.014404296875,-0.1787109375,1.0149
-0.48854961832061067,2.183206106870229,-0.5954198473282443,-0.466064453125,0.017333984375,-0.183349609375,1.0166
-0.3969465648854962,2.16793893129771,-0.4122137404580153,-0.46044921875,0.017578125,-0.18212890625,1.0183
-0.6106870229007634,2.1068702290076335,-0.6870229007633588,-0.46142578125,0.013427734375,-0.179931640625,1.02
-0.4122137404580153,2.0763358778625953,-0.7786259541984732,-0.460205078125,0.012451171875,-0.177734375,1.0217
-0.32061068702290074,2.366412213740458,-0.8702290076335878,-0.46337890625,0.013427734375,-0.184814453125,1.0233999999999999
-0.3511450381679389,2.33587786259542,-0.6717557251908397,-0.463134765625,0.015380859375,-0.181884765625,1.0251
-0.2595419847328244,2.549618320610687,-0.6870229007633588,-0.461181640625,0.012939453125,-0.17236328125,1.0268
-0.13740458015267176,2.4732824427480917,-0.8396946564885496,-0.46142578125,0.0126953125,-0.179931640625,1.0285
-0.16793893129770993,2.4580152671755724,-0.9007633587786259,-0.457275390625,0.01513671875,-0.176513671875,1.0302
-0.04580152671755725,2.4732824427480917,-1.0076335877862594,-0.4658203125,0.011962890625,-0.174560546875,1.0319
-0.2900763358778626,2.564885496183206,-0.9465648854961832,-0.459716796875,0.015869140625,-0.180908203125,1.0335999999999999
-0.16793893129770993,2.564885496183206,-1.099236641221374,-0.46630859375,0.01123046875,-0.181396484375,1.0352999999999999
-0.15267175572519084,2.3969465648854964,-1.1603053435114503,-0.4560546875,0.0126953125,-0.179931640625,1.037
-0.030534351145038167,2.427480916030534,-0.9770992366412213,-0.462158203125,0.0107421875,-0.179443359375,1.0387
-0.15267175572519084,2.2748091603053435,-0.8854961832061069,-0.45654296875,0.009521484375,-0.176025390625,1.0404
0.12213740458015267,2.2595419847328246,-1.1145038167938932,-0.4638671875,0.01611328125,-0.173828125,1.0421
-0.04580152671755725,2.3969465648854964,-1.0534351145038168,-0.462890625,0.010009765625,-0.184814453125,1.0437999999999998
0.16793893129770993,2.33587786259542,-1.2366412213740459,-0.461181640625,0.017333984375,-0.177490234375,1.0454999999999999
0.030534351145038167,2.3206106870229006,-1.1297709923664123,-0.4638671875,0.015869140625,-0.184814453125,1.0472
0.0916030534351145,2.2442748091603053,-1.2671755725190839,-0.461181640625,0.01025390625,-0.179443359375,1.0489
0.22900763358778625,2.366412213740458,-1.2366412213740459,-0.4619140625,0.009521484375,-0.17919921875,1.0506
0.5038167938931297,2.2595419847328246,-1.3435114503816794,-0.46435546875,0.012451171875,-0.175537109375,1.0523
0.366412213740458,2.33587786259542,-1.1145038167938932,-0.4638671875,0.014404296875,-0.182861328125,1.054
0.5343511450381679,2.4580152671755724,-1.1603053435114503,-0.462158203125,0.01416015625,-0.17724609375,1.0556999999999999
0.366412213740458,2.3206106870229006,-1.1755725190839694,-0.458251953125,0.012939453125,-0.178466796875,1.0574
0.030534351145038167,2.16793893129771,-1.4809160305343512,-0.460693359375,0.0166015625,-0.1845703125,1.0591
0.2748091603053435,2.4580152671755724,-1.1450381679389312,-0.459228515625,0.0087890625,-0.1796875,1.0608
0.732824427480916,2.2290076335877864,-1.4351145038167938,-0.46142578125,0.01220703125,-0.1796875,1.0625
0.549618320610687,2.351145038167939,-1.2213740458015268,-0.45556640625,0.014404296875,-0.177001953125,1.0642
0.6106870229007634,2.2442748091603053,-1.4198473282442747,-0.46044921875,0.015869140625,-0.177490234375,1.0658999999999998
0.4580152671755725,2.1374045801526718,-1.0381679389312977,-0.460205078125,0.0126953125,-0.18310546875,1.0675999999999999
0.4580152671755725,2.122137404580153,-1.1145038167938932,-0.45703125,0.010498046875,-0.177734375,1.0693
0.6259541984732825,2.213740458015267,-1.1145038167938932,-0.46435546875,0.016845703125,-0.18701171875,1.071
0.6564885496183206,2.183206106870229,-1.2213740458015268,-0.457275390625,0.013916015625,-0.180419921875,1.0727
0.5648854961832062,2.381679389312977,-1.1755725190839694,-0.45556640625,0.01025390625,-0.183837890625,1.0744
0.8244274809160306,2.381679389312977,-1.3129770992366412,-0.460693359375,0.00927734375,-0.182861328125,1.0760999999999998
0.732824427480916,2.2442748091603053,-1.0687022900763359,-0.4619140625,0.01318359375,-0.182861328125,1.0777999999999999
0.5954198473282443,2.1068702290076335,-1.1603053435114503,-0.462890625,0.015625,-0.1796875,1.0795
0.8244274809160306,2.16793893129771,-1.0687022900763359,-0.456298828125,0.01220703125,-0.17919921875,1.0812
0.6717557251908397,2.1526717557251906,-1.1297709923664123,-0.4638671875,0.013916015625,-0.17724609375,1.0829
0.8091603053435115,2.1526717557251906,-1.1145038167938932,-0.456298828125,0.01806640625,-0.18017578125,1.0846
0.9312977099236641,1.9541984732824427,-1.083969465648855,-0.45703125,0.01025390625,-0.177978515625,1.0863
0.9618320610687023,1.8473282442748091,-1.0229007633587786,-0.463134765625,0.009765625,-0.182861328125,1.0879999999999999
1.0076335877862594,1.8473282442748091,-1.251908396946565,-0.460693359375,0.013427734375,-0.17626953125,1.0897
1.1603053435114503,1.8931297709923665,-0.9770992366412213,-0.459716796875,0.010986328125,-0.18017578125,1.0914
0.8854961832061069,1.7251908396946565,-1.0381679389312977,-0.4619140625,0.0107421875,-0.185791015625,1.0931
0.9618320610687023,1.6030534351145038,-1.1755725190839694,-0.46044921875,0.0126953125,-0.1875,1.0948
1.1755725190839694,1.465648854961832,-0.9923664122137404,-0.461181640625,0.0166015625,-0.186767578125,1.0965
1.099236641221374,1.5572519083969465,-1.0229007633587786,-0.456298828125,0.009765625,-0.18896484375,1.0981999999999998
1.1145038167938932,1.7099236641221374,-1.1450381679389312,-0.456298828125,0.010009765625,-0.187744140625,1.0998999999999999
1.297709923664122,1.5725190839694656,-1.0229007633587786,-0.460205078125,0.014404296875,-0.1904296875,1.1016
1.099236641221374,1.450381679389313,-1.083969465648855,-0.457763671875,0.013427734375,-0.185546875,1.1033
1.1297709923664123,1.3587786259541985,-1.1908396946564885,-0.453857421875,0.01171875,-0.178955078125,1.105
0.9770992366412213,1.1450381679389312,-1.0534351145038168,-0.461181640625,0.01025390625,-0.180419921875,1.1067
0.9923664122137404,1.3587786259541985,-1.0381679389312977,-0.46337890625,0.01171875,-0.1806640625,1.1083999999999998
1.3282442748091603,1.3893129770992367,-0.9465648854961832,-0.4619140625,0.0078125,-0.1796875,1.1100999999999999
1.0534351145038168,1.1755725190839694,-1.1145038167938932,-0.45947265625,0.009521484375,-0.178466796875,1.1118
1.1297709923664123,1.4045801526717556,-1.1297709923664123,-0.460693359375,0.01318359375,-0.17724609375,1.1135
1.0381679389312977,1.4045801526717556,-1.2061068702290076,-0.460693359375,0.016357421875,-0.190185546875,1.1152
1.083969465648855,1.1908396946564885,-1.1145038167938932,-0.45849609375,0.012451171875,-0.176025390625,1.1169
1.2366412213740459,1.2061068702290076,-1.1297709923664123,-0.45751953125,0.009033203125,-0.18017578125,1.1186
1.3282442748091603,1.1908396946564885,-1.282442748091603,-0.454833984375,0.013916015625,-0.18115234375,1.1202999999999999
1.2671755725190839,1.0534351145038168,-1.2061068702290076,-0.45458984375,0.0087890625,-0.181884765625,1.1219999999999999
1.3435114503816794,1.0687022900763359,-1.450381679389313,-0.4521484375,0.01123046875,-0.177734375,1.1237
1.1450381679389312,1.083969465648855,-1.5267175572519085,-0.45849609375,0.009521484375,-0.177001953125,1.1254
1.3893129770992367,1.083969465648855,-1.1755725190839694,-0.450439453125,0.01416015625,-0.183349609375,1.1271
1.3282442748091603,1.0687022900763359,-1.3282442748091603,-0.458984375,0.00732421875,-0.180908203125,1.1288
1.4351145038167938,0.8702290076335878,-1.5572519083969465,-0.4541015625,0.01123046875,-0.175048828125,1.1304999999999998
1.5267175572519085,0.7938931297709924,-1.5114503816793894,-0.459716796875,0.01123046875,-0.16748046875,1.1321999999999999
1.2061068702290076,0.9770992366412213,-1.4961832061068703,-0.454345703125,0.011474609375,-0.181396484375,1.1339
1.251908396946565,0.8091603053435115,-1.6030534351145038,-0.4560546875,0.0087890625,-0.18310546875,1.1356
1.1297709923664123,0.6412213740458015,-1.5572519083969465,-0.456298828125,0.014892578125,-0.174072265625,1.1373
1.3435114503816794,0.3511450381679389,-1.6488549618320612,-0.4580078125,0.013671875,-0.18310546875,1.139
1.4961832061068703,0.5801526717557252,-1.6030534351145038,-0.458251953125,0.01708984375,-0.174560546875,1.1407
1.1755725190839694,0.549618320610687,-1.7099236641221374,-0.458984375,0.013671875,-0.182373046875,1.1423999999999999
1.3129770992366412,0.4732824427480916,-1.6641221374045803,-0.4619140625,0.00927734375,-0.174072265625,1.1441
1.450381679389313,0.5038167938931297,-1.7404580152671756,-0.45947265625,0.010498046875,-0.177490234375,1.1458
1.3893129770992367,0.3969465648854962,-1.8473282442748091,-0.46044921875,0.010986328125,-0.185302734375,1.1475
1.4351145038167938,0.3053435114503817,-1.8015267175572518,-0.451904296875,0.0166015625,-0.180419921875,1.1492
1.1908396946564885,0.2748091603053435,-1.5725190839694656,-0.457275390625,0.011474609375,-0.174072265625,1.1509
1.1603053435114503,0.3053435114503817,-1.7557251908396947,-0.46142578125,0.0126953125,-0.182861328125,1.1525999999999998
1.0687022900763359,0.42748091603053434,-2.015267175572519,-0.46240234375,0.009521484375,-0.182373046875,1.1542999999999999
1.1755725190839694,0.4122137404580153,-1.7251908396946565,-0.4599609375,0.015625,-0.17822265625,1.156
1.099236641221374,0.21374045801526717,-1.618320610687023,-0.45654296875,0.00537109375,-0.174072265625,1.1577
1.1908396946564885,0.22900763358778625,-1.7557251908396947,-0.45947265625,0.005615234375,-0.178955078125,1.1594
1.2366412213740459,0.21374045801526717,-1.816793893129771,-0.4560546875,0.00537109375,-0.17919921875,1.1611
1.3129770992366412,-0.030534351145038167,-1.816793893129771,-0.4619140625,0.00830078125,-0.182861328125,1.1627999999999998
1.1755725190839694,0.183206106870229,-1.8625954198473282,-0.460205078125,0.01318359375,-0.18017578125,1.1644999999999999
0.9312977099236641,0.3053435114503817,-1.83206106870229,-0.466552734375,0.01220703125,-0.187255859375,1.1662
1.0534351145038168,0.2748091603053435,-1.8015267175572518,-0.462646484375,0.005615234375,-0.182861328125,1.1679
0.9007633587786259,0.15267175572519084,-1.8931297709923665,-0.46044921875,0.008056640625,-0.183349609375,1.1696
1.0687022900763359,-0.061068702290076333,-1.984732824427481,-0.465576171875,0.00634765625,-0.170166015625,1.1713
0.7633587786259542,0.061068702290076333,-1.9083969465648856,-0.462646484375,0.00439453125,-0.185302734375,1.173
0.8854961832061069,0.0,-1.7404580152671756,-0.465576171875,0.006591796875,-0.18017578125,1.1746999999999999
1.0534351145038168,-0.061068702290076333,-1.984732824427481,-0.4580078125,0.011474609375,-0.182861328125,1.1764
0.916030534351145,0.10687022900763359,-1.7404580152671756,-0.45849609375,0.01318359375,-0.18798828125,1.1781
0.6564885496183206,0.1984732824427481,-1.9694656488549618,-0.462646484375,0.01123046875,-0.179931640625,1.1798
0.8091603053435115,0.183206106870229,-1.7251908396946565,-0.46337890625,0.00830078125,-0.18115234375,1.1815
0.9618320610687023,-0.07633587786259542,-1.9694656488549618,-0.4619140625,0.011962890625,-0.1806640625,1.1832
0.7480916030534351,-0.13740458015267176,-1.8931297709923665,-0.462158203125,0.010986328125,-0.184326171875,1.1848999999999998
0.6259541984732825,-0.07633587786259542,-1.83206106870229,-0.456787109375,0.016845703125,-0.17626953125,1.1865999999999999
0.7786259541984732,-0.030534351145038167,-1.9083969465648856,-0.45947265625,0.0048828125,-0.1767578125,1.1883
0.7175572519083969,0.030534351145038167,-1.816793893129771,-0.463134765625,0.008544921875,-0.1796875,1.19
0.7022900763358778,-0.183206106870229,-1.9083969465648856,-0.461181640625,0.00927734375,-0.17333984375,1.1917
0.6564885496183206,-0.04580152671755725,-1.8473282442748091,-0.45654296875,0.00537109375,-0.1767578125,1.1934
0.6259541984732825,-0.0916030534351145,-1.7557251908396947,-0.45947265625,0.01318359375,-0.183837890625,1.1950999999999998
0.732824427480916,-0.061068702290076333,-1.8473282442748091,-0.463623046875,0.0107421875,-0.179443359375,1.1967999999999999
0.5648854961832062,-0.0916030534351145,-1.8015267175572518,-0.462158203125,0.00830078125,-0.17724609375,1.1985
0.7938931297709924,0.0,-1.816793893129771,-0.46484375,0.011474609375,-0.1767578125,1.2002
0.6106870229007634,0.0916030534351145,-1.8931297709923665,-0.462158203125,0.01416015625,-0.17919921875,1.2019
0.6106870229007634,-0.1984732824427481,-1.6793893129770991,-0.46484375,0.011474609375,-0.177734375,1.2036
0.8396946564885496,-0.13740458015267176,-1.6641221374045803,-0.462890625,0.00634765625,-0.17236328125,1.2053
0.44274809160305345,-0.061068702290076333,-1.816793893129771,-0.467041015625,0.0078125,-0.174072265625,1.2069999999999999
0.5648854961832062,-0.12213740458015267,-1.7557251908396947,-0.46533203125,0.01025390625,-0.17919921875,1.2086999999999999
0.6259541984732825,0.0,-1.8015267175572518,-0.456787109375,0.00830078125,-0.18505859375,1.2104
0.6870229007633588,0.015267175572519083,-1.8473282442748091,-0.461669921875,0.0126953125,-0.17333984375,1.2121
0.7022900763358778,-0.030534351145038167,-1.786259541984733,-0.46435546875,0.009033203125,-0.177001953125,1.2138
0.42748091603053434,-0.10687022900763359,-1.9389312977099236,-0.459716796875,0.013671875,-0.176513671875,1.2155
0.44274809160305345,0.030534351145038167,-2.030534351145038,-0.46240234375,0.015380859375,-0.178955078125,1.2171999999999998
0.6412213740458015,0.015267175572519083,-1.8625954198473282,-0.467041015625,0.01025390625,-0.175048828125,1.2188999999999999
0.5038167938931297,-0.07633587786259542,-1.8015267175572518,-0.461669921875,0.010498046875,-0.1708984375,1.2206
0.7633587786259542,0.07633587786259542,-1.9541984732824427,-0.46142578125,0.00537109375,-0.1806640625,1.2223
0.6564885496183206,0.04580152671755725,-1.7404580152671756,-0.460693359375,0.0087890625,-0.1728515625,1.224
0.5343511450381679,0.07633587786259542,-1.9083969465648856,-0.460205078125,0.006591796875,-0.177734375,1.2257
0.7022900763358778,-0.07633587786259542,-1.786259541984733,-0.46044921875,0.009521484375,-0.17529296875,1.2273999999999998
0.44274809160305345,-0.1984732824427481,-1.83206106870229,-0.4599609375,0.01123046875,-0.171630859375,1.2290999999999999
0.5038167938931297,0.0916030534351145,-1.7404580152671756,-0.45849609375,0.0107421875,-0.170166015625,1.2308
0.5648854961832062,-0.10687022900763359,-1.7404580152671756,-0.4580078125,0.006591796875,-0.180908203125,1.2325
0.5648854961832062,-0.183206106870229,-1.7251908396946565,-0.4619140625,0.0126953125,-0.1748046875,1.2342
0.5648854961832062,-0.061068702290076333,-1.7557251908396947,-0.463134765625,0.00634765625,-0.1689453125,1.2359
0.7175572519083969,-0.04580152671755725,-1.8778625954198473,-0.45654296875,0.01171875,-0.175048828125,1.2376
0.5190839694656488,0.0,-1.83206106870229,-0.46337890625,0.00830078125,-0.1748046875,1.2392999999999998
0.5190839694656488,0.061068702290076333,-1.786259541984733,-0.461181640625,0.01123046875,-0.170654296875,1.2409999999999999
0.5801526717557252,0.015267175572519083,-1.7709923664122138,-0.459716796875,0.008544921875,-0.176025390625,1.2427
0.7786259541984732,-0.15267175572519084,-1.7709923664122138,-0.4658203125,0.013916015625,-0.178466796875,1.2444
0.4732824427480916,-0.0916030534351145,-1.7404580152671756,-0.45654296875,0.006103515625,-0.172119140625,1.2461
0.48854961832061067,0.061068702290076333,-1.8473282442748091,-0.45849609375,0.007568359375,-0.174072265625,1.2478
0.42748091603053434,0.061068702290076333,-1.9389312977099236,-0.4638671875,0.010009765625,-0.17919921875,1.2494999999999998
0.7480916030534351,-0.10687022900763359,-1.8015267175572518,-0.462158203125,0.007080078125,-0.17529296875,1.2511999999999999
0.5954198473282443,-0.015267175572519083,-1.7557251908396947,-0.461669921875,0.009033203125,-0.174072265625,1.2529
0.4122137404580153,-0.16793893129770993,-1.7404580152671756,-0.461181640625,0.01025390625,-0.177001953125,1.2546
0.6564885496183206,-0.030534351145038167,-1.8473282442748091,-0.4638671875,0.01123046875,-0.177490234375,1.2563
0.7786259541984732,-0.015267175572519083,-1.6946564885496183,-0.466064453125,0.00732421875,-0.17626953125,1.258
0.7786259541984732,0.10687022900763359,-1.4809160305343512,-0.46044921875,0.009765625,-0.17578125,1.2596999999999998
0.6106870229007634,-0.13740458015267176,-1.618320610687023,-0.460693359375,0.012939453125,-0.177978515625,1.2613999999999999
0.6717557251908397,0.0916030534351145,-1.5572519083969465,-0.466552734375,0.006591796875,-0.173095703125,1.2631
0.7022900763358778,0.3053435114503817,-1.4198473282442747,-0.4638671875,0.011962890625,-0.17138671875,1.2648
0.9618320610687023,0.0916030534351145,-1.6793893129770991,-0.45947265625,0.01025390625,-0.177001953125,1.2665
0.8702290076335878,0.13740458015267176,-1.5877862595419847,-0.462646484375,0.013427734375,-0.177490234375,1.2682
0.7175572519083969,0.0916030534351145,-1.6946564885496183,-0.46142578125,0.009033203125,-0.173095703125,1.2699
0.6564885496183206,0.22900763358778625,-1.5877862595419847,-0.462158203125,0.00634765625,-0.169189453125,1.2715999999999998
0.7938931297709924,0.015267175572519083,-1.8015267175572518,-0.45751953125,0.010009765625,-0.177490234375,1.2732999999999999
0.8091603053435115,-0.10687022900763359,-1.6793893129770991,-0.4609375,0.00830078125,-0.177001953125,1.275
0.9465648854961832,0.0,-1.6641221374045803,-0.46435546875,0.006103515625,-0.176025390625,1.2767
0.8396946564885496,0.15267175572519084,-1.5572519083969465,-0.466796875,0.0107421875,-0.174560546875,1.2784
0.5801526717557252,0.030534351145038167,-1.5572519083969465,-0.461669921875,0.011474609375,-0.1845703125,1.2801
0.8091603053435115,0.10687022900763359,-1.3282442748091603,-0.460693359375,0.008056640625,-0.17138671875,1.2817999999999998
0.8702290076335878,0.32061068702290074,-1.6030534351145038,-0.4677734375,0.0166015625,-0.175048828125,1.2834999999999999
0.6717557251908397,0.183206106870229,-1.450381679389313,-0.466064453125,0.012451171875,-0.1728515625,1.2852
0.6106870229007634,0.16793893129770993,-1.633587786259542,-0.465576171875,0.011474609375,-0.183837890625,1.2869
1.083969465648855,0.21374045801526717,-1.465648854961832,-0.46240234375,0.010498046875,-0.174560546875,1.2886
0.7633587786259542,0.07633587786259542,-1.3740458015267176,-0.4638671875,0.017333984375,-0.173828125,1.2903
1.0381679389312977,0.15267175572519084,-1.4045801526717556,-0.463134765625,0.01318359375,-0.17529296875,1.292
0.8549618320610687,0.4122137404580153,-1.5267175572519085,-0.466552734375,0.00732421875,-0.175537109375,1.2936999999999999
0.7633587786259542,0.2900763358778626,-1.4809160305343512,-0.468017578125,0.00732421875,-0.166259765625,1.2953999999999999
0.7480916030534351,0.32061068702290074,-1.5572519083969465,-0.46240234375,0.01220703125,-0.173828125,1.2971
0.8091603053435115,0.44274809160305345,-1.3435114503816794,-0.458740234375,0.018310546875,-0.176513671875,1.2988
0.6870229007633588,0.4122137404580153,-1.6488549618320612,-0.458740234375,0.008544921875,-0.180908203125,1.3005
0.5648854961832062,0.5190839694656488,-1.2061068702290076,-0.4658203125,0.00439453125,-0.173583984375,1.3022
0.732824427480916,0.6564885496183206,-1.4045801526717556,-0.464599609375,0.010498046875,-0.178955078125,1.3038999999999998
0.9923664122137404,0.5801526717557252,-1.2061068702290076,-0.463134765625,0.0068359375,-0.1669921875,1.3055999999999999
0.7480916030534351,0.366412213740458,-1.465648854961832,-0.46875,0.00390625,-0.1787109375,1.3073
0.6106870229007634,0.5648854961832062,-1.2671755725190839,-0.468017578125,0.004638671875,-0.181640625,1.309
0.7938931297709924,0.6717557251908397,-1.3435114503816794,-0.466064453125,0.013916015625,-0.174560546875,1.3107
0.6412213740458015,0.8854961832061069,-1.251908396946565,-0.45556640625,0.01025390625,-0.170166015625,1.3124
0.7938931297709924,0.8396946564885496,-1.297709923664122,-0.455078125,0.0087890625,-0.1640625,1.3140999999999998
0.732824427480916,0.6870229007633588,-1.2366412213740459,-0.46435546875,0.00634765625,-0.1630859375,1.3157999999999999
0.8091603053435115,0.6870229007633588,-1.3893129770992367,-0.46826171875,0.0087890625,-0.182373046875,1.3175
0.7175572519083969,0.916030534351145,-1.465648854961832,-0.461181640625,0.011474609375,-0.172607421875,1.3192
0.6259541984732825,0.8396946564885496,-1.3282442748091603,-0.463623046875,0.012451171875,-0.1669921875,1.3209
0.7175572519083969,0.8702290076335878,-1.3587786259541985,-0.466796875,0.007568359375,-0.16845703125,1.3226
0.8549618320610687,0.9312977099236641,-1.4809160305343512,-0.46142578125,0.0068359375,-0.176025390625,1.3243
0.7022900763358778,0.916030534351145,-1.3893129770992367,-0.46728515625,0.013916015625,-0.1787109375,1.3259999999999998
0.5801526717557252,1.2061068702290076,-1.3740458015267176,-0.46435546875,0.007568359375,-0.177490234375,1.3276999999999999
0.7786259541984732,1.1297709923664123,-1.3435114503816794,-0.468017578125,0.01171875,-0.18408203125,1.3294
0.8244274809160306,1.1145038167938932,-1.6641221374045803,-0.46533203125,0.01171875,-0.177490234375,1.3311
0.7175572519083969,1.2671755725190839,-1.297709923664122,-0.466552734375,0.008056640625,-0.17529296875,1.3328
0.6717557251908397,1.1755725190839694,-1.5572519083969465,-0.46630859375,0.015380859375,-0.175048828125,1.3345
0.8702290076335878,1.1908396946564885,-1.3129770992366412,-0.465087890625,0.008544921875,-0.177978515625,1.3361999999999998
0.732824427480916,1.2366412213740459,-1.5114503816793894,-0.4609375,0.0078125,-0.175537109375,1.3378999999999999
0.5343511450381679,1.5267175572519085,-1.297709923664122,-0.4609375,0.010009765625,-0.1708984375,1.3396
0.7480916030534351,1.450381679389313,-1.2213740458015268,-0.45947265625,0.007568359375,-0.177490234375,1.3413
0.6564885496183206,1.3282442748091603,-1.4351145038167938,-0.46240234375,0.010009765625,-0.176025390625,1.343
0.5190839694656488,1.1603053435114503,-1.5572519083969465,-0.46484375,0.00537109375,-0.1796875,1.3447
0.7480916030534351,1.251908396946565,-1.3282442748091603,-0.46142578125,0.01513671875,-0.18017578125,1.3463999999999998
0.6412213740458015,1.4198473282442747,-1.297709923664122,-0.46044921875,0.0107421875,-0.174560546875,1.3480999999999999
0.8091603053435115,1.282442748091603,-1.5267175572519085,-0.466064453125,0.013916015625,-0.173828125,1.3497999999999999
0.6106870229007634,1.297709923664122,-1.4351145038167938,-0.46533203125,0.007568359375,-0.169921875,1.3515
0.7480916030534351,1.4198473282442747,-1.450381679389313,-0.4638671875,0.0107421875,-0.17333984375,1.3532
0.6259541984732825,1.251908396946565,-1.4961832061068703,-0.46142578125,0.0087890625,-0.1787109375,1.3549
0.732824427480916,1.083969465648855,-1.4045801526717556,-0.461669921875,0.0107421875,-0.170166015625,1.3566
0.4732824427480916,1.3893129770992367,-1.3282442748091603,-0.460205078125,0.011474609375,-0.172607421875,1.3582999999999998
0.6564885496183206,1.3435114503816794,-1.5572519083969465,-0.4658203125,0.009521484375,-0.1728515625,1.3599999999999999
0.7022900763358778,1.1755725190839694,-1.3587786259541985,-0.464111328125,0.00537109375,-0.171142578125,1.3617
0.549618320610687,1.3435114503816794,-1.4961832061068703,-0.46337890625,0.005859375,-0.18212890625,1.3634
0.6870229007633588,1.282442748091603,-1.5725190839694656,-0.46435546875,0.009033203125,-0.179931640625,1.3651
0.6717557251908397,1.3282442748091603,-1.3740458015267176,-0.4619140625,0.012939453125,-0.178466796875,1.3668
0.7938931297709924,1.2061068702290076,-1.4351145038167938,-0.461181640625,0.013671875,-0.176513671875,1.3684999999999998
0.6564885496183206,1.3587786259541985,-1.4809160305343512,-0.46044921875,0.01171875,-0.171142578125,1.3701999999999999
0.6412213740458015,1.2366412213740459,-1.3740458015267176,-0.4560546875,0.01123046875,-0.1748046875,1.3719
0.44274809160305345,1.4351145038167938,-1.4961832061068703,-0.45703125,0.00732421875,-0.176513671875,1.3736
0.6106870229007634,1.3435114503816794,-1.4045801526717556,-0.466796875,0.016845703125,-0.18408203125,1.3753
0.3969465648854962,1.251908396946565,-1.4809160305343512,-0.466552734375,0.011962890625,-0.17333984375,1.377
0.6564885496183206,1.5572519083969465,-1.465648854961832,-0.461181640625,0.013916015625,-0.17431640625,1.3786999999999998
0.48854961832061067,1.297709923664122,-1.3893129770992367,-0.460205078125,0.009765625,-0.17724609375,1.3803999999999998
0.6564885496183206,1.1297709923664123,-1.450381679389313,-0.461181640625,0.0068359375,-0.177001953125,1.3820999999999999
0.6717557251908397,0.9465648854961832,-1.633587786259542,-0.460693359375,0.005615234375,-0.16943359375,1.3838
0.5954198473282443,1.0534351145038168,-1.6946564885496183,-0.465087890625,0.009033203125,-0.174560546875,1.3855
0.7786259541984732,1.1908396946564885,-1.6030534351145038,-0.462646484375,0.008544921875,-0.17919921875,1.3872
0.7480916030534351,1.1603053435114503,-1.4198473282442747,-0.46044921875,0.009765625,-0.178466796875,1.3889
0.7786259541984732,0.9618320610687023,-1.7709923664122138,-0.45947265625,0.00439453125,-0.1748046875,1.3905999999999998
0.6564885496183206,1.1908396946564885,-1.6641221374045803,-0.464111328125,0.009521484375,-0.177001953125,1.3922999999999999
0.732824427480916,1.1908396946564885,-1.5725190839694656,-0.465087890625,0.008544921875,-0.171142578125,1.394
0.8244274809160306,1.0229007633587786,-1.4809160305343512,-0.464599609375,0.01171875,-0.169677734375,1.3957
0.8549618320610687,0.9618320610687023,-1.5114503816793894,-0.466796875,0.01220703125,-0.175537109375,1.3974
0.9465648854961832,0.9923664122137404,-1.3740458015267176,-0.463623046875,0.005126953125,-0.177734375,1.3991
0.8549618320610687,0.9923664122137404,-1.5725190839694656,-0.462158203125,0.011474609375,-0.16943359375,1.4007999999999998
0.6717557251908397,1.099236641221374,-1.5877862595419847,-0.46240234375,0.009765625,-0.168212890625,1.4024999999999999
0.7938931297709924,1.2366412213740459,-1.6030534351145038,-0.4580078125,0.01025390625,-0.175048828125,1.4042
0.8244274809160306,1.1908396946564885,-1.5267175572519085,-0.464111328125,0.005126953125,-0.176513671875,1.4059
0.9312977099236641,1.3282442748091603,-1.5114503816793894,-0.463623046875,0.010009765625,-0.1748046875,1.4076
0.6717557251908397,1.1297709923664123,-1.5114503816793894,-0.467529296875,0.011474609375,-0.1728515625,1.4093
0.7175572519083969,1.2366412213740459,-1.6488549618320612,-0.463623046875,0.013427734375,-0.1787109375,1.411
0.5954198473282443,1.4351145038167938,-1.282442748091603,-0.464111328125,0.01318359375,-0.167724609375,1.4126999999999998
0.7480916030534351,1.3587786259541985,-1.3893129770992367,-0.469482421875,0.012939453125,-0.175048828125,1.4143999999999999
0.9465648854961832,1.2366412213740459,-1.282442748091603,-0.466064453125,0.013671875,-0.17626953125,1.4161
0.8702290076335878,1.282442748091603,-1.4961832061068703,-0.464111328125,0.010009765625,-0.172607421875,1.4178
0.7938931297709924,1.3587786259541985,-1.4198473282442747,-0.46435546875,0.010986328125,-0.17333984375,1.4195
0.7022900763358778,1.282442748091603,-1.3129770992366412,-0.46435546875,0.015625,-0.171630859375,1.4212
0.9923664122137404,1.3435114503816794,-1.4809160305343512,-0.457763671875,0.006103515625,-0.18212890625,1.4228999999999998
0.9618320610687023,1.2213740458015268,-1.6641221374045803,-0.465087890625,0.009765625,-0.173828125,1.4245999999999999
0.6870229007633588,1.1908396946564885,-1.4045801526717556,-0.462890625,0.0068359375,-0.183349609375,1.4263
0.9923664122137404,1.2671755725190839,-1.4961832061068703,-0.467041015625,0.009033203125,-0.183837890625,1.428
0.8854961832061069,1.2671755725190839,-1.2671755725190839,-0.460205078125,0.008544921875,-0.17919921875,1.4297
1.0534351145038168,1.3435114503816794,-1.465648854961832,-0.459228515625,0.0087890625,-0.170654296875,1.4314
0.8702290076335878,1.3587786259541985,-1.3435114503816794,-0.46533203125,0.0107421875,-0.17041015625,1.4330999999999998
0.9312977099236641,1.4198473282442747,-1.2061068702290076,-0.46484375,0.01171875,-0.171142578125,1.4347999999999999
0.7022900763358778,1.282442748091603,-1.1908396946564885,-0.458984375,0.006591796875,-0.179931640625,1.4364999999999999
0.8702290076335878,1.3282442748091603,-1.5114503816793894,-0.46728515625,0.00634765625,-0.178466796875,1.4382
1.1297709923664123,1.3587786259541985,-1.3740458015267176,-0.461669921875,0.007080078125,-0.17236328125,1.4399
0.9007633587786259,1.5419847328244274,-1.3587786259541985,-0.464111328125,0.009033203125,-0.17919921875,1.4416
1.1908396946564885,1.4961832061068703,-1.2061068702290076,-0.46826171875,0.011962890625,-0.17724609375,1.4433
1.1297709923664123,1.5877862595419847,-1.3893129770992367,-0.464599609375,0.009033203125,-0.175537109375,1.4449999999999998
0.9618320610687023,1.6488549618320612,-1.1603053435114503,-0.456787109375,0.0068359375,-0.176513671875,1.4466999999999999
0.8702290076335878,1.618320610687023,-1.2213740458015268,-0.4599609375,0.011962890625,-0.176025390625,1.4484
1.099236641221374,1.465648854961832,-1.2213740458015268,-0.456787109375,0.009033203125,-0.176025390625,1.4501
0.7938931297709924,1.5572519083969465,-1.2671755725190839,-0.45947265625,0.0087890625,-0.168212890625,1.4518
0.7480916030534351,1.465648854961832,-1.1297709923664123,-0.4638671875,0.010009765625,-0.164794921875,1.4535
1.0229007633587786,1.5877862595419847,-1.1450381679389312,-0.461669921875,0.010498046875,-0.169921875,1.4551999999999998
1.3893129770992367,1.6793893129770991,-1.1145038167938932,-0.460693359375,0.009033203125,-0.16552734375,1.4568999999999999
0.9923664122137404,1.4961832061068703,-1.2366412213740459,-0.46630859375,0.010986328125,-0.169921875,1.4586
1.1450381679389312,1.251908396946565,-1.3129770992366412,-0.46142578125,0.010498046875,-0.17333984375,1.4603
1.083969465648855,1.6030534351145038,-1.1603053435114503,-0.4609375,0.0126953125,-0.1767578125,1.462
0.9770992366412213,1.3740458015267176,-1.2671755725190839,-0.461181640625,0.011474609375,-0.174560546875,1.4637
0.9007633587786259,1.282442748091603,-1.1908396946564885,-0.46484375,0.00634765625,-0.17236328125,1.4653999999999998
0.9770992366412213,1.3435114503816794,-1.2213740458015268,-0.462646484375,0.0078125,-0.185302734375,1.4670999999999998
1.1603053435114503,1.4045801526717556,-1.2671755725190839,-0.466064453125,0.008544921875,-0.17578125,1.4687999999999999
1.2061068702290076,1.4198473282442747,-1.0381679389312977,-0.4619140625,0.01123046875,-0.178955078125,1.4705
0.9923664122137404,1.4961832061068703,-1.1450381679389312,-0.465576171875,0.010498046875,-0.17919921875,1.4722
1.0229007633587786,1.6030534351145038,-1.0534351145038168,-0.45849609375,0.010498046875,-0.170654296875,1.4739
0.6564885496183206,1.5877862595419847,-1.3129770992366412,-0.461669921875,0.010498046875,-0.176513671875,1.4756
1.0229007633587786,1.633587786259542,-1.3435114503816794,-0.4619140625,0.014892578125,-0.176513671875,1.4772999999999998
0.7938931297709924,1.5572519083969465,-1.2213740458015268,-0.4609375,0.010498046875,-0.172119140625,1.4789999999999999
0.8091603053435115,1.3893129770992367,-1.2213740458015268,-0.46044921875,0.00732421875,-0.1728515625,1.4807
0.9770992366412213,1.5572519083969465,-1.1755725190839694,-0.4599609375,0.011474609375,-0.175537109375,1.4824
0.5038167938931297,1.7251908396946565,-1.297709923664122,-0.46142578125,0.01025390625,-0.177490234375,1.4841
0.9007633587786259,1.6641221374045803,-1.1603053435114503,-0.459716796875,0.013427734375,-0.176513671875,1.4858
0.7022900763358778,1.6488549618320612,-1.2366412213740459,-0.459228515625,0.0078125,-0.17333984375,1.4874999999999998
0.7480916030534351,1.633587786259542,-1.2366412213740459,-0.463134765625,0.006591796875,-0.1728515625,1.4891999999999999
0.7633587786259542,1.450381679389313,-1.3740458015267176,-0.46337890625,0.0078125,-0.1728515625,1.4909
0.7786259541984732,1.6641221374045803,-1.282442748091603,-0.4580078125,0.009521484375,-0.17626953125,1.4926
0.5954198473282443,1.4809160305343512,-1.2061068702290076,-0.46142578125,0.015380859375,-0.17333984375,1.4943
0.7480916030534351,1.6030534351145038,-1.5114503816793894,-0.46044921875,0.006591796875,-0.181396484375,1.496
0.6564885496183206,1.450381679389313,-1.4961832061068703,-0.464599609375,0.007080078125,-0.170166015625,1.4976999999999998
0.44274809160305345,1.5267175572519085,-1.4045801526717556,-0.465087890625,0.012451171875,-0.172607421875,1.4993999999999998
0.6564885496183206,1.618320610687023,-1.4961832061068703,-0.462646484375,0.011474609375,-0.176025390625,1.5010999999999999
0.6564885496183206,1.5114503816793894,-1.1908396946564885,-0.46142578125,0.01025390625,-0.177001953125,1.5028
0.6259541984732825,1.6030534351145038,-1.5114503816793894,-0.466064453125,0.01171875,-0.177490234375,1.5045
0.5343511450381679,1.786259541984733,-1.3587786259541985,-0.464111328125,0.00927734375,-0.182861328125,1.5062
0.6106870229007634,1.7404580152671756,-1.6030534351145038,-0.463134765625,0.0087890625,-0.17138671875,1.5079
0.5954198473282443,1.8625954198473282,-1.2671755725190839,-0.465576171875,0.009033203125,-0.177001953125,1.5095999999999998
0.3969465648854962,1.9236641221374047,-1.1908396946564885,-0.46044921875,0.006591796875,-0.178955078125,1.5112999999999999
0.32061068702290074,1.9389312977099236,-1.2213740458015268,-0.464111328125,0.00048828125,-0.165283203125,1.513
0.48854961832061067,1.984732824427481,-1.2671755725190839,-0.4619140625,0.013916015625,-0.17138671875,1.5147
0.4122137404580153,2.0610687022900764,-1.4045801526717556,-0.462646484375,0.01220703125,-0.179931640625,1.5164
0.3816793893129771,2.1068702290076335,-1.4961832061068703,-0.456298828125,0.009033203125,-0.175537109375,1.5181
0.3969465648854962,2.030534351145038,-1.3282442748091603,-0.46533203125,0.012939453125,-0.1787109375,1.5197999999999998
0.21374045801526717,2.1374045801526718,-1.465648854961832,-0.462158203125,0.012451171875,-0.181640625,1.5214999999999999
0.3511450381679389,2.4580152671755724,-1.3893129770992367,-0.464599609375,0.01123046875,-0.17529296875,1.5231999999999999
0.4580152671755725,2.2442748091603053,-1.4961832061068703,-0.466552734375,0.01220703125,-0.1796875,1.5249
0.3969465648854962,2.3053435114503817,-1.282442748091603,-0.460693359375,0.008544921875,-0.176025390625,1.5266
0.24427480916030533,2.2595419847328246,-1.2671755725190839,-0.45751953125,0.010009765625,-0.179443359375,1.5283
0.13740458015267176,2.3206106870229006,-1.3435114503816794,-0.461181640625,0.0107421875,-0.177490234375,1.5299999999999998
0.1984732824427481,2.2290076335877864,-1.7404580152671756,-0.462890625,0.0087890625,-0.17919921875,1.5316999999999998
0.32061068702290074,2.213740458015267,-1.5114503816793894,-0.458740234375,0.01416015625,-0.17919921875,1.5333999999999999
0.3816793893129771,2.33587786259542,-1.6030534351145038,-0.46044921875,0.00927734375,-0.1728515625,1.5351
0.3816793893129771,2.2595419847328246,-1.5419847328244274,-0.46337890625,0.00927734375,-0.177734375,1.5368
0.3511450381679389,2.030534351145038,-1.4961832061068703,-0.45947265625,0.01171875,-0.178466796875,1.5385
0.0916030534351145,2.1068702290076335,-1.5572519083969465,-0.46435546875,0.015380859375,-0.17236328125,1.5402
0.32061068702290074,2.198473282442748,-1.6946564885496183,-0.4638671875,0.01171875,-0.171630859375,1.5418999999999998
0.12213740458015267,2.366412213740458,-1.5572519083969465,-0.463623046875,0.01220703125,-0.177001953125,1.5435999999999999
0.3816793893129771,2.2290076335877864,-1.633587786259542,-0.461181640625,0.010986328125,-0.1826171875,1.5453
0.2748091603053435,2.2900763358778624,-1.618320610687023,-0.463134765625,0.01171875,-0.187255859375,1.547
0.2900763358778626,2.213740458015267,-1.8625954198473282,-0.463134765625,0.009765625,-0.1904296875,1.5487
0.5190839694656488,2.519083969465649,-1.6946564885496183,-0.45654296875,0.01171875,-0.180419921875,1.5504
0.4122137404580153,2.3969465648854964,-1.7557251908396947,-0.45849609375,0.012939453125,-0.18505859375,1.5520999999999998
0.44274809160305345,2.030534351145038,-1.618320610687023,-0.46044921875,0.0107421875,-0.173828125,1.5537999999999998
0.549618320610687,1.9694656488549618,-1.7404580152671756,-0.464599609375,0.014404296875,-0.172607421875,1.5554999999999999
0.549618320610687,1.9541984732824427,-1.8473282442748091,-0.459716796875,0.0078125,-0.177490234375,1.5572
0.6106870229007634,2.1068702290076335,-1.9694656488549618,-0.46044921875,0.014892578125,-0.17822265625,1.5589
0.3511450381679389,2.1526717557251906,-1.8778625954198473,-0.458251953125,0.009033203125,-0.184814453125,1.5606
0.549618320610687,1.9236641221374047,-1.9236641221374047,-0.466552734375,0.0146484375,-0.17236328125,1.5623
0.732824427480916,1.8015267175572518,-2.045801526717557,-0.4609375,0.01318359375,-0.18310546875,1.5639999999999998
0.6717557251908397,1.633587786259542,-2.015267175572519,-0.45849609375,0.017333984375,-0.182373046875,1.5656999999999999
0.7022900763358778,1.7099236641221374,-1.83206106870229,-0.45654296875,0.01416015625,-0.183837890625,1.5674
0.8244274809160306,1.7251908396946565,-2.030534351145038,-0.4638671875,0.01025390625,-0.181640625,1.5691
0.7175572519083969,1.8625954198473282,-1.9389312977099236,-0.465576171875,0.010009765625,-0.1787109375,1.5708
0.9007633587786259,1.7709923664122138,-1.816793893129771,-0.459716796875,0.00830078125,-0.175537109375,1.5725
0.8396946564885496,1.6946564885496183,-1.9541984732824427,-0.463134765625,0.016357421875,-0.168701171875,1.5741999999999998
0.7938931297709924,1.7404580152671756,-1.8625954198473282,-0.45703125,0.009033203125,-0.1748046875,1.5758999999999999
0.7022900763358778,1.8931297709923665,-1.9083969465648856,-0.460693359375,0.006103515625,-0.171630859375,1.5776
1.099236641221374,1.6488549618320612,-1.8015267175572518,-0.461181640625,0.01220703125,-0.174072265625,1.5793
0.9007633587786259,1.633587786259542,-1.786259541984733,-0.456787109375,0.01171875,-0.181884765625,1.581
1.0534351145038168,1.786259541984733,-1.8625954198473282,-0.456787109375,0.00927734375,-0.18359375,1.5827
1.2366412213740459,1.2671755725190839,-1.7404580152671756,-0.463134765625,0.01416015625,-0.178466796875,1.5843999999999998
1.0381679389312977,1.3435114503816794,-1.9236641221374047,-0.4599609375,0.01171875,-0.181396484375,1.5860999999999998
0.9618320610687023,1.450381679389313,-1.7709923664122138,-0.4599609375,0.0078125,-0.182861328125,1.5877999999999999
0.9312977099236641,1.450381679389313,-1.816793893129771,-0.4560546875,0.00927734375,-0.17919921875,1.5895
1.0229007633587786,1.1145038167938932,-1.6641221374045803,-0.45263671875,0.0087890625,-0.18017578125,1.5912
1.2213740458015268,0.8702290076335878,-1.8931297709923665,-0.452392578125,0.01123046875,-0.17919921875,1.5929
1.4045801526717556,1.0229007633587786,-2.015267175572519,-0.459716796875,0.0107421875,-0.179931640625,1.5946
1.297709923664122,1.0229007633587786,-1.7709923664122138,-0.45751953125,0.01171875,-0.17919921875,1.5962999999999998
1.0229007633587786,0.8549618320610687,-1.8778625954198473,-0.459228515625,0.0087890625,-0.18505859375,1.5979999999999999
1.2213740458015268,0.7022900763358778,-1.816793893129771,-0.46142578125,0.010986328125,-0.178466796875,1.5997
1.3740458015267176,0.5038167938931297,-1.9236641221374047,-0.458251953125,0.008056640625,-0.177734375,1.6014
1.4351145038167938,0.3053435114503817,-2.0763358778625953,-0.4609375,0.012939453125,-0.181884765625,1.6031
1.282442748091603,0.3053435114503817,-1.8931297709923665,-0.45849609375,0.015380859375,-0.177978515625,1.6048
1.2671755725190839,0.04580152671755725,-1.9389312977099236,-0.457275390625,0.009033203125,-0.1787109375,1.6064999999999998
1.6793893129770991,0.0916030534351145,-1.9541984732824427,-0.456787109375,0.016845703125,-0.180419921875,1.6081999999999999
1.4809160305343512,0.22900763358778625,-1.8625954198473282,-0.45849609375,0.005615234375,-0.177734375,1.6098999999999999
1.5267175572519085,0.13740458015267176,-1.9236641221374047,-0.455322265625,0.010009765625,-0.1796875,1.6116
1.5114503816793894,0.10687022900763359,-1.8625954198473282,-0.46240234375,0.00732421875,-0.17333984375,1.6133
1.6030534351145038,0.04580152671755725,-2.1068702290076335,-0.46533203125,0.010498046875,-0.178955078125,1.615
1.7099236641221374,0.015267175572519083,-2.030534351145038,-0.462890625,0.01123046875,-0.177978515625,1.6166999999999998
1.5419847328244274,0.2900763358778626,-1.9541984732824427,-0.459228515625,0.00732421875,-0.17822265625,1.6183999999999998
1.4351145038167938,0.015267175572519083,-1.8015267175572518,-0.466064453125,0.0126953125,-0.184814453125,1.6200999999999999
1.618320610687023,0.10687022900763359,-1.8778625954198473,-0.465087890625,0.010986328125,-0.175537109375,1.6218
1.8473282442748091,0.21374045801526717,-1.7709923664122138,-0.467041015625,0.009033203125,-0.17919921875,1.6235
1.5267175572519085,0.2595419847328244,-2.122137404580153,-0.45947265625,0.0068359375,-0.1796875,1.6252
1.6488549618320612,0.0916030534351145,-2.0,-0.462890625,0.013671875,-0.18017578125,1.6269
1.816793893129771,0.030534351145038167,-1.9389312977099236,-0.46435546875,0.0068359375,-0.168212890625,1.6285999999999998
1.9083969465648856,0.3969465648854962,-2.015267175572519,-0.4580078125,0.009521484375,-0.185791015625,1.6302999999999999
1.6641221374045803,0.3053435114503817,-1.9389312977099236,-0.462158203125,0.019287109375,-0.17529296875,1.632
1.7404580152671756,0.3816793893129771,-1.9083969465648856,-0.463134765625,0.011962890625,-0.17822265625,1.6337
1.9694656488549618,0.32061068702290074,-2.2900763358778624,-0.460693359375,0.01025390625,-0.16943359375,1.6354
1.8931297709923665,0.366412213740458,-2.015267175572519,-0.4638671875,0.012451171875,-0.1728515625,1.6371
2.015267175572519,0.4732824427480916,-2.0,-0.46240234375,0.010986328125,-0.17333984375,1.6387999999999998
1.8931297709923665,0.3511450381679389,-1.9541984732824427,-0.46142578125,0.01123046875,-0.17333984375,1.6404999999999998
1.7404580152671756,0.3053435114503817,-1.9236641221374047,-0.46630859375,0.0107421875,-0.178466796875,1.6421999999999999
1.83206106870229,0.32061068702290074,-1.83206106870229,-0.463623046875,0.01171875,-0.18212890625,1.6439
1.816793893129771,0.3969465648854962,-2.015267175572519,-0.464599609375,0.00830078125,-0.174072265625,1.6456
1.9389312977099236,0.48854961832061067,-2.0916030534351147,-0.464111328125,0.007080078125,-0.17919921875,1.6473
1.8931297709923665,0.3053435114503817,-1.9694656488549618,-0.466552734375,0.00732421875,-0.181396484375,1.6489999999999998
1.7557251908396947,0.48854961832061067,-1.7709923664122138,-0.4658203125,0.00634765625,-0.17529296875,1.6506999999999998
1.9389312977099236,0.48854961832061067,-1.8625954198473282,-0.466796875,0.01318359375,-0.17626953125,1.6523999999999999
1.9694656488549618,0.5343511450381679,-1.9083969465648856,-0.46484375,0.00439453125,-0.177001953125,1.6541
1.9083969465648856,0.32061068702290074,-1.9541984732824427,-0.46533203125,0.011474609375,-0.17822265625,1.6558
1.786259541984733,0.4580152671755725,-1.5877862595419847,-0.461669921875,0.006591796875,-0.16845703125,1.6575
1.6793893129770991,0.8702290076335878,-1.83206106870229,-0.45751953125,0.0068359375,-0.172119140625,1.6592
1.6946564885496183,0.7480916030534351,-1.6641221374045803,-0.46044921875,0.005126953125,-0.17529296875,1.6608999999999998
1.7251908396946565,0.5801526717557252,-1.8473282442748091,-0.46337890625,0.002197265625,-0.1728515625,1.6625999999999999
1.633587786259542,0.8091603053435115,-1.5267175572519085,-0.46728515625,0.00439453125,-0.171875,1.6643
1.5725190839694656,0.8702290076335878,-1.6946564885496183,-0.46484375,0.0048828125,-0.173828125,1.666
1.786259541984733,0.9923664122137404,-1.633587786259542,-0.459228515625,0.0048828125,-0.177001953125,1.6677
1.7557251908396947,0.8244274809160306,-1.816793893129771,-0.46875,0.0009765625,-0.17529296875,1.6694
1.465648854961832,0.9465648854961832,-1.4198473282442747,-0.463134765625,-0.00048828125,-0.173828125,1.6710999999999998
1.3587786259541985,1.1450381679389312,-1.4809160305343512,-0.46728515625,0.001953125,-0.17822265625,1.6727999999999998
1.3893129770992367,1.0076335877862594,-1.618320610687023,-0.4619140625,0.007568359375,-0.17529296875,1.6744999999999999
1.1450381679389312,1.1603053435114503,-1.5572519083969465,-0.46484375,0.005859375,-0.180419921875,1.6762
1.1755725190839694,1.3435114503816794,-1.5267175572519085,-0.4658203125,0.007568359375,-0.172119140625,1.6779
1.1145038167938932,1.251908396946565,-1.6488549618320612,-0.462890625,0.006103515625,-0.169677734375,1.6796
1.1908396946564885,1.3587786259541985,-1.450381679389313,-0.460693359375,0.0,-0.1728515625,1.6813
1.251908396946565,1.5114503816793894,-1.618320610687023,-0.462158203125,0.000732421875,-0.18017578125,1.6829999999999998
1.1755725190839694,1.297709923664122,-1.2213740458015268,-0.460693359375,0.00634765625,-0.181884765625,1.6846999999999999
1.2366412213740459,1.1908396946564885,-1.3893129770992367,-0.45947265625,0.00048828125,-0.168701171875,1.6864
1.099236641221374,1.251908396946565,-1.1755725190839694,-0.4599609375,0.0,-0.170654296875,1.6881
0.9007633587786259,1.1297709923664123,-1.4961832061068703,-0.45947265625,0.005126953125,-0.1669921875,1.6898
0.7786259541984732,1.1755725190839694,-1.297709923664122,-0.464599609375,0.00439453125,-0.175537109375,1.6915
0.9923664122137404,1.2671755725190839,-1.4809160305343512,-0.462158203125,0.005126953125,-0.17822265625,1.6931999999999998
0.8091603053435115,1.3282442748091603,-1.4809160305343512,-0.461669921875,0.0048828125,-0.17431640625,1.6948999999999999
0.6717557251908397,1.2213740458015268,-1.251908396946565,-0.46337890625,0.003173828125,-0.173828125,1.6965999999999999
0.7938931297709924,1.3129770992366412,-1.450381679389313,-0.46533203125,0.004638671875,-0.184814453125,1.6983
0.8396946564885496,1.297709923664122,-1.297709923664122,-0.462890625,0.003173828125,-0.1767578125,1.7
0.4122137404580153,1.3129770992366412,-1.1450381679389312,-0.46533203125,0.00830078125,-0.178466796875,1.7017
0.6106870229007634,1.251908396946565,-1.2213740458015268,-0.464599609375,0.00634765625,-0.177734375,1.7033999999999998
0.7480916030534351,1.297709923664122,-1.251908396946565,-0.465087890625,0.00048828125,-0.1787109375,1.7050999999999998
0.4580152671755725,1.5419847328244274,-1.2366412213740459,-0.462890625,0.006103515625,-0.173583984375,1.7067999999999999
0.6259541984732825,1.5572519083969465,-1.0381679389312977,-0.4658203125,0.007568359375,-0.177001953125,1.7085
0.4580152671755725,1.5114503816793894,-1.297709923664122,-0.463134765625,0.005126953125,-0.170654296875,1.7102
0.42748091603053434,1.5877862595419847,-1.251908396946565,-0.460205078125,0.0029296875,-0.1748046875,1.7119
0.5343511450381679,1.6641221374045803,-1.2671755725190839,-0.465087890625,0.005859375,-0.18408203125,1.7136
0.2748091603053435,1.4351145038167938,-1.1908396946564885,-0.46728515625,0.005859375,-0.176025390625,1.7152999999999998
0.3969465648854962,1.4198473282442747,-1.083969465648855,-0.46435546875,0.001708984375,-0.174560546875,1.7169999999999999
0.3816793893129771,1.7099236641221374,-1.1450381679389312,-0.462646484375,0.009521484375,-0.17333984375,1.7187
0.44274809160305345,1.786259541984733,-0.9465648854961832,-0.468994140625,0.006591796875,-0.175048828125,1.7204
0.2900763358778626,1.786259541984733,-1.0381679389312977,-0.463623046875,0.006103515625,-0.174072265625,1.7221
0.16793893129770993,1.618320610687023,-1.1297709923664123,-0.463623046875,0.004638671875,-0.178466796875,1.7238
0.15267175572519084,1.6641221374045803,-1.2061068702290076,-0.46435546875,0.006591796875,-0.180908203125,1.7254999999999998
0.21374045801526717,1.618320610687023,-1.0534351145038168,-0.459716796875,0.0087890625,-0.175537109375,1.7271999999999998
0.22900763358778625,1.8015267175572518,-1.0229007633587786,-0.466796875,0.00537109375,-0.16650390625,1.7288999999999999
0.10687022900763359,1.786259541984733,-1.1145038167938932,-0.467529296875,0.007568359375,-0.184814453125,1.7306
-0.3053435114503817,1.7251908396946565,-1.083969465648855,-0.462890625,0.010986328125,-0.175048828125,1.7323
0.0,1.5725190839694656,-1.0229007633587786,-0.462890625,0.004638671875,-0.177001953125,1.734
0.12213740458015267,1.633587786259542,-1.2366412213740459,-0.464111328125,0.0068359375,-0.177734375,1.7356999999999998
-0.07633587786259542,1.6946564885496183,-1.1603053435114503,-0.460205078125,0.0078125,-0.17431640625,1.7373999999999998
0.04580152671755725,1.7557251908396947,-1.083969465648855,-0.4560546875,0.00439453125,-0.1767578125,1.7390999999999999
0.0,1.7099236641221374,-1.0229007633587786,-0.463134765625,0.005859375,-0.17138671875,1.7408
-0.13740458015267176,1.9541984732824427,-1.099236641221374,-0.46142578125,0.007568359375,-0.17333984375,1.7425
-0.030534351145038167,1.8625954198473282,-1.0534351145038168,-0.46533203125,0.0087890625,-0.172607421875,1.7442
-0.21374045801526717,1.7251908396946565,-1.2671755725190839,-0.458740234375,0.00537109375,-0.171630859375,1.7459
-0.22900763358778625,1.7251908396946565,-1.083969465648855,-0.457763671875,0.000244140625,-0.174072265625,1.7475999999999998
-0.0916030534351145,1.8931297709923665,-0.9770992366412213,-0.458984375,0.0048828125,-0.178466796875,1.7492999999999999
-0.10687022900763359,1.7251908396946565,-0.8702290076335878,-0.461669921875,0.003662109375,-0.17333984375,1.751
-0.1984732824427481,1.5877862595419847,-0.9618320610687023,-0.462890625,0.003662109375,-0.17919921875,1.7527
-0.21374045801526717,1.7557251908396947,-1.0687022900763359,-0.458984375,0.005126953125,-0.17529296875,1.7544
-0.3053435114503817,1.5114503816793894,-1.0229007633587786,-0.461181640625,0.004150390625,-0.178955078125,1.7561
-0.10687022900763359,1.4198473282442747,-0.6564885496183206,-0.46240234375,0.006591796875,-0.173095703125,1.7577999999999998
-0.183206106870229,1.5572519083969465,-0.7633587786259542,-0.463623046875,0.006591796875,-0.177001953125,1.7594999999999998
-0.2748091603053435,1.4351145038167938,-0.7175572519083969,-0.459716796875,0.011474609375,-0.181884765625,1.7611999999999999
-0.3053435114503817,1.7251908396946565,-0.9312977099236641,-0.458984375,0.009033203125,-0.18017578125,1.7629
-0.0916030534351145,1.6946564885496183,-0.6870229007633588,-0.462158203125,0.009033203125,-0.17724609375,1.7646
-0.183206106870229,1.5572519083969465,-0.8702290076335878,-0.463623046875,0.005859375,-0.174560546875,1.7663
-0.24427480916030533,1.633587786259542,-0.8091603053435115,-0.461181640625,0.006103515625,-0.17529296875,1.7679999999999998
-0.21374045801526717,1.6641221374045803,-0.8854961832061069,-0.463134765625,0.006591796875,-0.17138671875,1.7696999999999998
-0.33587786259541985,1.5725190839694656,-0.9007633587786259,-0.4619140625,0.011962890625,-0.170654296875,1.7713999999999999
-0.10687022900763359,1.5267175572519085,-0.9923664122137404,-0.46240234375,0.010009765625,-0.17333984375,1.7731
-0.12213740458015267,1.6793893129770991,-0.7480916030534351,-0.463134765625,0.0126953125,-0.172607421875,1.7748
-0.2748091603053435,1.6030534351145038,-1.0076335877862594,-0.4609375,0.013916015625,-0.17822265625,1.7765
-0.4580152671755725,1.4809160305343512,-0.8854961832061069,-0.458740234375,0.012451171875,-0.177490234375,1.7782
-0.3969465648854962,1.5267175572519085,-1.099236641221374,-0.461181640625,0.01123046875,-0.18115234375,1.7798999999999998
-0.2900763358778626,1.450381679389313,-0.549618320610687,-0.4609375,0.0087890625,-0.181884765625,1.7815999999999999
-0.4122137404580153,1.6030534351145038,-0.7480916030534351,-0.46533203125,0.0126953125,-0.18017578125,1.7832999999999999
-0.3053435114503817,1.6641221374045803,-0.7175572519083969,-0.4638671875,0.009521484375,-0.18212890625,1.785
-0.24427480916030533,1.6030534351145038,-0.8854961832061069,-0.4716796875,0.010986328125,-0.175537109375,1.7867
-0.2748091603053435,1.618320610687023,-0.6564885496183206,-0.463623046875,0.006591796875,-0.187255859375,1.7884
-0.5038167938931297,1.8778625954198473,-0.9618320610687023,-0.464599609375,0.011474609375,-0.177490234375,1.7900999999999998
-0.5190839694656488,1.8931297709923665,-0.916030534351145,-0.46484375,0.0087890625,-0.175537109375,1.7917999999999998
-0.2748091603053435,1.9236641221374047,-0.8091603053435115,-0.463134765625,0.01025390625,-0.17236328125,1.7934999999999999
-0.3511450381679389,2.030534351145038,-0.6870229007633588,-0.462646484375,0.009521484375,-0.173095703125,1.7952
-0.4580152671755725,2.2290076335877864,-0.9618320610687023,-0.4599609375,0.014404296875,-0.1767578125,1.7969
-0.4732824427480916,2.2748091603053435,-0.8244274809160306,-0.465576171875,0.0107421875,-0.181884765625,1.7986
-0.3969465648854962,2.0916030534351147,-0.7938931297709924,-0.464111328125,0.011474609375,-0.171875,1.8002999999999998
