gyrox1,gyroy1,gyroz1,accelx1,accely1,accelz1,Time
2.015267175572519,1.0229007633587786,-1.5419847328244274,-0.4130859375,0.015625,-0.322021484375,0.0
2.3053435114503817,0.9312977099236641,-1.450381679389313,-0.4111328125,0.00830078125,-0.312744140625,0.0017
2.122137404580153,0.7175572519083969,-1.5572519083969465,-0.411865234375,0.009521484375,-0.314208984375,0.0034
2.1374045801526718,0.4732824427480916,-1.5114503816793894,-0.40966796875,0.01318359375,-0.314208984375,0.0050999999999999995
2.198473282442748,0.22900763358778625,-1.297709923664122,-0.4130859375,0.017578125,-0.31103515625,0.0068
1.984732824427481,-0.183206106870229,-1.2213740458015268,-0.410888671875,0.010986328125,-0.3154296875,0.008499999999999999
2.1526717557251906,-0.21374045801526717,-1.3587786259541985,-0.411376953125,0.011962890625,-0.3046875,0.010199999999999999
2.0610687022900764,-0.3511450381679389,-1.1908396946564885,-0.4130859375,0.011474609375,-0.316162109375,0.011899999999999999
2.1068702290076335,-0.42748091603053434,-1.2061068702290076,-0.413330078125,0.015869140625,-0.3095703125,0.0136
2.16793893129771,-0.5343511450381679,-0.8854961832061069,-0.411865234375,0.0126953125,-0.3115234375,0.0153
2.198473282442748,-0.5343511450381679,-1.1145038167938932,-0.4130859375,0.01220703125,-0.31787109375,0.016999999999999998
2.0,-0.32061068702290074,-1.0534351145038168,-0.4150390625,0.008056640625,-0.317138671875,0.018699999999999998
2.0763358778625953,-0.5038167938931297,-1.0381679389312977,-0.412841796875,0.010986328125,-0.31298828125,0.020399999999999998
1.8778625954198473,-0.44274809160305345,-0.9465648854961832,-0.412841796875,0.010986328125,-0.315673828125,0.022099999999999998
2.0,-0.4580152671755725,-1.1755725190839694,-0.41748046875,0.0107421875,-0.2998046875,0.023799999999999998
1.786259541984733,-0.7938931297709924,-1.0687022900763359,-0.41552734375,0.013671875,-0.30712890625,0.0255
1.5877862595419847,-0.5038167938931297,-1.0687022900763359,-0.4169921875,0.012939453125,-0.307373046875,0.0272
1.618320610687023,-0.5190839694656488,-1.1297709923664123,-0.41259765625,0.01611328125,-0.31005859375,0.0289
1.9389312977099236,-0.6564885496183206,-1.1145038167938932,-0.417236328125,0.014404296875,-0.310302734375,0.0306
2.0,-0.7022900763358778,-1.0687022900763359,-0.421875,0.015380859375,-0.3154296875,0.032299999999999995
1.816793893129771,-0.7175572519083969,-1.099236641221374,-0.41845703125,0.010498046875,-0.313720703125,0.033999999999999996
1.9236641221374047,-0.7022900763358778,-1.3435114503816794,-0.415283203125,0.0087890625,-0.3154296875,0.035699999999999996
2.0610687022900764,-0.732824427480916,-1.3282442748091603,-0.416748046875,0.019775390625,-0.316650390625,0.037399999999999996
2.2290076335877864,-0.916030534351145,-1.1603053435114503,-0.415771484375,0.01611328125,-0.314208984375,0.039099999999999996
2.2442748091603053,-0.8702290076335878,-1.450381679389313,-0.416015625,0.020751953125,-0.313232421875,0.040799999999999996
2.2900763358778624,-0.8091603053435115,-1.4045801526717556,-0.413818359375,0.010986328125,-0.31201171875,0.042499999999999996
2.4580152671755724,-0.8396946564885496,-1.4961832061068703,-0.417724609375,0.0185546875,-0.3125,0.044199999999999996
2.4122137404580153,-0.9770992366412213,-1.4961832061068703,-0.422119140625,0.015380859375,-0.307861328125,0.045899999999999996
2.4122137404580153,-1.0687022900763359,-1.7709923664122138,-0.41845703125,0.01611328125,-0.31103515625,0.047599999999999996
2.6412213740458017,-1.251908396946565,-1.816793893129771,-0.415283203125,0.017333984375,-0.3125,0.0493
2.7022900763358777,-1.3129770992366412,-2.1068702290076335,-0.4130859375,0.014892578125,-0.313232421875,0.051
2.717557251908397,-1.4045801526717556,-1.8473282442748091,-0.4130859375,0.019287109375,-0.310546875,0.0527
2.687022900763359,-1.7099236641221374,-2.183206106870229,-0.421630859375,0.013671875,-0.318115234375,0.0544
2.8702290076335877,-1.5877862595419847,-1.7404580152671756,-0.42529296875,0.014892578125,-0.3046875,0.0561
2.8244274809160306,-1.7404580152671756,-1.7404580152671756,-0.426025390625,0.014404296875,-0.315185546875,0.0578
2.9923664122137406,-1.6793893129770991,-1.6793893129770991,-0.423095703125,0.010986328125,-0.318603515625,0.0595
2.7786259541984735,-1.4961832061068703,-1.8778625954198473,-0.4208984375,0.0126953125,-0.322021484375,0.0612
2.931297709923664,-1.4809160305343512,-1.633587786259542,-0.421142578125,0.010498046875,-0.311767578125,0.0629
2.900763358778626,-1.450381679389313,-1.7404580152671756,-0.414306640625,0.01611328125,-0.31494140625,0.06459999999999999
2.885496183206107,-1.3129770992366412,-1.5572519083969465,-0.421875,0.00732421875,-0.31005859375,0.0663
3.068702290076336,-0.8854961832061069,-1.4351145038167938,-0.42138671875,0.007080078125,-0.2978515625,0.06799999999999999
2.7938931297709924,-0.8549618320610687,-1.6488549618320612,-0.427734375,0.010986328125,-0.307373046875,0.0697
2.687022900763359,-0.549618320610687,-1.7251908396946565,-0.4208984375,0.005615234375,-0.31298828125,0.07139999999999999
2.4427480916030535,-0.44274809160305345,-1.633587786259542,-0.420166015625,0.010498046875,-0.314697265625,0.0731
2.3206106870229006,-0.33587786259541985,-1.4045801526717556,-0.417236328125,0.009765625,-0.315673828125,0.07479999999999999
2.427480916030534,-0.1984732824427481,-1.6030534351145038,-0.4189453125,0.01513671875,-0.314208984375,0.0765
2.2748091603053435,-0.2900763358778626,-1.6793893129770991,-0.422119140625,0.00634765625,-0.31494140625,0.07819999999999999
2.0763358778625953,-0.2900763358778626,-1.3893129770992367,-0.4208984375,0.01171875,-0.3173828125,0.0799
2.33587786259542,-0.4732824427480916,-1.3893129770992367,-0.419189453125,0.0126953125,-0.30615234375,0.08159999999999999
2.381679389312977,-0.3969465648854962,-1.6488549618320612,-0.42236328125,0.010009765625,-0.304443359375,0.0833
2.4122137404580153,-0.5801526717557252,-1.633587786259542,-0.421142578125,0.012939453125,-0.3046875,0.08499999999999999
1.9389312977099236,-0.7938931297709924,-1.3893129770992367,-0.419189453125,0.010498046875,-0.307861328125,0.0867
2.045801526717557,-0.6564885496183206,-1.083969465648855,-0.417724609375,0.010009765625,-0.313720703125,0.08839999999999999
2.015267175572519,-0.6717557251908397,-1.450381679389313,-0.41748046875,0.011474609375,-0.316650390625,0.0901
2.16793893129771,-0.6717557251908397,-1.3282442748091603,-0.419921875,0.014892578125,-0.308349609375,0.09179999999999999
2.0,-0.7786259541984732,-1.083969465648855,-0.42431640625,0.01318359375,-0.313720703125,0.0935
2.0,-0.549618320610687,-1.099236641221374,-0.421875,0.008544921875,-0.3095703125,0.09519999999999999
2.0763358778625953,-0.5038167938931297,-1.2366412213740459,-0.42041015625,0.010009765625,-0.3115234375,0.0969
2.1526717557251906,-0.5801526717557252,-0.9312977099236641,-0.419677734375,0.011962890625,-0.316162109375,0.0986
2.0763358778625953,-0.6717557251908397,-1.0229007633587786,-0.423583984375,0.01171875,-0.31005859375,0.1003
2.2442748091603053,-0.4580152671755725,-1.3282442748091603,-0.42138671875,0.018798828125,-0.303466796875,0.102
2.0916030534351147,-0.5343511450381679,-1.1755725190839694,-0.425048828125,0.013427734375,-0.30859375,0.1037
1.8625954198473282,-0.5801526717557252,-0.9465648854961832,-0.42431640625,0.01123046875,-0.305419921875,0.1054
2.015267175572519,-0.13740458015267176,-1.0229007633587786,-0.431396484375,0.01171875,-0.3134765625,0.1071
1.9389312977099236,-0.0916030534351145,-1.251908396946565,-0.4228515625,0.010009765625,-0.309814453125,0.1088
1.7251908396946565,-0.07633587786259542,-1.1297709923664123,-0.423095703125,0.013427734375,-0.30908203125,0.11049999999999999
2.0610687022900764,0.3053435114503817,-1.2061068702290076,-0.425048828125,0.008544921875,-0.31103515625,0.1122
1.9389312977099236,0.44274809160305345,-1.2061068702290076,-0.423828125,0.010009765625,-0.314208984375,0.11389999999999999
1.8015267175572518,0.6717557251908397,-1.4198473282442747,-0.419921875,0.011474609375,-0.31689453125,0.1156
1.9694656488549618,0.549618320610687,-1.3893129770992367,-0.420166015625,0.01416015625,-0.310302734375,0.11729999999999999
1.8778625954198473,0.6564885496183206,-1.2366412213740459,-0.41650390625,0.00830078125,-0.30859375,0.119
2.0763358778625953,0.7022900763358778,-1.3740458015267176,-0.422119140625,0.013427734375,-0.310302734375,0.12069999999999999
1.9389312977099236,0.9465648854961832,-1.282442748091603,-0.420166015625,0.015625,-0.30712890625,0.1224
2.030534351145038,0.7175572519083969,-1.1908396946564885,-0.423095703125,0.015869140625,-0.30908203125,0.12409999999999999
2.045801526717557,0.5954198473282443,-1.282442748091603,-0.42041015625,0.010986328125,-0.308837890625,0.1258
1.7404580152671756,0.7633587786259542,-1.5114503816793894,-0.42138671875,0.01904296875,-0.314208984375,0.1275
1.9236641221374047,0.5954198473282443,-1.3129770992366412,-0.42041015625,0.01318359375,-0.310302734375,0.12919999999999998
2.030534351145038,0.7938931297709924,-1.1603053435114503,-0.424560546875,0.01171875,-0.30615234375,0.1309
2.2595419847328246,0.6870229007633588,-1.0534351145038168,-0.41796875,0.0126953125,-0.304443359375,0.1326
1.8778625954198473,0.5648854961832062,-1.3129770992366412,-0.42138671875,0.011474609375,-0.31298828125,0.1343
1.7557251908396947,0.8091603053435115,-1.3435114503816794,-0.41943359375,0.015869140625,-0.3115234375,0.13599999999999998
1.8473282442748091,0.3969465648854962,-1.2366412213740459,-0.418212890625,0.010498046875,-0.3046875,0.1377
1.7557251908396947,0.3511450381679389,-1.3893129770992367,-0.414794921875,0.015869140625,-0.299072265625,0.1394
1.8473282442748091,0.42748091603053434,-1.3129770992366412,-0.417724609375,0.02099609375,-0.304443359375,0.1411
1.7404580152671756,0.24427480916030533,-1.1297709923664123,-0.414306640625,0.013671875,-0.321533203125,0.14279999999999998
1.5877862595419847,-0.13740458015267176,-1.4351145038167938,-0.421630859375,0.010009765625,-0.308349609375,0.1445
1.7099236641221374,0.12213740458015267,-1.3435114503816794,-0.414306640625,0.009521484375,-0.308837890625,0.1462
1.633587786259542,-0.15267175572519084,-1.3893129770992367,-0.41796875,0.01171875,-0.31689453125,0.1479
1.7709923664122138,-0.22900763358778625,-1.1908396946564885,-0.420166015625,0.01025390625,-0.304931640625,0.14959999999999998
1.5419847328244274,-0.2595419847328244,-1.3129770992366412,-0.411865234375,0.009765625,-0.303955078125,0.1513
1.4809160305343512,-0.15267175572519084,-1.3893129770992367,-0.413330078125,0.007568359375,-0.313720703125,0.153
1.5267175572519085,-0.22900763358778625,-1.2213740458015268,-0.414306640625,0.01318359375,-0.314453125,0.1547
1.7251908396946565,-0.16793893129770993,-1.2061068702290076,-0.419189453125,0.017333984375,-0.31787109375,0.15639999999999998
1.5725190839694656,0.030534351145038167,-1.4351145038167938,-0.41552734375,0.0166015625,-0.3154296875,0.1581
1.4351145038167938,0.015267175572519083,-1.297709923664122,-0.415283203125,0.009765625,-0.317138671875,0.1598
1.4045801526717556,-0.061068702290076333,-1.3740458015267176,-0.41796875,0.011474609375,-0.311279296875,0.1615
1.4809160305343512,0.04580152671755725,-1.5419847328244274,-0.4208984375,0.0107421875,-0.3115234375,0.16319999999999998
1.465648854961832,-0.1984732824427481,-1.3282442748091603,-0.423583984375,0.009033203125,-0.308349609375,0.1649
1.3587786259541985,-0.42748091603053434,-1.251908396946565,-0.42041015625,0.01611328125,-0.318115234375,0.1666
1.3740458015267176,-0.44274809160305345,-1.450381679389313,-0.42529296875,0.011474609375,-0.30517578125,0.16829999999999998
1.4045801526717556,-0.32061068702290074,-1.5572519083969465,-0.426025390625,0.014404296875,-0.30859375,0.16999999999999998
1.5725190839694656,-0.3053435114503817,-1.282442748091603,-0.419677734375,0.01708984375,-0.314453125,0.1717
1.2366412213740459,-0.2748091603053435,-0.9007633587786259,-0.422119140625,0.005126953125,-0.31103515625,0.1734
1.1755725190839694,0.12213740458015267,-1.282442748091603,-0.423583984375,0.0078125,-0.31103515625,0.17509999999999998
1.1603053435114503,0.4732824427480916,-1.0229007633587786,-0.430908203125,0.01318359375,-0.314697265625,0.17679999999999998
1.099236641221374,1.0076335877862594,-0.916030534351145,-0.422119140625,0.01513671875,-0.3056640625,0.1785
0.8702290076335878,1.2366412213740459,-0.8091603053435115,-0.422607421875,0.01220703125,-0.308837890625,0.1802
0.8091603053435115,1.465648854961832,-1.0534351145038168,-0.425048828125,0.010986328125,-0.306396484375,0.18189999999999998
0.9007633587786259,1.5725190839694656,-1.0076335877862594,-0.426513671875,0.01220703125,-0.310791015625,0.18359999999999999
0.5954198473282443,1.4351145038167938,-1.0076335877862594,-0.427734375,0.0107421875,-0.315185546875,0.1853
0.5190839694656488,1.6641221374045803,-1.0687022900763359,-0.424560546875,0.0126953125,-0.318603515625,0.187
0.7938931297709924,1.83206106870229,-1.0381679389312977,-0.42333984375,0.01318359375,-0.311767578125,0.18869999999999998
0.5038167938931297,1.6641221374045803,-0.9465648854961832,-0.424560546875,0.01171875,-0.312255859375,0.19039999999999999
0.6106870229007634,1.786259541984733,-1.1297709923664123,-0.42578125,0.01220703125,-0.312744140625,0.1921
0.6412213740458015,1.7251908396946565,-1.0534351145038168,-0.42236328125,0.014404296875,-0.31884765625,0.1938
0.6412213740458015,1.984732824427481,-1.1297709923664123,-0.424072265625,0.014892578125,-0.30810546875,0.19549999999999998
0.44274809160305345,1.9541984732824427,-0.9312977099236641,-0.420166015625,0.015380859375,-0.309326171875,0.1972
0.5343511450381679,2.381679389312977,-0.8396946564885496,-0.423583984375,0.0166015625,-0.31884765625,0.1989
0.5954198473282443,2.4885496183206106,-0.732824427480916,-0.419189453125,0.00927734375,-0.313720703125,0.2006
0.4732824427480916,2.351145038167939,-0.8244274809160306,-0.418701171875,0.013427734375,-0.3154296875,0.20229999999999998
0.5648854961832062,2.595419847328244,-0.6106870229007634,-0.420166015625,0.012451171875,-0.31201171875,0.204
0.33587786259541985,2.6564885496183206,-0.9007633587786259,-0.421142578125,0.015625,-0.3037109375,0.2057
0.6564885496183206,2.519083969465649,-0.7022900763358778,-0.42041015625,0.015869140625,-0.3037109375,0.2074
0.6259541984732825,2.3969465648854964,-0.9007633587786259,-0.422607421875,0.013427734375,-0.31298828125,0.20909999999999998
0.42748091603053434,2.1374045801526718,-1.0687022900763359,-0.41943359375,0.016357421875,-0.31005859375,0.2108
0.5801526717557252,2.0763358778625953,-1.1297709923664123,-0.41845703125,0.01171875,-0.312744140625,0.2125
0.8244274809160306,2.0610687022900764,-1.0687022900763359,-0.419189453125,0.013916015625,-0.307373046875,0.2142
0.5954198473282443,2.030534351145038,-1.3587786259541985,-0.4208984375,0.01708984375,-0.31298828125,0.21589999999999998
0.48854961832061067,2.015267175572519,-1.1755725190839694,-0.416015625,0.020751953125,-0.31005859375,0.2176
0.7022900763358778,2.3969465648854964,-1.1145038167938932,-0.419189453125,0.0166015625,-0.310546875,0.2193
0.6412213740458015,2.50381679389313,-1.297709923664122,-0.419921875,0.009765625,-0.314208984375,0.22099999999999997
0.48854961832061067,2.33587786259542,-1.282442748091603,-0.422607421875,0.0166015625,-0.310546875,0.22269999999999998
0.44274809160305345,2.366412213740458,-1.282442748091603,-0.4189453125,0.0126953125,-0.318359375,0.2244
0.5343511450381679,2.3969465648854964,-1.3893129770992367,-0.419921875,0.014892578125,-0.3125,0.2261
0.7633587786259542,2.381679389312977,-1.3282442748091603,-0.421630859375,0.0166015625,-0.31005859375,0.22779999999999997
0.7786259541984732,2.1068702290076335,-1.4198473282442747,-0.418701171875,0.01708984375,-0.322021484375,0.22949999999999998
0.8396946564885496,2.183206106870229,-1.1908396946564885,-0.422607421875,0.01220703125,-0.31591796875,0.2312
0.7633587786259542,2.015267175572519,-1.3740458015267176,-0.416259765625,0.0146484375,-0.317138671875,0.2329
0.916030534351145,1.8625954198473282,-1.1908396946564885,-0.414306640625,0.019287109375,-0.311767578125,0.23459999999999998
0.9007633587786259,2.030534351145038,-1.3282442748091603,-0.41748046875,0.016845703125,-0.31005859375,0.23629999999999998
1.0076335877862594,1.8473282442748091,-1.1908396946564885,-0.423095703125,0.0166015625,-0.314453125,0.238
0.5801526717557252,1.816793893129771,-1.099236641221374,-0.419921875,0.011962890625,-0.3037109375,0.2397
0.7633587786259542,1.8015267175572518,-1.2061068702290076,-0.4189453125,0.015625,-0.316162109375,0.24139999999999998
0.9007633587786259,1.8778625954198473,-1.3893129770992367,-0.418701171875,0.014892578125,-0.31591796875,0.24309999999999998
0.7786259541984732,1.9389312977099236,-1.2671755725190839,-0.421142578125,0.015625,-0.3203125,0.2448
0.7480916030534351,1.9541984732824427,-1.450381679389313,-0.416748046875,0.01708984375,-0.316650390625,0.2465
0.9007633587786259,2.0916030534351147,-1.4045801526717556,-0.42138671875,0.013916015625,-0.310302734375,0.24819999999999998
1.0534351145038168,2.183206106870229,-1.816793893129771,-0.417724609375,0.010009765625,-0.310546875,0.24989999999999998
1.083969465648855,1.83206106870229,-1.6641221374045803,-0.420654296875,0.01416015625,-0.306884765625,0.2516
0.8244274809160306,1.9083969465648856,-1.6793893129770991,-0.412841796875,0.015625,-0.30810546875,0.25329999999999997
0.9770992366412213,1.7404580152671756,-1.7099236641221374,-0.417236328125,0.011962890625,-0.32080078125,0.255
1.1450381679389312,1.3740458015267176,-1.9083969465648856,-0.41943359375,0.0126953125,-0.311767578125,0.2567
0.8702290076335878,1.3740458015267176,-1.5267175572519085,-0.4189453125,0.013427734375,-0.3154296875,0.25839999999999996
1.083969465648855,1.1450381679389312,-1.465648854961832,-0.41943359375,0.014404296875,-0.307861328125,0.2601
1.083969465648855,1.1603053435114503,-1.6946564885496183,-0.4111328125,0.01416015625,-0.3173828125,0.2618
1.099236641221374,1.083969465648855,-1.7251908396946565,-0.416748046875,0.012939453125,-0.313232421875,0.2635
1.0534351145038168,0.9770992366412213,-1.3587786259541985,-0.416015625,0.015380859375,-0.310302734375,0.2652
1.1145038167938932,1.1450381679389312,-1.282442748091603,-0.414794921875,0.014892578125,-0.31298828125,0.26689999999999997
1.1908396946564885,1.2213740458015268,-1.3129770992366412,-0.414794921875,0.01025390625,-0.315673828125,0.2686
1.297709923664122,1.1603053435114503,-1.3435114503816794,-0.412353515625,0.013427734375,-0.312744140625,0.2703
1.3129770992366412,1.1297709923664123,-1.297709923664122,-0.416259765625,0.014404296875,-0.318115234375,0.27199999999999996
1.2671755725190839,1.1145038167938932,-1.099236641221374,-0.419921875,0.015380859375,-0.309814453125,0.2737
1.5114503816793894,0.9312977099236641,-1.3435114503816794,-0.413330078125,0.016357421875,-0.31591796875,0.2754
1.4961832061068703,0.9465648854961832,-1.3129770992366412,-0.417724609375,0.00830078125,-0.315673828125,0.27709999999999996
1.5877862595419847,1.083969465648855,-1.4045801526717556,-0.41552734375,0.01220703125,-0.30810546875,0.2788
1.4198473282442747,0.9007633587786259,-1.282442748091603,-0.41650390625,0.019287109375,-0.31201171875,0.28049999999999997
1.6946564885496183,0.8854961832061069,-1.4045801526717556,-0.4189453125,0.0166015625,-0.308837890625,0.2822
1.6030534351145038,0.8549618320610687,-1.3282442748091603,-0.417236328125,0.017822265625,-0.3095703125,0.2839
1.5267175572519085,0.9770992366412213,-1.099236641221374,-0.42041015625,0.01318359375,-0.31884765625,0.28559999999999997
1.7709923664122138,1.0229007633587786,-1.4809160305343512,-0.421875,0.01171875,-0.314208984375,0.2873
1.7251908396946565,0.9618320610687023,-1.0534351145038168,-0.42041015625,0.02099609375,-0.31298828125,0.289
1.6946564885496183,1.0229007633587786,-1.1755725190839694,-0.41748046875,0.01611328125,-0.31787109375,0.29069999999999996
1.7557251908396947,0.9007633587786259,-0.8549618320610687,-0.415771484375,0.0185546875,-0.314208984375,0.2924
2.0763358778625953,0.7480916030534351,-1.1755725190839694,-0.420166015625,0.015869140625,-0.308349609375,0.2941
2.0916030534351147,0.7175572519083969,-0.9770992366412213,-0.418212890625,0.01171875,-0.31494140625,0.2958
2.0610687022900764,0.8702290076335878,-1.1297709923664123,-0.420166015625,0.014892578125,-0.31494140625,0.2975
2.045801526717557,0.8091603053435115,-1.1908396946564885,-0.418212890625,0.016357421875,-0.31787109375,0.29919999999999997
1.8473282442748091,0.7938931297709924,-1.3282442748091603,-0.421142578125,0.012939453125,-0.3115234375,0.3009
1.9389312977099236,0.8396946564885496,-1.2213740458015268,-0.413330078125,0.015869140625,-0.309814453125,0.3026
2.0763358778625953,0.8549618320610687,-1.3129770992366412,-0.416015625,0.01220703125,-0.311767578125,0.30429999999999996
2.015267175572519,0.9465648854961832,-1.3893129770992367,-0.420166015625,0.011962890625,-0.30126953125,0.306
2.198473282442748,0.9923664122137404,-1.2061068702290076,-0.421630859375,0.015625,-0.31201171875,0.3077
1.83206106870229,1.0687022900763359,-1.3129770992366412,-0.42333984375,0.013916015625,-0.3134765625,0.3094
1.7099236641221374,0.9923664122137404,-1.4198473282442747,-0.42041015625,0.01123046875,-0.31787109375,0.3111
1.7099236641221374,0.8702290076335878,-1.3893129770992367,-0.41552734375,0.009033203125,-0.3212890625,0.31279999999999997
1.6946564885496183,1.083969465648855,-1.465648854961832,-0.4150390625,0.010498046875,-0.32275390625,0.3145
1.7557251908396947,0.8549618320610687,-1.297709923664122,-0.414306640625,0.013427734375,-0.31494140625,0.3162
1.7404580152671756,0.7480916030534351,-1.251908396946565,-0.419677734375,0.012451171875,-0.307861328125,0.31789999999999996
1.83206106870229,0.549618320610687,-1.2366412213740459,-0.412109375,0.012451171875,-0.31103515625,0.3196
1.7251908396946565,0.33587786259541985,-1.0076335877862594,-0.4169921875,0.009765625,-0.310302734375,0.3213
1.7099236641221374,0.3816793893129771,-0.8091603053435115,-0.417724609375,0.017822265625,-0.31201171875,0.323
1.2671755725190839,0.6106870229007634,-0.8549618320610687,-0.4169921875,0.013916015625,-0.30322265625,0.3247
1.4961832061068703,0.366412213740458,-0.9007633587786259,-0.4169921875,0.01318359375,-0.3056640625,0.32639999999999997
1.465648854961832,0.22900763358778625,-1.0076335877862594,-0.417236328125,0.01318359375,-0.311767578125,0.3281
1.1297709923664123,0.2900763358778626,-0.7938931297709924,-0.422119140625,0.01318359375,-0.3154296875,0.3298
1.2061068702290076,0.44274809160305345,-0.7480916030534351,-0.420166015625,0.01123046875,-0.3173828125,0.33149999999999996
1.2061068702290076,0.061068702290076333,-1.0534351145038168,-0.414306640625,0.01513671875,-0.306640625,0.3332
1.2061068702290076,0.0916030534351145,-0.9770992366412213,-0.41650390625,0.015869140625,-0.311279296875,0.3349
0.9465648854961832,0.04580152671755725,-0.7938931297709924,-0.41748046875,0.013427734375,-0.305908203125,0.33659999999999995
1.099236641221374,-0.4122137404580153,-0.7633587786259542,-0.4150390625,0.011962890625,-0.31201171875,0.3383
1.3129770992366412,-0.1984732824427481,-1.1145038167938932,-0.4150390625,0.012939453125,-0.303955078125,0.33999999999999997
1.0534351145038168,-0.12213740458015267,-1.0076335877862594,-0.414794921875,0.013427734375,-0.306884765625,0.3417
0.9770992366412213,-0.2900763358778626,-0.8854961832061069,-0.419921875,0.012451171875,-0.300537109375,0.3434
1.0229007633587786,-0.1984732824427481,-0.732824427480916,-0.421630859375,0.01171875,-0.31298828125,0.34509999999999996
1.0687022900763359,-0.21374045801526717,-0.8396946564885496,-0.421630859375,0.015869140625,-0.314208984375,0.3468
0.8702290076335878,-0.366412213740458,-0.8702290076335878,-0.4228515625,0.014892578125,-0.321533203125,0.3485
0.7175572519083969,-0.366412213740458,-0.8549618320610687,-0.42041015625,0.017333984375,-0.319580078125,0.35019999999999996
0.9923664122137404,-0.3969465648854962,-1.099236641221374,-0.423583984375,0.014404296875,-0.31201171875,0.3519
0.7175572519083969,-0.3511450381679389,-1.2061068702290076,-0.423828125,0.0166015625,-0.31494140625,0.35359999999999997
0.916030534351145,-0.21374045801526717,-1.0076335877862594,-0.422119140625,0.01318359375,-0.31005859375,0.3553
1.0076335877862594,-0.2595419847328244,-1.2061068702290076,-0.419677734375,0.0185546875,-0.311279296875,0.357
0.8244274809160306,0.04580152671755725,-1.2671755725190839,-0.423095703125,0.013427734375,-0.30859375,0.35869999999999996
0.6564885496183206,0.12213740458015267,-1.0687022900763359,-0.424072265625,0.01611328125,-0.311767578125,0.3604
0.9312977099236641,0.2595419847328244,-1.4351145038167938,-0.41943359375,0.016845703125,-0.3115234375,0.3621
0.9007633587786259,0.3969465648854962,-1.633587786259542,-0.423095703125,0.018310546875,-0.30615234375,0.36379999999999996
1.0381679389312977,0.549618320610687,-1.7099236641221374,-0.422607421875,0.021484375,-0.308349609375,0.3655
1.0381679389312977,0.5038167938931297,-1.8473282442748091,-0.421630859375,0.017578125,-0.316162109375,0.36719999999999997
1.1297709923664123,0.5343511450381679,-1.8625954198473282,-0.424072265625,0.01904296875,-0.317138671875,0.3689
1.0076335877862594,0.33587786259541985,-2.122137404580153,-0.41845703125,0.0146484375,-0.31298828125,0.3706
1.1603053435114503,0.5038167938931297,-2.213740458015267,-0.4189453125,0.013671875,-0.31103515625,0.37229999999999996
1.2213740458015268,0.6870229007633588,-2.381679389312977,-0.418212890625,0.02099609375,-0.3115234375,0.374
1.4045801526717556,0.5190839694656488,-2.50381679389313,-0.418701171875,0.015869140625,-0.3125,0.3757
1.465648854961832,0.5648854961832062,-2.564885496183206,-0.418701171875,0.012939453125,-0.31591796875,0.37739999999999996
1.4045801526717556,0.44274809160305345,-2.717557251908397,-0.4189453125,0.01953125,-0.309326171875,0.3791
1.450381679389313,0.7633587786259542,-2.854961832061069,-0.423583984375,0.009765625,-0.314208984375,0.38079999999999997
1.4809160305343512,0.5038167938931297,-2.763358778625954,-0.419189453125,0.01513671875,-0.311767578125,0.38249999999999995
1.5877862595419847,0.366412213740458,-2.687022900763359,-0.418212890625,0.01806640625,-0.316650390625,0.3842
1.83206106870229,0.4122137404580153,-2.7786259541984735,-0.41357421875,0.023681640625,-0.311279296875,0.38589999999999997
1.633587786259542,0.1984732824427481,-2.8702290076335877,-0.41650390625,0.021728515625,-0.313232421875,0.3876
1.8015267175572518,0.2595419847328244,-2.7480916030534353,-0.419677734375,0.015380859375,-0.3154296875,0.3893
1.8778625954198473,0.32061068702290074,-2.732824427480916,-0.421142578125,0.015869140625,-0.31298828125,0.39099999999999996
1.984732824427481,0.3511450381679389,-2.5343511450381677,-0.42529296875,0.014404296875,-0.317626953125,0.3927
1.7099236641221374,0.33587786259541985,-2.4732824427480917,-0.421142578125,0.014892578125,-0.310791015625,0.3944
1.5114503816793894,0.183206106870229,-2.7786259541984735,-0.42431640625,0.015380859375,-0.307861328125,0.39609999999999995
1.618320610687023,0.2900763358778626,-2.687022900763359,-0.41259765625,0.010498046875,-0.310302734375,0.3978
1.5267175572519085,0.4732824427480916,-2.50381679389313,-0.413818359375,0.012939453125,-0.31201171875,0.39949999999999997
1.618320610687023,0.6106870229007634,-2.4732824427480917,-0.420166015625,0.0087890625,-0.315185546875,0.4012
1.5725190839694656,0.32061068702290074,-2.549618320610687,-0.4208984375,0.0166015625,-0.32177734375,0.4029
1.5877862595419847,0.5343511450381679,-2.4885496183206106,-0.41650390625,0.02099609375,-0.315185546875,0.40459999999999996
1.4198473282442747,0.549618320610687,-2.564885496183206,-0.42333984375,0.01220703125,-0.3203125,0.4063
1.6488549618320612,0.6564885496183206,-2.4122137404580153,-0.41748046875,0.01171875,-0.3056640625,0.408
1.450381679389313,0.6717557251908397,-2.549618320610687,-0.415771484375,0.010009765625,-0.3046875,0.40969999999999995
1.1755725190839694,0.7022900763358778,-2.564885496183206,-0.419189453125,0.015869140625,-0.30712890625,0.4114
1.4198473282442747,0.48854961832061067,-2.33587786259542,-0.425048828125,0.00830078125,-0.30322265625,0.41309999999999997
1.2366412213740459,0.549618320610687,-2.1526717557251906,-0.421875,0.007080078125,-0.306640625,0.4148
1.5877862595419847,0.5343511450381679,-2.2595419847328246,-0.4228515625,0.01123046875,-0.315185546875,0.4165
1.3129770992366412,0.3816793893129771,-2.2595419847328246,-0.417236328125,0.0146484375,-0.303955078125,0.41819999999999996
1.2061068702290076,0.5648854961832062,-2.0763358778625953,-0.422119140625,0.017333984375,-0.310791015625,0.4199
0.8549618320610687,0.24427480916030533,-2.3053435114503817,-0.41845703125,0.018310546875,-0.3017578125,0.4216
0.9007633587786259,0.21374045801526717,-1.9236641221374047,-0.416259765625,0.01416015625,-0.3154296875,0.42329999999999995
1.3435114503816794,0.04580152671755725,-1.9694656488549618,-0.417236328125,0.01220703125,-0.309326171875,0.425
1.2213740458015268,0.21374045801526717,-2.122137404580153,-0.4169921875,0.012451171875,-0.30810546875,0.42669999999999997
1.3282442748091603,0.16793893129770993,-2.3053435114503817,-0.417724609375,0.0166015625,-0.316162109375,0.4284
1.3282442748091603,0.22900763358778625,-2.4885496183206106,-0.41796875,0.01318359375,-0.312255859375,0.4301
1.2671755725190839,0.07633587786259542,-2.4122137404580153,-0.42041015625,0.014404296875,-0.308349609375,0.43179999999999996
1.2671755725190839,0.0916030534351145,-2.0,-0.422119140625,0.01611328125,-0.310791015625,0.4335
1.4198473282442747,0.24427480916030533,-2.33587786259542,-0.41796875,0.015869140625,-0.30908203125,0.4352
1.3435114503816794,0.061068702290076333,-2.2748091603053435,-0.420654296875,0.0146484375,-0.31298828125,0.43689999999999996
1.4045801526717556,0.030534351145038167,-2.5801526717557253,-0.4208984375,0.012451171875,-0.313720703125,0.4386
1.251908396946565,-0.030534351145038167,-2.2595419847328246,-0.421875,0.011962890625,-0.31298828125,0.44029999999999997
1.2366412213740459,0.04580152671755725,-2.2290076335877864,-0.421630859375,0.01611328125,-0.311279296875,0.44199999999999995
1.1755725190839694,0.12213740458015267,-2.3206106870229006,-0.420654296875,0.01611328125,-0.31640625,0.4437
1.2671755725190839,0.015267175572519083,-2.351145038167939,-0.418701171875,0.0087890625,-0.30517578125,0.44539999999999996
1.2671755725190839,0.015267175572519083,-2.2900763358778624,-0.418701171875,0.010009765625,-0.309326171875,0.4471
1.2366412213740459,-0.04580152671755725,-2.3969465648854964,-0.41845703125,0.014892578125,-0.30615234375,0.4488
1.251908396946565,0.24427480916030533,-2.2442748091603053,-0.4189453125,0.017822265625,-0.316650390625,0.45049999999999996
1.1908396946564885,0.16793893129770993,-2.4122137404580153,-0.419677734375,0.01025390625,-0.30615234375,0.4522
1.0381679389312977,0.061068702290076333,-2.3206106870229006,-0.419677734375,0.010986328125,-0.31103515625,0.45389999999999997
1.0534351145038168,0.2900763358778626,-2.045801526717557,-0.41796875,0.014892578125,-0.30517578125,0.45559999999999995
1.2366412213740459,0.48854961832061067,-1.9541984732824427,-0.417236328125,0.01904296875,-0.3056640625,0.4573
1.282442748091603,0.5801526717557252,-2.1068702290076335,-0.417724609375,0.013671875,-0.311767578125,0.45899999999999996
1.1145038167938932,0.3816793893129771,-2.3206106870229006,-0.4189453125,0.01220703125,-0.31591796875,0.4607
1.0534351145038168,0.4580152671755725,-2.015267175572519,-0.4140625,0.0185546875,-0.31298828125,0.4624
1.1297709923664123,0.48854961832061067,-2.0,-0.41650390625,0.016845703125,-0.30908203125,0.46409999999999996
1.1450381679389312,0.3511450381679389,-2.198473282442748,-0.416015625,0.01025390625,-0.31591796875,0.4658
1.1297709923664123,0.6412213740458015,-2.1374045801526718,-0.409912109375,0.0146484375,-0.309326171875,0.46749999999999997
1.3129770992366412,0.4580152671755725,-2.0916030534351147,-0.416748046875,0.013427734375,-0.3173828125,0.46919999999999995
1.1755725190839694,0.4732824427480916,-2.0763358778625953,-0.418212890625,0.013916015625,-0.309814453125,0.4709
1.1297709923664123,0.44274809160305345,-2.1068702290076335,-0.4248046875,0.015869140625,-0.31689453125,0.47259999999999996
1.297709923664122,0.6106870229007634,-2.213740458015267,-0.419677734375,0.013671875,-0.313720703125,0.4743
1.297709923664122,0.4580152671755725,-2.045801526717557,-0.422607421875,0.012451171875,-0.308837890625,0.476
1.1603053435114503,0.5954198473282443,-2.1374045801526718,-0.418701171875,0.013916015625,-0.310791015625,0.47769999999999996
1.1145038167938932,0.6106870229007634,-2.2442748091603053,-0.42333984375,0.01123046875,-0.305908203125,0.4794
1.5419847328244274,0.8244274809160306,-2.015267175572519,-0.41650390625,0.01171875,-0.303466796875,0.48109999999999997
1.2671755725190839,0.6259541984732825,-2.015267175572519,-0.422119140625,0.013671875,-0.31103515625,0.48279999999999995
1.2366412213740459,0.5190839694656488,-2.030534351145038,-0.41650390625,0.016357421875,-0.308349609375,0.4845
1.2366412213740459,0.916030534351145,-1.984732824427481,-0.41943359375,0.010498046875,-0.3115234375,0.48619999999999997
1.2671755725190839,1.0076335877862594,-1.984732824427481,-0.419189453125,0.02001953125,-0.310791015625,0.4879
1.4961832061068703,0.732824427480916,-1.8931297709923665,-0.415771484375,0.01220703125,-0.30322265625,0.4896
1.5419847328244274,0.8549618320610687,-1.816793893129771,-0.4189453125,0.013671875,-0.308837890625,0.49129999999999996
1.4198473282442747,0.9465648854961832,-1.8015267175572518,-0.418701171875,0.010986328125,-0.31396484375,0.493
1.5267175572519085,0.732824427480916,-1.816793893129771,-0.421875,0.01171875,-0.310302734375,0.4947
1.3740458015267176,0.7480916030534351,-1.8931297709923665,-0.422607421875,0.01025390625,-0.308837890625,0.49639999999999995
1.4198473282442747,0.8549618320610687,-1.9236641221374047,-0.418212890625,0.017822265625,-0.31640625,0.4981
1.297709923664122,1.0381679389312977,-1.9236641221374047,-0.419921875,0.014404296875,-0.318359375,0.49979999999999997
1.6641221374045803,0.7175572519083969,-1.7251908396946565,-0.420654296875,0.013427734375,-0.31201171875,0.5015
1.3740458015267176,0.8702290076335878,-1.8473282442748091,-0.419189453125,0.015380859375,-0.313720703125,0.5032
1.4045801526717556,0.8854961832061069,-1.9083969465648856,-0.417236328125,0.013671875,-0.311279296875,0.5049
1.3740458015267176,0.8396946564885496,-1.8931297709923665,-0.4189453125,0.01708984375,-0.30712890625,0.5065999999999999
1.465648854961832,0.7022900763358778,-1.6946564885496183,-0.4189453125,0.01416015625,-0.3056640625,0.5083
1.3740458015267176,0.7786259541984732,-2.0763358778625953,-0.414794921875,0.016357421875,-0.299560546875,0.51
1.5572519083969465,0.6106870229007634,-1.816793893129771,-0.421875,0.01611328125,-0.32080078125,0.5116999999999999
1.3129770992366412,0.7022900763358778,-1.9236641221374047,-0.42236328125,0.01416015625,-0.312255859375,0.5134
1.2061068702290076,0.7175572519083969,-1.8931297709923665,-0.4248046875,0.01025390625,-0.311279296875,0.5151
1.2671755725190839,0.5954198473282443,-1.8015267175572518,-0.4208984375,0.013671875,-0.3115234375,0.5167999999999999
1.1603053435114503,0.7022900763358778,-1.816793893129771,-0.416748046875,0.01025390625,-0.3115234375,0.5185
1.2213740458015268,0.7480916030534351,-1.83206106870229,-0.416748046875,0.0087890625,-0.309326171875,0.5202
1.282442748091603,0.7022900763358778,-1.8625954198473282,-0.421142578125,0.0078125,-0.309814453125,0.5218999999999999
1.2671755725190839,0.7938931297709924,-1.8625954198473282,-0.420166015625,0.01171875,-0.316162109375,0.5236
1.2213740458015268,0.6870229007633588,-1.8778625954198473,-0.41796875,0.0166015625,-0.3173828125,0.5253
1.3435114503816794,0.7022900763358778,-1.8931297709923665,-0.420654296875,0.018310546875,-0.31103515625,0.527
1.282442748091603,0.732824427480916,-1.83206106870229,-0.419189453125,0.01318359375,-0.306396484375,0.5287
1.0687022900763359,0.3969465648854962,-1.7557251908396947,-0.42041015625,0.010986328125,-0.318603515625,0.5304
1.282442748091603,0.42748091603053434,-1.7251908396946565,-0.420654296875,0.014892578125,-0.311767578125,0.5321
1.297709923664122,0.42748091603053434,-1.83206106870229,-0.421142578125,0.011962890625,-0.319580078125,0.5337999999999999
1.2213740458015268,0.4732824427480916,-1.7709923664122138,-0.417724609375,0.00927734375,-0.31494140625,0.5355
1.083969465648855,0.42748091603053434,-1.8778625954198473,-0.416015625,0.009033203125,-0.307861328125,0.5372
1.2671755725190839,0.2595419847328244,-1.5572519083969465,-0.418212890625,0.01171875,-0.315185546875,0.5388999999999999
1.1603053435114503,0.2748091603053435,-1.8931297709923665,-0.423583984375,0.011962890625,-0.31103515625,0.5406
1.1908396946564885,0.44274809160305345,-1.9541984732824427,-0.423828125,0.0107421875,-0.31298828125,0.5423
1.0381679389312977,0.549618320610687,-1.7709923664122138,-0.420654296875,0.013671875,-0.312255859375,0.5439999999999999
1.2061068702290076,0.15267175572519084,-1.8778625954198473,-0.421142578125,0.0107421875,-0.3076171875,0.5457
1.2366412213740459,0.3816793893129771,-1.8625954198473282,-0.416748046875,0.010498046875,-0.311279296875,0.5474
1.1297709923664123,0.6106870229007634,-1.8931297709923665,-0.4208984375,0.016845703125,-0.306884765625,0.5490999999999999
1.3587786259541985,0.33587786259541985,-1.7709923664122138,-0.423583984375,0.009521484375,-0.31396484375,0.5508
1.0687022900763359,0.33587786259541985,-1.8015267175572518,-0.417724609375,0.008544921875,-0.312255859375,0.5525
1.1145038167938932,0.42748091603053434,-1.83206106870229,-0.423095703125,0.012939453125,-0.311767578125,0.5541999999999999
1.1755725190839694,0.2900763358778626,-1.83206106870229,-0.419921875,0.013916015625,-0.310302734375,0.5559
1.0381679389312977,0.33587786259541985,-1.8778625954198473,-0.422119140625,0.0126953125,-0.31005859375,0.5576
1.1145038167938932,0.32061068702290074,-1.9389312977099236,-0.42333984375,0.009033203125,-0.313720703125,0.5593
1.0687022900763359,0.22900763358778625,-1.984732824427481,-0.412841796875,0.0166015625,-0.3134765625,0.5609999999999999
1.0076335877862594,0.12213740458015267,-1.9389312977099236,-0.4248046875,0.010986328125,-0.307861328125,0.5627
0.9312977099236641,0.4732824427480916,-2.198473282442748,-0.42138671875,0.006103515625,-0.319580078125,0.5644
1.099236641221374,0.3816793893129771,-2.1068702290076335,-0.416259765625,0.008056640625,-0.3173828125,0.5660999999999999
1.1145038167938932,0.4732824427480916,-2.16793893129771,-0.418701171875,0.017333984375,-0.3095703125,0.5678
0.9312977099236641,0.5190839694656488,-2.2442748091603053,-0.417724609375,0.011962890625,-0.303466796875,0.5695
0.7786259541984732,0.5343511450381679,-2.1374045801526718,-0.41650390625,0.0107421875,-0.301025390625,0.5711999999999999
0.8854961832061069,0.5038167938931297,-2.1526717557251906,-0.420166015625,0.010498046875,-0.30859375,0.5729
0.7633587786259542,0.33587786259541985,-1.984732824427481,-0.42529296875,0.014404296875,-0.3115234375,0.5746
0.5343511450381679,0.32061068702290074,-2.045801526717557,-0.4140625,0.01318359375,-0.307373046875,0.5762999999999999
0.7175572519083969,0.12213740458015267,-1.7251908396946565,-0.417236328125,0.013427734375,-0.3134765625,0.578
1.0229007633587786,0.12213740458015267,-1.7709923664122138,-0.4169921875,0.012451171875,-0.300537109375,0.5797
0.7480916030534351,-0.13740458015267176,-1.8778625954198473,-0.41943359375,0.0068359375,-0.306884765625,0.5813999999999999
1.0534351145038168,-0.10687022900763359,-1.6641221374045803,-0.42431640625,0.010009765625,-0.31787109375,0.5831
0.6106870229007634,-0.12213740458015267,-1.5877862595419847,-0.414794921875,0.014892578125,-0.30712890625,0.5848
0.8854961832061069,0.030534351145038167,-1.7099236641221374,-0.4169921875,0.01611328125,-0.315185546875,0.5865
0.9312977099236641,0.15267175572519084,-1.6488549618320612,-0.42041015625,0.009765625,-0.31640625,0.5882
0.5954198473282443,0.24427480916030533,-1.7404580152671756,-0.418701171875,0.015869140625,-0.30908203125,0.5899
0.7633587786259542,0.3969465648854962,-1.6641221374045803,-0.418212890625,0.01416015625,-0.320068359375,0.5916
0.6870229007633588,0.3816793893129771,-1.6030534351145038,-0.4208984375,0.01513671875,-0.31103515625,0.5932999999999999
0.8396946564885496,0.366412213740458,-1.6793893129770991,-0.4208984375,0.00927734375,-0.305908203125,0.595
0.7786259541984732,0.21374045801526717,-1.618320610687023,-0.417724609375,0.008056640625,-0.3203125,0.5967
0.6412213740458015,0.48854961832061067,-1.633587786259542,-0.41552734375,0.020263671875,-0.313232421875,0.5983999999999999
0.5648854961832062,0.6106870229007634,-1.4961832061068703,-0.424560546875,0.012939453125,-0.310546875,0.6001
0.5801526717557252,0.6412213740458015,-1.5725190839694656,-0.420166015625,0.016845703125,-0.30126953125,0.6018
0.6259541984732825,0.6564885496183206,-1.4351145038167938,-0.41650390625,0.0166015625,-0.307861328125,0.6034999999999999
0.8091603053435115,0.9923664122137404,-1.4961832061068703,-0.416015625,0.01611328125,-0.306884765625,0.6052
0.8549618320610687,1.0381679389312977,-1.4351145038167938,-0.41650390625,0.014892578125,-0.3076171875,0.6069
1.0229007633587786,1.0229007633587786,-1.6793893129770991,-0.42333984375,0.015380859375,-0.31298828125,0.6085999999999999
1.099236641221374,0.6259541984732825,-1.786259541984733,-0.42041015625,0.014404296875,-0.306884765625,0.6103
1.1450381679389312,0.5343511450381679,-1.7099236641221374,-0.419189453125,0.021728515625,-0.3056640625,0.612
1.5572519083969465,0.5343511450381679,-1.786259541984733,-0.4169921875,0.02001953125,-0.309326171875,0.6136999999999999
1.633587786259542,0.22900763358778625,-1.8473282442748091,-0.416015625,0.01611328125,-0.310546875,0.6154
1.6030534351145038,0.183206106870229,-1.7404580152671756,-0.4150390625,0.01513671875,-0.30712890625,0.6171
1.7099236641221374,0.04580152671755725,-1.984732824427481,-0.419921875,0.01513671875,-0.303955078125,0.6188
1.786259541984733,-0.030534351145038167,-2.015267175572519,-0.421875,0.01708984375,-0.3173828125,0.6204999999999999
1.9694656488549618,-0.1984732824427481,-1.8778625954198473,-0.419677734375,0.016845703125,-0.306396484375,0.6222
2.045801526717557,-0.10687022900763359,-1.9236641221374047,-0.413818359375,0.014404296875,-0.31298828125,0.6239
2.0916030534351147,-0.10687022900763359,-1.9083969465648856,-0.423583984375,0.0166015625,-0.3125,0.6255999999999999
2.045801526717557,0.07633587786259542,-1.8625954198473282,-0.418212890625,0.011474609375,-0.310546875,0.6273
2.030534351145038,0.030534351145038167,-1.8473282442748091,-0.42333984375,0.01708984375,-0.308349609375,0.629
2.3206106870229006,-0.061068702290076333,-1.7557251908396947,-0.423583984375,0.01708984375,-0.311279296875,0.6306999999999999
2.2748091603053435,0.030534351145038167,-1.7709923664122138,-0.421875,0.010986328125,-0.304443359375,0.6324
2.351145038167939,-0.3816793893129771,-1.9083969465648856,-0.421142578125,0.013916015625,-0.3046875,0.6341
2.0763358778625953,-0.22900763358778625,-1.8473282442748091,-0.417724609375,0.01025390625,-0.304931640625,0.6357999999999999
2.0916030534351147,-0.15267175572519084,-1.9236641221374047,-0.420166015625,0.0126953125,-0.3115234375,0.6375
2.2290076335877864,-0.0916030534351145,-2.015267175572519,-0.42529296875,0.01025390625,-0.2998046875,0.6392
2.16793893129771,0.030534351145038167,-1.83206106870229,-0.427001953125,0.010986328125,-0.31494140625,0.6408999999999999
1.8473282442748091,0.015267175572519083,-1.5572519083969465,-0.42138671875,0.013916015625,-0.31005859375,0.6426
2.015267175572519,0.15267175572519084,-1.5419847328244274,-0.419189453125,0.013671875,-0.308349609375,0.6443
1.984732824427481,0.4122137404580153,-1.5877862595419847,-0.419677734375,0.0068359375,-0.309814453125,0.646
2.0,0.48854961832061067,-1.3587786259541985,-0.41748046875,0.010986328125,-0.31103515625,0.6476999999999999
2.0610687022900764,0.4580152671755725,-1.3435114503816794,-0.421142578125,0.0078125,-0.31884765625,0.6494
1.8473282442748091,0.6564885496183206,-1.4045801526717556,-0.4267578125,0.013427734375,-0.31689453125,0.6511
1.786259541984733,0.5954198473282443,-1.3435114503816794,-0.423583984375,0.016357421875,-0.307861328125,0.6527999999999999
1.9389312977099236,0.44274809160305345,-1.3740458015267176,-0.419677734375,0.0126953125,-0.312744140625,0.6545
1.9083969465648856,0.4122137404580153,-1.3282442748091603,-0.421142578125,0.012939453125,-0.314453125,0.6562
1.8931297709923665,0.32061068702290074,-1.4809160305343512,-0.427490234375,0.0126953125,-0.310791015625,0.6578999999999999
1.9541984732824427,0.44274809160305345,-1.1603053435114503,-0.422119140625,0.00732421875,-0.3115234375,0.6596
1.7404580152671756,0.5801526717557252,-1.3587786259541985,-0.41845703125,0.00634765625,-0.313720703125,0.6613
1.8625954198473282,0.6259541984732825,-1.2366412213740459,-0.42822265625,0.01123046875,-0.30419921875,0.6629999999999999
1.7557251908396947,0.6259541984732825,-1.2671755725190839,-0.418701171875,0.009765625,-0.312744140625,0.6647
1.5114503816793894,0.7480916030534351,-1.1908396946564885,-0.42138671875,0.011962890625,-0.312255859375,0.6664
1.7251908396946565,0.9007633587786259,-1.3129770992366412,-0.4267578125,0.01708984375,-0.3115234375,0.6680999999999999
1.7099236641221374,1.251908396946565,-1.3435114503816794,-0.423095703125,0.011962890625,-0.30859375,0.6698
1.5725190839694656,1.2213740458015268,-1.5725190839694656,-0.421875,0.016357421875,-0.30712890625,0.6715
2.0,1.083969465648855,-1.4809160305343512,-0.41943359375,0.011962890625,-0.303466796875,0.6731999999999999
1.5572519083969465,1.099236641221374,-1.2671755725190839,-0.422119140625,0.01123046875,-0.302490234375,0.6748999999999999
1.6488549618320612,0.8854961832061069,-1.4198473282442747,-0.424560546875,0.013427734375,-0.306396484375,0.6766
1.8931297709923665,0.6412213740458015,-1.4351145038167938,-0.42236328125,0.01171875,-0.30517578125,0.6783
1.9541984732824427,0.549618320610687,-1.4961832061068703,-0.423583984375,0.007568359375,-0.30517578125,0.6799999999999999
1.6641221374045803,0.916030534351145,-1.465648854961832,-0.419677734375,0.01025390625,-0.310791015625,0.6817
1.7099236641221374,0.8396946564885496,-1.5114503816793894,-0.4208984375,0.005126953125,-0.30712890625,0.6834
1.5877862595419847,0.8549618320610687,-1.3587786259541985,-0.421142578125,0.012939453125,-0.3115234375,0.6850999999999999
1.7251908396946565,0.7786259541984732,-1.1908396946564885,-0.422607421875,0.004638671875,-0.310791015625,0.6868
1.618320610687023,0.8549618320610687,-1.5725190839694656,-0.419189453125,0.0107421875,-0.315185546875,0.6885
1.6641221374045803,0.9770992366412213,-1.618320610687023,-0.42529296875,0.00732421875,-0.307373046875,0.6901999999999999
1.7099236641221374,0.7938931297709924,-1.5267175572519085,-0.422119140625,0.0126953125,-0.30908203125,0.6919
1.633587786259542,0.8854961832061069,-1.618320610687023,-0.419677734375,0.013671875,-0.30322265625,0.6936
1.633587786259542,0.7938931297709924,-1.8015267175572518,-0.426025390625,0.014404296875,-0.309326171875,0.6952999999999999
1.8931297709923665,0.7480916030534351,-1.618320610687023,-0.427978515625,0.0107421875,-0.3046875,0.697
1.5877862595419847,0.7938931297709924,-1.984732824427481,-0.42041015625,0.00927734375,-0.317626953125,0.6987
1.5725190839694656,0.9465648854961832,-1.7099236641221374,-0.426025390625,0.014892578125,-0.31298828125,0.7003999999999999
1.5572519083969465,1.083969465648855,-1.83206106870229,-0.422607421875,0.012939453125,-0.3037109375,0.7021
1.4198473282442747,1.282442748091603,-1.8778625954198473,-0.4287109375,0.0087890625,-0.312744140625,0.7038
1.4351145038167938,1.450381679389313,-1.8015267175572518,-0.427978515625,0.007568359375,-0.310546875,0.7055
1.1297709923664123,1.5572519083969465,-1.7251908396946565,-0.421630859375,0.007568359375,-0.2998046875,0.7071999999999999
1.1450381679389312,1.786259541984733,-1.8778625954198473,-0.42333984375,0.009033203125,-0.30419921875,0.7089
1.1603053435114503,1.8778625954198473,-1.8015267175572518,-0.420654296875,0.01171875,-0.31201171875,0.7106
0.9770992366412213,2.1068702290076335,-2.0,-0.418701171875,0.0087890625,-0.3076171875,0.7122999999999999
0.9923664122137404,1.83206106870229,-1.7404580152671756,-0.42041015625,0.010009765625,-0.3134765625,0.714
1.1603053435114503,1.9541984732824427,-1.8778625954198473,-0.417236328125,0.0126953125,-0.31396484375,0.7157
1.1908396946564885,2.1374045801526718,-2.030534351145038,-0.41015625,0.009521484375,-0.305908203125,0.7173999999999999
1.1145038167938932,1.816793893129771,-2.183206106870229,-0.424072265625,0.013427734375,-0.302978515625,0.7191
0.7633587786259542,1.6793893129770991,-1.8473282442748091,-0.416748046875,0.0078125,-0.318359375,0.7208
0.9618320610687023,1.5877862595419847,-2.16793893129771,-0.416015625,0.00634765625,-0.309814453125,0.7224999999999999
0.9618320610687023,1.3129770992366412,-2.0916030534351147,-0.41552734375,0.008056640625,-0.309326171875,0.7242
0.7938931297709924,1.1603053435114503,-2.198473282442748,-0.41259765625,0.013916015625,-0.30419921875,0.7259
0.8244274809160306,0.9770992366412213,-2.122137404580153,-0.419677734375,0.012939453125,-0.309326171875,0.7275999999999999
0.9465648854961832,0.732824427480916,-2.213740458015267,-0.418701171875,0.00830078125,-0.311767578125,0.7293
0.7938931297709924,0.4122137404580153,-2.045801526717557,-0.41748046875,0.01220703125,-0.3095703125,0.731
0.7633587786259542,0.4122137404580153,-2.2290076335877864,-0.416015625,0.01416015625,-0.3095703125,0.7326999999999999
0.7480916030534351,0.3053435114503817,-2.183206106870229,-0.42138671875,0.01220703125,-0.301513671875,0.7343999999999999
0.8091603053435115,0.24427480916030533,-2.122137404580153,-0.417724609375,0.0146484375,-0.310302734375,0.7361
0.7480916030534351,0.061068702290076333,-1.8015267175572518,-0.42041015625,0.012451171875,-0.306640625,0.7378
0.48854961832061067,0.12213740458015267,-2.045801526717557,-0.420654296875,0.01123046875,-0.310302734375,0.7394999999999999
0.6412213740458015,0.3511450381679389,-2.0,-0.423095703125,0.010498046875,-0.3125,0.7412
0.44274809160305345,0.5648854961832062,-2.045801526717557,-0.420654296875,0.004638671875,-0.30712890625,0.7429
0.5343511450381679,0.6106870229007634,-1.9236641221374047,-0.420654296875,0.000732421875,-0.313232421875,0.7445999999999999
0.5648854961832062,0.8396946564885496,-1.8625954198473282,-0.42529296875,0.016357421875,-0.308349609375,0.7463
0.5190839694656488,0.8091603053435115,-1.8473282442748091,-0.423095703125,0.008056640625,-0.312744140625,0.748
0.44274809160305345,1.251908396946565,-2.0916030534351147,-0.4228515625,0.006103515625,-0.3134765625,0.7496999999999999
0.2900763358778626,1.1603053435114503,-1.9083969465648856,-0.422607421875,0.00634765625,-0.31201171875,0.7514
0.2748091603053435,1.2061068702290076,-2.16793893129771,-0.4208984375,0.0087890625,-0.315185546875,0.7531
0.21374045801526717,1.4045801526717556,-2.030534351145038,-0.417236328125,0.007568359375,-0.305908203125,0.7547999999999999
0.2595419847328244,1.4198473282442747,-2.1068702290076335,-0.42431640625,0.009765625,-0.3017578125,0.7565
0.12213740458015267,1.297709923664122,-2.0763358778625953,-0.419921875,0.00927734375,-0.30322265625,0.7582
0.10687022900763359,1.3893129770992367,-1.9236641221374047,-0.41552734375,0.00537109375,-0.31005859375,0.7598999999999999
0.015267175572519083,1.282442748091603,-1.7251908396946565,-0.4169921875,0.0087890625,-0.31396484375,0.7615999999999999
0.04580152671755725,1.1603053435114503,-1.7251908396946565,-0.4189453125,0.00537109375,-0.30908203125,0.7633
0.04580152671755725,0.9923664122137404,-1.816793893129771,-0.41552734375,0.009033203125,-0.309814453125,0.7649999999999999
0.015267175572519083,0.9770992366412213,-1.7404580152671756,-0.4130859375,0.007568359375,-0.306396484375,0.7666999999999999
0.16793893129770993,0.8549618320610687,-1.5877862595419847,-0.41845703125,0.008056640625,-0.313232421875,0.7684
0.1984732824427481,0.7786259541984732,-1.5267175572519085,-0.422607421875,0.009033203125,-0.311767578125,0.7701
0.12213740458015267,0.6412213740458015,-1.450381679389313,-0.417724609375,0.00634765625,-0.315185546875,0.7717999999999999
0.061068702290076333,0.4580152671755725,-1.5267175572519085,-0.41796875,0.0107421875,-0.322021484375,0.7735
-0.061068702290076333,0.5801526717557252,-1.3587786259541985,-0.41943359375,0.011474609375,-0.311767578125,0.7752
0.04580152671755725,0.6564885496183206,-1.3587786259541985,-0.419921875,0.007568359375,-0.305419921875,0.7768999999999999
0.183206106870229,0.366412213740458,-1.282442748091603,-0.418212890625,0.008544921875,-0.309326171875,0.7786
0.030534351145038167,0.5954198473282443,-1.4961832061068703,-0.416259765625,0.013916015625,-0.31884765625,0.7803
0.24427480916030533,0.6259541984732825,-1.4351145038167938,-0.41796875,0.010009765625,-0.308837890625,0.7819999999999999
0.24427480916030533,0.5343511450381679,-1.6030534351145038,-0.423095703125,0.010009765625,-0.30712890625,0.7837
-0.13740458015267176,0.6564885496183206,-1.5114503816793894,-0.41357421875,0.013427734375,-0.320068359375,0.7854
0.07633587786259542,0.7175572519083969,-1.6641221374045803,-0.4228515625,0.00927734375,-0.314697265625,0.7870999999999999
0.21374045801526717,0.8702290076335878,-1.3282442748091603,-0.427734375,0.010009765625,-0.29931640625,0.7888
0.183206106870229,0.8854961832061069,-1.4198473282442747,-0.42626953125,0.0107421875,-0.30078125,0.7905
0.22900763358778625,0.6717557251908397,-1.282442748091603,-0.422607421875,0.012939453125,-0.29931640625,0.7921999999999999
0.2748091603053435,0.7938931297709924,-1.4809160305343512,-0.42138671875,0.0087890625,-0.307861328125,0.7938999999999999
0.32061068702290074,0.9312977099236641,-1.3435114503816794,-0.420654296875,0.010986328125,-0.307861328125,0.7956
0.22900763358778625,1.0229007633587786,-1.4045801526717556,-0.416748046875,0.00927734375,-0.3076171875,0.7973
0.22900763358778625,1.3435114503816794,-1.3893129770992367,-0.423095703125,0.011962890625,-0.306396484375,0.7989999999999999
0.15267175572519084,1.3435114503816794,-1.4351145038167938,-0.42578125,0.01513671875,-0.3115234375,0.8007
0.15267175572519084,1.1603053435114503,-1.1297709923664123,-0.421142578125,0.015869140625,-0.3076171875,0.8024
0.183206106870229,1.297709923664122,-1.1450381679389312,-0.42529296875,0.009765625,-0.307373046875,0.8040999999999999
0.24427480916030533,1.5572519083969465,-1.1755725190839694,-0.416259765625,0.0126953125,-0.3095703125,0.8058
0.32061068702290074,1.6030534351145038,-1.297709923664122,-0.417724609375,0.01220703125,-0.303466796875,0.8075
0.15267175572519084,1.099236641221374,-1.2213740458015268,-0.41748046875,0.011474609375,-0.30859375,0.8091999999999999
0.33587786259541985,1.0534351145038168,-1.465648854961832,-0.42431640625,0.0146484375,-0.3095703125,0.8109
0.4122137404580153,1.0076335877862594,-1.1297709923664123,-0.417724609375,0.011474609375,-0.315185546875,0.8126
0.5343511450381679,0.9007633587786259,-1.099236641221374,-0.41845703125,0.01025390625,-0.30908203125,0.8142999999999999
0.549618320610687,1.1755725190839694,-0.9007633587786259,-0.420654296875,0.009521484375,-0.314208984375,0.816
0.4580152671755725,1.1450381679389312,-0.9770992366412213,-0.421875,0.01318359375,-0.30712890625,0.8177
0.6259541984732825,0.916030534351145,-1.1145038167938932,-0.416259765625,0.014404296875,-0.3056640625,0.8193999999999999
0.44274809160305345,0.8244274809160306,-1.2213740458015268,-0.41845703125,0.01611328125,-0.305908203125,0.8210999999999999
0.5343511450381679,0.916030534351145,-1.0381679389312977,-0.417724609375,0.01220703125,-0.30859375,0.8228
0.5648854961832062,0.916030534351145,-0.9770992366412213,-0.4208984375,0.010986328125,-0.310302734375,0.8244999999999999
0.5954198473282443,0.9618320610687023,-0.9923664122137404,-0.420654296875,0.01513671875,-0.3125,0.8261999999999999
0.6870229007633588,0.9007633587786259,-0.8244274809160306,-0.41943359375,0.010986328125,-0.314208984375,0.8279
0.732824427480916,0.8854961832061069,-1.099236641221374,-0.413330078125,0.013671875,-0.3125,0.8296
0.549618320610687,0.5801526717557252,-1.0534351145038168,-0.41845703125,0.012939453125,-0.299560546875,0.8312999999999999
0.7022900763358778,0.5801526717557252,-0.8244274809160306,-0.425537109375,0.011474609375,-0.30419921875,0.833
0.916030534351145,0.42748091603053434,-1.0381679389312977,-0.42578125,0.014892578125,-0.307373046875,0.8347
0.7480916030534351,0.6717557251908397,-0.9923664122137404,-0.423828125,0.009521484375,-0.313720703125,0.8363999999999999
0.732824427480916,0.7633587786259542,-0.8396946564885496,-0.420166015625,0.008544921875,-0.31005859375,0.8381
0.8244274809160306,0.8702290076335878,-0.732824427480916,-0.419189453125,0.011962890625,-0.30712890625,0.8398
0.9465648854961832,0.8854961832061069,-0.9618320610687023,-0.419921875,0.01123046875,-0.310302734375,0.8414999999999999
0.732824427480916,0.8396946564885496,-0.9618320610687023,-0.42138671875,0.012939453125,-0.302734375,0.8432
0.8396946564885496,1.1450381679389312,-0.8091603053435115,-0.42236328125,0.011962890625,-0.3125,0.8449
0.916030534351145,1.0534351145038168,-0.8396946564885496,-0.420166015625,0.01318359375,-0.31103515625,0.8465999999999999
0.9312977099236641,1.2213740458015268,-0.916030534351145,-0.416259765625,0.010498046875,-0.30810546875,0.8482999999999999
0.916030534351145,0.9465648854961832,-0.916030534351145,-0.42041015625,0.01220703125,-0.30908203125,0.85
1.2061068702290076,0.8702290076335878,-0.7633587786259542,-0.42138671875,0.00927734375,-0.312744140625,0.8516999999999999
0.9923664122137404,0.8702290076335878,-0.7480916030534351,-0.4169921875,0.010986328125,-0.316162109375,0.8533999999999999
0.9007633587786259,0.6717557251908397,-0.6564885496183206,-0.419189453125,0.00927734375,-0.31201171875,0.8551
1.0076335877862594,0.6564885496183206,-0.3816793893129771,-0.41845703125,0.011962890625,-0.310791015625,0.8568
1.2061068702290076,0.6564885496183206,-0.5648854961832062,-0.427001953125,0.009521484375,-0.302490234375,0.8584999999999999
1.1755725190839694,0.6564885496183206,-0.6106870229007634,-0.420654296875,0.01220703125,-0.307373046875,0.8602
1.282442748091603,0.48854961832061067,-0.2748091603053435,-0.4189453125,0.008544921875,-0.310546875,0.8619
1.1450381679389312,0.6106870229007634,-0.183206106870229,-0.421875,0.014892578125,-0.30029296875,0.8635999999999999
0.9923664122137404,0.4580152671755725,-0.2748091603053435,-0.42431640625,0.010009765625,-0.311279296875,0.8653
1.0687022900763359,0.6412213740458015,-0.4122137404580153,-0.42626953125,0.017822265625,-0.308349609375,0.867
1.1908396946564885,0.6412213740458015,-0.44274809160305345,-0.42529296875,0.014892578125,-0.308837890625,0.8686999999999999
1.0534351145038168,0.7633587786259542,-0.4122137404580153,-0.420166015625,0.0126953125,-0.317626953125,0.8704
1.1755725190839694,0.732824427480916,-0.366412213740458,-0.42724609375,0.010986328125,-0.313232421875,0.8721
1.2213740458015268,0.9770992366412213,-0.4122137404580153,-0.424560546875,0.00927734375,-0.308349609375,0.8737999999999999
1.3893129770992367,1.1297709923664123,-0.4580152671755725,-0.42822265625,0.011474609375,-0.30810546875,0.8755
1.083969465648855,1.3435114503816794,-0.48854961832061067,-0.424560546875,0.008056640625,-0.304443359375,0.8772
1.0381679389312977,1.4809160305343512,-0.5801526717557252,-0.425048828125,0.006591796875,-0.31201171875,0.8788999999999999
0.9618320610687023,1.7404580152671756,-0.7175572519083969,-0.426025390625,0.00927734375,-0.310302734375,0.8805999999999999
1.0687022900763359,2.213740458015267,-0.5954198473282443,-0.428955078125,0.010498046875,-0.31494140625,0.8823
1.1297709923664123,2.351145038167939,-0.5038167938931297,-0.427978515625,0.007568359375,-0.305908203125,0.8839999999999999
0.9923664122137404,2.4732824427480917,-0.5954198473282443,-0.428466796875,0.011474609375,-0.314208984375,0.8856999999999999
0.9007633587786259,2.5343511450381677,-0.4122137404580153,-0.429931640625,0.009033203125,-0.3115234375,0.8874
0.9312977099236641,2.4122137404580153,-0.5648854961832062,-0.42626953125,0.015625,-0.305908203125,0.8891
0.8091603053435115,2.33587786259542,-0.5801526717557252,-0.426025390625,0.010498046875,-0.3056640625,0.8907999999999999
0.7022900763358778,2.351145038167939,-0.33587786259541985,-0.426513671875,0.0107421875,-0.311279296875,0.8925
0.9312977099236641,2.2900763358778624,-0.4580152671755725,-0.425537109375,0.0146484375,-0.300537109375,0.8942
0.9618320610687023,2.2595419847328246,-0.24427480916030533,-0.4228515625,0.009033203125,-0.3037109375,0.8958999999999999
0.7022900763358778,2.4427480916030535,-0.22900763358778625,-0.42431640625,0.00732421875,-0.3154296875,0.8976
1.0687022900763359,2.427480916030534,0.0,-0.418212890625,0.009033203125,-0.305908203125,0.8993
0.916030534351145,2.717557251908397,-0.3816793893129771,-0.419921875,0.0107421875,-0.303955078125,0.9009999999999999
0.7938931297709924,3.053435114503817,-0.07633587786259542,-0.4189453125,0.01123046875,-0.31005859375,0.9027
0.6259541984732825,3.053435114503817,-0.030534351145038167,-0.42724609375,0.0087890625,-0.3037109375,0.9044
0.549618320610687,3.2519083969465647,0.015267175572519083,-0.421875,0.016357421875,-0.313232421875,0.9060999999999999
0.48854961832061067,3.114503816793893,-0.15267175572519084,-0.425537109375,0.0126953125,-0.3173828125,0.9077999999999999
0.48854961832061067,3.114503816793893,-0.04580152671755725,-0.423095703125,0.01318359375,-0.314697265625,0.9095
0.48854961832061067,2.9923664122137406,-0.16793893129770993,-0.42626953125,0.010498046875,-0.318115234375,0.9111999999999999
0.4732824427480916,3.099236641221374,0.12213740458015267,-0.427490234375,0.01318359375,-0.30712890625,0.9128999999999999
0.6412213740458015,2.946564885496183,0.061068702290076333,-0.4287109375,0.010986328125,-0.308349609375,0.9146
0.6412213740458015,2.9618320610687023,0.061068702290076333,-0.428466796875,0.012451171875,-0.306640625,0.9163
0.4122137404580153,3.1603053435114505,0.22900763358778625,-0.432373046875,0.0126953125,-0.303955078125,0.9179999999999999
0.6259541984732825,3.2519083969465647,0.33587786259541985,-0.429443359375,0.01220703125,-0.306396484375,0.9197
0.8091603053435115,3.7099236641221376,0.4122137404580153,-0.42724609375,0.012939453125,-0.303466796875,0.9214
0.44274809160305345,3.984732824427481,0.6106870229007634,-0.42333984375,0.015625,-0.311767578125,0.9230999999999999
0.3511450381679389,4.366412213740458,0.5648854961832062,-0.4248046875,0.0166015625,-0.31201171875,0.9248
0.732824427480916,4.732824427480916,0.5648854961832062,-0.42333984375,0.02099609375,-0.3056640625,0.9265
0.42748091603053434,4.9465648854961835,0.366412213740458,-0.427001953125,0.01416015625,-0.307861328125,0.9281999999999999
0.15267175572519084,4.99236641221374,0.2900763358778626,-0.426025390625,0.015869140625,-0.30859375,0.9299
0.6106870229007634,5.00763358778626,0.3816793893129771,-0.4228515625,0.016357421875,-0.3056640625,0.9316
0.5648854961832062,4.961832061068702,0.1984732824427481,-0.42626953125,0.017333984375,-0.310302734375,0.9332999999999999
0.7633587786259542,4.916030534351145,-0.07633587786259542,-0.423095703125,0.016357421875,-0.311767578125,0.9349999999999999
0.7938931297709924,4.717557251908397,-0.030534351145038167,-0.425537109375,0.013671875,-0.311279296875,0.9367
0.7175572519083969,4.442748091603053,-0.48854961832061067,-0.422119140625,0.018310546875,-0.307373046875,0.9383999999999999
1.083969465648855,4.473282442748092,-0.5648854961832062,-0.421630859375,0.02099609375,-0.3134765625,0.9400999999999999
0.9770992366412213,4.259541984732825,-0.6412213740458015,-0.42333984375,0.021728515625,-0.31103515625,0.9418
1.099236641221374,4.076335877862595,-0.6412213740458015,-0.4189453125,0.019287109375,-0.315673828125,0.9434999999999999
1.5267175572519085,4.442748091603053,-0.8396946564885496,-0.42041015625,0.020263671875,-0.30908203125,0.9451999999999999
1.5877862595419847,4.412213740458015,-0.9618320610687023,-0.42041015625,0.0205078125,-0.30859375,0.9469
1.5725190839694656,4.229007633587786,-1.1145038167938932,-0.416259765625,0.02099609375,-0.31005859375,0.9486
1.8931297709923665,4.183206106870229,-1.1145038167938932,-0.412109375,0.0205078125,-0.310302734375,0.9502999999999999
1.9236641221374047,4.030534351145038,-1.3435114503816794,-0.419921875,0.01953125,-0.311279296875,0.952
1.786259541984733,4.229007633587786,-1.282442748091603,-0.414306640625,0.017578125,-0.314208984375,0.9537
2.0,4.015267175572519,-1.450381679389313,-0.418212890625,0.021728515625,-0.3046875,0.9553999999999999
2.122137404580153,3.9083969465648853,-1.5114503816793894,-0.4248046875,0.020263671875,-0.30712890625,0.9571
2.2595419847328246,3.7251908396946565,-1.7251908396946565,-0.4267578125,0.0185546875,-0.306884765625,0.9588
2.183206106870229,3.786259541984733,-1.8625954198473282,-0.417724609375,0.019287109375,-0.31787109375,0.9604999999999999
2.351145038167939,3.7709923664122136,-1.8931297709923665,-0.41796875,0.019287109375,-0.3125,0.9621999999999999
2.2900763358778624,3.6946564885496183,-1.8625954198473282,-0.41748046875,0.015380859375,-0.312255859375,0.9639
2.687022900763359,3.8625954198473282,-1.9236641221374047,-0.419677734375,0.016357421875,-0.306884765625,0.9655999999999999
2.519083969465649,3.633587786259542,-1.7557251908396947,-0.416748046875,0.021484375,-0.31201171875,0.9672999999999999
2.687022900763359,3.7099236641221376,-1.8625954198473282,-0.41796875,0.02001953125,-0.3125,0.969
2.6717557251908395,3.66412213740458,-1.7557251908396947,-0.41455078125,0.01708984375,-0.310302734375,0.9706999999999999
2.732824427480916,3.4198473282442747,-1.7557251908396947,-0.412109375,0.0146484375,-0.307861328125,0.9723999999999999
2.900763358778626,3.114503816793893,-1.83206106870229,-0.4150390625,0.013916015625,-0.31396484375,0.9741
2.7938931297709924,3.0229007633587788,-1.9236641221374047,-0.4169921875,0.014892578125,-0.31201171875,0.9758
2.9770992366412212,2.8702290076335877,-1.7557251908396947,-0.416015625,0.015625,-0.307861328125,0.9774999999999999
2.7938931297709924,2.6259541984732824,-1.8015267175572518,-0.419677734375,0.0107421875,-0.31298828125,0.9792
2.9923664122137406,2.427480916030534,-1.9541984732824427,-0.4189453125,0.01806640625,-0.322265625,0.9809
2.854961832061069,2.2595419847328246,-2.0916030534351147,-0.417236328125,0.0166015625,-0.3115234375,0.9825999999999999
2.8244274809160306,2.198473282442748,-1.8473282442748091,-0.418212890625,0.0185546875,-0.311767578125,0.9843
2.8702290076335877,2.427480916030534,-1.9083969465648856,-0.4111328125,0.015869140625,-0.309326171875,0.986
2.8091603053435112,2.33587786259542,-1.8625954198473282,-0.41845703125,0.013427734375,-0.316650390625,0.9876999999999999
2.7480916030534353,2.3206106870229006,-1.7557251908396947,-0.417724609375,0.023193359375,-0.318115234375,0.9894
3.1908396946564888,2.3969465648854964,-1.6946564885496183,-0.41552734375,0.015380859375,-0.322509765625,0.9911
2.9923664122137406,2.3053435114503817,-1.7557251908396947,-0.42041015625,0.012451171875,-0.317138671875,0.9927999999999999
2.854961832061069,2.0916030534351147,-1.7251908396946565,-0.42333984375,0.014892578125,-0.310791015625,0.9944999999999999
3.114503816793893,2.0,-1.8625954198473282,-0.4169921875,0.012939453125,-0.312744140625,0.9962
2.8702290076335877,2.045801526717557,-1.8931297709923665,-0.414794921875,0.012451171875,-0.311279296875,0.9978999999999999
2.7938931297709924,2.2290076335877864,-1.7099236641221374,-0.412353515625,0.01416015625,-0.300048828125,0.9995999999999999
2.7938931297709924,2.1374045801526718,-1.786259541984733,-0.4169921875,0.008056640625,-0.308837890625,1.0012999999999999
2.9923664122137406,2.0,-1.7251908396946565,-0.414794921875,0.009765625,-0.30908203125,1.003
2.7480916030534353,1.8931297709923665,-1.5114503816793894,-0.41796875,0.014404296875,-0.30419921875,1.0047
2.6717557251908395,1.8015267175572518,-1.618320610687023,-0.413818359375,0.01171875,-0.3173828125,1.0064
2.8244274809160306,1.7404580152671756,-1.4198473282442747,-0.416259765625,0.0126953125,-0.32080078125,1.0081
3.0229007633587788,1.7557251908396947,-1.5267175572519085,-0.416015625,0.009765625,-0.310546875,1.0098
2.8244274809160306,1.8473282442748091,-1.1908396946564885,-0.423095703125,0.0087890625,-0.302490234375,1.0114999999999998
3.0229007633587788,1.6793893129770991,-1.3435114503816794,-0.41943359375,0.01171875,-0.303466796875,1.0131999999999999
2.8244274809160306,1.786259541984733,-1.251908396946565,-0.416748046875,0.01123046875,-0.310791015625,1.0149
2.732824427480916,1.6946564885496183,-1.4198473282442747,-0.41943359375,0.012451171875,-0.31298828125,1.0166
2.9770992366412212,1.6793893129770991,-1.1450381679389312,-0.418212890625,0.017578125,-0.310546875,1.0183
2.8091603053435112,1.7404580152671756,-1.4351145038167938,-0.415771484375,0.015625,-0.31982421875,1.02
2.8244274809160306,1.5419847328244274,-1.3740458015267176,-0.41552734375,0.013916015625,-0.306884765625,1.0217
2.7480916030534353,1.618320610687023,-1.297709923664122,-0.416748046875,0.010986328125,-0.3095703125,1.0233999999999999
2.6412213740458017,1.5419847328244274,-1.4198473282442747,-0.41796875,0.009521484375,-0.311279296875,1.0251
3.0381679389312977,1.465648854961832,-1.465648854961832,-0.416748046875,0.019775390625,-0.310791015625,1.0268
2.931297709923664,1.8625954198473282,-1.465648854961832,-0.4169921875,0.013427734375,-0.311279296875,1.0285
2.5801526717557253,1.6641221374045803,-1.3435114503816794,-0.41259765625,0.007568359375,-0.311279296875,1.0302
2.6717557251908395,1.6030534351145038,-1.3740458015267176,-0.417236328125,0.00830078125,-0.30322265625,1.0319
2.732824427480916,1.618320610687023,-1.4198473282442747,-0.41796875,0.0078125,-0.3154296875,1.0335999999999999
2.595419847328244,1.4198473282442747,-0.9770992366412213,-0.41650390625,0.01123046875,-0.309326171875,1.0352999999999999
2.564885496183206,1.2061068702290076,-1.2366412213740459,-0.412841796875,0.0146484375,-0.3125,1.037
2.7022900763358777,1.251908396946565,-1.2366412213740459,-0.41796875,0.016357421875,-0.312255859375,1.0387
2.50381679389313,1.1297709923664123,-1.0687022900763359,-0.42041015625,0.0126953125,-0.309814453125,1.0404
2.6717557251908395,1.0381679389312977,-1.1908396946564885,-0.4140625,0.014404296875,-0.31103515625,1.0421
2.564885496183206,1.099236641221374,-1.1297709923664123,-0.4189453125,0.0087890625,-0.311767578125,1.0437999999999998
2.717557251908397,1.083969465648855,-1.3740458015267176,-0.4208984375,0.014892578125,-0.302734375,1.0454999999999999
2.687022900763359,1.1755725190839694,-1.3282442748091603,-0.415283203125,0.01171875,-0.30615234375,1.0472
2.2900763358778624,1.1908396946564885,-1.1297709923664123,-0.413818359375,0.0068359375,-0.30419921875,1.0489
2.33587786259542,1.1297709923664123,-1.4351145038167938,-0.417236328125,0.009521484375,-0.3115234375,1.0506
2.2595419847328246,1.4961832061068703,-1.3587786259541985,-0.416259765625,0.014892578125,-0.320556640625,1.0523
2.3969465648854964,1.5114503816793894,-1.8625954198473282,-0.411376953125,0.006591796875,-0.314208984375,1.054
2.030534351145038,1.7099236641221374,-1.816793893129771,-0.4150390625,0.010498046875,-0.31689453125,1.0556999999999999
1.9083969465648856,1.6793893129770991,-1.8625954198473282,-0.411865234375,0.01318359375,-0.3115234375,1.0574
1.9083969465648856,1.5114503816793894,-1.6030534351145038,-0.416015625,0.0107421875,-0.3115234375,1.0591
1.5725190839694656,0.9923664122137404,-1.8931297709923665,-0.421142578125,0.006103515625,-0.30517578125,1.0608
1.5419847328244274,0.7480916030534351,-1.984732824427481,-0.413818359375,0.00732421875,-0.30859375,1.0625
1.633587786259542,0.5954198473282443,-1.8778625954198473,-0.4208984375,0.0078125,-0.32080078125,1.0642
1.8931297709923665,0.48854961832061067,-1.7404580152671756,-0.419677734375,0.01513671875,-0.309814453125,1.0658999999999998
1.6946564885496183,0.5190839694656488,-1.83206106870229,-0.414794921875,0.0087890625,-0.313720703125,1.0675999999999999
1.5267175572519085,0.4122137404580153,-1.8015267175572518,-0.414794921875,0.017333984375,-0.3173828125,1.0693
1.6030534351145038,0.3053435114503817,-1.6793893129770991,-0.416015625,0.013916015625,-0.307373046875,1.071
1.2213740458015268,0.366412213740458,-1.6946564885496183,-0.41455078125,0.010986328125,-0.30908203125,1.0727
1.2671755725190839,0.32061068702290074,-1.7099236641221374,-0.420166015625,0.005615234375,-0.31201171875,1.0744
1.3435114503816794,0.3816793893129771,-1.6641221374045803,-0.415771484375,0.01318359375,-0.313720703125,1.0760999999999998
1.1755725190839694,0.4122137404580153,-1.9083969465648856,-0.415771484375,0.008056640625,-0.307861328125,1.0777999999999999
1.2213740458015268,0.42748091603053434,-1.8473282442748091,-0.416015625,0.0078125,-0.310546875,1.0795
0.916030534351145,0.4122137404580153,-1.7709923664122138,-0.4189453125,0.009521484375,-0.314697265625,1.0812
1.0381679389312977,0.5954198473282443,-1.9694656488549618,-0.4208984375,0.006103515625,-0.3076171875,1.0829
1.0381679389312977,0.5343511450381679,-2.0763358778625953,-0.4169921875,0.011962890625,-0.31298828125,1.0846
0.6564885496183206,0.6870229007633588,-2.0610687022900764,-0.42041015625,0.01708984375,-0.3115234375,1.0863
1.0229007633587786,0.5648854961832062,-2.122137404580153,-0.415771484375,0.0126953125,-0.31103515625,1.0879999999999999
0.6717557251908397,0.8091603053435115,-1.984732824427481,-0.417724609375,0.012451171875,-0.3154296875,1.0897
0.7480916030534351,0.9618320610687023,-2.1526717557251906,-0.416748046875,0.0166015625,-0.3125,1.0914
0.8702290076335878,0.9618320610687023,-2.183206106870229,-0.419921875,0.01025390625,-0.311279296875,1.0931
0.916030534351145,0.8396946564885496,-2.2748091603053435,-0.4150390625,0.012451171875,-0.315185546875,1.0948
0.5648854961832062,0.8244274809160306,-2.1374045801526718,-0.4140625,0.01025390625,-0.31103515625,1.0965
0.4732824427480916,0.7175572519083969,-2.381679389312977,-0.41552734375,0.010498046875,-0.318359375,1.0981999999999998
0.6564885496183206,0.4580152671755725,-2.381679389312977,-0.41552734375,0.016845703125,-0.31494140625,1.0998999999999999
0.6259541984732825,0.16793893129770993,-2.2442748091603053,-0.4150390625,0.019287109375,-0.309814453125,1.1016
0.8091603053435115,0.13740458015267176,-2.1526717557251906,-0.41455078125,0.014892578125,-0.307373046875,1.1033
0.5801526717557252,0.13740458015267176,-2.351145038167939,-0.41796875,0.008056640625,-0.314697265625,1.105
0.4732824427480916,0.07633587786259542,-2.4122137404580153,-0.4150390625,0.015625,-0.311279296875,1.1067
0.7175572519083969,-0.0916030534351145,-2.366412213740458,-0.416748046875,0.016357421875,-0.310302734375,1.1083999999999998
0.732824427480916,-0.10687022900763359,-2.4427480916030535,-0.41455078125,0.012451171875,-0.314208984375,1.1100999999999999
0.6412213740458015,-0.061068702290076333,-2.3053435114503817,-0.416748046875,0.013671875,-0.317626953125,1.1118
0.5343511450381679,-0.15267175572519084,-2.3969465648854964,-0.41845703125,0.013427734375,-0.309326171875,1.1135
1.0687022900763359,-0.15267175572519084,-2.549618320610687,-0.419921875,0.012939453125,-0.30859375,1.1152
0.7022900763358778,-0.16793893129770993,-2.3969465648854964,-0.41845703125,0.013916015625,-0.312255859375,1.1169
0.6870229007633588,-0.21374045801526717,-2.5343511450381677,-0.419677734375,0.01171875,-0.31689453125,1.1186
0.7175572519083969,-0.2748091603053435,-2.6259541984732824,-0.41748046875,0.01318359375,-0.31591796875,1.1202999999999999
0.7786259541984732,-0.2900763358778626,-2.6412213740458017,-0.41943359375,0.01708984375,-0.31787109375,1.1219999999999999
0.732824427480916,-0.2900763358778626,-2.6564885496183206,-0.416748046875,0.017822265625,-0.307373046875,1.1237
0.8244274809160306,-0.44274809160305345,-2.732824427480916,-0.41845703125,0.01513671875,-0.3115234375,1.1254
0.9007633587786259,-0.4122137404580153,-2.8396946564885495,-0.418212890625,0.011962890625,-0.313720703125,1.1271
0.5648854961832062,-0.5343511450381679,-2.8091603053435112,-0.418212890625,0.016357421875,-0.30859375,1.1288
0.8396946564885496,-0.4732824427480916,-2.687022900763359,-0.425537109375,0.0166015625,-0.308349609375,1.1304999999999998
0.7175572519083969,-0.4732824427480916,-2.6717557251908395,-0.4189453125,0.015869140625,-0.30419921875,1.1321999999999999
0.5343511450381679,-0.6106870229007634,-2.6259541984732824,-0.417724609375,0.01513671875,-0.306640625,1.1339
0.7938931297709924,-0.48854961832061067,-2.6259541984732824,-0.41943359375,0.015625,-0.308837890625,1.1356
0.7786259541984732,-0.32061068702290074,-2.5801526717557253,-0.4208984375,0.014404296875,-0.30908203125,1.1373
0.9007633587786259,-0.2595419847328244,-2.6717557251908395,-0.42041015625,0.014404296875,-0.307373046875,1.139
0.8702290076335878,-0.2748091603053435,-2.549618320610687,-0.424072265625,0.013427734375,-0.315673828125,1.1407
0.732824427480916,-0.22900763358778625,-2.4885496183206106,-0.417236328125,0.015625,-0.3173828125,1.1423999999999999
1.0534351145038168,-0.13740458015267176,-2.4580152671755724,-0.417236328125,0.017333984375,-0.311279296875,1.1441
1.2061068702290076,0.030534351145038167,-2.5801526717557253,-0.42041015625,0.013916015625,-0.309814453125,1.1458
1.282442748091603,-0.1984732824427481,-2.763358778625954,-0.4208984375,0.016357421875,-0.314697265625,1.1475
0.9923664122137404,-0.24427480916030533,-2.5343511450381677,-0.42236328125,0.013427734375,-0.3046875,1.1492
1.0076335877862594,-0.33587786259541985,-2.549618320610687,-0.419921875,0.010986328125,-0.30908203125,1.1509
0.7786259541984732,-0.24427480916030533,-2.4580152671755724,-0.419677734375,0.013427734375,-0.3173828125,1.1525999999999998
0.8702290076335878,-0.6412213740458015,-2.4122137404580153,-0.412841796875,0.016357421875,-0.313720703125,1.1542999999999999
1.297709923664122,-0.6412213740458015,-2.2290076335877864,-0.417724609375,0.01025390625,-0.311279296875,1.156
1.2366412213740459,-0.5343511450381679,-2.183206106870229,-0.4189453125,0.007080078125,-0.302734375,1.1577
1.2671755725190839,-0.6870229007633588,-2.0916030534351147,-0.417236328125,0.015380859375,-0.310302734375,1.1594
1.465648854961832,-0.44274809160305345,-2.198473282442748,-0.413330078125,0.011474609375,-0.308349609375,1.1611
1.2366412213740459,-0.4122137404580153,-2.1068702290076335,-0.42529296875,0.01904296875,-0.305419921875,1.1627999999999998
1.3740458015267176,-0.5190839694656488,-2.0610687022900764,-0.420654296875,0.01806640625,-0.308349609375,1.1644999999999999
1.3587786259541985,-0.732824427480916,-1.786259541984733,-0.423095703125,0.01708984375,-0.311767578125,1.1662
1.2671755725190839,-0.6564885496183206,-2.045801526717557,-0.41748046875,0.009521484375,-0.309326171875,1.1679
1.282442748091603,-0.5954198473282443,-2.0610687022900764,-0.42138671875,0.01513671875,-0.31103515625,1.1696
1.450381679389313,-0.5343511450381679,-1.984732824427481,-0.42333984375,0.014892578125,-0.310791015625,1.1713
1.4809160305343512,-0.7022900763358778,-1.9236641221374047,-0.416748046875,0.013916015625,-0.3076171875,1.173
1.6488549618320612,-0.5648854961832062,-1.8778625954198473,-0.41796875,0.014892578125,-0.314697265625,1.1746999999999999
1.251908396946565,-0.48854961832061067,-1.9083969465648856,-0.416015625,0.015869140625,-0.318359375,1.1764
1.2213740458015268,-0.3816793893129771,-2.0763358778625953,-0.42529296875,0.02099609375,-0.3125,1.1781
1.4351145038167938,-0.24427480916030533,-1.9694656488549618,-0.41650390625,0.02001953125,-0.31201171875,1.1798
1.450381679389313,-0.2900763358778626,-1.7709923664122138,-0.419921875,0.014892578125,-0.309814453125,1.1815
1.618320610687023,-0.366412213740458,-1.8015267175572518,-0.4208984375,0.013671875,-0.303466796875,1.1832
1.7404580152671756,-0.16793893129770993,-1.8015267175572518,-0.413330078125,0.01708984375,-0.31201171875,1.1848999999999998
1.7099236641221374,-0.3816793893129771,-1.984732824427481,-0.41845703125,0.010009765625,-0.30908203125,1.1865999999999999
2.015267175572519,-0.6412213740458015,-2.0763358778625953,-0.4189453125,0.01318359375,-0.31201171875,1.1883
2.122137404580153,-0.5801526717557252,-1.8473282442748091,-0.419921875,0.014892578125,-0.304443359375,1.19
2.213740458015267,-0.8244274809160306,-2.0763358778625953,-0.4169921875,0.014892578125,-0.30419921875,1.1917
2.1374045801526718,-0.5954198473282443,-1.9694656488549618,-0.421875,0.018798828125,-0.31982421875,1.1934
2.2290076335877864,-0.6564885496183206,-2.1526717557251906,-0.420166015625,0.01708984375,-0.30859375,1.1950999999999998
2.351145038167939,-0.7633587786259542,-2.3206106870229006,-0.423828125,0.01416015625,-0.3125,1.1967999999999999
2.3969465648854964,-0.7938931297709924,-2.16793893129771,-0.421630859375,0.01171875,-0.30712890625,1.1985
2.427480916030534,-0.7175572519083969,-2.16793893129771,-0.420166015625,0.014892578125,-0.314453125,1.2002
2.7480916030534353,-0.5343511450381679,-2.3206106870229006,-0.421630859375,0.0166015625,-0.305419921875,1.2019
2.519083969465649,-0.5954198473282443,-2.015267175572519,-0.41943359375,0.015625,-0.302978515625,1.2036
2.2900763358778624,-0.5954198473282443,-2.427480916030534,-0.42236328125,0.012939453125,-0.3046875,1.2053
2.7786259541984735,-0.549618320610687,-2.0763358778625953,-0.421875,0.0166015625,-0.318603515625,1.2069999999999999
2.763358778625954,-0.48854961832061067,-2.030534351145038,-0.42431640625,0.017578125,-0.3125,1.2086999999999999
2.6717557251908395,-0.549618320610687,-2.1068702290076335,-0.42529296875,0.015380859375,-0.31005859375,1.2104
2.7786259541984735,-0.5801526717557252,-2.16793893129771,-0.423828125,0.01123046875,-0.3134765625,1.2121
2.854961832061069,-0.4732824427480916,-2.213740458015267,-0.421875,0.013427734375,-0.3115234375,1.2138
2.7938931297709924,-0.42748091603053434,-2.015267175572519,-0.416015625,0.010498046875,-0.31689453125,1.2155
2.8091603053435112,-0.42748091603053434,-2.045801526717557,-0.420166015625,0.008544921875,-0.309814453125,1.2171999999999998
2.946564885496183,-0.4580152671755725,-2.213740458015267,-0.42236328125,0.013427734375,-0.306640625,1.2188999999999999
2.519083969465649,-0.3053435114503817,-1.9541984732824427,-0.41650390625,0.012451171875,-0.3095703125,1.2206
2.7480916030534353,-0.3969465648854962,-1.786259541984733,-0.423828125,0.0146484375,-0.306640625,1.2223
2.8091603053435112,-0.1984732824427481,-1.8778625954198473,-0.423583984375,0.00830078125,-0.30810546875,1.224
3.0076335877862594,-0.24427480916030533,-1.9083969465648856,-0.425048828125,0.00537109375,-0.308349609375,1.2257
2.732824427480916,-0.4122137404580153,-1.6641221374045803,-0.424560546875,0.00927734375,-0.3173828125,1.2273999999999998
2.8244274809160306,-0.32061068702290074,-1.618320610687023,-0.41845703125,0.01318359375,-0.307861328125,1.2290999999999999
2.7022900763358777,-0.2900763358778626,-1.4351145038167938,-0.42236328125,0.01123046875,-0.30224609375,1.2308
2.717557251908397,-0.3511450381679389,-1.5419847328244274,-0.42333984375,0.00732421875,-0.31396484375,1.2325
2.8091603053435112,-0.24427480916030533,-1.251908396946565,-0.42822265625,0.01220703125,-0.321533203125,1.2342
2.7938931297709924,-0.42748091603053434,-1.3129770992366412,-0.42236328125,0.013916015625,-0.31689453125,1.2359
2.717557251908397,-0.3511450381679389,-1.1755725190839694,-0.423828125,0.008544921875,-0.31298828125,1.2376
2.7786259541984735,-0.16793893129770993,-1.1145038167938932,-0.4228515625,0.0087890625,-0.311767578125,1.2392999999999998
2.549618320610687,-0.366412213740458,-0.9618320610687023,-0.42041015625,0.0029296875,-0.31494140625,1.2409999999999999
2.519083969465649,-0.13740458015267176,-1.2061068702290076,-0.421630859375,0.0048828125,-0.310791015625,1.2427
2.732824427480916,-0.0916030534351145,-1.0076335877862594,-0.41943359375,0.00439453125,-0.3076171875,1.2444
2.6717557251908395,0.183206106870229,-1.0534351145038168,-0.42529296875,0.00439453125,-0.3115234375,1.2461
2.6412213740458017,0.183206106870229,-0.7938931297709924,-0.42529296875,0.00927734375,-0.314453125,1.2478
2.4732824427480917,0.13740458015267176,-0.916030534351145,-0.420166015625,0.010986328125,-0.30712890625,1.2494999999999998
2.366412213740458,0.10687022900763359,-0.48854961832061067,-0.421630859375,0.01318359375,-0.309814453125,1.2511999999999999
2.4732824427480917,0.1984732824427481,-0.4732824427480916,-0.424072265625,0.01416015625,-0.3154296875,1.2529
2.5801526717557253,0.183206106870229,-0.6259541984732825,-0.419189453125,0.01025390625,-0.306396484375,1.2546
2.3206106870229006,0.366412213740458,-0.549618320610687,-0.42431640625,0.00537109375,-0.3056640625,1.2563
2.198473282442748,0.366412213740458,-0.366412213740458,-0.423095703125,0.00634765625,-0.301513671875,1.258
2.015267175572519,0.5038167938931297,-0.33587786259541985,-0.423583984375,0.008544921875,-0.310546875,1.2596999999999998
2.2900763358778624,0.33587786259541985,-0.24427480916030533,-0.41845703125,0.01416015625,-0.31787109375,1.2613999999999999
2.0,0.3816793893129771,-0.183206106870229,-0.426513671875,0.01025390625,-0.3046875,1.2631
2.2442748091603053,0.4580152671755725,-0.183206106870229,-0.421630859375,0.010986328125,-0.30322265625,1.2648
2.015267175572519,0.32061068702290074,-0.16793893129770993,-0.414306640625,0.009521484375,-0.30224609375,1.2665
2.1526717557251906,0.2900763358778626,0.07633587786259542,-0.42041015625,0.013427734375,-0.31103515625,1.2682
1.984732824427481,0.4122137404580153,-0.22900763358778625,-0.42041015625,0.0078125,-0.314453125,1.2699
1.8931297709923665,0.42748091603053434,-0.07633587786259542,-0.424560546875,0.010986328125,-0.3095703125,1.2715999999999998
2.045801526717557,0.2748091603053435,0.04580152671755725,-0.417724609375,0.00927734375,-0.3037109375,1.2732999999999999
2.1068702290076335,0.33587786259541985,0.16793893129770993,-0.4208984375,0.013427734375,-0.2998046875,1.275
1.786259541984733,0.5038167938931297,0.10687022900763359,-0.421630859375,0.00927734375,-0.312744140625,1.2767
1.6793893129770991,0.4122137404580153,0.16793893129770993,-0.420654296875,0.006591796875,-0.307373046875,1.2784
1.8473282442748091,0.5038167938931297,0.183206106870229,-0.41943359375,0.00537109375,-0.306640625,1.2801
1.7251908396946565,0.5190839694656488,0.2900763358778626,-0.4208984375,0.011962890625,-0.3125,1.2817999999999998
1.5267175572519085,0.32061068702290074,0.13740458015267176,-0.419921875,0.0078125,-0.306396484375,1.2834999999999999
1.5877862595419847,0.42748091603053434,0.16793893129770993,-0.4208984375,0.007568359375,-0.31103515625,1.2852
1.7557251908396947,0.7938931297709924,0.2748091603053435,-0.421142578125,0.005859375,-0.30908203125,1.2869
1.633587786259542,0.732824427480916,0.366412213740458,-0.429443359375,0.009765625,-0.31640625,1.2886
1.3435114503816794,0.7480916030534351,0.12213740458015267,-0.421875,0.00927734375,-0.307373046875,1.2903
1.4351145038167938,0.7175572519083969,0.24427480916030533,-0.427001953125,0.0107421875,-0.313720703125,1.292
1.450381679389313,0.8702290076335878,0.16793893129770993,-0.42138671875,0.015869140625,-0.307373046875,1.2936999999999999
1.2213740458015268,0.7938931297709924,0.3511450381679389,-0.41845703125,0.011962890625,-0.307373046875,1.2953999999999999
1.4198473282442747,0.7022900763358778,0.13740458015267176,-0.4228515625,0.01416015625,-0.31298828125,1.2971
1.3282442748091603,0.8549618320610687,0.21374045801526717,-0.419921875,0.012939453125,-0.320068359375,1.2988
1.4045801526717556,0.9770992366412213,0.0,-0.4208984375,0.010009765625,-0.30859375,1.3005
1.3893129770992367,0.9770992366412213,0.07633587786259542,-0.414794921875,0.011962890625,-0.311767578125,1.3022
1.2671755725190839,0.9923664122137404,0.21374045801526717,-0.422607421875,0.0107421875,-0.308837890625,1.3038999999999998
1.1145038167938932,1.0229007633587786,0.21374045801526717,-0.421875,0.008544921875,-0.302001953125,1.3055999999999999
1.1755725190839694,0.9923664122137404,0.24427480916030533,-0.422119140625,0.01416015625,-0.31005859375,1.3073
0.916030534351145,1.0229007633587786,0.21374045801526717,-0.41650390625,0.00537109375,-0.31005859375,1.309
1.0381679389312977,1.083969465648855,0.0,-0.41845703125,0.015869140625,-0.3017578125,1.3107
0.916030534351145,1.1297709923664123,0.07633587786259542,-0.422119140625,0.013427734375,-0.307861328125,1.3124
1.0381679389312977,1.0534351145038168,0.030534351145038167,-0.418701171875,0.011474609375,-0.314208984375,1.3140999999999998
1.1603053435114503,1.4198473282442747,-0.015267175572519083,-0.421875,0.012939453125,-0.31103515625,1.3157999999999999
0.8549618320610687,1.083969465648855,-0.12213740458015267,-0.4208984375,0.01611328125,-0.31103515625,1.3175
0.7938931297709924,1.1755725190839694,-0.183206106870229,-0.420166015625,0.01220703125,-0.305419921875,1.3192
0.9007633587786259,1.2671755725190839,-0.13740458015267176,-0.414794921875,0.01220703125,-0.308349609375,1.3209
0.732824427480916,1.0687022900763359,-0.2748091603053435,-0.41455078125,0.012451171875,-0.3056640625,1.3226
0.8549618320610687,1.099236641221374,-0.1984732824427481,-0.417236328125,0.010498046875,-0.304443359375,1.3243
0.7480916030534351,1.0687022900763359,-0.22900763358778625,-0.4267578125,0.00830078125,-0.31103515625,1.3259999999999998
0.7175572519083969,0.9618320610687023,-0.2595419847328244,-0.42041015625,0.010498046875,-0.31982421875,1.3276999999999999
0.8244274809160306,1.0229007633587786,-0.33587786259541985,-0.41943359375,0.00830078125,-0.309326171875,1.3294
0.7938931297709924,1.2061068702290076,-0.5648854961832062,-0.418212890625,0.014892578125,-0.307373046875,1.3311
0.7175572519083969,1.1908396946564885,-0.6259541984732825,-0.42041015625,0.011474609375,-0.313232421875,1.3328
0.732824427480916,1.1603053435114503,-0.5648854961832062,-0.423095703125,0.01220703125,-0.30322265625,1.3345
0.6412213740458015,1.282442748091603,-0.4732824427480916,-0.4208984375,0.014892578125,-0.310302734375,1.3361999999999998
0.549618320610687,1.2366412213740459,-0.3969465648854962,-0.423095703125,0.010498046875,-0.317626953125,1.3378999999999999
0.6412213740458015,1.1908396946564885,-0.4732824427480916,-0.42041015625,0.014404296875,-0.310546875,1.3396
0.5801526717557252,1.1755725190839694,-0.5954198473282443,-0.41845703125,0.013427734375,-0.305908203125,1.3413
0.2900763358778626,1.3129770992366412,-0.6412213740458015,-0.418212890625,0.01171875,-0.30810546875,1.343
0.5801526717557252,1.4961832061068703,-0.8549618320610687,-0.413330078125,0.011962890625,-0.29833984375,1.3447
0.4122137404580153,1.282442748091603,-0.5801526717557252,-0.420654296875,0.014404296875,-0.31103515625,1.3463999999999998
0.4732824427480916,1.297709923664122,-0.7786259541984732,-0.419921875,0.01611328125,-0.30615234375,1.3480999999999999
0.3969465648854962,1.3740458015267176,-0.7480916030534351,-0.416748046875,0.013671875,-0.315673828125,1.3497999999999999
0.3969465648854962,1.4809160305343512,-0.7022900763358778,-0.41943359375,0.0205078125,-0.312255859375,1.3515
0.4580152671755725,1.282442748091603,-0.8091603053435115,-0.417724609375,0.01953125,-0.315185546875,1.3532
0.48854961832061067,1.4809160305343512,-1.0381679389312977,-0.417724609375,0.015625,-0.30029296875,1.3549
0.3969465648854962,1.282442748091603,-0.9923664122137404,-0.4150390625,0.0146484375,-0.309814453125,1.3566
0.21374045801526717,1.282442748091603,-0.7633587786259542,-0.414306640625,0.008056640625,-0.312255859375,1.3582999999999998
0.3816793893129771,1.0687022900763359,-0.7633587786259542,-0.417236328125,0.0146484375,-0.314453125,1.3599999999999999
0.3969465648854962,1.2213740458015268,-0.8244274809160306,-0.4189453125,0.01171875,-0.308349609375,1.3617
0.2595419847328244,0.9465648854961832,-0.8091603053435115,-0.4228515625,0.018798828125,-0.310791015625,1.3634
0.366412213740458,1.282442748091603,-0.9312977099236641,-0.4248046875,0.01123046875,-0.306884765625,1.3651
0.183206106870229,1.1450381679389312,-0.8702290076335878,-0.4189453125,0.015625,-0.308349609375,1.3668
0.183206106870229,1.2671755725190839,-0.9618320610687023,-0.41748046875,0.018310546875,-0.31005859375,1.3684999999999998
0.3969465648854962,1.1297709923664123,-1.0076335877862594,-0.420166015625,0.010009765625,-0.3115234375,1.3701999999999999
0.44274809160305345,0.9312977099236641,-1.0687022900763359,-0.42138671875,0.00732421875,-0.3076171875,1.3719
0.5190839694656488,0.9923664122137404,-0.9312977099236641,-0.41943359375,0.017578125,-0.3125,1.3736
0.4122137404580153,1.2366412213740459,-1.099236641221374,-0.4169921875,0.013427734375,-0.3115234375,1.3753
0.42748091603053434,0.9923664122137404,-1.083969465648855,-0.421875,0.012451171875,-0.305908203125,1.377
0.2900763358778626,0.9923664122137404,-1.0534351145038168,-0.4189453125,0.015625,-0.314697265625,1.3786999999999998
0.1984732824427481,1.1603053435114503,-0.916030534351145,-0.419677734375,0.013427734375,-0.312255859375,1.3803999999999998
0.5190839694656488,1.3587786259541985,-1.282442748091603,-0.421630859375,0.0166015625,-0.313720703125,1.3820999999999999
0.6870229007633588,1.3740458015267176,-1.1908396946564885,-0.421142578125,0.010498046875,-0.306396484375,1.3838
0.24427480916030533,1.3435114503816794,-1.2061068702290076,-0.425048828125,0.01806640625,-0.3125,1.3855
0.3816793893129771,1.633587786259542,-1.282442748091603,-0.419677734375,0.013916015625,-0.310546875,1.3872
0.5954198473282443,1.5572519083969465,-1.3587786259541985,-0.420654296875,0.017822265625,-0.315185546875,1.3889
0.3969465648854962,1.6030534351145038,-1.3282442748091603,-0.421875,0.014404296875,-0.30615234375,1.3905999999999998
0.2900763358778626,1.6030534351145038,-1.2671755725190839,-0.420654296875,0.015625,-0.3125,1.3922999999999999
0.3511450381679389,1.5572519083969465,-1.2671755725190839,-0.420166015625,0.017822265625,-0.309326171875,1.394
0.366412213740458,1.633587786259542,-1.282442748091603,-0.4228515625,0.01513671875,-0.314697265625,1.3957
0.4732824427480916,1.4045801526717556,-1.4198473282442747,-0.424072265625,0.016357421875,-0.3115234375,1.3974
0.5801526717557252,1.2366412213740459,-1.3587786259541985,-0.4228515625,0.019287109375,-0.31201171875,1.3991
0.5190839694656488,1.4198473282442747,-1.4198473282442747,-0.41796875,0.015625,-0.307861328125,1.4007999999999998
0.6259541984732825,1.3893129770992367,-1.3893129770992367,-0.417724609375,0.01708984375,-0.313720703125,1.4024999999999999
0.6870229007633588,1.5419847328244274,-1.3435114503816794,-0.416259765625,0.013671875,-0.313720703125,1.4042
0.7175572519083969,1.465648854961832,-1.282442748091603,-0.420654296875,0.01953125,-0.316162109375,1.4059
0.732824427480916,1.4961832061068703,-1.450381679389313,-0.417236328125,0.01416015625,-0.30126953125,1.4076
0.8396946564885496,1.3282442748091603,-1.633587786259542,-0.418212890625,0.01611328125,-0.30615234375,1.4093
0.8244274809160306,1.3893129770992367,-1.6641221374045803,-0.425537109375,0.0126953125,-0.30810546875,1.411
0.8244274809160306,1.4351145038167938,-1.3893129770992367,-0.421630859375,0.01611328125,-0.30517578125,1.4126999999999998
0.8702290076335878,1.3893129770992367,-1.4809160305343512,-0.41455078125,0.018798828125,-0.311279296875,1.4143999999999999
0.916030534351145,1.2213740458015268,-1.3893129770992367,-0.417724609375,0.017822265625,-0.3095703125,1.4161
0.5954198473282443,1.3587786259541985,-1.3435114503816794,-0.420654296875,0.0205078125,-0.30712890625,1.4178
0.9923664122137404,1.2061068702290076,-1.3587786259541985,-0.421630859375,0.01708984375,-0.31396484375,1.4195
0.7786259541984732,1.2061068702290076,-1.465648854961832,-0.420654296875,0.01220703125,-0.304931640625,1.4212
0.916030534351145,1.099236641221374,-1.3740458015267176,-0.421875,0.013916015625,-0.311767578125,1.4228999999999998
0.9618320610687023,0.9923664122137404,-1.465648854961832,-0.42041015625,0.018798828125,-0.30322265625,1.4245999999999999
0.9618320610687023,1.1145038167938932,-1.4809160305343512,-0.41650390625,0.013916015625,-0.3056640625,1.4263
1.1755725190839694,0.9923664122137404,-1.2213740458015268,-0.420166015625,0.014404296875,-0.304443359375,1.428
1.1145038167938932,0.9312977099236641,-1.3282442748091603,-0.418212890625,0.010986328125,-0.3046875,1.4297
0.9923664122137404,1.0534351145038168,-1.3282442748091603,-0.420654296875,0.015380859375,-0.302001953125,1.4314
1.2061068702290076,1.1145038167938932,-1.5419847328244274,-0.418212890625,0.01513671875,-0.30712890625,1.4330999999999998
1.2366412213740459,1.0076335877862594,-1.4045801526717556,-0.41650390625,0.01416015625,-0.3037109375,1.4347999999999999
1.0687022900763359,0.9465648854961832,-1.2213740458015268,-0.42138671875,0.013671875,-0.306640625,1.4364999999999999
1.083969465648855,0.9465648854961832,-1.3129770992366412,-0.4228515625,0.010009765625,-0.30517578125,1.4382
1.1908396946564885,1.099236641221374,-1.1297709923664123,-0.42041015625,0.011962890625,-0.309814453125,1.4399
1.0687022900763359,1.1603053435114503,-1.3587786259541985,-0.41748046875,0.0126953125,-0.31103515625,1.4416
1.2366412213740459,1.083969465648855,-1.1755725190839694,-0.417724609375,0.012939453125,-0.31005859375,1.4433
1.2366412213740459,1.251908396946565,-1.1450381679389312,-0.41845703125,0.0166015625,-0.308837890625,1.4449999999999998
1.4045801526717556,1.3129770992366412,-1.0229007633587786,-0.4189453125,0.014892578125,-0.314453125,1.4466999999999999
1.3129770992366412,1.1145038167938932,-1.1603053435114503,-0.4189453125,0.0087890625,-0.32080078125,1.4484
1.1297709923664123,1.251908396946565,-0.9923664122137404,-0.42431640625,0.014404296875,-0.307861328125,1.4501
1.4198473282442747,1.099236641221374,-1.3587786259541985,-0.41943359375,0.012451171875,-0.310546875,1.4518
1.2213740458015268,1.0076335877862594,-0.9618320610687023,-0.4248046875,0.022705078125,-0.311767578125,1.4535
1.4961832061068703,0.9465648854961832,-0.9465648854961832,-0.421630859375,0.013916015625,-0.307373046875,1.4551999999999998
1.4351145038167938,1.1450381679389312,-0.9923664122137404,-0.42431640625,0.010986328125,-0.304443359375,1.4568999999999999
1.1603053435114503,1.1145038167938932,-0.8854961832061069,-0.418701171875,0.016357421875,-0.3134765625,1.4586
1.3435114503816794,1.2671755725190839,-0.8702290076335878,-0.4189453125,0.013427734375,-0.30908203125,1.4603
1.1908396946564885,1.3587786259541985,-1.2213740458015268,-0.421142578125,0.012451171875,-0.310546875,1.462
1.2061068702290076,1.2213740458015268,-0.8702290076335878,-0.422119140625,0.01513671875,-0.310791015625,1.4637
1.5572519083969465,1.5572519083969465,-1.0534351145038168,-0.425537109375,0.015625,-0.3115234375,1.4653999999999998
1.618320610687023,1.6641221374045803,-1.1297709923664123,-0.426025390625,0.01513671875,-0.30517578125,1.4670999999999998
1.6488549618320612,1.4351145038167938,-1.282442748091603,-0.4248046875,0.012939453125,-0.310546875,1.4687999999999999
1.6641221374045803,1.251908396946565,-1.1297709923664123,-0.420166015625,0.01611328125,-0.30126953125,1.4705
1.4961832061068703,1.6641221374045803,-1.5572519083969465,-0.424560546875,0.010986328125,-0.3154296875,1.4722
1.4809160305343512,1.5877862595419847,-1.3435114503816794,-0.427734375,0.011962890625,-0.314453125,1.4739
1.6030534351145038,1.6793893129770991,-1.3435114503816794,-0.426025390625,0.0146484375,-0.311767578125,1.4756
1.450381679389313,1.6641221374045803,-1.297709923664122,-0.425537109375,0.0078125,-0.3115234375,1.4772999999999998
1.465648854961832,1.816793893129771,-1.5725190839694656,-0.41650390625,0.01318359375,-0.312255859375,1.4789999999999999
1.450381679389313,1.8778625954198473,-1.2366412213740459,-0.421875,0.01220703125,-0.303466796875,1.4807
1.5114503816793894,2.198473282442748,-1.3587786259541985,-0.422607421875,0.018310546875,-0.3076171875,1.4824
1.3435114503816794,2.1068702290076335,-1.083969465648855,-0.418212890625,0.017333984375,-0.310546875,1.4841
1.297709923664122,2.2442748091603053,-1.2061068702290076,-0.420166015625,0.01416015625,-0.31396484375,1.4858
1.3435114503816794,2.366412213740458,-1.2366412213740459,-0.41748046875,0.015380859375,-0.311279296875,1.4874999999999998
1.2213740458015268,2.4580152671755724,-1.0076335877862594,-0.420166015625,0.008544921875,-0.30419921875,1.4891999999999999
1.4961832061068703,2.3969465648854964,-0.9465648854961832,-0.417724609375,0.014404296875,-0.30224609375,1.4909
1.282442748091603,2.3206106870229006,-1.1908396946564885,-0.417236328125,0.009765625,-0.30859375,1.4926
1.1603053435114503,2.16793893129771,-1.0534351145038168,-0.414794921875,0.015869140625,-0.309814453125,1.4943
1.1297709923664123,2.0916030534351147,-1.1908396946564885,-0.416015625,0.0126953125,-0.305908203125,1.496
1.2366412213740459,2.2442748091603053,-0.9770992366412213,-0.41552734375,0.015869140625,-0.307861328125,1.4976999999999998
1.1755725190839694,2.0610687022900764,-1.0229007633587786,-0.41650390625,0.009765625,-0.310546875,1.4993999999999998
1.1603053435114503,1.7557251908396947,-1.0534351145038168,-0.420166015625,0.012451171875,-0.31103515625,1.5010999999999999
1.0076335877862594,1.6946564885496183,-0.9465648854961832,-0.418212890625,0.01220703125,-0.312255859375,1.5028
1.0534351145038168,1.5572519083969465,-0.7786259541984732,-0.41552734375,0.01318359375,-0.3095703125,1.5045
1.2671755725190839,1.7099236641221374,-0.7786259541984732,-0.414794921875,0.0126953125,-0.315185546875,1.5062
1.2366412213740459,1.6488549618320612,-0.7633587786259542,-0.419921875,0.01611328125,-0.302490234375,1.5079
1.1755725190839694,1.4809160305343512,-0.8549618320610687,-0.41943359375,0.01904296875,-0.3046875,1.5095999999999998
1.1145038167938932,1.5725190839694656,-0.6412213740458015,-0.415771484375,0.0126953125,-0.3076171875,1.5112999999999999
1.1908396946564885,1.5725190839694656,-0.5954198473282443,-0.419189453125,0.01123046875,-0.313232421875,1.513
1.1145038167938932,1.5877862595419847,-0.4580152671755725,-0.424560546875,0.012451171875,-0.3076171875,1.5147
1.3282442748091603,1.8931297709923665,-0.732824427480916,-0.423583984375,0.017578125,-0.3115234375,1.5164
1.1755725190839694,1.984732824427481,-0.5190839694656488,-0.425048828125,0.018798828125,-0.31689453125,1.5181
0.9312977099236641,1.8473282442748091,-0.5801526717557252,-0.4248046875,0.01220703125,-0.31591796875,1.5197999999999998
1.1145038167938932,2.183206106870229,-0.3511450381679389,-0.421630859375,0.009521484375,-0.302734375,1.5214999999999999
1.297709923664122,2.2595419847328246,-0.5343511450381679,-0.426025390625,0.015869140625,-0.3134765625,1.5231999999999999
0.9770992366412213,2.4122137404580153,-0.5038167938931297,-0.428955078125,0.014892578125,-0.308837890625,1.5249
0.9618320610687023,2.854961832061069,-0.5954198473282443,-0.42919921875,0.02197265625,-0.31689453125,1.5266
1.2061068702290076,2.7480916030534353,-0.6717557251908397,-0.42822265625,0.015625,-0.30810546875,1.5283
1.083969465648855,2.7938931297709924,-0.8396946564885496,-0.416748046875,0.0126953125,-0.305419921875,1.5299999999999998
0.9770992366412213,3.053435114503817,-0.8396946564885496,-0.42529296875,0.016357421875,-0.314208984375,1.5316999999999998
1.0076335877862594,3.0076335877862594,-0.9770992366412213,-0.42138671875,0.01904296875,-0.31298828125,1.5333999999999999
1.4198473282442747,3.053435114503817,-1.083969465648855,-0.419677734375,0.018798828125,-0.30908203125,1.5351
1.4351145038167938,3.068702290076336,-1.465648854961832,-0.42041015625,0.013916015625,-0.312255859375,1.5368
1.4045801526717556,3.1908396946564888,-1.5725190839694656,-0.4189453125,0.0185546875,-0.305419921875,1.5385
1.3435114503816794,2.9770992366412212,-1.282442748091603,-0.416259765625,0.023193359375,-0.3154296875,1.5402
1.5725190839694656,3.0229007633587788,-1.3740458015267176,-0.417724609375,0.02197265625,-0.313232421875,1.5418999999999998
1.7709923664122138,3.0381679389312977,-1.7251908396946565,-0.416748046875,0.0166015625,-0.314453125,1.5435999999999999
1.465648854961832,2.854961832061069,-1.8015267175572518,-0.4169921875,0.0166015625,-0.31396484375,1.5453
1.786259541984733,2.732824427480916,-1.9236641221374047,-0.419677734375,0.020751953125,-0.310546875,1.547
1.984732824427481,2.50381679389313,-1.7099236641221374,-0.4189453125,0.017578125,-0.310546875,1.5487
2.16793893129771,2.213740458015267,-2.030534351145038,-0.419189453125,0.017578125,-0.315673828125,1.5504
2.2900763358778624,2.2900763358778624,-1.8625954198473282,-0.417724609375,0.0166015625,-0.3115234375,1.5520999999999998
2.381679389312977,1.9083969465648856,-1.9083969465648856,-0.419189453125,0.014892578125,-0.31494140625,1.5537999999999998
2.183206106870229,2.183206106870229,-1.9236641221374047,-0.4189453125,0.01123046875,-0.30615234375,1.5554999999999999
2.2595419847328246,2.0916030534351147,-2.122137404580153,-0.420654296875,0.01025390625,-0.311767578125,1.5572
2.4122137404580153,2.015267175572519,-2.0916030534351147,-0.420654296875,0.013916015625,-0.310791015625,1.5589
2.5801526717557253,2.0610687022900764,-1.9389312977099236,-0.42236328125,0.014892578125,-0.310546875,1.5606
2.595419847328244,2.0763358778625953,-1.9541984732824427,-0.41748046875,0.017333984375,-0.309326171875,1.5623
2.427480916030534,1.9694656488549618,-2.3206106870229006,-0.420166015625,0.012451171875,-0.3173828125,1.5639999999999998
2.381679389312977,2.183206106870229,-2.122137404580153,-0.417236328125,0.011962890625,-0.317138671875,1.5656999999999999
2.2900763358778624,2.0763358778625953,-2.122137404580153,-0.419189453125,0.013916015625,-0.31494140625,1.5674
2.4427480916030535,2.16793893129771,-2.33587786259542,-0.421630859375,0.01513671875,-0.3125,1.5691
2.5343511450381677,2.366412213740458,-2.381679389312977,-0.41796875,0.0166015625,-0.30615234375,1.5708
2.0763358778625953,2.198473282442748,-1.9694656488549618,-0.42041015625,0.015380859375,-0.3125,1.5725
2.1068702290076335,2.198473282442748,-2.0,-0.419921875,0.0126953125,-0.3125,1.5741999999999998
2.045801526717557,2.4732824427480917,-1.9389312977099236,-0.416015625,0.0107421875,-0.3056640625,1.5758999999999999
2.213740458015267,2.3053435114503817,-1.8625954198473282,-0.412841796875,0.012451171875,-0.305419921875,1.5776
2.1526717557251906,2.183206106870229,-1.8015267175572518,-0.411376953125,0.01220703125,-0.31396484375,1.5793
1.9694656488549618,1.9541984732824427,-1.7404580152671756,-0.420166015625,0.00927734375,-0.30517578125,1.581
1.9694656488549618,1.9389312977099236,-1.6946564885496183,-0.4130859375,0.010498046875,-0.313232421875,1.5827
2.0763358778625953,1.9541984732824427,-1.7404580152671756,-0.41845703125,0.014892578125,-0.310791015625,1.5843999999999998
2.030534351145038,1.6641221374045803,-1.5725190839694656,-0.4130859375,0.010009765625,-0.31298828125,1.5860999999999998
1.9389312977099236,1.816793893129771,-1.5877862595419847,-0.412353515625,0.007080078125,-0.31396484375,1.5877999999999999
1.7251908396946565,1.5419847328244274,-1.618320610687023,-0.40966796875,0.01171875,-0.31298828125,1.5895
2.198473282442748,1.2061068702290076,-1.6946564885496183,-0.41015625,0.010009765625,-0.311767578125,1.5912
2.1068702290076335,1.2061068702290076,-1.5877862595419847,-0.41064453125,0.0146484375,-0.312744140625,1.5929
1.816793893129771,1.2366412213740459,-1.9083969465648856,-0.41357421875,0.011962890625,-0.307861328125,1.5946
1.8473282442748091,1.083969465648855,-1.618320610687023,-0.416748046875,0.00927734375,-0.30224609375,1.5962999999999998
1.8625954198473282,0.7786259541984732,-1.7251908396946565,-0.413330078125,0.009033203125,-0.318359375,1.5979999999999999
1.8625954198473282,0.8091603053435115,-1.6641221374045803,-0.419921875,0.012939453125,-0.319091796875,1.5997
1.9236641221374047,0.8244274809160306,-1.6488549618320612,-0.41650390625,0.013671875,-0.31103515625,1.6014
1.6793893129770991,0.6564885496183206,-1.5114503816793894,-0.41748046875,0.0078125,-0.31396484375,1.6031
1.9236641221374047,0.5954198473282443,-1.633587786259542,-0.41455078125,0.014404296875,-0.306396484375,1.6048
1.816793893129771,0.6717557251908397,-1.3587786259541985,-0.41552734375,0.00830078125,-0.3095703125,1.6064999999999998
1.8931297709923665,0.48854961832061067,-1.5572519083969465,-0.41748046875,0.016357421875,-0.3095703125,1.6081999999999999
1.786259541984733,0.6564885496183206,-1.4961832061068703,-0.4208984375,0.009033203125,-0.3115234375,1.6098999999999999
1.4961832061068703,0.6259541984732825,-1.4351145038167938,-0.421142578125,0.011474609375,-0.3115234375,1.6116
1.3587786259541985,0.549618320610687,-1.6488549618320612,-0.416748046875,0.010986328125,-0.303466796875,1.6133
1.5419847328244274,0.7480916030534351,-1.450381679389313,-0.4189453125,0.011962890625,-0.31298828125,1.615
1.4961832061068703,0.9007633587786259,-1.4198473282442747,-0.42138671875,0.01220703125,-0.31201171875,1.6166999999999998
1.2671755725190839,1.0229007633587786,-1.6793893129770991,-0.41650390625,0.009033203125,-0.31884765625,1.6183999999999998
1.450381679389313,0.9770992366412213,-1.4198473282442747,-0.420654296875,0.008544921875,-0.308837890625,1.6200999999999999
1.297709923664122,1.083969465648855,-1.633587786259542,-0.41943359375,0.01025390625,-0.3115234375,1.6218
1.2213740458015268,0.9618320610687023,-1.3740458015267176,-0.413330078125,0.007568359375,-0.311767578125,1.6235
1.297709923664122,0.9007633587786259,-1.3435114503816794,-0.417236328125,0.00927734375,-0.31298828125,1.6252
0.9923664122137404,0.9007633587786259,-1.2061068702290076,-0.41845703125,0.013671875,-0.314697265625,1.6269
1.3435114503816794,0.7938931297709924,-1.3282442748091603,-0.416259765625,0.01611328125,-0.314208984375,1.6285999999999998
1.1450381679389312,0.9007633587786259,-1.297709923664122,-0.416259765625,0.0146484375,-0.313720703125,1.6302999999999999
1.1297709923664123,0.549618320610687,-1.3282442748091603,-0.422607421875,0.01416015625,-0.31884765625,1.632
1.282442748091603,0.5954198473282443,-1.2061068702290076,-0.418701171875,0.009521484375,-0.318115234375,1.6337
1.0534351145038168,0.4580152671755725,-1.3282442748091603,-0.41845703125,0.0107421875,-0.309814453125,1.6354
0.9618320610687023,0.366412213740458,-1.3893129770992367,-0.414306640625,0.015625,-0.302734375,1.6371
1.1450381679389312,0.5801526717557252,-1.3587786259541985,-0.414306640625,0.01171875,-0.3095703125,1.6387999999999998
1.0381679389312977,0.42748091603053434,-1.3740458015267176,-0.424560546875,0.010009765625,-0.3125,1.6404999999999998
1.251908396946565,0.32061068702290074,-1.297709923664122,-0.410400390625,0.014892578125,-0.316162109375,1.6421999999999999
1.251908396946565,0.6106870229007634,-1.2671755725190839,-0.416748046875,0.010498046875,-0.314697265625,1.6439
0.9007633587786259,0.4580152671755725,-1.4351145038167938,-0.416015625,0.012939453125,-0.3125,1.6456
0.8396946564885496,0.4122137404580153,-1.4961832061068703,-0.414794921875,0.01025390625,-0.309814453125,1.6473
0.9465648854961832,0.5038167938931297,-1.465648854961832,-0.421142578125,0.013916015625,-0.313720703125,1.6489999999999998
0.8244274809160306,0.5343511450381679,-1.4351145038167938,-0.415283203125,0.015625,-0.31201171875,1.6506999999999998
1.0534351145038168,0.3053435114503817,-1.4198473282442747,-0.4140625,0.010986328125,-0.3173828125,1.6523999999999999
0.7480916030534351,0.4732824427480916,-1.618320610687023,-0.41845703125,0.0146484375,-0.310791015625,1.6541
0.7633587786259542,0.5954198473282443,-1.6488549618320612,-0.41748046875,0.011474609375,-0.3115234375,1.6558
0.9618320610687023,0.4732824427480916,-1.450381679389313,-0.41552734375,0.01220703125,-0.30517578125,1.6575
0.7022900763358778,0.4580152671755725,-1.3587786259541985,-0.4208984375,0.015625,-0.3125,1.6592
0.6717557251908397,0.5343511450381679,-1.633587786259542,-0.416748046875,0.013671875,-0.31103515625,1.6608999999999998
0.7022900763358778,0.4732824427480916,-1.5725190839694656,-0.418701171875,0.016357421875,-0.304443359375,1.6625999999999999
0.7022900763358778,0.366412213740458,-1.3893129770992367,-0.41943359375,0.014404296875,-0.313720703125,1.6643
0.5801526717557252,0.4732824427480916,-1.5572519083969465,-0.41650390625,0.01416015625,-0.318359375,1.666
0.549618320610687,0.5954198473282443,-1.5725190839694656,-0.411865234375,0.009033203125,-0.3095703125,1.6677
0.7175572519083969,0.3969465648854962,-1.3587786259541985,-0.416259765625,0.013671875,-0.30615234375,1.6694
0.5038167938931297,0.2595419847328244,-1.3740458015267176,-0.420166015625,0.01611328125,-0.3115234375,1.6710999999999998
0.549618320610687,0.2748091603053435,-1.3587786259541985,-0.41845703125,0.016845703125,-0.3076171875,1.6727999999999998
0.6259541984732825,0.24427480916030533,-1.297709923664122,-0.41796875,0.012939453125,-0.314697265625,1.6744999999999999
0.5954198473282443,0.24427480916030533,-1.2213740458015268,-0.417724609375,0.00830078125,-0.306884765625,1.6762
0.549618320610687,0.1984732824427481,-1.3129770992366412,-0.4169921875,0.00830078125,-0.314208984375,1.6779
0.6106870229007634,0.15267175572519084,-1.297709923664122,-0.416748046875,0.011962890625,-0.312744140625,1.6796
0.7480916030534351,0.15267175572519084,-1.4961832061068703,-0.418701171875,0.013671875,-0.309814453125,1.6813
0.6717557251908397,0.030534351145038167,-1.5877862595419847,-0.424072265625,0.012939453125,-0.30859375,1.6829999999999998
0.48854961832061067,0.3053435114503817,-1.3129770992366412,-0.414794921875,0.014892578125,-0.31396484375,1.6846999999999999
0.6412213740458015,0.21374045801526717,-1.251908396946565,-0.419677734375,0.014892578125,-0.309326171875,1.6864
0.42748091603053434,0.3816793893129771,-1.4351145038167938,-0.42333984375,0.01220703125,-0.31298828125,1.6881
0.6259541984732825,0.33587786259541985,-1.2061068702290076,-0.423828125,0.01708984375,-0.31787109375,1.6898
0.33587786259541985,0.3969465648854962,-1.618320610687023,-0.42138671875,0.020263671875,-0.31396484375,1.6915
0.24427480916030533,0.48854961832061067,-1.5725190839694656,-0.421142578125,0.01318359375,-0.31396484375,1.6931999999999998
0.3816793893129771,0.5648854961832062,-1.297709923664122,-0.4228515625,0.011962890625,-0.313232421875,1.6948999999999999
0.4580152671755725,0.6717557251908397,-1.3129770992366412,-0.417236328125,0.017822265625,-0.31201171875,1.6965999999999999
0.4122137404580153,0.6564885496183206,-1.816793893129771,-0.4208984375,0.012451171875,-0.308349609375,1.6983
0.42748091603053434,0.24427480916030533,-1.633587786259542,-0.423095703125,0.013916015625,-0.315185546875,1.7
0.42748091603053434,0.3511450381679389,-1.4809160305343512,-0.412353515625,0.016845703125,-0.31103515625,1.7017
0.5801526717557252,0.6259541984732825,-1.4961832061068703,-0.419921875,0.014404296875,-0.3125,1.7033999999999998
0.7022900763358778,0.5648854961832062,-1.618320610687023,-0.421630859375,0.01611328125,-0.31201171875,1.7050999999999998
0.6412213740458015,0.4580152671755725,-1.6641221374045803,-0.425048828125,0.017822265625,-0.303955078125,1.7067999999999999
0.5648854961832062,0.6259541984732825,-1.6641221374045803,-0.418701171875,0.01513671875,-0.30712890625,1.7085
0.6106870229007634,0.5954198473282443,-1.5267175572519085,-0.419921875,0.015380859375,-0.315185546875,1.7102
0.9312977099236641,0.5801526717557252,-1.7709923664122138,-0.420166015625,0.018310546875,-0.31640625,1.7119
0.7938931297709924,0.5801526717557252,-1.5267175572519085,-0.425048828125,0.019775390625,-0.304931640625,1.7136
0.6870229007633588,0.5343511450381679,-1.5419847328244274,-0.423828125,0.018310546875,-0.30712890625,1.7152999999999998
0.8702290076335878,0.44274809160305345,-1.6641221374045803,-0.423583984375,0.017333984375,-0.30908203125,1.7169999999999999
0.6717557251908397,0.5038167938931297,-1.8015267175572518,-0.41845703125,0.018798828125,-0.3173828125,1.7187
0.916030534351145,0.4732824427480916,-1.6488549618320612,-0.42041015625,0.01611328125,-0.310546875,1.7204
0.8396946564885496,0.5190839694656488,-1.5725190839694656,-0.421142578125,0.014404296875,-0.30712890625,1.7221
0.5190839694656488,0.5343511450381679,-1.6488549618320612,-0.420654296875,0.014404296875,-0.3095703125,1.7238
0.6870229007633588,0.6412213740458015,-1.6488549618320612,-0.4208984375,0.01171875,-0.31640625,1.7254999999999998
0.916030534351145,0.8091603053435115,-1.7099236641221374,-0.419677734375,0.01171875,-0.310302734375,1.7271999999999998
0.7938931297709924,0.7633587786259542,-1.8473282442748091,-0.420166015625,0.016357421875,-0.30859375,1.7288999999999999
0.7022900763358778,0.6870229007633588,-1.5725190839694656,-0.41943359375,0.012939453125,-0.30810546875,1.7306
0.9923664122137404,0.8702290076335878,-1.8778625954198473,-0.416015625,0.0126953125,-0.3125,1.7323
0.8854961832061069,0.9465648854961832,-1.8931297709923665,-0.417236328125,0.013916015625,-0.309326171875,1.734
0.8396946564885496,0.9007633587786259,-1.9083969465648856,-0.422119140625,0.013427734375,-0.31396484375,1.7356999999999998
1.0229007633587786,0.6106870229007634,-1.7557251908396947,-0.420654296875,0.016357421875,-0.314697265625,1.7373999999999998
0.7175572519083969,0.44274809160305345,-1.7099236641221374,-0.4208984375,0.013916015625,-0.30712890625,1.7390999999999999
0.8854961832061069,0.48854961832061067,-1.6488549618320612,-0.420166015625,0.017822265625,-0.310546875,1.7408
1.1450381679389312,0.4580152671755725,-1.6793893129770991,-0.4208984375,0.0126953125,-0.31005859375,1.7425
0.9923664122137404,0.4732824427480916,-1.4198473282442747,-0.418212890625,0.015625,-0.306640625,1.7442
1.1450381679389312,0.42748091603053434,-1.4198473282442747,-0.420166015625,0.013427734375,-0.304443359375,1.7459
1.1145038167938932,0.3816793893129771,-1.3587786259541985,-0.42138671875,0.010498046875,-0.31103515625,1.7475999999999998
0.9312977099236641,0.4732824427480916,-1.2061068702290076,-0.418212890625,0.010986328125,-0.31201171875,1.7492999999999999
1.1145038167938932,0.3969465648854962,-1.3587786259541985,-0.41552734375,0.013671875,-0.30810546875,1.751
1.0076335877862594,0.5954198473282443,-1.4809160305343512,-0.414306640625,0.01123046875,-0.31298828125,1.7527
1.099236641221374,0.6259541984732825,-1.3435114503816794,-0.420166015625,0.01416015625,-0.30712890625,1.7544
1.0229007633587786,0.6564885496183206,-1.2061068702290076,-0.419921875,0.0146484375,-0.308349609375,1.7561
0.9007633587786259,0.5190839694656488,-1.1755725190839694,-0.41650390625,0.0107421875,-0.298583984375,1.7577999999999998
1.099236641221374,0.2595419847328244,-1.1603053435114503,-0.416015625,0.013671875,-0.31640625,1.7594999999999998
0.9618320610687023,-0.015267175572519083,-1.5114503816793894,-0.416748046875,0.01416015625,-0.31103515625,1.7611999999999999
0.9618320610687023,-0.16793893129770993,-1.3893129770992367,-0.414306640625,0.014892578125,-0.303955078125,1.7629
0.9312977099236641,-0.5343511450381679,-0.9465648854961832,-0.41796875,0.00927734375,-0.309326171875,1.7646
1.0687022900763359,-0.8091603053435115,-1.2366412213740459,-0.415771484375,0.013671875,-0.30322265625,1.7663
1.1908396946564885,-0.5190839694656488,-1.251908396946565,-0.413330078125,0.012939453125,-0.317626953125,1.7679999999999998
1.1755725190839694,-0.4732824427480916,-1.3435114503816794,-0.419189453125,0.017578125,-0.310546875,1.7696999999999998
1.282442748091603,-0.32061068702290074,-1.2213740458015268,-0.41455078125,0.01220703125,-0.308837890625,1.7713999999999999
1.1603053435114503,-0.24427480916030533,-1.4045801526717556,-0.410888671875,0.012939453125,-0.314453125,1.7731
1.3893129770992367,-0.2748091603053435,-1.2671755725190839,-0.41796875,0.01513671875,-0.310791015625,1.7748
1.3282442748091603,-0.3969465648854962,-1.6641221374045803,-0.41259765625,0.015380859375,-0.308837890625,1.7765
1.4961832061068703,-0.6412213740458015,-1.5877862595419847,-0.415771484375,0.011474609375,-0.31884765625,1.7782
1.465648854961832,-1.0381679389312977,-1.8015267175572518,-0.417724609375,0.013916015625,-0.313720703125,1.7798999999999998
1.3740458015267176,-1.1755725190839694,-1.786259541984733,-0.417236328125,0.014404296875,-0.30517578125,1.7815999999999999
1.5419847328244274,-1.1297709923664123,-1.9541984732824427,-0.4150390625,0.021240234375,-0.3056640625,1.7832999999999999
1.8473282442748091,-1.1603053435114503,-1.9083969465648856,-0.41748046875,0.0166015625,-0.30322265625,1.785
1.8931297709923665,-1.1755725190839694,-2.0916030534351147,-0.414306640625,0.01416015625,-0.303466796875,1.7867
2.1526717557251906,-1.3282442748091603,-1.7404580152671756,-0.416748046875,0.01708984375,-0.311767578125,1.7884
1.9541984732824427,-1.3435114503816794,-1.9541984732824427,-0.416015625,0.013427734375,-0.306884765625,1.7900999999999998
1.9541984732824427,-1.282442748091603,-1.8473282442748091,-0.417724609375,0.018798828125,-0.3134765625,1.7917999999999998
2.045801526717557,-1.1755725190839694,-1.8473282442748091,-0.4111328125,0.015380859375,-0.3125,1.7934999999999999
2.183206106870229,-1.4198473282442747,-1.83206106870229,-0.414306640625,0.015869140625,-0.31103515625,1.7952
2.2290076335877864,-1.816793893129771,-1.786259541984733,-0.418701171875,0.015869140625,-0.31787109375,1.7969
2.1068702290076335,-1.8778625954198473,-1.8931297709923665,-0.41015625,0.014892578125,-0.307861328125,1.7986
2.045801526717557,-2.045801526717557,-1.984732824427481,-0.415771484375,0.0146484375,-0.3173828125,1.8002999999999998
