gyrox1,gyroy1,gyroz1,accelx1,accely1,accelz1,Time
-0.24427480916030533,1.282442748091603,-1.8778625954198473,0.04248046875,-0.12890625,-0.60302734375,0.0
-0.2595419847328244,1.297709923664122,-1.7099236641221374,0.04833984375,-0.125,-0.60595703125,0.0017
-0.183206106870229,1.2671755725190839,-1.9236641221374047,0.047607421875,-0.12548828125,-0.603515625,0.0034
-0.10687022900763359,1.2213740458015268,-1.984732824427481,0.046142578125,-0.124755859375,-0.599853515625,0.0050999999999999995
0.0,1.282442748091603,-1.9389312977099236,0.048583984375,-0.12451171875,-0.60595703125,0.0068
-0.061068702290076333,1.1755725190839694,-1.9236641221374047,0.05029296875,-0.125244140625,-0.60546875,0.008499999999999999
0.16793893129770993,1.2061068702290076,-1.786259541984733,0.048828125,-0.12841796875,-0.602783203125,0.010199999999999999
0.3053435114503817,1.251908396946565,-1.6946564885496183,0.047607421875,-0.12451171875,-0.59814453125,0.011899999999999999
0.42748091603053434,1.3282442748091603,-1.7251908396946565,0.04345703125,-0.13037109375,-0.599365234375,0.0136
0.6564885496183206,1.3129770992366412,-1.5572519083969465,0.04345703125,-0.128662109375,-0.60302734375,0.0153
0.7786259541984732,1.450381679389313,-1.7099236641221374,0.0478515625,-0.130615234375,-0.602783203125,0.016999999999999998
0.5801526717557252,1.1450381679389312,-1.6488549618320612,0.047119140625,-0.12841796875,-0.602294921875,0.018699999999999998
0.8244274809160306,1.2366412213740459,-1.7251908396946565,0.04736328125,-0.1337890625,-0.60400390625,0.020399999999999998
0.9923664122137404,1.3740458015267176,-1.633587786259542,0.043212890625,-0.12451171875,-0.597412109375,0.022099999999999998
1.0534351145038168,1.3893129770992367,-1.5725190839694656,0.047607421875,-0.1318359375,-0.597412109375,0.023799999999999998
1.0687022900763359,1.2213740458015268,-1.6488549618320612,0.04345703125,-0.126708984375,-0.591064453125,0.0255
1.099236641221374,1.2671755725190839,-1.6641221374045803,0.046630859375,-0.1337890625,-0.607666015625,0.0272
1.2671755725190839,1.2213740458015268,-1.5877862595419847,0.0458984375,-0.1318359375,-0.589111328125,0.0289
1.1908396946564885,1.083969465648855,-1.5419847328244274,0.048095703125,-0.1357421875,-0.594970703125,0.0306
1.1908396946564885,1.083969465648855,-1.633587786259542,0.04833984375,-0.13720703125,-0.60009765625,0.032299999999999995
1.1755725190839694,1.1297709923664123,-1.8931297709923665,0.0517578125,-0.133056640625,-0.60302734375,0.033999999999999996
1.1603053435114503,0.916030534351145,-1.7099236641221374,0.046630859375,-0.131591796875,-0.598388671875,0.035699999999999996
1.1908396946564885,0.7938931297709924,-1.6946564885496183,0.0498046875,-0.1337890625,-0.6015625,0.037399999999999996
0.9770992366412213,0.8091603053435115,-1.8015267175572518,0.051513671875,-0.1357421875,-0.60009765625,0.039099999999999996
1.0076335877862594,0.6717557251908397,-1.816793893129771,0.048095703125,-0.1328125,-0.5947265625,0.040799999999999996
0.9312977099236641,0.6259541984732825,-2.0,0.046630859375,-0.136962890625,-0.596923828125,0.042499999999999996
0.732824427480916,0.6717557251908397,-2.122137404580153,0.046142578125,-0.13623046875,-0.593994140625,0.044199999999999996
0.8854961832061069,0.33587786259541985,-1.786259541984733,0.048583984375,-0.13818359375,-0.60302734375,0.045899999999999996
0.3969465648854962,0.24427480916030533,-2.122137404580153,0.047607421875,-0.1376953125,-0.606201171875,0.047599999999999996
0.21374045801526717,0.22900763358778625,-1.984732824427481,0.05224609375,-0.13720703125,-0.59716796875,0.0493
0.061068702290076333,0.0916030534351145,-2.1374045801526718,0.0498046875,-0.137939453125,-0.597900390625,0.051
-0.12213740458015267,-0.061068702290076333,-2.0763358778625953,0.0498046875,-0.13720703125,-0.5966796875,0.0527
-0.4580152671755725,-0.3053435114503817,-2.183206106870229,0.048095703125,-0.1435546875,-0.591552734375,0.0544
-0.3816793893129771,-0.3053435114503817,-2.33587786259542,0.046142578125,-0.134033203125,-0.599609375,0.0561
-0.5648854961832062,-0.4732824427480916,-2.33587786259542,0.050537109375,-0.14208984375,-0.598876953125,0.0578
-0.8396946564885496,-0.6259541984732825,-2.1526717557251906,0.0498046875,-0.140869140625,-0.5927734375,0.0595
-0.9007633587786259,-0.6106870229007634,-2.2900763358778624,0.0458984375,-0.13232421875,-0.593017578125,0.0612
-1.0229007633587786,-0.7633587786259542,-2.3206106870229006,0.046630859375,-0.135009765625,-0.6005859375,0.0629
-1.1908396946564885,-0.8702290076335878,-2.564885496183206,0.051025390625,-0.134521484375,-0.603271484375,0.06459999999999999
-1.5725190839694656,-0.8549618320610687,-2.4732824427480917,0.0517578125,-0.130615234375,-0.594970703125,0.0663
-1.7557251908396947,-1.0381679389312977,-2.549618320610687,0.049072265625,-0.1376953125,-0.606689453125,0.06799999999999999
-1.816793893129771,-1.083969465648855,-2.564885496183206,0.05078125,-0.139892578125,-0.59619140625,0.0697
-1.9083969465648856,-1.251908396946565,-2.7786259541984735,0.049072265625,-0.132080078125,-0.59130859375,0.07139999999999999
-2.0916030534351147,-1.297709923664122,-2.595419847328244,0.049072265625,-0.13427734375,-0.60009765625,0.0731
-2.0610687022900764,-1.3740458015267176,-2.763358778625954,0.047607421875,-0.13134765625,-0.604248046875,0.07479999999999999
-2.122137404580153,-1.5725190839694656,-2.8091603053435112,0.04345703125,-0.134033203125,-0.5927734375,0.0765
-2.3053435114503817,-1.6641221374045803,-2.885496183206107,0.048828125,-0.1328125,-0.598388671875,0.07819999999999999
-2.183206106870229,-1.5877862595419847,-2.7480916030534353,0.044921875,-0.134033203125,-0.587158203125,0.0799
-2.3206106870229006,-1.7709923664122138,-2.8396946564885495,0.044189453125,-0.132568359375,-0.59716796875,0.08159999999999999
-2.381679389312977,-2.1374045801526718,-2.885496183206107,0.052978515625,-0.1328125,-0.593505859375,0.0833
-2.3969465648854964,-1.9694656488549618,-2.9618320610687023,0.047119140625,-0.1298828125,-0.591552734375,0.08499999999999999
-2.351145038167939,-1.8473282442748091,-2.8396946564885495,0.0498046875,-0.131591796875,-0.5927734375,0.0867
-2.50381679389313,-2.1374045801526718,-2.9160305343511452,0.049560546875,-0.13330078125,-0.5927734375,0.08839999999999999
-2.50381679389313,-2.1068702290076335,-2.7022900763358777,0.053955078125,-0.1318359375,-0.593017578125,0.0901
-2.5343511450381677,-2.0916030534351147,-2.7022900763358777,0.05224609375,-0.128662109375,-0.591064453125,0.09179999999999999
-2.381679389312977,-2.122137404580153,-2.549618320610687,0.052734375,-0.1318359375,-0.59375,0.0935
-2.2595419847328246,-2.0763358778625953,-2.732824427480916,0.048583984375,-0.1279296875,-0.59228515625,0.09519999999999999
-2.0610687022900764,-2.2442748091603053,-2.7022900763358777,0.045654296875,-0.134521484375,-0.59326171875,0.0969
-2.0916030534351147,-2.381679389312977,-2.885496183206107,0.04638671875,-0.1318359375,-0.592041015625,0.0986
-1.7404580152671756,-2.366412213740458,-2.8244274809160306,0.045166015625,-0.134765625,-0.599609375,0.1003
-1.6030534351145038,-2.3969465648854964,-2.8244274809160306,0.048583984375,-0.13232421875,-0.5888671875,0.102
-1.7251908396946565,-2.4732824427480917,-2.7938931297709924,0.048583984375,-0.134765625,-0.587890625,0.1037
-1.4045801526717556,-2.549618320610687,-3.1755725190839694,0.04931640625,-0.133056640625,-0.59423828125,0.1054
-1.3587786259541985,-2.5801526717557253,-3.053435114503817,0.052978515625,-0.132080078125,-0.5888671875,0.1071
-1.2671755725190839,-2.7480916030534353,-3.0229007633587788,0.045654296875,-0.132568359375,-0.587646484375,0.1088
-1.1755725190839694,-2.6564885496183206,-3.0076335877862594,0.04833984375,-0.12890625,-0.593505859375,0.11049999999999999
-0.9465648854961832,-2.763358778625954,-3.2519083969465647,0.05078125,-0.1298828125,-0.590087890625,0.1122
-1.1450381679389312,-2.8244274809160306,-3.1755725190839694,0.0517578125,-0.1298828125,-0.58447265625,0.11389999999999999
-1.1908396946564885,-2.7022900763358777,-3.2977099236641223,0.048828125,-0.1337890625,-0.583984375,0.1156
-0.9465648854961832,-2.931297709923664,-3.2213740458015265,0.046875,-0.125,-0.59375,0.11729999999999999
-1.1145038167938932,-2.9770992366412212,-3.114503816793893,0.049560546875,-0.12841796875,-0.5947265625,0.119
-1.282442748091603,-2.9160305343511452,-3.2977099236641223,0.05224609375,-0.13427734375,-0.587890625,0.12069999999999999
-1.0534351145038168,-2.946564885496183,-3.3587786259541983,0.0556640625,-0.12744140625,-0.597412109375,0.1224
-1.0381679389312977,-2.8396946564885495,-3.3435114503816794,0.0556640625,-0.134033203125,-0.591796875,0.12409999999999999
-1.0687022900763359,-2.8396946564885495,-3.480916030534351,0.049560546875,-0.130126953125,-0.5888671875,0.1258
-1.0534351145038168,-3.053435114503817,-3.3740458015267176,0.053466796875,-0.134765625,-0.587158203125,0.1275
-1.1603053435114503,-2.9923664122137406,-3.2977099236641223,0.05322265625,-0.134033203125,-0.579833984375,0.12919999999999998
-0.9618320610687023,-2.8244274809160306,-3.3587786259541983,0.054931640625,-0.13525390625,-0.588134765625,0.1309
-0.916030534351145,-2.9770992366412212,-3.5114503816793894,0.052978515625,-0.134033203125,-0.587158203125,0.1326
-0.8396946564885496,-2.9770992366412212,-3.2519083969465647,0.053955078125,-0.13330078125,-0.5908203125,0.1343
-0.7938931297709924,-2.8702290076335877,-3.3435114503816794,0.053466796875,-0.132568359375,-0.588623046875,0.13599999999999998
-0.8244274809160306,-3.0839694656488548,-3.435114503816794,0.0517578125,-0.130615234375,-0.591064453125,0.1377
-0.8549618320610687,-2.931297709923664,-3.5572519083969465,0.054931640625,-0.1298828125,-0.590576171875,0.1394
-0.9007633587786259,-2.9770992366412212,-3.3282442748091605,0.05322265625,-0.128662109375,-0.59375,0.1411
-0.6564885496183206,-2.8091603053435112,-3.4198473282442747,0.052734375,-0.13134765625,-0.60791015625,0.14279999999999998
-0.8396946564885496,-2.9923664122137406,-3.312977099236641,0.053466796875,-0.131103515625,-0.59130859375,0.1445
-0.8396946564885496,-2.8244274809160306,-3.1755725190839694,0.051513671875,-0.129638671875,-0.600830078125,0.1462
-0.7480916030534351,-2.854961832061069,-3.114503816793893,0.053955078125,-0.127197265625,-0.596435546875,0.1479
-0.6564885496183206,-2.7938931297709924,-3.1755725190839694,0.05517578125,-0.130859375,-0.58837890625,0.14959999999999998
-0.5343511450381679,-2.595419847328244,-2.8091603053435112,0.051025390625,-0.129638671875,-0.597900390625,0.1513
-0.6259541984732825,-2.687022900763359,-2.8396946564885495,0.04931640625,-0.124755859375,-0.600830078125,0.153
-0.5343511450381679,-2.6106870229007635,-2.6717557251908395,0.052490234375,-0.12939453125,-0.6005859375,0.1547
-0.3969465648854962,-2.4885496183206106,-2.5343511450381677,0.054931640625,-0.12841796875,-0.5947265625,0.15639999999999998
-0.32061068702290074,-2.2595419847328246,-2.2748091603053435,0.0556640625,-0.1279296875,-0.59912109375,0.1581
-0.3816793893129771,-2.2900763358778624,-2.1068702290076335,0.05078125,-0.130126953125,-0.58935546875,0.1598
-0.2748091603053435,-2.3053435114503817,-1.9694656488549618,0.04833984375,-0.1328125,-0.591064453125,0.1615
-0.183206106870229,-2.122137404580153,-1.8931297709923665,0.0546875,-0.1337890625,-0.593505859375,0.16319999999999998
-0.13740458015267176,-2.030534351145038,-2.015267175572519,0.0546875,-0.13330078125,-0.5986328125,0.1649
-0.015267175572519083,-2.1068702290076335,-1.7099236641221374,0.053955078125,-0.130615234375,-0.59423828125,0.1666
0.0916030534351145,-2.2595419847328246,-1.5725190839694656,0.05322265625,-0.131591796875,-0.602783203125,0.16829999999999998
0.12213740458015267,-2.1068702290076335,-1.7404580152671756,0.0478515625,-0.134033203125,-0.6064453125,0.16999999999999998
0.07633587786259542,-2.0610687022900764,-1.633587786259542,0.052490234375,-0.131103515625,-0.59521484375,0.1717
0.2748091603053435,-2.198473282442748,-1.6030534351145038,0.054443359375,-0.135498046875,-0.598388671875,0.1734
0.2595419847328244,-2.0,-1.6488549618320612,0.050048828125,-0.1328125,-0.598876953125,0.17509999999999998
0.3053435114503817,-2.16793893129771,-1.6488549618320612,0.04931640625,-0.134521484375,-0.586181640625,0.17679999999999998
0.32061068702290074,-2.122137404580153,-1.6488549618320612,0.050537109375,-0.137451171875,-0.589599609375,0.1785
0.183206106870229,-2.16793893129771,-1.5725190839694656,0.0615234375,-0.132568359375,-0.598388671875,0.1802
0.32061068702290074,-2.0763358778625953,-1.5877862595419847,0.054443359375,-0.135009765625,-0.593017578125,0.18189999999999998
0.366412213740458,-2.045801526717557,-1.5572519083969465,0.046630859375,-0.1376953125,-0.586181640625,0.18359999999999999
0.5038167938931297,-2.030534351145038,-1.633587786259542,0.056640625,-0.135009765625,-0.5869140625,0.1853
0.8244274809160306,-1.9541984732824427,-1.450381679389313,0.0556640625,-0.138427734375,-0.58935546875,0.187
0.5801526717557252,-1.8473282442748091,-1.450381679389313,0.0537109375,-0.129150390625,-0.58984375,0.18869999999999998
0.7938931297709924,-1.8625954198473282,-1.9236641221374047,0.05322265625,-0.136474609375,-0.60546875,0.19039999999999999
1.0687022900763359,-1.786259541984733,-1.6946564885496183,0.056396484375,-0.13330078125,-0.59375,0.1921
0.9007633587786259,-1.4809160305343512,-1.4961832061068703,0.053466796875,-0.13134765625,-0.596923828125,0.1938
1.2366412213740459,-1.618320610687023,-1.5267175572519085,0.048095703125,-0.135986328125,-0.596923828125,0.19549999999999998
1.3587786259541985,-1.3740458015267176,-1.6641221374045803,0.05712890625,-0.134765625,-0.593505859375,0.1972
1.4198473282442747,-1.282442748091603,-1.6793893129770991,0.05615234375,-0.13916015625,-0.59619140625,0.1989
1.3587786259541985,-1.3129770992366412,-1.6488549618320612,0.04931640625,-0.131591796875,-0.610595703125,0.2006
1.5572519083969465,-1.4809160305343512,-1.7099236641221374,0.049072265625,-0.1337890625,-0.59619140625,0.20229999999999998
1.450381679389313,-1.1297709923664123,-1.7404580152671756,0.04638671875,-0.135986328125,-0.600341796875,0.204
1.633587786259542,-0.9923664122137404,-1.7557251908396947,0.05078125,-0.133544921875,-0.596435546875,0.2057
1.7251908396946565,-0.8854961832061069,-1.8015267175572518,0.0478515625,-0.127197265625,-0.602783203125,0.2074
1.618320610687023,-0.9007633587786259,-1.7099236641221374,0.04931640625,-0.12890625,-0.6025390625,0.20909999999999998
1.7251908396946565,-0.5343511450381679,-1.83206106870229,0.05419921875,-0.135986328125,-0.61083984375,0.2108
1.8625954198473282,-0.48854961832061067,-1.9236641221374047,0.047119140625,-0.131103515625,-0.605224609375,0.2125
1.984732824427481,-0.4122137404580153,-2.1374045801526718,0.0498046875,-0.134033203125,-0.606201171875,0.2142
1.83206106870229,-0.07633587786259542,-2.0763358778625953,0.046142578125,-0.134765625,-0.599853515625,0.21589999999999998
1.7099236641221374,-0.183206106870229,-2.0763358778625953,0.05517578125,-0.13818359375,-0.60400390625,0.2176
1.984732824427481,0.0916030534351145,-2.183206106870229,0.043212890625,-0.134033203125,-0.609375,0.2193
1.984732824427481,0.10687022900763359,-2.1374045801526718,0.04833984375,-0.13623046875,-0.598388671875,0.22099999999999997
1.8625954198473282,0.2900763358778626,-2.3206106870229006,0.045654296875,-0.13525390625,-0.607666015625,0.22269999999999998
2.198473282442748,0.48854961832061067,-2.351145038167939,0.046875,-0.133056640625,-0.607177734375,0.2244
1.9694656488549618,0.549618320610687,-2.2748091603053435,0.04541015625,-0.12890625,-0.60791015625,0.2261
1.83206106870229,0.6259541984732825,-2.50381679389313,0.044677734375,-0.138916015625,-0.6064453125,0.22779999999999997
1.9694656488549618,0.7175572519083969,-2.2748091603053435,0.05078125,-0.140380859375,-0.6005859375,0.22949999999999998
2.015267175572519,0.8549618320610687,-2.4122137404580153,0.04833984375,-0.14306640625,-0.60888671875,0.2312
1.8625954198473282,1.1755725190839694,-2.50381679389313,0.046875,-0.134033203125,-0.608154296875,0.2329
2.045801526717557,1.2366412213740459,-2.427480916030534,0.048095703125,-0.132568359375,-0.60205078125,0.23459999999999998
1.786259541984733,1.3740458015267176,-2.3206106870229006,0.04736328125,-0.137451171875,-0.606201171875,0.23629999999999998
1.297709923664122,1.282442748091603,-2.427480916030534,0.052490234375,-0.13916015625,-0.607177734375,0.238
1.3129770992366412,1.5572519083969465,-2.4885496183206106,0.04833984375,-0.135986328125,-0.6044921875,0.2397
1.3587786259541985,1.7404580152671756,-2.4427480916030535,0.0478515625,-0.13427734375,-0.60205078125,0.24139999999999998
0.8854961832061069,1.83206106870229,-2.6106870229007635,0.051025390625,-0.13720703125,-0.602783203125,0.24309999999999998
0.8244274809160306,1.8625954198473282,-2.50381679389313,0.045166015625,-0.131591796875,-0.6025390625,0.2448
0.7480916030534351,2.1068702290076335,-2.595419847328244,0.046630859375,-0.134521484375,-0.598388671875,0.2465
0.8244274809160306,2.16793893129771,-2.6412213740458017,0.04443359375,-0.12939453125,-0.60107421875,0.24819999999999998
0.5954198473282443,2.3969465648854964,-2.732824427480916,0.05078125,-0.13037109375,-0.606201171875,0.24989999999999998
0.7022900763358778,2.3053435114503817,-2.5801526717557253,0.046142578125,-0.131103515625,-0.6025390625,0.2516
0.5648854961832062,2.4885496183206106,-2.7938931297709924,0.04833984375,-0.133544921875,-0.604736328125,0.25329999999999997
0.7633587786259542,2.8091603053435112,-2.7938931297709924,0.048095703125,-0.1328125,-0.603759765625,0.255
1.1145038167938932,2.732824427480916,-2.946564885496183,0.052001953125,-0.1318359375,-0.60888671875,0.2567
1.1603053435114503,2.8396946564885495,-2.763358778625954,0.044189453125,-0.13037109375,-0.603759765625,0.25839999999999996
1.282442748091603,2.900763358778626,-2.931297709923664,0.045654296875,-0.13427734375,-0.6083984375,0.2601
1.5114503816793894,2.946564885496183,-2.8244274809160306,0.0498046875,-0.130615234375,-0.603515625,0.2618
1.5419847328244274,2.9618320610687023,-3.1755725190839694,0.046142578125,-0.13134765625,-0.603271484375,0.2635
1.6030534351145038,2.946564885496183,-2.946564885496183,0.04833984375,-0.131103515625,-0.600341796875,0.2652
1.7557251908396947,3.1297709923664123,-3.053435114503817,0.044921875,-0.130859375,-0.598876953125,0.26689999999999997
1.5877862595419847,3.236641221374046,-3.2061068702290076,0.048583984375,-0.13671875,-0.607421875,0.2686
1.7099236641221374,3.435114503816794,-3.068702290076336,0.0537109375,-0.133056640625,-0.60546875,0.2703
1.83206106870229,3.435114503816794,-2.900763358778626,0.052734375,-0.13232421875,-0.6025390625,0.27199999999999996
1.8778625954198473,3.3282442748091605,-3.1908396946564888,0.04736328125,-0.135009765625,-0.603515625,0.2737
2.0,3.5114503816793894,-3.0229007633587788,0.056396484375,-0.125,-0.60595703125,0.2754
2.0763358778625953,4.0,-3.099236641221374,0.052978515625,-0.126953125,-0.608642578125,0.27709999999999996
1.8931297709923665,3.984732824427481,-3.0076335877862594,0.047119140625,-0.131103515625,-0.60791015625,0.2788
1.984732824427481,3.6030534351145036,-3.0229007633587788,0.052734375,-0.130126953125,-0.596435546875,0.28049999999999997
2.0916030534351147,3.7404580152671754,-2.900763358778626,0.055908203125,-0.129638671875,-0.600830078125,0.2822
2.16793893129771,3.7557251908396947,-2.946564885496183,0.0517578125,-0.135986328125,-0.60302734375,0.2839
2.1374045801526718,3.816793893129771,-2.717557251908397,0.049072265625,-0.1318359375,-0.597412109375,0.28559999999999997
2.33587786259542,3.9236641221374047,-2.717557251908397,0.05322265625,-0.134765625,-0.598876953125,0.2873
2.198473282442748,3.8625954198473282,-2.6564885496183206,0.046875,-0.1298828125,-0.60498046875,0.289
2.427480916030534,3.8931297709923665,-2.5801526717557253,0.057373046875,-0.13232421875,-0.607666015625,0.29069999999999996
2.6106870229007635,3.801526717557252,-2.2748091603053435,0.052490234375,-0.1318359375,-0.607421875,0.2924
2.4580152671755724,3.83206106870229,-2.2900763358778624,0.051513671875,-0.12744140625,-0.60693359375,0.2941
2.6106870229007635,3.801526717557252,-2.2442748091603053,0.054443359375,-0.13232421875,-0.597412109375,0.2958
2.381679389312977,3.969465648854962,-2.2442748091603053,0.0537109375,-0.12548828125,-0.602783203125,0.2975
2.381679389312977,3.7557251908396947,-2.1374045801526718,0.055419921875,-0.13427734375,-0.604736328125,0.29919999999999997
2.381679389312977,3.9236641221374047,-2.1374045801526718,0.051025390625,-0.133056640625,-0.604248046875,0.3009
2.5801526717557253,3.801526717557252,-1.9541984732824427,0.05224609375,-0.131591796875,-0.60009765625,0.3026
2.4122137404580153,3.7709923664122136,-1.984732824427481,0.05224609375,-0.126953125,-0.597412109375,0.30429999999999996
2.4122137404580153,3.572519083969466,-1.816793893129771,0.048583984375,-0.12890625,-0.60595703125,0.306
2.4885496183206106,3.5114503816793894,-1.786259541984733,0.05224609375,-0.133056640625,-0.601318359375,0.3077
2.4427480916030535,3.3893129770992365,-1.6030534351145038,0.052490234375,-0.127685546875,-0.603759765625,0.3094
2.3969465648854964,3.2977099236641223,-1.5419847328244274,0.051025390625,-0.13623046875,-0.60205078125,0.3111
2.3206106870229006,3.404580152671756,-1.4961832061068703,0.05419921875,-0.124755859375,-0.596435546875,0.31279999999999997
2.3053435114503817,3.3740458015267176,-1.5725190839694656,0.055908203125,-0.125732421875,-0.6025390625,0.3145
2.33587786259542,3.2977099236641223,-1.3129770992366412,0.056396484375,-0.129638671875,-0.6044921875,0.3162
2.2442748091603053,3.145038167938931,-1.4198473282442747,0.052978515625,-0.12646484375,-0.60693359375,0.31789999999999996
2.0916030534351147,3.1908396946564888,-1.2213740458015268,0.05224609375,-0.132080078125,-0.6015625,0.3196
1.984732824427481,2.900763358778626,-1.1450381679389312,0.053466796875,-0.134033203125,-0.603271484375,0.3213
2.1068702290076335,2.885496183206107,-1.0076335877862594,0.04736328125,-0.132080078125,-0.607177734375,0.323
2.045801526717557,3.114503816793893,-1.1908396946564885,0.0478515625,-0.129150390625,-0.599609375,0.3247
2.015267175572519,2.9618320610687023,-0.9923664122137404,0.04833984375,-0.12890625,-0.60498046875,0.32639999999999997
1.9541984732824427,2.854961832061069,-1.1450381679389312,0.0498046875,-0.12744140625,-0.609619140625,0.3281
1.6488549618320612,2.7022900763358777,-1.0534351145038168,0.053955078125,-0.12939453125,-0.60107421875,0.3298
1.7099236641221374,2.7480916030534353,-1.0534351145038168,0.051513671875,-0.13330078125,-0.602294921875,0.33149999999999996
1.6946564885496183,2.6259541984732824,-1.1450381679389312,0.051513671875,-0.1337890625,-0.604248046875,0.3332
1.297709923664122,2.549618320610687,-1.2366412213740459,0.05126953125,-0.132080078125,-0.6064453125,0.3349
1.282442748091603,2.4580152671755724,-1.099236641221374,0.052490234375,-0.131591796875,-0.597900390625,0.33659999999999995
1.251908396946565,2.2442748091603053,-1.2213740458015268,0.0478515625,-0.132568359375,-0.603271484375,0.3383
1.099236641221374,2.2900763358778624,-1.1603053435114503,0.042724609375,-0.13330078125,-0.60693359375,0.33999999999999997
0.8396946564885496,2.3206106870229006,-1.4809160305343512,0.045654296875,-0.132080078125,-0.603759765625,0.3417
0.8702290076335878,2.2900763358778624,-1.3435114503816794,0.05029296875,-0.134521484375,-0.60888671875,0.3434
0.9312977099236641,2.1526717557251906,-1.465648854961832,0.04833984375,-0.130859375,-0.608642578125,0.34509999999999996
0.6106870229007634,2.1374045801526718,-1.4198473282442747,0.048583984375,-0.134521484375,-0.6044921875,0.3468
0.549618320610687,1.8625954198473282,-1.465648854961832,0.046630859375,-0.133544921875,-0.605224609375,0.3485
0.3969465648854962,1.7251908396946565,-1.618320610687023,0.048095703125,-0.130126953125,-0.61279296875,0.35019999999999996
0.7480916030534351,1.7404580152671756,-1.6946564885496183,0.05029296875,-0.12744140625,-0.599609375,0.3519
0.48854961832061067,1.6488549618320612,-1.6488549618320612,0.04638671875,-0.131591796875,-0.602783203125,0.35359999999999997
0.12213740458015267,1.5877862595419847,-1.618320610687023,0.04833984375,-0.129150390625,-0.596435546875,0.3553
0.13740458015267176,1.4198473282442747,-1.618320610687023,0.05126953125,-0.131103515625,-0.60595703125,0.357
0.32061068702290074,1.282442748091603,-2.0,0.046142578125,-0.12890625,-0.607177734375,0.35869999999999996
0.0916030534351145,1.1908396946564885,-1.816793893129771,0.046875,-0.13232421875,-0.607177734375,0.3604
0.183206106870229,1.1603053435114503,-1.9236641221374047,0.0419921875,-0.132568359375,-0.605224609375,0.3621
0.061068702290076333,0.9465648854961832,-1.8473282442748091,0.04150390625,-0.12255859375,-0.604736328125,0.36379999999999996
-0.04580152671755725,0.7786259541984732,-2.0763358778625953,0.041748046875,-0.126708984375,-0.613037109375,0.3655
0.030534351145038167,0.6870229007633588,-1.8473282442748091,0.046630859375,-0.127197265625,-0.60302734375,0.36719999999999997
0.04580152671755725,0.5801526717557252,-1.9083969465648856,0.04736328125,-0.128662109375,-0.60400390625,0.3689
0.1984732824427481,0.5343511450381679,-1.83206106870229,0.04931640625,-0.12890625,-0.598388671875,0.3706
0.183206106870229,0.5190839694656488,-1.9083969465648856,0.049560546875,-0.128662109375,-0.596435546875,0.37229999999999996
0.32061068702290074,0.6106870229007634,-2.1374045801526718,0.043212890625,-0.130126953125,-0.6103515625,0.374
0.24427480916030533,0.44274809160305345,-2.122137404580153,0.044921875,-0.128173828125,-0.611572265625,0.3757
0.2748091603053435,0.3053435114503817,-2.1068702290076335,0.04736328125,-0.12744140625,-0.607177734375,0.37739999999999996
0.42748091603053434,0.33587786259541985,-2.0,0.04443359375,-0.1328125,-0.607421875,0.3791
0.12213740458015267,0.2900763358778626,-2.045801526717557,0.04736328125,-0.132080078125,-0.608154296875,0.38079999999999997
0.061068702290076333,0.32061068702290074,-1.9694656488549618,0.050537109375,-0.130615234375,-0.6064453125,0.38249999999999995
0.183206106870229,0.07633587786259542,-2.2900763358778624,0.0458984375,-0.128662109375,-0.607666015625,0.3842
-0.3053435114503817,0.13740458015267176,-2.183206106870229,0.04150390625,-0.1318359375,-0.60009765625,0.38589999999999997
-0.4122137404580153,-0.015267175572519083,-2.2595419847328246,0.041748046875,-0.13134765625,-0.603271484375,0.3876
-0.3511450381679389,-0.10687022900763359,-2.33587786259542,0.044677734375,-0.1318359375,-0.60107421875,0.3893
-0.3816793893129771,-0.10687022900763359,-2.2290076335877864,0.047119140625,-0.13427734375,-0.603759765625,0.39099999999999996
-0.4732824427480916,-0.061068702290076333,-2.2290076335877864,0.04833984375,-0.135986328125,-0.60791015625,0.3927
-0.6106870229007634,-0.1984732824427481,-2.351145038167939,0.046875,-0.134521484375,-0.605224609375,0.3944
-0.6412213740458015,-0.4122137404580153,-2.351145038167939,0.04736328125,-0.139892578125,-0.598388671875,0.39609999999999995
-0.7786259541984732,-0.366412213740458,-2.3969465648854964,0.04443359375,-0.1298828125,-0.603759765625,0.3978
-0.8396946564885496,-0.44274809160305345,-2.0916030534351147,0.044921875,-0.131591796875,-0.60205078125,0.39949999999999997
-1.083969465648855,-0.33587786259541985,-2.3206106870229006,0.04638671875,-0.132080078125,-0.6005859375,0.4012
-1.099236641221374,-0.3053435114503817,-2.3053435114503817,0.046142578125,-0.135498046875,-0.60302734375,0.4029
-1.1450381679389312,-0.5190839694656488,-2.4427480916030535,0.052490234375,-0.1337890625,-0.5986328125,0.40459999999999996
-1.1603053435114503,-0.3816793893129771,-2.381679389312977,0.0478515625,-0.131591796875,-0.5947265625,0.4063
-1.3435114503816794,-0.48854961832061067,-2.2595419847328246,0.0517578125,-0.133056640625,-0.59716796875,0.408
-1.3587786259541985,-0.732824427480916,-2.4580152671755724,0.052490234375,-0.135986328125,-0.599853515625,0.40969999999999995
-1.3587786259541985,-0.549618320610687,-2.4885496183206106,0.050048828125,-0.13134765625,-0.59814453125,0.4114
-1.450381679389313,-0.5801526717557252,-2.2900763358778624,0.04443359375,-0.131591796875,-0.6015625,0.41309999999999997
-1.633587786259542,-0.7022900763358778,-2.366412213740458,0.044921875,-0.133544921875,-0.59619140625,0.4148
-1.4809160305343512,-0.5648854961832062,-2.50381679389313,0.04150390625,-0.13134765625,-0.598388671875,0.4165
-1.4198473282442747,-0.5648854961832062,-2.4580152671755724,0.046142578125,-0.131591796875,-0.599609375,0.41819999999999996
-1.618320610687023,-0.8702290076335878,-2.366412213740458,0.047607421875,-0.1318359375,-0.59228515625,0.4199
-1.7557251908396947,-0.8549618320610687,-2.4885496183206106,0.051513671875,-0.128662109375,-0.595458984375,0.4216
-1.6030534351145038,-0.732824427480916,-2.549618320610687,0.04931640625,-0.129150390625,-0.59423828125,0.42329999999999995
-1.6641221374045803,-0.5648854961832062,-2.564885496183206,0.049560546875,-0.125244140625,-0.595947265625,0.425
-1.7251908396946565,-0.6106870229007634,-2.564885496183206,0.0478515625,-0.119873046875,-0.596923828125,0.42669999999999997
-1.5419847328244274,-0.7938931297709924,-2.519083969465649,0.0517578125,-0.126708984375,-0.593505859375,0.4284
-1.6641221374045803,-0.7022900763358778,-2.5801526717557253,0.05322265625,-0.128662109375,-0.595703125,0.4301
-1.8931297709923665,-0.6717557251908397,-2.4732824427480917,0.044921875,-0.126220703125,-0.599609375,0.43179999999999996
-1.816793893129771,-0.7022900763358778,-2.4732824427480917,0.048583984375,-0.12646484375,-0.590087890625,0.4335
-2.0,-0.6106870229007634,-2.519083969465649,0.046875,-0.12451171875,-0.59326171875,0.4352
-1.8778625954198473,-0.6564885496183206,-2.427480916030534,0.049072265625,-0.12744140625,-0.593505859375,0.43689999999999996
-1.7099236641221374,-0.7175572519083969,-2.4885496183206106,0.04638671875,-0.1279296875,-0.598388671875,0.4386
-1.465648854961832,-0.6259541984732825,-2.366412213740458,0.050048828125,-0.12109375,-0.59765625,0.44029999999999997
-1.6793893129770991,-0.6564885496183206,-2.2290076335877864,0.049560546875,-0.129150390625,-0.590576171875,0.44199999999999995
-1.5267175572519085,-0.5343511450381679,-1.9541984732824427,0.0498046875,-0.1328125,-0.604248046875,0.4437
-1.3282442748091603,-0.8244274809160306,-1.9694656488549618,0.04541015625,-0.13232421875,-0.594970703125,0.44539999999999996
-1.1145038167938932,-0.9618320610687023,-1.786259541984733,0.04736328125,-0.125732421875,-0.591064453125,0.4471
-0.9465648854961832,-0.7633587786259542,-1.8931297709923665,0.050537109375,-0.129638671875,-0.593994140625,0.4488
-0.9007633587786259,-0.9770992366412213,-1.618320610687023,0.051025390625,-0.1259765625,-0.597412109375,0.45049999999999996
-0.732824427480916,-0.732824427480916,-1.7251908396946565,0.04248046875,-0.129638671875,-0.59814453125,0.4522
-0.5190839694656488,-1.083969465648855,-1.7404580152671756,0.051025390625,-0.12548828125,-0.597900390625,0.45389999999999997
-0.42748091603053434,-1.2061068702290076,-1.7709923664122138,0.04541015625,-0.131591796875,-0.5947265625,0.45559999999999995
-0.1984732824427481,-1.1450381679389312,-1.5725190839694656,0.050537109375,-0.130615234375,-0.601806640625,0.4573
-0.12213740458015267,-1.2366412213740459,-1.4809160305343512,0.045654296875,-0.1328125,-0.591796875,0.45899999999999996
0.030534351145038167,-1.2213740458015268,-1.2366412213740459,0.0458984375,-0.134033203125,-0.6005859375,0.4607
-0.24427480916030533,-1.2366412213740459,-1.3893129770992367,0.048583984375,-0.130859375,-0.595458984375,0.4624
-0.1984732824427481,-1.4045801526717556,-1.2061068702290076,0.0458984375,-0.132568359375,-0.59375,0.46409999999999996
-0.10687022900763359,-1.465648854961832,-1.3435114503816794,0.05078125,-0.130615234375,-0.5947265625,0.4658
-0.2900763358778626,-1.5114503816793894,-1.2061068702290076,0.0380859375,-0.132080078125,-0.60009765625,0.46749999999999997
-0.4122137404580153,-1.5877862595419847,-1.297709923664122,0.05078125,-0.13134765625,-0.591552734375,0.46919999999999995
-0.2748091603053435,-1.4961832061068703,-1.1145038167938932,0.044189453125,-0.1328125,-0.589111328125,0.4709
-0.183206106870229,-1.6641221374045803,-1.1908396946564885,0.0458984375,-0.1357421875,-0.59765625,0.47259999999999996
-0.22900763358778625,-1.4809160305343512,-0.9923664122137404,0.048828125,-0.136962890625,-0.595703125,0.4743
-0.2595419847328244,-1.8625954198473282,-1.1145038167938932,0.050537109375,-0.135009765625,-0.591552734375,0.476
-0.3511450381679389,-1.618320610687023,-1.0076335877862594,0.0478515625,-0.13232421875,-0.598876953125,0.47769999999999996
-0.07633587786259542,-1.6793893129770991,-1.099236641221374,0.04345703125,-0.132080078125,-0.6015625,0.4794
0.030534351145038167,-1.786259541984733,-1.0076335877862594,0.043212890625,-0.13134765625,-0.5908203125,0.48109999999999997
-0.24427480916030533,-1.816793893129771,-1.251908396946565,0.0498046875,-0.134521484375,-0.595458984375,0.48279999999999995
-0.0916030534351145,-2.015267175572519,-1.1603053435114503,0.04833984375,-0.136474609375,-0.594482421875,0.4845
-0.24427480916030533,-2.030534351145038,-1.3893129770992367,0.05078125,-0.13720703125,-0.587158203125,0.48619999999999997
-0.13740458015267176,-1.984732824427481,-1.4961832061068703,0.045654296875,-0.1279296875,-0.591552734375,0.4879
-0.12213740458015267,-2.183206106870229,-1.2671755725190839,0.046630859375,-0.1298828125,-0.591552734375,0.4896
-0.3969465648854962,-2.0610687022900764,-1.5725190839694656,0.044921875,-0.1279296875,-0.596923828125,0.49129999999999996
-0.2900763358778626,-2.0610687022900764,-1.5877862595419847,0.05078125,-0.13232421875,-0.593994140625,0.493
-0.030534351145038167,-2.3053435114503817,-1.3129770992366412,0.051025390625,-0.133544921875,-0.59423828125,0.4947
-0.04580152671755725,-2.2290076335877864,-1.6641221374045803,0.049072265625,-0.129638671875,-0.59130859375,0.49639999999999995
-0.04580152671755725,-2.213740458015267,-1.6641221374045803,0.040283203125,-0.13134765625,-0.592529296875,0.4981
-0.0916030534351145,-2.0916030534351147,-1.6641221374045803,0.0439453125,-0.1298828125,-0.59326171875,0.49979999999999997
-0.13740458015267176,-2.1068702290076335,-1.5419847328244274,0.041748046875,-0.12939453125,-0.586669921875,0.5015
-0.10687022900763359,-2.2595419847328246,-1.816793893129771,0.05126953125,-0.12548828125,-0.59326171875,0.5032
-0.12213740458015267,-1.8778625954198473,-1.6030534351145038,0.04736328125,-0.12646484375,-0.599609375,0.5049
-0.4122137404580153,-1.9541984732824427,-1.8015267175572518,0.050048828125,-0.130615234375,-0.592041015625,0.5065999999999999
0.030534351145038167,-1.6793893129770991,-1.633587786259542,0.044921875,-0.127197265625,-0.580810546875,0.5083
0.15267175572519084,-1.3740458015267176,-1.9541984732824427,0.049560546875,-0.122314453125,-0.593017578125,0.51
0.0,-1.3740458015267176,-1.6488549618320612,0.048828125,-0.126953125,-0.588623046875,0.5116999999999999
0.2595419847328244,-1.3129770992366412,-1.6030534351145038,0.042724609375,-0.126708984375,-0.591064453125,0.5134
0.44274809160305345,-1.3282442748091603,-1.7557251908396947,0.045166015625,-0.12548828125,-0.597412109375,0.5151
0.366412213740458,-1.1755725190839694,-1.7557251908396947,0.0458984375,-0.12646484375,-0.598388671875,0.5167999999999999
0.4732824427480916,-1.1297709923664123,-1.5877862595419847,0.046142578125,-0.12939453125,-0.595703125,0.5185
0.732824427480916,-0.9618320610687023,-1.8778625954198473,0.044189453125,-0.126220703125,-0.5908203125,0.5202
0.916030534351145,-0.8702290076335878,-1.7404580152671756,0.041015625,-0.128173828125,-0.59423828125,0.5218999999999999
0.8549618320610687,-0.8549618320610687,-1.8015267175572518,0.048095703125,-0.12890625,-0.599365234375,0.5236
0.9465648854961832,-0.8091603053435115,-1.6488549618320612,0.048828125,-0.129638671875,-0.596435546875,0.5253
1.083969465648855,-0.7633587786259542,-1.8473282442748091,0.0517578125,-0.13232421875,-0.59521484375,0.527
1.3587786259541985,-0.8091603053435115,-1.7557251908396947,0.050048828125,-0.13037109375,-0.593017578125,0.5287
1.3587786259541985,-0.7633587786259542,-1.7557251908396947,0.045166015625,-0.133056640625,-0.59619140625,0.5304
1.4961832061068703,-0.6412213740458015,-1.9083969465648856,0.043212890625,-0.1279296875,-0.58544921875,0.5321
1.3282442748091603,-0.549618320610687,-1.9389312977099236,0.042236328125,-0.1318359375,-0.583984375,0.5337999999999999
1.3129770992366412,-0.5801526717557252,-1.633587786259542,0.0458984375,-0.13232421875,-0.591796875,0.5355
1.3740458015267176,-0.6106870229007634,-1.8473282442748091,0.0478515625,-0.130126953125,-0.598388671875,0.5372
1.5267175572519085,-0.44274809160305345,-2.0,0.049072265625,-0.134033203125,-0.6005859375,0.5388999999999999
1.2366412213740459,-0.4122137404580153,-1.8778625954198473,0.0517578125,-0.134521484375,-0.601318359375,0.5406
1.251908396946565,-0.4580152671755725,-1.8473282442748091,0.049072265625,-0.128662109375,-0.594970703125,0.5423
1.4045801526717556,-0.366412213740458,-1.8473282442748091,0.0478515625,-0.1318359375,-0.59375,0.5439999999999999
1.4198473282442747,-0.3816793893129771,-1.8931297709923665,0.0458984375,-0.1328125,-0.599609375,0.5457
1.3282442748091603,-0.22900763358778625,-1.9541984732824427,0.046142578125,-0.13037109375,-0.59521484375,0.5474
1.0534351145038168,-0.4122137404580153,-2.0610687022900764,0.042236328125,-0.12890625,-0.595947265625,0.5490999999999999
1.1603053435114503,-0.549618320610687,-1.9389312977099236,0.043212890625,-0.1240234375,-0.595458984375,0.5508
1.099236641221374,-0.33587786259541985,-2.1374045801526718,0.044189453125,-0.126708984375,-0.605712890625,0.5525
0.5954198473282443,-0.22900763358778625,-2.045801526717557,0.050537109375,-0.126708984375,-0.599609375,0.5541999999999999
0.3511450381679389,-0.3053435114503817,-2.030534351145038,0.053466796875,-0.125244140625,-0.603515625,0.5559
0.5038167938931297,-0.3816793893129771,-2.3206106870229006,0.054931640625,-0.125,-0.60009765625,0.5576
0.4122137404580153,-0.366412213740458,-2.213740458015267,0.0498046875,-0.129150390625,-0.6064453125,0.5593
0.33587786259541985,-0.2900763358778626,-2.0610687022900764,0.055419921875,-0.131103515625,-0.60595703125,0.5609999999999999
0.366412213740458,-0.2595419847328244,-2.33587786259542,0.046142578125,-0.12548828125,-0.5947265625,0.5627
0.12213740458015267,-0.16793893129770993,-2.381679389312977,0.05419921875,-0.124755859375,-0.593505859375,0.5644
0.3969465648854962,-0.21374045801526717,-2.2595419847328246,0.046875,-0.123046875,-0.601318359375,0.5660999999999999
0.6259541984732825,-0.12213740458015267,-2.4732824427480917,0.05126953125,-0.120849609375,-0.592529296875,0.5678
0.7480916030534351,-0.21374045801526717,-2.2748091603053435,0.045654296875,-0.12353515625,-0.592041015625,0.5695
0.8091603053435115,-0.015267175572519083,-2.33587786259542,0.04833984375,-0.121337890625,-0.598388671875,0.5711999999999999
1.0229007633587786,-0.061068702290076333,-2.427480916030534,0.050537109375,-0.123779296875,-0.590087890625,0.5729
1.099236641221374,0.015267175572519083,-2.595419847328244,0.048583984375,-0.11865234375,-0.589111328125,0.5746
1.6641221374045803,0.07633587786259542,-2.3206106870229006,0.049560546875,-0.127197265625,-0.604736328125,0.5762999999999999
1.9541984732824427,-0.04580152671755725,-2.2442748091603053,0.0546875,-0.127685546875,-0.60205078125,0.578
1.8778625954198473,0.1984732824427481,-2.2290076335877864,0.05224609375,-0.12158203125,-0.59716796875,0.5797
2.0916030534351147,0.22900763358778625,-2.183206106870229,0.048583984375,-0.122802734375,-0.5927734375,0.5813999999999999
2.519083969465649,0.0916030534351145,-2.122137404580153,0.049072265625,-0.12060546875,-0.596923828125,0.5831
2.33587786259542,0.1984732824427481,-1.9541984732824427,0.053466796875,-0.12353515625,-0.59521484375,0.5848
2.3969465648854964,0.3511450381679389,-1.8931297709923665,0.048583984375,-0.11962890625,-0.59130859375,0.5865
2.7938931297709924,0.1984732824427481,-1.83206106870229,0.04541015625,-0.119384765625,-0.592529296875,0.5882
2.885496183206107,0.32061068702290074,-1.6946564885496183,0.048095703125,-0.123291015625,-0.59716796875,0.5899
2.9160305343511452,0.3053435114503817,-1.5572519083969465,0.048583984375,-0.12255859375,-0.599609375,0.5916
2.9618320610687023,0.3053435114503817,-1.4809160305343512,0.050537109375,-0.123046875,-0.59375,0.5932999999999999
3.282442748091603,0.42748091603053434,-1.5114503816793894,0.04638671875,-0.12548828125,-0.60205078125,0.595
3.3282442748091605,0.32061068702290074,-1.4961832061068703,0.04931640625,-0.125,-0.59375,0.5967
3.2977099236641223,0.22900763358778625,-1.3129770992366412,0.044921875,-0.123779296875,-0.5947265625,0.5983999999999999
3.5877862595419847,0.42748091603053434,-1.2671755725190839,0.047607421875,-0.125,-0.5908203125,0.6001
3.648854961832061,0.32061068702290074,-1.1755725190839694,0.04638671875,-0.126220703125,-0.59423828125,0.6018
3.49618320610687,0.33587786259541985,-1.2213740458015268,0.046875,-0.127685546875,-0.593994140625,0.6034999999999999
3.49618320610687,0.32061068702290074,-1.2213740458015268,0.048583984375,-0.131591796875,-0.59619140625,0.6052
3.3740458015267176,0.44274809160305345,-1.3740458015267176,0.046875,-0.127685546875,-0.600830078125,0.6069
3.435114503816794,0.5190839694656488,-1.3587786259541985,0.046875,-0.12841796875,-0.603759765625,0.6085999999999999
3.435114503816794,0.33587786259541985,-1.282442748091603,0.0400390625,-0.131103515625,-0.6025390625,0.6103
3.3587786259541983,0.3816793893129771,-1.2671755725190839,0.04345703125,-0.130859375,-0.590576171875,0.612
3.053435114503817,0.4580152671755725,-1.4809160305343512,0.04345703125,-0.130126953125,-0.603271484375,0.6136999999999999
3.099236641221374,0.549618320610687,-1.5114503816793894,0.04052734375,-0.132080078125,-0.60107421875,0.6154
3.0229007633587788,0.6717557251908397,-1.5267175572519085,0.040771484375,-0.13330078125,-0.595458984375,0.6171
2.8244274809160306,0.5801526717557252,-1.4809160305343512,0.043212890625,-0.13232421875,-0.5986328125,0.6188
2.6106870229007635,0.732824427480916,-1.6946564885496183,0.041748046875,-0.130126953125,-0.603271484375,0.6204999999999999
2.3053435114503817,0.7175572519083969,-1.7404580152671756,0.040283203125,-0.1376953125,-0.59375,0.6222
2.3969465648854964,0.7022900763358778,-1.7709923664122138,0.04248046875,-0.131591796875,-0.59912109375,0.6239
2.1526717557251906,0.6717557251908397,-1.5267175572519085,0.040771484375,-0.130126953125,-0.6015625,0.6255999999999999
2.1068702290076335,0.732824427480916,-1.786259541984733,0.03564453125,-0.130126953125,-0.601806640625,0.6273
2.122137404580153,1.1297709923664123,-1.7404580152671756,0.04150390625,-0.12451171875,-0.5986328125,0.629
1.8473282442748091,1.1450381679389312,-1.9389312977099236,0.04296875,-0.12744140625,-0.60205078125,0.6306999999999999
2.045801526717557,1.1450381679389312,-1.9541984732824427,0.042236328125,-0.13134765625,-0.6025390625,0.6324
2.1374045801526718,1.2213740458015268,-1.7557251908396947,0.043701171875,-0.128662109375,-0.607177734375,0.6341
2.1068702290076335,1.3587786259541985,-1.816793893129771,0.042236328125,-0.13134765625,-0.604736328125,0.6357999999999999
2.0,1.5267175572519085,-1.8778625954198473,0.040283203125,-0.124755859375,-0.60498046875,0.6375
2.015267175572519,1.6641221374045803,-1.7251908396946565,0.043212890625,-0.126953125,-0.5986328125,0.6392
2.2442748091603053,1.5267175572519085,-1.6641221374045803,0.043701171875,-0.11962890625,-0.5927734375,0.6408999999999999
2.1068702290076335,1.5572519083969465,-1.786259541984733,0.042724609375,-0.1259765625,-0.59716796875,0.6426
2.198473282442748,1.6488549618320612,-1.9541984732824427,0.04638671875,-0.122802734375,-0.608154296875,0.6443
2.3206106870229006,1.6030534351145038,-1.6793893129770991,0.043701171875,-0.12158203125,-0.6015625,0.646
2.564885496183206,1.633587786259542,-1.9083969465648856,0.046875,-0.124267578125,-0.602294921875,0.6476999999999999
2.687022900763359,1.6641221374045803,-1.6793893129770991,0.048095703125,-0.118408203125,-0.613037109375,0.6494
2.717557251908397,1.5877862595419847,-1.6641221374045803,0.04443359375,-0.12060546875,-0.604736328125,0.6511
2.931297709923664,1.5267175572519085,-1.9236641221374047,0.051025390625,-0.12353515625,-0.600341796875,0.6527999999999999
2.9160305343511452,1.4809160305343512,-1.8778625954198473,0.04736328125,-0.125732421875,-0.6064453125,0.6545
3.0381679389312977,1.633587786259542,-1.8473282442748091,0.045166015625,-0.12353515625,-0.60498046875,0.6562
3.2519083969465647,1.4961832061068703,-1.9236641221374047,0.05029296875,-0.1240234375,-0.60400390625,0.6578999999999999
3.1908396946564888,1.297709923664122,-1.7404580152671756,0.046142578125,-0.120849609375,-0.606201171875,0.6596
3.2519083969465647,1.4045801526717556,-1.9236641221374047,0.048583984375,-0.124755859375,-0.604736328125,0.6613
3.450381679389313,1.297709923664122,-1.6641221374045803,0.04833984375,-0.121337890625,-0.604248046875,0.6629999999999999
3.1908396946564888,1.1603053435114503,-1.9541984732824427,0.049560546875,-0.12060546875,-0.603271484375,0.6647
3.282442748091603,1.0381679389312977,-1.8625954198473282,0.048095703125,-0.120361328125,-0.60595703125,0.6664
3.267175572519084,1.0229007633587786,-1.8778625954198473,0.048095703125,-0.12109375,-0.603759765625,0.6680999999999999
3.3587786259541983,0.9923664122137404,-1.8778625954198473,0.051025390625,-0.122802734375,-0.605224609375,0.6698
3.1603053435114505,1.0381679389312977,-1.8778625954198473,0.048583984375,-0.122802734375,-0.60205078125,0.6715
3.282442748091603,1.083969465648855,-1.8625954198473282,0.048828125,-0.122314453125,-0.605224609375,0.6731999999999999
3.49618320610687,0.8854961832061069,-1.816793893129771,0.050048828125,-0.1259765625,-0.608154296875,0.6748999999999999
3.267175572519084,0.7633587786259542,-1.9541984732824427,0.04443359375,-0.125244140625,-0.604736328125,0.6766
3.0076335877862594,0.8244274809160306,-1.9389312977099236,0.04248046875,-0.127197265625,-0.602294921875,0.6783
2.9618320610687023,0.8091603053435115,-1.8015267175572518,0.048583984375,-0.124755859375,-0.611572265625,0.6799999999999999
2.9160305343511452,0.5038167938931297,-1.816793893129771,0.04736328125,-0.124267578125,-0.60546875,0.6817
2.6259541984732824,0.7022900763358778,-1.6946564885496183,0.046630859375,-0.1259765625,-0.604736328125,0.6834
2.6564885496183206,0.5954198473282443,-1.816793893129771,0.044921875,-0.127197265625,-0.6064453125,0.6850999999999999
2.5801526717557253,0.7480916030534351,-1.6793893129770991,0.049072265625,-0.120849609375,-0.604736328125,0.6868
2.732824427480916,0.5648854961832062,-1.618320610687023,0.04541015625,-0.125244140625,-0.60986328125,0.6885
2.549618320610687,0.5648854961832062,-1.6946564885496183,0.05126953125,-0.129150390625,-0.60302734375,0.6901999999999999
2.427480916030534,0.3816793893129771,-1.7404580152671756,0.048583984375,-0.123779296875,-0.602294921875,0.6919
2.213740458015267,0.44274809160305345,-1.6793893129770991,0.049560546875,-0.131103515625,-0.602294921875,0.6936
2.2595419847328246,0.42748091603053434,-1.5725190839694656,0.05078125,-0.130859375,-0.60791015625,0.6952999999999999
2.2748091603053435,0.3053435114503817,-1.4045801526717556,0.0439453125,-0.125732421875,-0.610595703125,0.697
2.2290076335877864,0.16793893129770993,-1.3740458015267176,0.0439453125,-0.125732421875,-0.607421875,0.6987
1.9083969465648856,0.0916030534351145,-1.4198473282442747,0.047607421875,-0.135009765625,-0.6044921875,0.7003999999999999
1.9694656488549618,0.15267175572519084,-1.4809160305343512,0.044921875,-0.12646484375,-0.604248046875,0.7021
2.030534351145038,0.030534351145038167,-1.3129770992366412,0.046630859375,-0.127685546875,-0.599365234375,0.7038
1.9694656488549618,-0.24427480916030533,-1.282442748091603,0.049072265625,-0.130615234375,-0.60400390625,0.7055
2.0610687022900764,-0.030534351145038167,-1.4809160305343512,0.0498046875,-0.130615234375,-0.60693359375,0.7071999999999999
1.83206106870229,-0.0916030534351145,-1.3587786259541985,0.0458984375,-0.12158203125,-0.6083984375,0.7089
1.816793893129771,-0.24427480916030533,-1.3587786259541985,0.04638671875,-0.12890625,-0.6005859375,0.7106
1.5572519083969465,-0.3969465648854962,-1.3740458015267176,0.049560546875,-0.1279296875,-0.60107421875,0.7122999999999999
1.5419847328244274,-0.4580152671755725,-1.297709923664122,0.041748046875,-0.12890625,-0.610107421875,0.714
1.5419847328244274,-0.22900763358778625,-1.4198473282442747,0.046875,-0.125,-0.601806640625,0.7157
1.3893129770992367,-0.22900763358778625,-1.2671755725190839,0.0439453125,-0.12451171875,-0.603515625,0.7173999999999999
1.3282442748091603,-0.48854961832061067,-1.3282442748091603,0.0439453125,-0.12939453125,-0.6123046875,0.7191
1.099236641221374,-0.3969465648854962,-1.465648854961832,0.045166015625,-0.12744140625,-0.614501953125,0.7208
1.083969465648855,-0.32061068702290074,-1.4198473282442747,0.045654296875,-0.125732421875,-0.609375,0.7224999999999999
1.0381679389312977,-0.4122137404580153,-1.2366412213740459,0.046875,-0.12646484375,-0.599853515625,0.7242
0.8854961832061069,-0.2900763358778626,-1.4198473282442747,0.040771484375,-0.126220703125,-0.6064453125,0.7259
0.7938931297709924,-0.48854961832061067,-1.4045801526717556,0.04638671875,-0.127685546875,-0.60888671875,0.7275999999999999
0.916030534351145,-0.4580152671755725,-1.4809160305343512,0.044921875,-0.126953125,-0.617431640625,0.7293
0.732824427480916,-0.5038167938931297,-1.4351145038167938,0.0400390625,-0.1318359375,-0.607421875,0.731
1.099236641221374,-0.3053435114503817,-1.5877862595419847,0.046142578125,-0.1240234375,-0.607177734375,0.7326999999999999
1.083969465648855,-0.3969465648854962,-1.5114503816793894,0.041259765625,-0.127685546875,-0.601806640625,0.7343999999999999
1.0229007633587786,-0.366412213740458,-1.633587786259542,0.047119140625,-0.126220703125,-0.6103515625,0.7361
1.0534351145038168,-0.3511450381679389,-1.4961832061068703,0.04443359375,-0.1279296875,-0.603759765625,0.7378
1.2366412213740459,-0.3969465648854962,-1.633587786259542,0.04541015625,-0.126953125,-0.6123046875,0.7394999999999999
1.2213740458015268,-0.2900763358778626,-1.5725190839694656,0.047119140625,-0.1298828125,-0.601318359375,0.7412
1.2671755725190839,-0.48854961832061067,-1.6488549618320612,0.049560546875,-0.1259765625,-0.609619140625,0.7429
1.099236641221374,-0.48854961832061067,-1.5114503816793894,0.04150390625,-0.13232421875,-0.603271484375,0.7445999999999999
1.3435114503816794,-0.5801526717557252,-1.6793893129770991,0.0419921875,-0.12548828125,-0.607421875,0.7463
1.3587786259541985,-0.3816793893129771,-1.8625954198473282,0.04541015625,-0.128173828125,-0.60693359375,0.748
1.3587786259541985,-0.5954198473282443,-1.816793893129771,0.044677734375,-0.126220703125,-0.607666015625,0.7496999999999999
1.4198473282442747,-0.366412213740458,-1.7709923664122138,0.04833984375,-0.122314453125,-0.608642578125,0.7514
1.7251908396946565,-0.3969465648854962,-1.9389312977099236,0.048583984375,-0.123046875,-0.604248046875,0.7531
1.7099236641221374,-0.366412213740458,-2.0,0.045166015625,-0.128662109375,-0.59521484375,0.7547999999999999
1.618320610687023,-0.4580152671755725,-1.9389312977099236,0.045166015625,-0.1337890625,-0.598388671875,0.7565
1.4961832061068703,-0.5038167938931297,-1.816793893129771,0.04052734375,-0.128173828125,-0.62109375,0.7582
1.7251908396946565,-0.4580152671755725,-1.7251908396946565,0.048095703125,-0.13134765625,-0.604736328125,0.7598999999999999
1.633587786259542,-0.5648854961832062,-1.8015267175572518,0.04248046875,-0.127197265625,-0.60498046875,0.7615999999999999
1.5877862595419847,-0.42748091603053434,-1.5419847328244274,0.048095703125,-0.12841796875,-0.607421875,0.7633
1.450381679389313,-0.3816793893129771,-1.7557251908396947,0.04931640625,-0.128173828125,-0.607177734375,0.7649999999999999
1.3587786259541985,-0.4580152671755725,-1.7404580152671756,0.041748046875,-0.12890625,-0.609619140625,0.7666999999999999
1.3129770992366412,-0.3816793893129771,-1.6946564885496183,0.042724609375,-0.1201171875,-0.608642578125,0.7684
1.3587786259541985,-0.5038167938931297,-1.7709923664122138,0.04443359375,-0.129638671875,-0.602294921875,0.7701
1.4045801526717556,-0.32061068702290074,-1.7251908396946565,0.041259765625,-0.130126953125,-0.600830078125,0.7717999999999999
1.1908396946564885,-0.3511450381679389,-1.5725190839694656,0.042236328125,-0.128173828125,-0.6025390625,0.7735
1.251908396946565,-0.24427480916030533,-1.786259541984733,0.04541015625,-0.13330078125,-0.604736328125,0.7752
1.083969465648855,-0.21374045801526717,-1.6030534351145038,0.044921875,-0.130615234375,-0.599853515625,0.7768999999999999
0.9465648854961832,-0.44274809160305345,-1.5419847328244274,0.0390625,-0.12841796875,-0.60888671875,0.7786
1.0687022900763359,-0.3816793893129771,-1.6641221374045803,0.043701171875,-0.130126953125,-0.60107421875,0.7803
0.9007633587786259,-0.3511450381679389,-1.7709923664122138,0.0498046875,-0.135498046875,-0.604736328125,0.7819999999999999
0.6259541984732825,-0.21374045801526717,-1.7709923664122138,0.04736328125,-0.1337890625,-0.602294921875,0.7837
0.6564885496183206,-0.4122137404580153,-1.6641221374045803,0.044189453125,-0.13720703125,-0.591552734375,0.7854
0.9312977099236641,-0.4580152671755725,-1.6030534351145038,0.04443359375,-0.130126953125,-0.603515625,0.7870999999999999
0.9312977099236641,-0.48854961832061067,-1.8473282442748091,0.04248046875,-0.137451171875,-0.604736328125,0.7888
0.6259541984732825,-0.44274809160305345,-1.7557251908396947,0.04736328125,-0.13330078125,-0.6083984375,0.7905
0.4580152671755725,-0.4580152671755725,-1.816793893129771,0.041748046875,-0.1328125,-0.60107421875,0.7921999999999999
0.549618320610687,-0.32061068702290074,-2.0,0.04541015625,-0.13525390625,-0.60546875,0.7938999999999999
0.6259541984732825,-0.4122137404580153,-1.8625954198473282,0.04443359375,-0.1357421875,-0.604736328125,0.7956
0.5190839694656488,-0.5801526717557252,-1.9694656488549618,0.042724609375,-0.132568359375,-0.602783203125,0.7973
0.5954198473282443,-0.4122137404580153,-2.1068702290076335,0.046630859375,-0.13232421875,-0.605712890625,0.7989999999999999
0.6870229007633588,-0.1984732824427481,-1.83206106870229,0.050537109375,-0.13623046875,-0.59375,0.8007
0.48854961832061067,-0.3816793893129771,-1.7709923664122138,0.044921875,-0.140380859375,-0.601806640625,0.8024
0.183206106870229,-0.2748091603053435,-1.7099236641221374,0.04736328125,-0.134033203125,-0.605712890625,0.8040999999999999
0.33587786259541985,-0.33587786259541985,-1.9694656488549618,0.04541015625,-0.135009765625,-0.602294921875,0.8058
0.4580152671755725,-0.4122137404580153,-1.7251908396946565,0.0439453125,-0.13720703125,-0.594970703125,0.8075
0.2595419847328244,-0.366412213740458,-1.7709923664122138,0.049072265625,-0.1328125,-0.6064453125,0.8091999999999999
0.33587786259541985,-0.366412213740458,-1.8778625954198473,0.0419921875,-0.136962890625,-0.602783203125,0.8109
0.21374045801526717,-0.5343511450381679,-1.7709923664122138,0.04638671875,-0.13720703125,-0.60107421875,0.8126
0.24427480916030533,-0.6259541984732825,-1.6946564885496183,0.045654296875,-0.142578125,-0.6044921875,0.8142999999999999
0.07633587786259542,-0.6259541984732825,-1.786259541984733,0.0439453125,-0.1318359375,-0.60107421875,0.816
0.32061068702290074,-0.8244274809160306,-1.7404580152671756,0.0439453125,-0.13720703125,-0.597900390625,0.8177
0.5343511450381679,-0.7633587786259542,-1.9236641221374047,0.046875,-0.13818359375,-0.5966796875,0.8193999999999999
0.48854961832061067,-0.8549618320610687,-1.8931297709923665,0.047607421875,-0.136962890625,-0.607666015625,0.8210999999999999
0.48854961832061067,-0.8244274809160306,-2.030534351145038,0.044189453125,-0.14111328125,-0.601318359375,0.8228
0.32061068702290074,-1.1297709923664123,-1.8625954198473282,0.0498046875,-0.135986328125,-0.6044921875,0.8244999999999999
0.366412213740458,-1.0534351145038168,-1.984732824427481,0.040771484375,-0.133056640625,-0.60498046875,0.8261999999999999
0.3969465648854962,-1.2366412213740459,-1.984732824427481,0.047119140625,-0.137939453125,-0.59765625,0.8279
0.5343511450381679,-1.1450381679389312,-2.1068702290076335,0.045166015625,-0.13525390625,-0.6064453125,0.8296
0.7633587786259542,-1.2671755725190839,-2.015267175572519,0.050048828125,-0.140869140625,-0.600341796875,0.8312999999999999
0.6106870229007634,-1.3435114503816794,-2.1526717557251906,0.04736328125,-0.13623046875,-0.6015625,0.833
0.7633587786259542,-1.2061068702290076,-2.213740458015267,0.047119140625,-0.136474609375,-0.601806640625,0.8347
0.916030534351145,-1.3435114503816794,-2.33587786259542,0.04296875,-0.1318359375,-0.6142578125,0.8363999999999999
0.9007633587786259,-1.3129770992366412,-2.2442748091603053,0.045166015625,-0.134765625,-0.59716796875,0.8381
0.6106870229007634,-1.2213740458015268,-2.33587786259542,0.04638671875,-0.1396484375,-0.600341796875,0.8398
0.5954198473282443,-1.083969465648855,-2.1374045801526718,0.04248046875,-0.1376953125,-0.59619140625,0.8414999999999999
0.2595419847328244,-1.1755725190839694,-2.5801526717557253,0.042724609375,-0.1337890625,-0.602294921875,0.8432
0.2595419847328244,-0.9312977099236641,-2.6259541984732824,0.04248046875,-0.1328125,-0.606201171875,0.8449
0.2900763358778626,-1.0229007633587786,-2.6564885496183206,0.044677734375,-0.134521484375,-0.603515625,0.8465999999999999
0.12213740458015267,-0.8396946564885496,-2.6564885496183206,0.044921875,-0.130126953125,-0.598388671875,0.8482999999999999
-0.24427480916030533,-0.8091603053435115,-2.946564885496183,0.0400390625,-0.135986328125,-0.599609375,0.85
-0.04580152671755725,-0.7938931297709924,-2.8702290076335877,0.04150390625,-0.1357421875,-0.6015625,0.8516999999999999
-0.22900763358778625,-0.5038167938931297,-3.1297709923664123,0.041259765625,-0.1328125,-0.60205078125,0.8533999999999999
-0.3816793893129771,-0.48854961832061067,-3.068702290076336,0.0439453125,-0.1376953125,-0.604736328125,0.8551
-0.4580152671755725,-0.4122137404580153,-2.9770992366412212,0.04833984375,-0.134033203125,-0.60693359375,0.8568
-0.42748091603053434,-0.2595419847328244,-3.2061068702290076,0.046142578125,-0.132080078125,-0.60009765625,0.8584999999999999
-0.8396946564885496,-0.1984732824427481,-3.312977099236641,0.0419921875,-0.134521484375,-0.600830078125,0.8602
-1.0076335877862594,0.04580152671755725,-3.2519083969465647,0.0439453125,-0.13232421875,-0.5986328125,0.8619
-1.0687022900763359,0.061068702290076333,-3.2213740458015265,0.04248046875,-0.135498046875,-0.597900390625,0.8635999999999999
-1.0534351145038168,0.061068702290076333,-3.3435114503816794,0.044677734375,-0.130615234375,-0.604736328125,0.8653
-1.4809160305343512,0.2748091603053435,-3.3587786259541983,0.04345703125,-0.133544921875,-0.598388671875,0.867
-1.2671755725190839,0.5954198473282443,-3.267175572519084,0.045654296875,-0.1357421875,-0.603759765625,0.8686999999999999
-1.282442748091603,0.5954198473282443,-3.480916030534351,0.04541015625,-0.1357421875,-0.602783203125,0.8704
-1.5267175572519085,0.6564885496183206,-3.435114503816794,0.046630859375,-0.13671875,-0.605712890625,0.8721
-1.4351145038167938,0.6412213740458015,-3.5419847328244276,0.042724609375,-0.13818359375,-0.599365234375,0.8737999999999999
-1.5877862595419847,0.7022900763358778,-3.66412213740458,0.047119140625,-0.13037109375,-0.59375,0.8755
-1.6488549618320612,0.732824427480916,-3.6946564885496183,0.046142578125,-0.137451171875,-0.592041015625,0.8772
-1.8015267175572518,0.9465648854961832,-3.7099236641221376,0.044189453125,-0.1376953125,-0.604736328125,0.8788999999999999
-2.1068702290076335,0.7938931297709924,-3.7404580152671754,0.044921875,-0.138916015625,-0.604248046875,0.8805999999999999
-2.015267175572519,0.916030534351145,-3.786259541984733,0.05078125,-0.135009765625,-0.603515625,0.8823
-2.045801526717557,1.0381679389312977,-3.9083969465648853,0.045166015625,-0.133544921875,-0.60693359375,0.8839999999999999
-2.0,1.1908396946564885,-3.83206106870229,0.04052734375,-0.135986328125,-0.60400390625,0.8856999999999999
-2.183206106870229,1.1450381679389312,-3.8473282442748094,0.044921875,-0.137939453125,-0.59619140625,0.8874
-2.2748091603053435,1.3129770992366412,-3.7251908396946565,0.048828125,-0.1318359375,-0.599365234375,0.8891
-2.213740458015267,1.4045801526717556,-3.877862595419847,0.047119140625,-0.13623046875,-0.604736328125,0.8907999999999999
-2.2595419847328246,1.4809160305343512,-3.7557251908396947,0.038818359375,-0.136962890625,-0.6025390625,0.8925
-2.366412213740458,1.5725190839694656,-3.7404580152671754,0.042236328125,-0.1318359375,-0.591552734375,0.8942
-2.1526717557251906,1.5267175572519085,-3.816793893129771,0.04638671875,-0.13427734375,-0.588623046875,0.8958999999999999
-2.33587786259542,1.4961832061068703,-3.7557251908396947,0.045166015625,-0.129638671875,-0.600830078125,0.8976
-2.5801526717557253,1.7709923664122138,-3.9083969465648853,0.041259765625,-0.13671875,-0.60498046875,0.8993
-2.2595419847328246,1.6946564885496183,-3.648854961832061,0.0439453125,-0.1318359375,-0.5986328125,0.9009999999999999
-2.5343511450381677,1.6793893129770991,-3.618320610687023,0.0478515625,-0.12451171875,-0.592041015625,0.9027
-2.4885496183206106,1.786259541984733,-3.5877862595419847,0.042724609375,-0.1318359375,-0.602783203125,0.9044
-2.198473282442748,2.030534351145038,-3.7251908396946565,0.04248046875,-0.13525390625,-0.596923828125,0.9060999999999999
-2.16793893129771,1.816793893129771,-3.6946564885496183,0.044677734375,-0.12939453125,-0.59814453125,0.9077999999999999
-2.2290076335877864,1.9236641221374047,-3.633587786259542,0.046630859375,-0.130126953125,-0.5908203125,0.9095
-2.045801526717557,1.9694656488549618,-3.786259541984733,0.044189453125,-0.1298828125,-0.596435546875,0.9111999999999999
-2.045801526717557,2.1374045801526718,-3.6793893129770994,0.046875,-0.127685546875,-0.593017578125,0.9128999999999999
-1.83206106870229,2.1526717557251906,-3.786259541984733,0.04638671875,-0.125244140625,-0.603515625,0.9146
-1.5572519083969465,2.2290076335877864,-3.7251908396946565,0.047607421875,-0.12158203125,-0.59912109375,0.9163
-1.1603053435114503,2.2748091603053435,-4.030534351145038,0.04443359375,-0.1240234375,-0.59814453125,0.9179999999999999
-1.0687022900763359,2.2595419847328246,-3.9389312977099236,0.046142578125,-0.124267578125,-0.598388671875,0.9197
-0.9007633587786259,2.366412213740458,-3.9083969465648853,0.042724609375,-0.121826171875,-0.595947265625,0.9214
-0.42748091603053434,2.3206106870229006,-3.7099236641221376,0.051513671875,-0.125,-0.597412109375,0.9230999999999999
-0.24427480916030533,2.5343511450381677,-3.9236641221374047,0.05224609375,-0.129150390625,-0.5986328125,0.9248
0.13740458015267176,2.3969465648854964,-4.030534351145038,0.04443359375,-0.1240234375,-0.597412109375,0.9265
0.3816793893129771,2.8244274809160306,-3.83206106870229,0.04541015625,-0.124267578125,-0.604248046875,0.9281999999999999
0.7175572519083969,2.885496183206107,-3.7709923664122136,0.047607421875,-0.12451171875,-0.595947265625,0.9299
1.1755725190839694,2.900763358778626,-3.4198473282442747,0.044189453125,-0.123046875,-0.59912109375,0.9316
1.297709923664122,2.9770992366412212,-3.3893129770992365,0.041015625,-0.123046875,-0.597412109375,0.9332999999999999
1.3587786259541985,3.099236641221374,-3.618320610687023,0.043212890625,-0.118408203125,-0.595947265625,0.9349999999999999
1.786259541984733,3.267175572519084,-3.5419847328244276,0.042236328125,-0.12060546875,-0.601806640625,0.9367
1.7709923664122138,3.2519083969465647,-3.572519083969466,0.0400390625,-0.1220703125,-0.59619140625,0.9383999999999999
1.7709923664122138,3.480916030534351,-3.3282442748091605,0.046875,-0.1259765625,-0.6044921875,0.9400999999999999
1.9389312977099236,3.633587786259542,-3.2061068702290076,0.044677734375,-0.123046875,-0.60009765625,0.9418
2.0610687022900764,3.8931297709923665,-3.2519083969465647,0.04296875,-0.124267578125,-0.600341796875,0.9434999999999999
2.0916030534351147,4.091603053435114,-2.9770992366412212,0.041015625,-0.12109375,-0.599365234375,0.9451999999999999
1.9389312977099236,4.1679389312977095,-2.763358778625954,0.039794921875,-0.12646484375,-0.60205078125,0.9469
2.0763358778625953,4.2748091603053435,-2.7480916030534353,0.04345703125,-0.1240234375,-0.59716796875,0.9486
2.015267175572519,4.412213740458015,-2.732824427480916,0.043701171875,-0.12451171875,-0.597412109375,0.9502999999999999
2.0763358778625953,4.33587786259542,-2.564885496183206,0.040283203125,-0.120849609375,-0.60205078125,0.952
2.183206106870229,4.717557251908397,-2.3053435114503817,0.038818359375,-0.12744140625,-0.607666015625,0.9537
2.351145038167939,4.809160305343512,-1.9083969465648856,0.042724609375,-0.12646484375,-0.605224609375,0.9553999999999999
2.3206106870229006,4.763358778625954,-2.0610687022900764,0.04052734375,-0.132080078125,-0.6015625,0.9571
2.427480916030534,4.854961832061068,-2.030534351145038,0.042236328125,-0.127197265625,-0.595458984375,0.9588
2.33587786259542,4.885496183206107,-2.015267175572519,0.04345703125,-0.13330078125,-0.6005859375,0.9604999999999999
2.549618320610687,4.961832061068702,-1.7099236641221374,0.0439453125,-0.130615234375,-0.6015625,0.9621999999999999
2.50381679389313,5.00763358778626,-1.7251908396946565,0.038330078125,-0.131591796875,-0.599853515625,0.9639
2.2900763358778624,5.022900763358779,-1.5419847328244274,0.04443359375,-0.130615234375,-0.59912109375,0.9655999999999999
2.427480916030534,4.824427480916031,-1.5267175572519085,0.041015625,-0.1240234375,-0.59619140625,0.9672999999999999
2.366412213740458,5.00763358778626,-1.3740458015267176,0.04248046875,-0.127685546875,-0.595458984375,0.969
2.198473282442748,4.931297709923665,-1.3740458015267176,0.038818359375,-0.125732421875,-0.603515625,0.9706999999999999
2.030534351145038,4.8396946564885495,-1.0687022900763359,0.04296875,-0.1279296875,-0.5966796875,0.9723999999999999
1.8625954198473282,4.916030534351145,-1.1908396946564885,0.046630859375,-0.130859375,-0.59814453125,0.9741
1.816793893129771,4.809160305343512,-1.2366412213740459,0.04541015625,-0.130859375,-0.60009765625,0.9758
1.9236641221374047,4.854961832061068,-1.083969465648855,0.04345703125,-0.12890625,-0.605224609375,0.9774999999999999
1.5725190839694656,4.763358778625954,-0.9923664122137404,0.040771484375,-0.12744140625,-0.6015625,0.9792
1.4961832061068703,4.809160305343512,-1.0687022900763359,0.043212890625,-0.1259765625,-0.59765625,0.9809
1.3587786259541985,4.717557251908397,-0.732824427480916,0.041259765625,-0.12744140625,-0.599365234375,0.9825999999999999
1.251908396946565,4.656488549618321,-0.9923664122137404,0.046142578125,-0.12890625,-0.604736328125,0.9843
1.450381679389313,4.793893129770993,-0.9007633587786259,0.044921875,-0.12255859375,-0.60595703125,0.986
1.2366412213740459,4.687022900763359,-1.0229007633587786,0.044189453125,-0.12841796875,-0.60546875,0.9876999999999999
1.0381679389312977,4.748091603053435,-0.8702290076335878,0.043212890625,-0.12744140625,-0.60302734375,0.9894
1.0534351145038168,4.732824427480916,-0.7938931297709924,0.046630859375,-0.126708984375,-0.601806640625,0.9911
1.1908396946564885,4.763358778625954,-0.7175572519083969,0.040771484375,-0.12939453125,-0.6005859375,0.9927999999999999
1.0229007633587786,4.702290076335878,-0.6412213740458015,0.044921875,-0.1259765625,-0.60205078125,0.9944999999999999
1.1297709923664123,4.702290076335878,-0.6870229007633588,0.04296875,-0.118896484375,-0.605712890625,0.9962
1.2671755725190839,4.702290076335878,-0.732824427480916,0.046875,-0.121337890625,-0.610595703125,0.9978999999999999
1.3587786259541985,4.778625954198473,-0.5954198473282443,0.0458984375,-0.11669921875,-0.6044921875,0.9995999999999999
1.3587786259541985,4.641221374045801,-0.8396946564885496,0.044189453125,-0.12109375,-0.599365234375,1.0012999999999999
1.251908396946565,4.67175572519084,-0.7175572519083969,0.046875,-0.117919921875,-0.610107421875,1.003
1.2671755725190839,4.763358778625954,-0.5954198473282443,0.0517578125,-0.1162109375,-0.605224609375,1.0047
1.4961832061068703,4.580152671755725,-0.5801526717557252,0.04638671875,-0.1123046875,-0.6123046875,1.0064
1.4045801526717556,4.641221374045801,-0.6564885496183206,0.044921875,-0.11474609375,-0.612548828125,1.0081
1.6946564885496183,4.641221374045801,-0.4122137404580153,0.0439453125,-0.11376953125,-0.603759765625,1.0098
1.7709923664122138,4.641221374045801,-0.5190839694656488,0.04833984375,-0.1162109375,-0.60498046875,1.0114999999999998
1.8015267175572518,4.687022900763359,-0.44274809160305345,0.04736328125,-0.117431640625,-0.60791015625,1.0131999999999999
1.8473282442748091,4.549618320610687,-0.33587786259541985,0.050537109375,-0.111328125,-0.6044921875,1.0149
2.045801526717557,4.580152671755725,-0.3053435114503817,0.0458984375,-0.112548828125,-0.599609375,1.0166
2.198473282442748,4.67175572519084,-0.5190839694656488,0.046142578125,-0.11376953125,-0.600341796875,1.0183
2.3053435114503817,4.717557251908397,-0.12213740458015267,0.05029296875,-0.11279296875,-0.600341796875,1.02
2.2595419847328246,4.595419847328245,-0.22900763358778625,0.047607421875,-0.11865234375,-0.6083984375,1.0217
2.564885496183206,4.580152671755725,-0.1984732824427481,0.04345703125,-0.118408203125,-0.611572265625,1.0233999999999999
2.4427480916030535,4.5038167938931295,-0.3969465648854962,0.04833984375,-0.119384765625,-0.6103515625,1.0251
2.2900763358778624,4.488549618320611,-0.10687022900763359,0.053466796875,-0.117919921875,-0.60595703125,1.0268
2.366412213740458,4.427480916030534,-0.2595419847328244,0.05224609375,-0.122314453125,-0.61181640625,1.0285
2.50381679389313,4.33587786259542,-0.24427480916030533,0.05419921875,-0.11962890625,-0.598876953125,1.0302
2.2442748091603053,4.427480916030534,-0.183206106870229,0.04931640625,-0.1201171875,-0.603515625,1.0319
2.2595419847328246,4.290076335877862,-0.04580152671755725,0.050048828125,-0.1162109375,-0.59765625,1.0335999999999999
2.183206106870229,4.396946564885496,-0.07633587786259542,0.052734375,-0.11865234375,-0.606689453125,1.0352999999999999
2.2595419847328246,4.351145038167939,-0.12213740458015267,0.0478515625,-0.119873046875,-0.60888671875,1.037
2.381679389312977,4.2748091603053435,-0.12213740458015267,0.050537109375,-0.12548828125,-0.60302734375,1.0387
2.351145038167939,4.229007633587786,-0.030534351145038167,0.0458984375,-0.12890625,-0.608154296875,1.0404
1.9694656488549618,4.183206106870229,-0.22900763358778625,0.05224609375,-0.128173828125,-0.61181640625,1.0421
2.0763358778625953,4.1679389312977095,-0.030534351145038167,0.0478515625,-0.120849609375,-0.608642578125,1.0437999999999998
2.16793893129771,4.030534351145038,0.04580152671755725,0.051513671875,-0.125,-0.606689453125,1.0454999999999999
2.0916030534351147,4.122137404580153,-0.030534351145038167,0.052001953125,-0.1220703125,-0.609619140625,1.0472
2.183206106870229,3.786259541984733,-0.04580152671755725,0.048583984375,-0.127685546875,-0.613037109375,1.0489
2.122137404580153,3.786259541984733,-0.061068702290076333,0.05078125,-0.127197265625,-0.607421875,1.0506
1.7709923664122138,3.7099236641221376,-0.030534351145038167,0.050537109375,-0.127197265625,-0.610107421875,1.0523
1.984732824427481,3.7404580152671754,0.21374045801526717,0.04833984375,-0.124267578125,-0.609619140625,1.054
1.6030534351145038,3.83206106870229,0.13740458015267176,0.0517578125,-0.125,-0.598876953125,1.0556999999999999
1.6030534351145038,3.7709923664122136,0.3511450381679389,0.044189453125,-0.12451171875,-0.608154296875,1.0574
1.3740458015267176,3.66412213740458,0.10687022900763359,0.046142578125,-0.12353515625,-0.599853515625,1.0591
1.3435114503816794,3.6030534351145036,0.24427480916030533,0.04541015625,-0.126708984375,-0.61376953125,1.0608
1.3893129770992367,3.6793893129770994,0.07633587786259542,0.04638671875,-0.126220703125,-0.605712890625,1.0625
1.282442748091603,3.6030534351145036,0.3969465648854962,0.050048828125,-0.12939453125,-0.603515625,1.0642
1.2061068702290076,3.49618320610687,0.16793893129770993,0.04736328125,-0.115478515625,-0.601318359375,1.0658999999999998
1.251908396946565,3.480916030534351,0.21374045801526717,0.047119140625,-0.1279296875,-0.61181640625,1.0675999999999999
1.282442748091603,3.3282442748091605,0.16793893129770993,0.04931640625,-0.126220703125,-0.612060546875,1.0693
1.1908396946564885,3.3282442748091605,0.24427480916030533,0.048583984375,-0.126953125,-0.594970703125,1.071
1.4045801526717556,3.267175572519084,0.21374045801526717,0.040771484375,-0.12548828125,-0.60498046875,1.0727
1.450381679389313,3.282442748091603,0.0916030534351145,0.04638671875,-0.123291015625,-0.60546875,1.0744
1.633587786259542,3.5267175572519083,0.13740458015267176,0.045654296875,-0.124267578125,-0.61181640625,1.0760999999999998
1.7099236641221374,3.267175572519084,0.13740458015267176,0.04638671875,-0.12939453125,-0.6025390625,1.0777999999999999
1.6946564885496183,3.1297709923664123,-0.21374045801526717,0.046630859375,-0.121826171875,-0.60693359375,1.0795
1.7557251908396947,3.3740458015267176,-0.015267175572519083,0.05029296875,-0.1201171875,-0.608642578125,1.0812
2.1374045801526718,3.267175572519084,-0.32061068702290074,0.046630859375,-0.123779296875,-0.5986328125,1.0829
2.213740458015267,3.312977099236641,-0.2595419847328244,0.03955078125,-0.1240234375,-0.596435546875,1.0846
1.984732824427481,3.3893129770992365,-0.3816793893129771,0.0390625,-0.1240234375,-0.59716796875,1.0863
1.8778625954198473,3.3740458015267176,-0.32061068702290074,0.042236328125,-0.12353515625,-0.608154296875,1.0879999999999999
1.9694656488549618,3.282442748091603,-0.4122137404580153,0.045654296875,-0.129150390625,-0.603515625,1.0897
2.381679389312977,3.282442748091603,-0.5190839694656488,0.045166015625,-0.1279296875,-0.60546875,1.0914
2.213740458015267,3.480916030534351,-0.7633587786259542,0.041015625,-0.125,-0.60302734375,1.0931
2.4122137404580153,3.3740458015267176,-0.7938931297709924,0.05224609375,-0.12646484375,-0.599365234375,1.0948
2.2748091603053435,3.5419847328244276,-0.8244274809160306,0.045654296875,-0.119384765625,-0.60107421875,1.0965
2.0916030534351147,3.5419847328244276,-0.7022900763358778,0.04541015625,-0.123046875,-0.605224609375,1.0981999999999998
2.045801526717557,3.5572519083969465,-0.7022900763358778,0.047119140625,-0.1279296875,-0.60205078125,1.0998999999999999
2.0763358778625953,3.435114503816794,-0.8091603053435115,0.050537109375,-0.127685546875,-0.600341796875,1.1016
2.0610687022900764,3.5572519083969465,-0.9007633587786259,0.0478515625,-0.126220703125,-0.594482421875,1.1033
2.045801526717557,3.450381679389313,-0.7938931297709924,0.049072265625,-0.126708984375,-0.608154296875,1.105
1.9236641221374047,3.633587786259542,-0.9007633587786259,0.045166015625,-0.128662109375,-0.603759765625,1.1067
2.0,3.6793893129770994,-1.0076335877862594,0.04833984375,-0.129150390625,-0.60205078125,1.1083999999999998
1.7709923664122138,3.7099236641221376,-1.1145038167938932,0.045166015625,-0.127197265625,-0.60205078125,1.1100999999999999
1.8625954198473282,3.480916030534351,-1.0076335877862594,0.046630859375,-0.1328125,-0.604248046875,1.1118
1.83206106870229,3.7404580152671754,-1.297709923664122,0.047607421875,-0.125732421875,-0.599609375,1.1135
1.7099236641221374,3.5877862595419847,-1.099236641221374,0.047119140625,-0.1279296875,-0.603759765625,1.1152
1.5725190839694656,3.572519083969466,-1.1603053435114503,0.04443359375,-0.1298828125,-0.6064453125,1.1169
1.5572519083969465,3.6030534351145036,-1.2671755725190839,0.049072265625,-0.130126953125,-0.6025390625,1.1186
1.3893129770992367,3.66412213740458,-1.4961832061068703,0.045166015625,-0.13330078125,-0.60107421875,1.1202999999999999
1.3282442748091603,3.4656488549618323,-1.3740458015267176,0.044677734375,-0.136962890625,-0.600341796875,1.1219999999999999
1.1450381679389312,3.49618320610687,-1.3435114503816794,0.048583984375,-0.13134765625,-0.6005859375,1.1237
1.099236641221374,3.4656488549618323,-1.5114503816793894,0.051513671875,-0.125244140625,-0.59130859375,1.1254
1.0076335877862594,3.4656488549618323,-1.6488549618320612,0.0419921875,-0.126708984375,-0.605224609375,1.1271
0.9007633587786259,3.4656488549618323,-1.786259541984733,0.04833984375,-0.130615234375,-0.597900390625,1.1288
0.42748091603053434,3.4198473282442747,-1.8778625954198473,0.046875,-0.130126953125,-0.6015625,1.1304999999999998
0.44274809160305345,3.435114503816794,-1.8473282442748091,0.048828125,-0.130126953125,-0.599609375,1.1321999999999999
0.2900763358778626,3.5572519083969465,-1.7099236641221374,0.04541015625,-0.12939453125,-0.596923828125,1.1339
0.183206106870229,3.4198473282442747,-1.7709923664122138,0.048583984375,-0.131103515625,-0.604736328125,1.1356
-0.1984732824427481,3.5114503816793894,-1.7557251908396947,0.052001953125,-0.127197265625,-0.602294921875,1.1373
-0.015267175572519083,3.4656488549618323,-2.015267175572519,0.04541015625,-0.131103515625,-0.603271484375,1.139
-0.030534351145038167,3.404580152671756,-1.8931297709923665,0.050537109375,-0.13232421875,-0.59521484375,1.1407
-0.030534351145038167,3.4656488549618323,-2.0,0.048095703125,-0.133544921875,-0.598388671875,1.1423999999999999
-0.366412213740458,3.3435114503816794,-2.030534351145038,0.04736328125,-0.130859375,-0.602783203125,1.1441
-0.22900763358778625,3.572519083969466,-1.8473282442748091,0.046142578125,-0.134033203125,-0.595947265625,1.1458
-0.24427480916030533,3.3282442748091605,-1.8015267175572518,0.04443359375,-0.1298828125,-0.5966796875,1.1475
-0.549618320610687,3.3282442748091605,-1.8931297709923665,0.044677734375,-0.13671875,-0.605224609375,1.1492
-0.5801526717557252,3.3893129770992365,-1.9389312977099236,0.046630859375,-0.134521484375,-0.60302734375,1.1509
-0.32061068702290074,3.282442748091603,-2.0763358778625953,0.051025390625,-0.12890625,-0.59619140625,1.1525999999999998
-0.6717557251908397,3.2977099236641223,-2.045801526717557,0.050537109375,-0.12744140625,-0.6015625,1.1542999999999999
-0.8396946564885496,3.0839694656488548,-2.0610687022900764,0.04833984375,-0.128173828125,-0.5986328125,1.156
-0.916030534351145,3.1297709923664123,-2.198473282442748,0.052490234375,-0.125732421875,-0.6044921875,1.1577
-0.7175572519083969,3.236641221374046,-2.2290076335877864,0.05078125,-0.12744140625,-0.605712890625,1.1594
-0.9770992366412213,3.2977099236641223,-2.0763358778625953,0.051513671875,-0.126220703125,-0.6025390625,1.1611
-1.0687022900763359,3.2061068702290076,-2.122137404580153,0.052001953125,-0.12548828125,-0.598388671875,1.1627999999999998
-1.1603053435114503,3.2977099236641223,-2.1068702290076335,0.0517578125,-0.12255859375,-0.60107421875,1.1644999999999999
-1.0381679389312977,3.0381679389312977,-2.1374045801526718,0.053955078125,-0.12451171875,-0.603759765625,1.1662
-0.9312977099236641,2.946564885496183,-2.351145038167939,0.051513671875,-0.125,-0.605712890625,1.1679
-0.8702290076335878,2.900763358778626,-2.213740458015267,0.05126953125,-0.11669921875,-0.600341796875,1.1696
-1.0076335877862594,2.9923664122137406,-2.0,0.051513671875,-0.125244140625,-0.597412109375,1.1713
-0.7480916030534351,3.0381679389312977,-2.3206106870229006,0.051513671875,-0.12451171875,-0.5927734375,1.173
-0.5801526717557252,2.931297709923664,-2.183206106870229,0.047607421875,-0.123046875,-0.6025390625,1.1746999999999999
-0.2900763358778626,2.885496183206107,-2.1526717557251906,0.050537109375,-0.122802734375,-0.6005859375,1.1764
-0.22900763358778625,2.6259541984732824,-2.045801526717557,0.054443359375,-0.123779296875,-0.5966796875,1.1781
-0.44274809160305345,2.7786259541984735,-2.122137404580153,0.051513671875,-0.1259765625,-0.602294921875,1.1798
-0.0916030534351145,2.931297709923664,-1.9236641221374047,0.0537109375,-0.124267578125,-0.6015625,1.1815
0.1984732824427481,2.564885496183206,-2.0,0.0556640625,-0.12548828125,-0.598388671875,1.1832
0.10687022900763359,2.4122137404580153,-1.9389312977099236,0.05419921875,-0.124267578125,-0.598388671875,1.1848999999999998
0.1984732824427481,2.519083969465649,-1.816793893129771,0.053466796875,-0.126953125,-0.59716796875,1.1865999999999999
0.366412213740458,2.3206106870229006,-1.7099236641221374,0.056640625,-0.125244140625,-0.6015625,1.1883
0.24427480916030533,2.198473282442748,-1.8625954198473282,0.05029296875,-0.11962890625,-0.59130859375,1.19
0.32061068702290074,2.351145038167939,-1.633587786259542,0.054443359375,-0.1240234375,-0.59765625,1.1917
0.4732824427480916,2.1068702290076335,-1.6793893129770991,0.053466796875,-0.12158203125,-0.6044921875,1.1934
0.6412213740458015,2.2595419847328246,-1.3893129770992367,0.052978515625,-0.12890625,-0.595458984375,1.1950999999999998
0.6259541984732825,2.045801526717557,-1.465648854961832,0.052001953125,-0.126220703125,-0.601318359375,1.1967999999999999
0.5801526717557252,1.984732824427481,-1.3282442748091603,0.051025390625,-0.12548828125,-0.597412109375,1.1985
0.6717557251908397,2.0,-1.3435114503816794,0.0556640625,-0.1279296875,-0.60009765625,1.2002
0.7022900763358778,1.8473282442748091,-1.1908396946564885,0.054443359375,-0.12744140625,-0.58837890625,1.2019
0.6564885496183206,1.816793893129771,-1.282442748091603,0.0576171875,-0.12841796875,-0.597412109375,1.2036
0.42748091603053434,1.8625954198473282,-1.1297709923664123,0.04638671875,-0.123046875,-0.5947265625,1.2053
0.7022900763358778,1.6793893129770991,-1.2213740458015268,0.047607421875,-0.129638671875,-0.598388671875,1.2069999999999999
0.6564885496183206,1.6946564885496183,-0.9618320610687023,0.0576171875,-0.130859375,-0.598876953125,1.2086999999999999
0.366412213740458,1.5572519083969465,-0.9618320610687023,0.05615234375,-0.122802734375,-0.595458984375,1.2104
0.5648854961832062,1.8473282442748091,-0.9007633587786259,0.051025390625,-0.12353515625,-0.60009765625,1.2121
0.48854961832061067,1.7251908396946565,-0.6717557251908397,0.04736328125,-0.1220703125,-0.594482421875,1.2138
0.5038167938931297,1.6793893129770991,-0.6106870229007634,0.050537109375,-0.13037109375,-0.59521484375,1.2155
0.3511450381679389,1.7404580152671756,-0.6564885496183206,0.0478515625,-0.126708984375,-0.604248046875,1.2171999999999998
0.3816793893129771,1.7404580152671756,-0.5343511450381679,0.045166015625,-0.122314453125,-0.606201171875,1.2188999999999999
0.3053435114503817,1.8625954198473282,-0.8854961832061069,0.044921875,-0.129638671875,-0.603271484375,1.2206
0.10687022900763359,1.8931297709923665,-0.6259541984732825,0.048828125,-0.12451171875,-0.595458984375,1.2223
0.0,1.7404580152671756,-0.7480916030534351,0.05078125,-0.12744140625,-0.591064453125,1.224
-0.2595419847328244,1.6030534351145038,-0.5343511450381679,0.046142578125,-0.125732421875,-0.596923828125,1.2257
-0.22900763358778625,1.8473282442748091,-0.6564885496183206,0.054931640625,-0.123046875,-0.590576171875,1.2273999999999998
-0.13740458015267176,1.984732824427481,-0.5801526717557252,0.0458984375,-0.128173828125,-0.5966796875,1.2290999999999999
-0.07633587786259542,1.8473282442748091,-0.6106870229007634,0.046142578125,-0.125244140625,-0.602294921875,1.2308
0.04580152671755725,1.465648854961832,-0.5343511450381679,0.05029296875,-0.123046875,-0.598388671875,1.2325
0.07633587786259542,1.7709923664122138,-0.5648854961832062,0.046875,-0.123291015625,-0.593017578125,1.2342
0.24427480916030533,1.8625954198473282,-0.4732824427480916,0.050048828125,-0.12451171875,-0.6005859375,1.2359
0.3053435114503817,1.9236641221374047,-0.5648854961832062,0.050537109375,-0.1181640625,-0.59619140625,1.2376
0.3969465648854962,2.0,-0.5343511450381679,0.051025390625,-0.1240234375,-0.5947265625,1.2392999999999998
0.8091603053435115,2.015267175572519,-0.549618320610687,0.049560546875,-0.123046875,-0.593994140625,1.2409999999999999
0.5648854961832062,2.183206106870229,-0.4122137404580153,0.048583984375,-0.121337890625,-0.595458984375,1.2427
1.0381679389312977,2.381679389312977,-0.44274809160305345,0.048583984375,-0.118408203125,-0.58740234375,1.2444
1.251908396946565,2.2290076335877864,-0.5190839694656488,0.0478515625,-0.11767578125,-0.59033203125,1.2461
1.0381679389312977,2.2595419847328246,-0.4122137404580153,0.049560546875,-0.11962890625,-0.58984375,1.2478
1.083969465648855,2.549618320610687,-0.4580152671755725,0.0517578125,-0.125244140625,-0.5869140625,1.2494999999999998
1.282442748091603,2.366412213740458,-0.3969465648854962,0.04833984375,-0.1201171875,-0.602783203125,1.2511999999999999
1.4045801526717556,2.33587786259542,-0.24427480916030533,0.047607421875,-0.121826171875,-0.595703125,1.2529
1.282442748091603,2.5343511450381677,-0.33587786259541985,0.04638671875,-0.123046875,-0.594970703125,1.2546
0.9465648854961832,2.6412213740458017,-0.24427480916030533,0.04443359375,-0.121337890625,-0.598388671875,1.2563
1.4045801526717556,2.5343511450381677,-0.12213740458015267,0.050537109375,-0.12158203125,-0.59814453125,1.258
1.3587786259541985,2.8396946564885495,-0.04580152671755725,0.04931640625,-0.122802734375,-0.591064453125,1.2596999999999998
1.282442748091603,2.854961832061069,-0.183206106870229,0.0517578125,-0.125244140625,-0.597900390625,1.2613999999999999
1.1603053435114503,2.900763358778626,-0.13740458015267176,0.049560546875,-0.12109375,-0.591064453125,1.2631
1.3282442748091603,2.7480916030534353,-0.2748091603053435,0.049560546875,-0.12353515625,-0.593017578125,1.2648
1.083969465648855,2.7480916030534353,0.0,0.0517578125,-0.12890625,-0.59423828125,1.2665
1.297709923664122,2.9160305343511452,-0.15267175572519084,0.050537109375,-0.13037109375,-0.593994140625,1.2682
1.251908396946565,3.0076335877862594,-0.030534351145038167,0.051513671875,-0.12451171875,-0.603515625,1.2699
1.4351145038167938,2.732824427480916,-0.16793893129770993,0.051513671875,-0.1298828125,-0.6044921875,1.2715999999999998
1.4351145038167938,2.931297709923664,0.030534351145038167,0.051025390625,-0.1259765625,-0.5986328125,1.2732999999999999
1.7557251908396947,2.732824427480916,-0.21374045801526717,0.050537109375,-0.12548828125,-0.59423828125,1.275
1.786259541984733,2.763358778625954,0.015267175572519083,0.043212890625,-0.128173828125,-0.59033203125,1.2767
1.6641221374045803,2.6259541984732824,-0.183206106870229,0.040771484375,-0.11962890625,-0.60009765625,1.2784
1.5114503816793894,2.6564885496183206,-0.07633587786259542,0.050537109375,-0.126708984375,-0.60302734375,1.2801
1.633587786259542,2.7480916030534353,-0.183206106870229,0.0478515625,-0.123046875,-0.597412109375,1.2817999999999998
1.6030534351145038,2.8396946564885495,-0.04580152671755725,0.052734375,-0.12841796875,-0.594482421875,1.2834999999999999
1.4961832061068703,2.8396946564885495,-0.030534351145038167,0.051513671875,-0.12744140625,-0.602783203125,1.2852
1.251908396946565,2.8396946564885495,0.1984732824427481,0.052001953125,-0.12939453125,-0.596435546875,1.2869
1.3893129770992367,2.946564885496183,0.21374045801526717,0.052734375,-0.125732421875,-0.60302734375,1.2886
1.4961832061068703,3.068702290076336,0.13740458015267176,0.054931640625,-0.12255859375,-0.598876953125,1.2903
1.3282442748091603,2.931297709923664,0.3511450381679389,0.052490234375,-0.127197265625,-0.594970703125,1.292
1.0076335877862594,3.0839694656488548,0.366412213740458,0.051025390625,-0.126953125,-0.601318359375,1.2936999999999999
1.0076335877862594,3.2213740458015265,0.2900763358778626,0.051513671875,-0.1240234375,-0.601318359375,1.2953999999999999
0.9923664122137404,3.2519083969465647,0.48854961832061067,0.05224609375,-0.133056640625,-0.598876953125,1.2971
0.8549618320610687,3.1603053435114505,0.5648854961832062,0.049560546875,-0.13037109375,-0.599365234375,1.2988
1.1145038167938932,3.2519083969465647,0.7022900763358778,0.052734375,-0.128662109375,-0.603515625,1.3005
1.0076335877862594,3.2977099236641223,0.7175572519083969,0.048583984375,-0.12548828125,-0.60009765625,1.3022
1.1145038167938932,3.1603053435114505,0.5343511450381679,0.048583984375,-0.12353515625,-0.59619140625,1.3038999999999998
1.3282442748091603,3.2061068702290076,0.6106870229007634,0.04931640625,-0.126220703125,-0.6005859375,1.3055999999999999
1.3129770992366412,3.099236641221374,0.7786259541984732,0.0517578125,-0.12744140625,-0.599365234375,1.3073
1.297709923664122,2.931297709923664,0.7022900763358778,0.050537109375,-0.128173828125,-0.59912109375,1.309
1.4809160305343512,3.068702290076336,0.6412213740458015,0.0517578125,-0.1279296875,-0.599853515625,1.3107
1.5267175572519085,3.114503816793893,0.5190839694656488,0.0517578125,-0.12646484375,-0.60009765625,1.3124
1.4045801526717556,3.053435114503817,0.5038167938931297,0.0458984375,-0.1298828125,-0.593017578125,1.3140999999999998
1.4809160305343512,2.9160305343511452,0.48854961832061067,0.051513671875,-0.12890625,-0.600830078125,1.3157999999999999
1.618320610687023,2.931297709923664,0.8396946564885496,0.057373046875,-0.1259765625,-0.59912109375,1.3175
1.7404580152671756,2.931297709923664,0.6564885496183206,0.052490234375,-0.127197265625,-0.603515625,1.3192
1.9083969465648856,2.9618320610687023,0.7633587786259542,0.050537109375,-0.12548828125,-0.597900390625,1.3209
2.16793893129771,2.7938931297709924,0.8244274809160306,0.05224609375,-0.12939453125,-0.598388671875,1.3226
2.1374045801526718,2.687022900763359,0.732824427480916,0.05322265625,-0.125,-0.59375,1.3243
2.0610687022900764,2.8091603053435112,0.9618320610687023,0.052490234375,-0.128173828125,-0.596923828125,1.3259999999999998
1.9236641221374047,2.8244274809160306,0.6870229007633588,0.049072265625,-0.125,-0.599853515625,1.3276999999999999
2.381679389312977,2.854961832061069,1.0534351145038168,0.050537109375,-0.126953125,-0.588134765625,1.3294
2.381679389312977,2.900763358778626,1.1755725190839694,0.054443359375,-0.12255859375,-0.59716796875,1.3311
2.4122137404580153,2.854961832061069,1.2213740458015268,0.0546875,-0.124755859375,-0.596435546875,1.3328
2.4732824427480917,2.7938931297709924,0.9923664122137404,0.053466796875,-0.1259765625,-0.602294921875,1.3345
2.6717557251908395,2.7938931297709924,1.099236641221374,0.050048828125,-0.12451171875,-0.6025390625,1.3361999999999998
2.732824427480916,2.8702290076335877,1.1297709923664123,0.05224609375,-0.126708984375,-0.60205078125,1.3378999999999999
2.687022900763359,2.946564885496183,1.251908396946565,0.052734375,-0.131591796875,-0.596923828125,1.3396
2.5801526717557253,2.931297709923664,1.1908396946564885,0.046875,-0.13134765625,-0.599853515625,1.3413
2.6106870229007635,2.9618320610687023,1.099236641221374,0.052490234375,-0.12939453125,-0.59716796875,1.343
2.6412213740458017,2.900763358778626,0.9465648854961832,0.053466796875,-0.130126953125,-0.597900390625,1.3447
2.885496183206107,2.931297709923664,0.9923664122137404,0.05322265625,-0.127685546875,-0.60595703125,1.3463999999999998
2.4427480916030535,2.8091603053435112,1.2061068702290076,0.057373046875,-0.12744140625,-0.59765625,1.3480999999999999
2.564885496183206,2.6564885496183206,1.2061068702290076,0.05078125,-0.129150390625,-0.603759765625,1.3497999999999999
2.732824427480916,2.885496183206107,0.9770992366412213,0.053955078125,-0.129638671875,-0.602294921875,1.3515
2.50381679389313,2.931297709923664,1.099236641221374,0.05322265625,-0.13427734375,-0.599609375,1.3532
2.5343511450381677,2.946564885496183,1.2366412213740459,0.05615234375,-0.1318359375,-0.60888671875,1.3549
2.4427480916030535,2.8702290076335877,1.0076335877862594,0.05517578125,-0.135009765625,-0.598388671875,1.3566
2.4427480916030535,3.0229007633587788,0.9465648854961832,0.048583984375,-0.1298828125,-0.603759765625,1.3582999999999998
2.3206106870229006,2.763358778625954,0.9465648854961832,0.054443359375,-0.128173828125,-0.595458984375,1.3599999999999999
2.3053435114503817,2.7480916030534353,0.6717557251908397,0.052978515625,-0.134765625,-0.59619140625,1.3617
2.549618320610687,2.885496183206107,1.0229007633587786,0.05859375,-0.138671875,-0.59228515625,1.3634
2.519083969465649,2.931297709923664,0.9312977099236641,0.05810546875,-0.139404296875,-0.599365234375,1.3651
2.33587786259542,2.9160305343511452,0.8854961832061069,0.056640625,-0.13134765625,-0.6015625,1.3668
2.4122137404580153,2.931297709923664,0.9618320610687023,0.058349609375,-0.133056640625,-0.604736328125,1.3684999999999998
2.2900763358778624,2.8091603053435112,1.0534351145038168,0.051025390625,-0.13330078125,-0.598876953125,1.3701999999999999
2.33587786259542,2.732824427480916,0.732824427480916,0.053955078125,-0.13134765625,-0.597412109375,1.3719
2.3206106870229006,2.8396946564885495,0.9007633587786259,0.05224609375,-0.132568359375,-0.593994140625,1.3736
2.366412213740458,2.732824427480916,0.732824427480916,0.054931640625,-0.1328125,-0.594970703125,1.3753
2.3053435114503817,2.7480916030534353,0.549618320610687,0.05419921875,-0.13671875,-0.5908203125,1.377
2.2442748091603053,2.6564885496183206,0.6412213740458015,0.056884765625,-0.13671875,-0.6015625,1.3786999999999998
2.2900763358778624,2.595419847328244,0.7175572519083969,0.053466796875,-0.13720703125,-0.603515625,1.3803999999999998
2.2442748091603053,2.564885496183206,0.5954198473282443,0.054931640625,-0.13525390625,-0.605712890625,1.3820999999999999
2.1374045801526718,2.5343511450381677,0.5801526717557252,0.052490234375,-0.12890625,-0.59765625,1.3838
2.122137404580153,2.4732824427480917,0.5648854961832062,0.049560546875,-0.13134765625,-0.6005859375,1.3855
2.3053435114503817,2.6106870229007635,0.48854961832061067,0.0546875,-0.133056640625,-0.597412109375,1.3872
2.3969465648854964,2.366412213740458,0.366412213740458,0.053955078125,-0.1318359375,-0.60498046875,1.3889
2.351145038167939,2.2900763358778624,0.3816793893129771,0.05126953125,-0.135986328125,-0.59619140625,1.3905999999999998
2.2290076335877864,2.1526717557251906,0.13740458015267176,0.053955078125,-0.1279296875,-0.602783203125,1.3922999999999999
2.3206106870229006,2.3053435114503817,0.3053435114503817,0.0556640625,-0.126953125,-0.594970703125,1.394
2.1068702290076335,2.2290076335877864,0.16793893129770993,0.054931640625,-0.1298828125,-0.601318359375,1.3957
2.1526717557251906,2.1526717557251906,0.12213740458015267,0.046875,-0.126708984375,-0.60009765625,1.3974
2.045801526717557,1.9083969465648856,-0.07633587786259542,0.0498046875,-0.12451171875,-0.600830078125,1.3991
2.030534351145038,2.1526717557251906,-0.061068702290076333,0.0478515625,-0.129638671875,-0.603759765625,1.4007999999999998
1.6641221374045803,2.1068702290076335,-0.2748091603053435,0.054443359375,-0.128173828125,-0.603759765625,1.4024999999999999
1.6030534351145038,2.1068702290076335,-0.21374045801526717,0.05517578125,-0.13525390625,-0.59326171875,1.4042
1.4198473282442747,1.984732824427481,-0.4122137404580153,0.046630859375,-0.130126953125,-0.596435546875,1.4059
1.3129770992366412,2.1068702290076335,-0.4580152671755725,0.052490234375,-0.12890625,-0.603515625,1.4076
1.450381679389313,1.9541984732824427,-0.4580152671755725,0.050048828125,-0.124755859375,-0.604248046875,1.4093
1.450381679389313,2.0763358778625953,-0.5954198473282443,0.0537109375,-0.13427734375,-0.60498046875,1.411
1.3129770992366412,2.015267175572519,-0.8091603053435115,0.054443359375,-0.129638671875,-0.596435546875,1.4126999999999998
1.3587786259541985,1.8625954198473282,-0.7786259541984732,0.04931640625,-0.133544921875,-0.607421875,1.4143999999999999
1.3129770992366412,1.786259541984733,-0.6717557251908397,0.051513671875,-0.12939453125,-0.596923828125,1.4161
1.4198473282442747,1.9389312977099236,-0.7786259541984732,0.049560546875,-0.12890625,-0.60595703125,1.4178
1.4809160305343512,1.9541984732824427,-1.0229007633587786,0.054443359375,-0.130615234375,-0.60107421875,1.4195
1.5877862595419847,1.816793893129771,-0.9007633587786259,0.05224609375,-0.12890625,-0.60205078125,1.4212
1.816793893129771,1.8931297709923665,-1.0076335877862594,0.0556640625,-0.12939453125,-0.597900390625,1.4228999999999998
1.8778625954198473,1.9083969465648856,-1.1297709923664123,0.056396484375,-0.13232421875,-0.595947265625,1.4245999999999999
1.8473282442748091,1.9083969465648856,-1.1908396946564885,0.050537109375,-0.127685546875,-0.599365234375,1.4263
1.8473282442748091,2.030534351145038,-0.9618320610687023,0.05126953125,-0.13037109375,-0.5986328125,1.428
1.8778625954198473,2.0,-1.1450381679389312,0.05029296875,-0.13232421875,-0.6044921875,1.4297
1.7557251908396947,1.9541984732824427,-1.2366412213740459,0.054443359375,-0.1337890625,-0.6044921875,1.4314
1.83206106870229,1.9541984732824427,-1.2213740458015268,0.053955078125,-0.135986328125,-0.601806640625,1.4330999999999998
1.7557251908396947,1.9236641221374047,-0.9923664122137404,0.052490234375,-0.1328125,-0.59765625,1.4347999999999999
1.7099236641221374,1.9694656488549618,-1.1908396946564885,0.0517578125,-0.131103515625,-0.598876953125,1.4364999999999999
1.5419847328244274,2.122137404580153,-1.0534351145038168,0.0517578125,-0.1376953125,-0.599365234375,1.4382
1.4809160305343512,2.122137404580153,-1.0687022900763359,0.048828125,-0.128173828125,-0.591796875,1.4399
1.5572519083969465,2.0916030534351147,-0.9465648854961832,0.057861328125,-0.12890625,-0.604736328125,1.4416
1.3435114503816794,2.183206106870229,-1.0687022900763359,0.05712890625,-0.131103515625,-0.597900390625,1.4433
1.6946564885496183,2.0916030534351147,-0.916030534351145,0.05126953125,-0.1318359375,-0.6044921875,1.4449999999999998
1.465648854961832,2.1374045801526718,-1.1908396946564885,0.05419921875,-0.134765625,-0.599853515625,1.4466999999999999
1.3740458015267176,2.183206106870229,-0.8702290076335878,0.05224609375,-0.131103515625,-0.60302734375,1.4484
1.2061068702290076,2.0610687022900764,-1.1755725190839694,0.05517578125,-0.1337890625,-0.609130859375,1.4501
1.0534351145038168,2.1068702290076335,-1.1450381679389312,0.05224609375,-0.13623046875,-0.600830078125,1.4518
1.1908396946564885,1.984732824427481,-1.2671755725190839,0.052734375,-0.13427734375,-0.60009765625,1.4535
1.282442748091603,2.015267175572519,-1.083969465648855,0.053955078125,-0.134521484375,-0.592529296875,1.4551999999999998
0.9618320610687023,2.015267175572519,-1.1450381679389312,0.05859375,-0.134521484375,-0.605712890625,1.4568999999999999
0.7175572519083969,2.0,-1.1755725190839694,0.05517578125,-0.1337890625,-0.60595703125,1.4586
0.6412213740458015,1.9389312977099236,-1.3893129770992367,0.053466796875,-0.1298828125,-0.60888671875,1.4603
1.0076335877862594,1.8015267175572518,-1.1755725190839694,0.0546875,-0.128662109375,-0.60009765625,1.462
0.916030534351145,1.8625954198473282,-1.099236641221374,0.05859375,-0.137451171875,-0.601318359375,1.4637
0.7786259541984732,1.7404580152671756,-1.2061068702290076,0.054443359375,-0.135986328125,-0.603515625,1.4653999999999998
0.7786259541984732,1.4961832061068703,-1.297709923664122,0.056640625,-0.132080078125,-0.59912109375,1.4670999999999998
0.9618320610687023,1.450381679389313,-1.297709923664122,0.057861328125,-0.134765625,-0.598876953125,1.4687999999999999
0.8549618320610687,1.4961832061068703,-1.4961832061068703,0.0595703125,-0.135986328125,-0.6005859375,1.4705
0.9007633587786259,1.6030534351145038,-1.3129770992366412,0.054931640625,-0.131103515625,-0.605712890625,1.4722
0.9007633587786259,1.5419847328244274,-1.450381679389313,0.06103515625,-0.13427734375,-0.604736328125,1.4739
0.5954198473282443,1.3740458015267176,-1.5419847328244274,0.054443359375,-0.127197265625,-0.6015625,1.4756
0.9465648854961832,1.3282442748091603,-1.1755725190839694,0.054443359375,-0.1298828125,-0.601318359375,1.4772999999999998
0.8244274809160306,1.2061068702290076,-1.1145038167938932,0.05908203125,-0.12841796875,-0.6025390625,1.4789999999999999
0.732824427480916,1.282442748091603,-1.2213740458015268,0.059814453125,-0.124755859375,-0.600830078125,1.4807
0.8396946564885496,1.2671755725190839,-1.297709923664122,0.057861328125,-0.128173828125,-0.5986328125,1.4824
0.7633587786259542,1.3587786259541985,-1.251908396946565,0.054931640625,-0.13037109375,-0.600341796875,1.4841
0.6106870229007634,1.1603053435114503,-1.0534351145038168,0.057373046875,-0.1240234375,-0.59814453125,1.4858
0.9465648854961832,0.9923664122137404,-1.099236641221374,0.056640625,-0.12744140625,-0.599853515625,1.4874999999999998
0.7633587786259542,1.0687022900763359,-1.1145038167938932,0.0595703125,-0.126708984375,-0.598876953125,1.4891999999999999
0.7480916030534351,1.1297709923664123,-1.297709923664122,0.05712890625,-0.12744140625,-0.607421875,1.4909
0.9465648854961832,1.2671755725190839,-1.1603053435114503,0.059814453125,-0.132080078125,-0.59423828125,1.4926
1.0229007633587786,0.8549618320610687,-1.1603053435114503,0.059326171875,-0.123046875,-0.598388671875,1.4943
0.916030534351145,1.0381679389312977,-1.2213740458015268,0.054931640625,-0.126953125,-0.599609375,1.496
0.8396946564885496,1.0534351145038168,-1.4351145038167938,0.05517578125,-0.1240234375,-0.601806640625,1.4976999999999998
1.1450381679389312,1.0229007633587786,-1.3893129770992367,0.051513671875,-0.1162109375,-0.60107421875,1.4993999999999998
1.2061068702290076,1.0381679389312977,-1.3435114503816794,0.055908203125,-0.1298828125,-0.602783203125,1.5010999999999999
1.5114503816793894,0.8854961832061069,-1.3740458015267176,0.05419921875,-0.13232421875,-0.59912109375,1.5028
1.5572519083969465,0.9923664122137404,-1.2671755725190839,0.057373046875,-0.131591796875,-0.601806640625,1.5045
1.5114503816793894,0.9923664122137404,-1.5419847328244274,0.055908203125,-0.128173828125,-0.601806640625,1.5062
1.4198473282442747,0.8396946564885496,-1.465648854961832,0.057373046875,-0.126708984375,-0.596923828125,1.5079
1.5877862595419847,1.1145038167938932,-1.3893129770992367,0.048095703125,-0.130615234375,-0.6123046875,1.5095999999999998
1.7404580152671756,1.083969465648855,-1.4198473282442747,0.051025390625,-0.129638671875,-0.609130859375,1.5112999999999999
1.5725190839694656,1.0076335877862594,-1.633587786259542,0.052001953125,-0.126708984375,-0.612060546875,1.513
1.633587786259542,0.9312977099236641,-1.618320610687023,0.051025390625,-0.127197265625,-0.606201171875,1.5147
1.3282442748091603,1.0381679389312977,-1.4809160305343512,0.052490234375,-0.12841796875,-0.59228515625,1.5164
1.3282442748091603,1.083969465648855,-1.4351145038167938,0.04638671875,-0.13232421875,-0.597900390625,1.5181
1.5725190839694656,1.1603053435114503,-1.6030534351145038,0.0576171875,-0.128662109375,-0.605224609375,1.5197999999999998
1.5419847328244274,1.2671755725190839,-1.5572519083969465,0.056640625,-0.132080078125,-0.6005859375,1.5214999999999999
1.282442748091603,1.1908396946564885,-1.251908396946565,0.055419921875,-0.13232421875,-0.596435546875,1.5231999999999999
1.1755725190839694,1.2213740458015268,-1.465648854961832,0.051513671875,-0.13134765625,-0.5986328125,1.5249
1.3129770992366412,1.2366412213740459,-1.251908396946565,0.0595703125,-0.13232421875,-0.605712890625,1.5266
1.3435114503816794,1.5419847328244274,-1.297709923664122,0.05419921875,-0.127685546875,-0.599609375,1.5283
1.1908396946564885,1.3587786259541985,-1.3740458015267176,0.05517578125,-0.130126953125,-0.59912109375,1.5299999999999998
1.099236641221374,1.4351145038167938,-1.0687022900763359,0.057861328125,-0.13330078125,-0.609375,1.5316999999999998
1.099236641221374,1.3740458015267176,-1.3282442748091603,0.052490234375,-0.1337890625,-0.611572265625,1.5333999999999999
0.9465648854961832,1.5877862595419847,-1.2213740458015268,0.05615234375,-0.13232421875,-0.607421875,1.5351
0.732824427480916,1.5572519083969465,-1.1145038167938932,0.055419921875,-0.1328125,-0.6064453125,1.5368
0.7480916030534351,1.4045801526717556,-1.1450381679389312,0.057861328125,-0.131103515625,-0.5966796875,1.5385
0.6259541984732825,1.3587786259541985,-1.3435114503816794,0.054443359375,-0.132568359375,-0.602294921875,1.5402
0.4732824427480916,1.3740458015267176,-1.1755725190839694,0.05810546875,-0.12939453125,-0.60107421875,1.5418999999999998
0.3511450381679389,1.5267175572519085,-1.0687022900763359,0.055908203125,-0.1279296875,-0.593994140625,1.5435999999999999
0.2900763358778626,1.4809160305343512,-0.9618320610687023,0.052490234375,-0.13037109375,-0.60498046875,1.5453
0.42748091603053434,1.4351145038167938,-1.2366412213740459,0.05615234375,-0.12939453125,-0.602783203125,1.547
0.32061068702290074,1.4198473282442747,-1.1450381679389312,0.060791015625,-0.126953125,-0.59765625,1.5487
0.1984732824427481,1.297709923664122,-1.282442748091603,0.058349609375,-0.13134765625,-0.597900390625,1.5504
0.3053435114503817,1.4351145038167938,-1.0381679389312977,0.059326171875,-0.124755859375,-0.597900390625,1.5520999999999998
0.33587786259541985,1.6488549618320612,-1.1450381679389312,0.057373046875,-0.126953125,-0.60009765625,1.5537999999999998
0.3053435114503817,1.5877862595419847,-1.1755725190839694,0.06005859375,-0.125244140625,-0.6015625,1.5554999999999999
0.2900763358778626,1.3740458015267176,-1.251908396946565,0.052734375,-0.126708984375,-0.604248046875,1.5572
0.5038167938931297,1.5267175572519085,-1.3740458015267176,0.056884765625,-0.12939453125,-0.59521484375,1.5589
0.44274809160305345,1.4961832061068703,-1.2061068702290076,0.058349609375,-0.12890625,-0.598876953125,1.5606
0.5343511450381679,1.6946564885496183,-1.1297709923664123,0.05224609375,-0.13232421875,-0.60302734375,1.5623
0.8244274809160306,1.6030534351145038,-1.3435114503816794,0.05712890625,-0.12841796875,-0.603271484375,1.5639999999999998
0.9312977099236641,1.618320610687023,-1.1755725190839694,0.058349609375,-0.130859375,-0.6005859375,1.5656999999999999
0.7175572519083969,1.7251908396946565,-1.2671755725190839,0.05615234375,-0.1298828125,-0.59423828125,1.5674
0.9770992366412213,1.618320610687023,-1.0076335877862594,0.0537109375,-0.130615234375,-0.60498046875,1.5691
0.9770992366412213,1.5114503816793894,-1.0534351145038168,0.05810546875,-0.125244140625,-0.594482421875,1.5708
0.9770992366412213,1.6641221374045803,-1.1755725190839694,0.057373046875,-0.1240234375,-0.59619140625,1.5725
0.8396946564885496,1.8931297709923665,-1.2366412213740459,0.0537109375,-0.125732421875,-0.59765625,1.5741999999999998
0.8091603053435115,1.7251908396946565,-1.2213740458015268,0.04833984375,-0.12060546875,-0.594482421875,1.5758999999999999
1.0076335877862594,1.6641221374045803,-1.3740458015267176,0.056396484375,-0.124267578125,-0.598876953125,1.5776
0.9770992366412213,1.7709923664122138,-1.2366412213740459,0.060546875,-0.1279296875,-0.5947265625,1.5793
1.0229007633587786,1.7557251908396947,-1.3893129770992367,0.0546875,-0.1298828125,-0.594970703125,1.581
0.9618320610687023,1.8778625954198473,-1.297709923664122,0.052734375,-0.123779296875,-0.590576171875,1.5827
1.0381679389312977,1.786259541984733,-1.3282442748091603,0.0546875,-0.1279296875,-0.596923828125,1.5843999999999998
1.083969465648855,1.6641221374045803,-1.4045801526717556,0.054443359375,-0.129638671875,-0.594482421875,1.5860999999999998
1.297709923664122,1.786259541984733,-1.465648854961832,0.05322265625,-0.124267578125,-0.594482421875,1.5877999999999999
1.5877862595419847,1.83206106870229,-1.5267175572519085,0.057373046875,-0.129638671875,-0.59423828125,1.5895
1.5114503816793894,1.9389312977099236,-1.450381679389313,0.054443359375,-0.1259765625,-0.588134765625,1.5912
1.5419847328244274,1.8015267175572518,-1.6030534351145038,0.047607421875,-0.127685546875,-0.588623046875,1.5929
1.5725190839694656,2.045801526717557,-1.6488549618320612,0.0517578125,-0.1298828125,-0.5947265625,1.5946
1.7099236641221374,1.9389312977099236,-1.450381679389313,0.05615234375,-0.12548828125,-0.592041015625,1.5962999999999998
1.7709923664122138,2.0,-1.6030534351145038,0.056884765625,-0.128662109375,-0.588623046875,1.5979999999999999
1.7709923664122138,1.9541984732824427,-1.6641221374045803,0.05615234375,-0.1279296875,-0.5986328125,1.5997
1.6030534351145038,2.122137404580153,-1.7709923664122138,0.05810546875,-0.13134765625,-0.596923828125,1.6014
1.83206106870229,2.122137404580153,-1.465648854961832,0.04931640625,-0.12890625,-0.597412109375,1.6031
1.83206106870229,2.1526717557251906,-1.5419847328244274,0.051513671875,-0.132568359375,-0.5908203125,1.6048
1.984732824427481,2.1374045801526718,-1.4809160305343512,0.050048828125,-0.13330078125,-0.601318359375,1.6064999999999998
1.8931297709923665,2.427480916030534,-1.6793893129770991,0.056640625,-0.129638671875,-0.587646484375,1.6081999999999999
1.83206106870229,2.4427480916030535,-1.4351145038167938,0.052734375,-0.127197265625,-0.592041015625,1.6098999999999999
1.9236641221374047,2.3206106870229006,-1.4198473282442747,0.052490234375,-0.124267578125,-0.590576171875,1.6116
2.1068702290076335,2.3969465648854964,-1.4351145038167938,0.053466796875,-0.127197265625,-0.590087890625,1.6133
2.0763358778625953,2.427480916030534,-1.5877862595419847,0.053955078125,-0.1298828125,-0.59716796875,1.615
2.33587786259542,2.519083969465649,-1.5419847328244274,0.05419921875,-0.127197265625,-0.598388671875,1.6166999999999998
2.2442748091603053,2.5801526717557253,-1.3893129770992367,0.05810546875,-0.12939453125,-0.5908203125,1.6183999999999998
2.198473282442748,2.5801526717557253,-1.4198473282442747,0.05615234375,-0.130615234375,-0.59423828125,1.6200999999999999
2.564885496183206,2.7786259541984735,-1.3435114503816794,0.052001953125,-0.1337890625,-0.602294921875,1.6218
2.381679389312977,2.7938931297709924,-1.1145038167938932,0.0546875,-0.135498046875,-0.601318359375,1.6235
2.3206106870229006,2.7480916030534353,-1.0687022900763359,0.0498046875,-0.13330078125,-0.593994140625,1.6252
2.7480916030534353,2.7786259541984735,-1.0381679389312977,0.0556640625,-0.135009765625,-0.599365234375,1.6269
2.7786259541984735,2.687022900763359,-0.9923664122137404,0.058349609375,-0.135986328125,-0.598388671875,1.6285999999999998
2.9160305343511452,2.885496183206107,-0.916030534351145,0.0537109375,-0.13134765625,-0.592041015625,1.6302999999999999
2.763358778625954,2.8091603053435112,-0.8854961832061069,0.0546875,-0.134521484375,-0.5947265625,1.632
2.7022900763358777,2.7938931297709924,-0.8396946564885496,0.05322265625,-0.13720703125,-0.6064453125,1.6337
2.6412213740458017,2.8396946564885495,-0.9923664122137404,0.0546875,-0.135986328125,-0.603759765625,1.6354
2.687022900763359,2.8244274809160306,-0.8854961832061069,0.054443359375,-0.13037109375,-0.592041015625,1.6371
2.6717557251908395,2.595419847328244,-0.8702290076335878,0.057373046875,-0.13134765625,-0.589111328125,1.6387999999999998
2.549618320610687,2.595419847328244,-0.9007633587786259,0.06201171875,-0.135009765625,-0.59765625,1.6404999999999998
2.3969465648854964,2.6564885496183206,-0.8854961832061069,0.05615234375,-0.13818359375,-0.585693359375,1.6421999999999999
2.366412213740458,2.427480916030534,-1.1297709923664123,0.057861328125,-0.132080078125,-0.6005859375,1.6439
2.2290076335877864,2.381679389312977,-1.099236641221374,0.054443359375,-0.135498046875,-0.59326171875,1.6456
2.0763358778625953,2.366412213740458,-0.9923664122137404,0.05810546875,-0.135498046875,-0.59765625,1.6473
2.030534351145038,2.427480916030534,-1.1755725190839694,0.055908203125,-0.13330078125,-0.598388671875,1.6489999999999998
1.8015267175572518,2.2442748091603053,-1.1297709923664123,0.05322265625,-0.12841796875,-0.59765625,1.6506999999999998
1.7099236641221374,2.198473282442748,-1.3129770992366412,0.057861328125,-0.1328125,-0.59765625,1.6523999999999999
2.030534351145038,1.9694656488549618,-1.3740458015267176,0.05859375,-0.134033203125,-0.601806640625,1.6541
1.7557251908396947,1.8473282442748091,-1.4351145038167938,0.054443359375,-0.128173828125,-0.59814453125,1.6558
1.6946564885496183,1.83206106870229,-1.4961832061068703,0.053466796875,-0.13134765625,-0.602294921875,1.6575
1.618320610687023,1.7099236641221374,-1.5725190839694656,0.0576171875,-0.1318359375,-0.6015625,1.6592
1.5572519083969465,1.5114503816793894,-1.6488549618320612,0.051025390625,-0.13134765625,-0.59521484375,1.6608999999999998
1.4198473282442747,1.6641221374045803,-1.816793893129771,0.05419921875,-0.129150390625,-0.598876953125,1.6625999999999999
1.7251908396946565,1.4045801526717556,-1.7709923664122138,0.057373046875,-0.12744140625,-0.60107421875,1.6643
1.786259541984733,1.450381679389313,-1.786259541984733,0.055908203125,-0.129638671875,-0.60107421875,1.666
1.297709923664122,1.3740458015267176,-1.618320610687023,0.055908203125,-0.128173828125,-0.60205078125,1.6677
1.2366412213740459,1.2671755725190839,-1.8778625954198473,0.058349609375,-0.127197265625,-0.60009765625,1.6694
1.4045801526717556,1.4809160305343512,-1.816793893129771,0.053955078125,-0.129638671875,-0.600830078125,1.6710999999999998
0.9465648854961832,1.282442748091603,-1.9083969465648856,0.05615234375,-0.12841796875,-0.58984375,1.6727999999999998
0.916030534351145,1.2671755725190839,-1.9389312977099236,0.057373046875,-0.121826171875,-0.597412109375,1.6744999999999999
0.8396946564885496,0.9465648854961832,-1.7709923664122138,0.054931640625,-0.127197265625,-0.60400390625,1.6762
0.3816793893129771,0.9923664122137404,-1.8473282442748091,0.053955078125,-0.1279296875,-0.60205078125,1.6779
0.32061068702290074,1.1755725190839694,-1.9694656488549618,0.05908203125,-0.116943359375,-0.599853515625,1.6796
0.366412213740458,1.0381679389312977,-1.816793893129771,0.051513671875,-0.123779296875,-0.60400390625,1.6813
0.16793893129770993,0.916030534351145,-1.8778625954198473,0.056396484375,-0.12353515625,-0.599609375,1.6829999999999998
0.5954198473282443,0.7480916030534351,-1.9236641221374047,0.056640625,-0.1240234375,-0.604736328125,1.6846999999999999
0.5343511450381679,0.7022900763358778,-2.122137404580153,0.0546875,-0.12841796875,-0.594970703125,1.6864
0.4122137404580153,0.8244274809160306,-2.0916030534351147,0.060302734375,-0.125,-0.59423828125,1.6881
0.7022900763358778,0.7022900763358778,-1.9083969465648856,0.0556640625,-0.122314453125,-0.599853515625,1.6898
0.7633587786259542,0.5038167938931297,-2.0,0.05615234375,-0.12646484375,-0.597900390625,1.6915
0.7022900763358778,0.6870229007633588,-2.0916030534351147,0.050048828125,-0.1318359375,-0.6005859375,1.6931999999999998
0.6564885496183206,0.7633587786259542,-2.045801526717557,0.0537109375,-0.1240234375,-0.59326171875,1.6948999999999999
0.8702290076335878,0.42748091603053434,-2.045801526717557,0.059814453125,-0.122314453125,-0.595947265625,1.6965999999999999
0.9312977099236641,0.4580152671755725,-2.045801526717557,0.0537109375,-0.128173828125,-0.598388671875,1.6983
0.7175572519083969,0.549618320610687,-2.198473282442748,0.056640625,-0.130615234375,-0.5986328125,1.7
0.8702290076335878,0.48854961832061067,-2.1526717557251906,0.05859375,-0.126953125,-0.600341796875,1.7017
0.8854961832061069,0.3511450381679389,-2.183206106870229,0.055908203125,-0.123291015625,-0.595703125,1.7033999999999998
0.8854961832061069,0.3511450381679389,-2.3053435114503817,0.056640625,-0.127685546875,-0.602783203125,1.7050999999999998
0.9923664122137404,0.3511450381679389,-2.3053435114503817,0.05615234375,-0.1240234375,-0.599609375,1.7067999999999999
0.7480916030534351,0.22900763358778625,-2.3053435114503817,0.052001953125,-0.13037109375,-0.596923828125,1.7085
0.9618320610687023,0.10687022900763359,-2.351145038167939,0.054443359375,-0.12939453125,-0.598388671875,1.7102
0.732824427480916,-0.015267175572519083,-2.351145038167939,0.054443359375,-0.125244140625,-0.593994140625,1.7119
0.549618320610687,-0.061068702290076333,-2.366412213740458,0.058837890625,-0.12890625,-0.595703125,1.7136
0.549618320610687,0.0,-2.4122137404580153,0.058349609375,-0.134521484375,-0.606201171875,1.7152999999999998
0.5343511450381679,-0.3053435114503817,-2.5801526717557253,0.056640625,-0.13134765625,-0.59033203125,1.7169999999999999
0.4580152671755725,-0.5954198473282443,-2.5801526717557253,0.0546875,-0.13037109375,-0.597412109375,1.7187
0.3053435114503817,-0.4732824427480916,-2.549618320610687,0.057861328125,-0.12841796875,-0.587890625,1.7204
0.32061068702290074,-0.5190839694656488,-2.351145038167939,0.05419921875,-0.1298828125,-0.591064453125,1.7221
0.015267175572519083,-0.6717557251908397,-2.595419847328244,0.051025390625,-0.128173828125,-0.599609375,1.7238
-0.21374045801526717,-0.8244274809160306,-2.6412213740458017,0.05517578125,-0.12939453125,-0.599853515625,1.7254999999999998
-0.04580152671755725,-0.7480916030534351,-2.5801526717557253,0.059326171875,-0.12841796875,-0.59619140625,1.7271999999999998
0.015267175572519083,-0.8854961832061069,-2.50381679389313,0.05908203125,-0.126708984375,-0.59765625,1.7288999999999999
0.0,-0.7633587786259542,-2.50381679389313,0.05224609375,-0.127197265625,-0.598876953125,1.7306
-0.21374045801526717,-0.8396946564885496,-2.6564885496183206,0.052978515625,-0.134521484375,-0.598388671875,1.7323
0.0,-0.8854961832061069,-2.549618320610687,0.05224609375,-0.130615234375,-0.587890625,1.734
-0.030534351145038167,-0.9312977099236641,-2.6106870229007635,0.0546875,-0.12744140625,-0.591796875,1.7356999999999998
0.07633587786259542,-0.7786259541984732,-2.564885496183206,0.04931640625,-0.12353515625,-0.59228515625,1.7373999999999998
0.24427480916030533,-0.732824427480916,-2.519083969465649,0.0498046875,-0.130859375,-0.596435546875,1.7390999999999999
0.13740458015267176,-0.7175572519083969,-2.6106870229007635,0.04736328125,-0.127197265625,-0.590087890625,1.7408
0.5190839694656488,-0.8549618320610687,-2.6412213740458017,0.048828125,-0.12646484375,-0.598876953125,1.7425
0.5801526717557252,-0.7786259541984732,-2.4122137404580153,0.04833984375,-0.13232421875,-0.585693359375,1.7442
0.7175572519083969,-0.8854961832061069,-2.4122137404580153,0.051513671875,-0.129638671875,-0.58984375,1.7459
0.7633587786259542,-0.6564885496183206,-2.4732824427480917,0.047119140625,-0.123779296875,-0.598388671875,1.7475999999999998
1.1297709923664123,-0.6259541984732825,-2.564885496183206,0.049560546875,-0.12890625,-0.606689453125,1.7492999999999999
1.3435114503816794,-0.6412213740458015,-2.2900763358778624,0.050537109375,-0.12646484375,-0.60400390625,1.751
1.251908396946565,-0.4580152671755725,-2.2595419847328246,0.051025390625,-0.119873046875,-0.59619140625,1.7527
1.450381679389313,-0.6106870229007634,-2.4580152671755724,0.048583984375,-0.128173828125,-0.599853515625,1.7544
1.6641221374045803,-0.4122137404580153,-2.381679389312977,0.048095703125,-0.123046875,-0.6005859375,1.7561
1.83206106870229,-0.4580152671755725,-2.213740458015267,0.0498046875,-0.12646484375,-0.603759765625,1.7577999999999998
1.7557251908396947,-0.3511450381679389,-2.4122137404580153,0.048828125,-0.130859375,-0.598388671875,1.7594999999999998
1.8625954198473282,-0.2595419847328244,-2.2290076335877864,0.0458984375,-0.13134765625,-0.603271484375,1.7611999999999999
1.7709923664122138,-0.2900763358778626,-2.1526717557251906,0.0458984375,-0.130615234375,-0.597900390625,1.7629
2.3053435114503817,-0.4122137404580153,-2.1526717557251906,0.0537109375,-0.12255859375,-0.606689453125,1.7646
2.2900763358778624,-0.2748091603053435,-2.1526717557251906,0.052734375,-0.12939453125,-0.595947265625,1.7663
2.427480916030534,-0.183206106870229,-2.0763358778625953,0.05078125,-0.134765625,-0.6025390625,1.7679999999999998
2.381679389312977,-0.030534351145038167,-2.2748091603053435,0.048828125,-0.127685546875,-0.602783203125,1.7696999999999998
2.5801526717557253,-0.04580152671755725,-2.16793893129771,0.048583984375,-0.127197265625,-0.604248046875,1.7713999999999999
2.7480916030534353,-0.10687022900763359,-2.4122137404580153,0.046142578125,-0.1328125,-0.60107421875,1.7731
2.6564885496183206,0.015267175572519083,-2.16793893129771,0.04931640625,-0.128173828125,-0.603759765625,1.7748
2.763358778625954,0.07633587786259542,-2.122137404580153,0.048583984375,-0.127685546875,-0.604736328125,1.7765
2.732824427480916,0.04580152671755725,-2.0610687022900764,0.054931640625,-0.126953125,-0.602783203125,1.7782
2.931297709923664,0.061068702290076333,-2.2900763358778624,0.052978515625,-0.125244140625,-0.599853515625,1.7798999999999998
2.9160305343511452,0.24427480916030533,-2.030534351145038,0.0419921875,-0.13037109375,-0.597412109375,1.7815999999999999
2.900763358778626,0.1984732824427481,-2.045801526717557,0.04736328125,-0.12939453125,-0.602783203125,1.7832999999999999
2.7022900763358777,0.2595419847328244,-2.0610687022900764,0.046142578125,-0.128173828125,-0.60302734375,1.785
2.7480916030534353,0.32061068702290074,-2.3206106870229006,0.049560546875,-0.134521484375,-0.6005859375,1.7867
2.6564885496183206,0.4732824427480916,-1.9389312977099236,0.0498046875,-0.12939453125,-0.60546875,1.7884
2.6564885496183206,0.48854961832061067,-2.198473282442748,0.051513671875,-0.12841796875,-0.603271484375,1.7900999999999998
2.4885496183206106,0.3969465648854962,-2.213740458015267,0.049560546875,-0.134521484375,-0.598388671875,1.7917999999999998
2.6412213740458017,0.5801526717557252,-2.1526717557251906,0.049072265625,-0.135498046875,-0.606689453125,1.7934999999999999
2.7022900763358777,0.549618320610687,-2.045801526717557,0.049072265625,-0.138671875,-0.605224609375,1.7952
2.3969465648854964,0.549618320610687,-1.9236641221374047,0.04931640625,-0.13525390625,-0.6005859375,1.7969
2.213740458015267,0.8091603053435115,-1.9694656488549618,0.045654296875,-0.130615234375,-0.605224609375,1.7986
2.4580152671755724,0.6412213740458015,-2.045801526717557,0.047607421875,-0.13232421875,-0.598876953125,1.8002999999999998
2.33587786259542,0.8854961832061069,-1.9236641221374047,0.04931640625,-0.131103515625,-0.60107421875,1.8019999999999998
