gyrox1,gyroy1,gyroz1,accelx1,accely1,accelz1,Time
0.5801526717557252,1.618320610687023,-1.7557251908396947,0.0146484375,-0.06298828125,-0.621337890625,0.0
0.5648854961832062,1.6793893129770991,-1.6641221374045803,0.01611328125,-0.062255859375,-0.6142578125,0.0017
0.8549618320610687,1.6030534351145038,-1.4198473282442747,0.016845703125,-0.067138671875,-0.619140625,0.0034
0.9007633587786259,1.6488549618320612,-1.8473282442748091,0.009765625,-0.064697265625,-0.616455078125,0.0050999999999999995
0.8244274809160306,1.816793893129771,-1.8015267175572518,0.01318359375,-0.0634765625,-0.615478515625,0.0068
0.7480916030534351,1.83206106870229,-1.5572519083969465,0.013671875,-0.063232421875,-0.612548828125,0.008499999999999999
0.6717557251908397,1.6946564885496183,-1.5419847328244274,0.01513671875,-0.06201171875,-0.618408203125,0.010199999999999999
0.9770992366412213,1.8625954198473282,-1.8015267175572518,0.013671875,-0.06298828125,-0.62255859375,0.011899999999999999
0.6412213740458015,1.7557251908396947,-1.5114503816793894,0.01220703125,-0.06689453125,-0.6142578125,0.0136
0.8549618320610687,1.816793893129771,-1.7404580152671756,0.01513671875,-0.061279296875,-0.616943359375,0.0153
0.8244274809160306,1.7557251908396947,-1.5114503816793894,0.013427734375,-0.0634765625,-0.615478515625,0.016999999999999998
0.7022900763358778,1.83206106870229,-1.5419847328244274,0.013916015625,-0.064208984375,-0.616943359375,0.018699999999999998
0.7938931297709924,1.786259541984733,-1.4351145038167938,0.01611328125,-0.064453125,-0.61181640625,0.020399999999999998
0.916030534351145,1.9236641221374047,-1.5114503816793894,0.015625,-0.068115234375,-0.609375,0.022099999999999998
1.099236641221374,1.8625954198473282,-1.5877862595419847,0.015380859375,-0.0625,-0.6064453125,0.023799999999999998
1.0229007633587786,1.9083969465648856,-1.618320610687023,0.011962890625,-0.067626953125,-0.6171875,0.0255
1.0229007633587786,1.7557251908396947,-1.5114503816793894,0.0126953125,-0.063720703125,-0.618408203125,0.0272
1.099236641221374,1.786259541984733,-1.4809160305343512,0.0146484375,-0.060791015625,-0.609130859375,0.0289
1.0534351145038168,1.9389312977099236,-1.450381679389313,0.015380859375,-0.063720703125,-0.6103515625,0.0306
1.1297709923664123,1.6641221374045803,-1.4351145038167938,0.013916015625,-0.069580078125,-0.613037109375,0.032299999999999995
1.0229007633587786,1.9083969465648856,-1.450381679389313,0.014404296875,-0.068359375,-0.614013671875,0.033999999999999996
1.2366412213740459,2.0763358778625953,-1.6946564885496183,0.01416015625,-0.068359375,-0.61865234375,0.035699999999999996
1.297709923664122,1.8473282442748091,-1.3893129770992367,0.016357421875,-0.06396484375,-0.612548828125,0.037399999999999996
1.2671755725190839,1.6946564885496183,-1.5419847328244274,0.016357421875,-0.071044921875,-0.60302734375,0.039099999999999996
1.3435114503816794,1.7251908396946565,-1.282442748091603,0.018798828125,-0.063720703125,-0.618896484375,0.040799999999999996
1.2366412213740459,2.0610687022900764,-1.5419847328244274,0.016845703125,-0.065185546875,-0.608154296875,0.042499999999999996
1.3129770992366412,1.9083969465648856,-1.3893129770992367,0.013916015625,-0.068115234375,-0.610595703125,0.044199999999999996
1.6793893129770991,1.8931297709923665,-1.282442748091603,0.013671875,-0.058837890625,-0.6123046875,0.045899999999999996
1.4198473282442747,1.8625954198473282,-1.3282442748091603,0.018310546875,-0.07177734375,-0.609619140625,0.047599999999999996
1.465648854961832,1.9694656488549618,-1.3435114503816794,0.018310546875,-0.07080078125,-0.60693359375,0.0493
1.6030534351145038,1.8931297709923665,-1.1603053435114503,0.017578125,-0.06591796875,-0.612060546875,0.051
1.5419847328244274,2.015267175572519,-1.2213740458015268,0.013671875,-0.0751953125,-0.61279296875,0.0527
1.6641221374045803,2.030534351145038,-1.083969465648855,0.015380859375,-0.06982421875,-0.616455078125,0.0544
1.5572519083969465,2.0763358778625953,-1.1297709923664123,0.012939453125,-0.069580078125,-0.611572265625,0.0561
1.6488549618320612,1.786259541984733,-0.9312977099236641,0.017578125,-0.068115234375,-0.61083984375,0.0578
1.6488549618320612,1.8473282442748091,-0.8854961832061069,0.021728515625,-0.066162109375,-0.620361328125,0.0595
1.7404580152671756,1.9083969465648856,-1.0534351145038168,0.01953125,-0.06298828125,-0.61376953125,0.0612
1.6030534351145038,2.045801526717557,-1.1908396946564885,0.014404296875,-0.065185546875,-0.607177734375,0.0629
1.465648854961832,2.0763358778625953,-0.8396946564885496,0.016357421875,-0.07470703125,-0.6162109375,0.06459999999999999
1.3282442748091603,1.9694656488549618,-0.8549618320610687,0.01416015625,-0.0712890625,-0.6181640625,0.0663
1.1145038167938932,2.015267175572519,-0.6564885496183206,0.017822265625,-0.061279296875,-0.615478515625,0.06799999999999999
1.1755725190839694,2.0763358778625953,-1.0076335877862594,0.01806640625,-0.063720703125,-0.6142578125,0.0697
1.1603053435114503,2.0,-1.1145038167938932,0.011962890625,-0.062744140625,-0.608154296875,0.07139999999999999
1.083969465648855,2.1068702290076335,-0.8702290076335878,0.011962890625,-0.067138671875,-0.61669921875,0.0731
0.9923664122137404,2.0,-1.0381679389312977,0.017333984375,-0.069091796875,-0.616943359375,0.07479999999999999
1.1145038167938932,1.984732824427481,-0.9007633587786259,0.0146484375,-0.06884765625,-0.60791015625,0.0765
0.9770992366412213,1.83206106870229,-0.7633587786259542,0.011474609375,-0.06787109375,-0.621826171875,0.07819999999999999
0.9007633587786259,1.9389312977099236,-1.083969465648855,0.013671875,-0.06640625,-0.623291015625,0.0799
0.9618320610687023,1.9083969465648856,-1.3587786259541985,0.015869140625,-0.065673828125,-0.60986328125,0.08159999999999999
1.0229007633587786,1.8625954198473282,-1.2213740458015268,0.021240234375,-0.062255859375,-0.613525390625,0.0833
1.0229007633587786,1.8931297709923665,-0.8702290076335878,0.013427734375,-0.064697265625,-0.609619140625,0.08499999999999999
1.083969465648855,1.7404580152671756,-1.1755725190839694,0.0146484375,-0.06396484375,-0.6201171875,0.0867
0.7633587786259542,1.7557251908396947,-1.282442748091603,0.01220703125,-0.058837890625,-0.61376953125,0.08839999999999999
0.9007633587786259,1.786259541984733,-1.2366412213740459,0.0107421875,-0.0654296875,-0.617431640625,0.0901
0.7938931297709924,2.030534351145038,-1.1297709923664123,0.01025390625,-0.065185546875,-0.613525390625,0.09179999999999999
0.7175572519083969,1.6641221374045803,-1.1145038167938932,0.011474609375,-0.065185546875,-0.615966796875,0.0935
0.8244274809160306,1.5419847328244274,-1.1297709923664123,0.0146484375,-0.068603515625,-0.61767578125,0.09519999999999999
0.9007633587786259,1.8015267175572518,-1.3740458015267176,0.01806640625,-0.06689453125,-0.6181640625,0.0969
0.9007633587786259,1.8625954198473282,-1.2213740458015268,0.01513671875,-0.066162109375,-0.61474609375,0.0986
0.8244274809160306,1.8931297709923665,-1.083969465648855,0.01318359375,-0.06982421875,-0.624267578125,0.1003
0.5954198473282443,1.7251908396946565,-1.2213740458015268,0.013671875,-0.068359375,-0.630859375,0.102
0.42748091603053434,1.7709923664122138,-1.3282442748091603,0.017822265625,-0.0654296875,-0.61767578125,0.1037
0.4122137404580153,1.8625954198473282,-1.3587786259541985,0.01513671875,-0.061279296875,-0.614990234375,0.1054
0.549618320610687,1.8473282442748091,-1.251908396946565,0.010009765625,-0.06689453125,-0.613525390625,0.1071
0.24427480916030533,1.7099236641221374,-1.2671755725190839,0.01318359375,-0.064208984375,-0.6181640625,0.1088
0.32061068702290074,1.5572519083969465,-1.297709923664122,0.012939453125,-0.0634765625,-0.61376953125,0.11049999999999999
0.22900763358778625,1.6793893129770991,-1.2061068702290076,0.0146484375,-0.063720703125,-0.61376953125,0.1122
0.0916030534351145,1.7557251908396947,-1.5419847328244274,0.008544921875,-0.068115234375,-0.610595703125,0.11389999999999999
0.4580152671755725,1.7557251908396947,-1.3893129770992367,0.02001953125,-0.060791015625,-0.621826171875,0.1156
0.6259541984732825,1.5572519083969465,-1.251908396946565,0.01513671875,-0.060791015625,-0.616455078125,0.11729999999999999
0.3511450381679389,1.297709923664122,-1.4809160305343512,0.01318359375,-0.063720703125,-0.620849609375,0.119
0.3053435114503817,1.4351145038167938,-1.282442748091603,0.01025390625,-0.064453125,-0.622802734375,0.12069999999999999
0.6259541984732825,1.5572519083969465,-1.4961832061068703,0.014892578125,-0.0615234375,-0.623779296875,0.1224
0.6106870229007634,1.5419847328244274,-1.5114503816793894,0.016845703125,-0.05859375,-0.61962890625,0.12409999999999999
0.5954198473282443,1.6488549618320612,-1.465648854961832,0.012939453125,-0.05908203125,-0.62158203125,0.1258
0.9618320610687023,1.4351145038167938,-1.3282442748091603,0.01416015625,-0.061279296875,-0.61328125,0.1275
1.0687022900763359,1.5877862595419847,-1.3435114503816794,0.011474609375,-0.05615234375,-0.6181640625,0.12919999999999998
0.9923664122137404,1.450381679389313,-1.297709923664122,0.011962890625,-0.059326171875,-0.615966796875,0.1309
0.9312977099236641,1.3435114503816794,-1.4809160305343512,0.014892578125,-0.060302734375,-0.6181640625,0.1326
1.1450381679389312,1.3893129770992367,-1.3893129770992367,0.013916015625,-0.057861328125,-0.615966796875,0.1343
1.1450381679389312,1.4809160305343512,-1.5419847328244274,0.01416015625,-0.062744140625,-0.619873046875,0.13599999999999998
1.1603053435114503,1.3893129770992367,-1.4351145038167938,0.01220703125,-0.067138671875,-0.614013671875,0.1377
1.2061068702290076,1.3282442748091603,-1.251908396946565,0.016357421875,-0.060791015625,-0.619384765625,0.1394
1.2213740458015268,1.5267175572519085,-1.297709923664122,0.0166015625,-0.058349609375,-0.616943359375,0.1411
1.3740458015267176,1.3893129770992367,-1.1297709923664123,0.015625,-0.060302734375,-0.618896484375,0.14279999999999998
1.2366412213740459,1.3740458015267176,-1.450381679389313,0.011962890625,-0.06103515625,-0.612060546875,0.1445
1.4351145038167938,1.5877862595419847,-1.3129770992366412,0.016845703125,-0.060791015625,-0.61328125,0.1462
1.2213740458015268,1.450381679389313,-1.3129770992366412,0.013916015625,-0.0625,-0.6181640625,0.1479
1.3129770992366412,1.2671755725190839,-1.3282442748091603,0.014892578125,-0.06103515625,-0.615478515625,0.14959999999999998
1.4045801526717556,1.5114503816793894,-1.2366412213740459,0.012939453125,-0.06640625,-0.614013671875,0.1513
1.1908396946564885,1.1908396946564885,-1.282442748091603,0.017578125,-0.060302734375,-0.615234375,0.153
0.9618320610687023,1.251908396946565,-1.297709923664122,0.016845703125,-0.065185546875,-0.616943359375,0.1547
1.1603053435114503,1.3893129770992367,-1.2366412213740459,0.014404296875,-0.064208984375,-0.6181640625,0.15639999999999998
1.0534351145038168,1.4351145038167938,-1.099236641221374,0.016845703125,-0.0625,-0.612060546875,0.1581
0.9007633587786259,1.3587786259541985,-1.3740458015267176,0.022705078125,-0.06396484375,-0.616943359375,0.1598
0.7175572519083969,1.3129770992366412,-1.3129770992366412,0.016357421875,-0.07177734375,-0.617919921875,0.1615
0.7480916030534351,1.099236641221374,-1.4045801526717556,0.014404296875,-0.06640625,-0.62109375,0.16319999999999998
0.8244274809160306,1.450381679389313,-1.3435114503816794,0.01953125,-0.06494140625,-0.61572265625,0.1649
0.7022900763358778,1.2213740458015268,-1.465648854961832,0.01416015625,-0.072021484375,-0.6142578125,0.1666
0.6106870229007634,1.3893129770992367,-1.3587786259541985,0.018310546875,-0.06640625,-0.62060546875,0.16829999999999998
0.4732824427480916,1.3435114503816794,-1.5419847328244274,0.015869140625,-0.067626953125,-0.6181640625,0.16999999999999998
0.48854961832061067,1.297709923664122,-1.2061068702290076,0.016845703125,-0.064208984375,-0.6220703125,0.1717
0.6259541984732825,1.465648854961832,-1.4045801526717556,0.01416015625,-0.070556640625,-0.614013671875,0.1734
0.44274809160305345,1.5419847328244274,-1.3893129770992367,0.015380859375,-0.06884765625,-0.61181640625,0.17509999999999998
0.366412213740458,1.1908396946564885,-1.450381679389313,0.017578125,-0.06689453125,-0.621337890625,0.17679999999999998
0.32061068702290074,1.1755725190839694,-1.4198473282442747,0.015625,-0.06982421875,-0.619384765625,0.1785
0.22900763358778625,1.2671755725190839,-1.297709923664122,0.011474609375,-0.0654296875,-0.623046875,0.1802
0.12213740458015267,1.251908396946565,-1.3587786259541985,0.014404296875,-0.070068359375,-0.611572265625,0.18189999999999998
-0.04580152671755725,1.1603053435114503,-1.4198473282442747,0.01416015625,-0.06689453125,-0.609130859375,0.18359999999999999
0.16793893129770993,1.083969465648855,-1.3435114503816794,0.015625,-0.0703125,-0.614990234375,0.1853
0.21374045801526717,1.1908396946564885,-1.5725190839694656,0.0146484375,-0.06689453125,-0.6181640625,0.187
0.12213740458015267,1.1145038167938932,-1.3740458015267176,0.0126953125,-0.067138671875,-0.60888671875,0.18869999999999998
0.3969465648854962,1.1450381679389312,-1.4961832061068703,0.013916015625,-0.065185546875,-0.610107421875,0.19039999999999999
0.3053435114503817,1.4045801526717556,-1.2061068702290076,0.014892578125,-0.061767578125,-0.613525390625,0.1921
-0.030534351145038167,1.1908396946564885,-1.4351145038167938,0.020751953125,-0.063720703125,-0.613037109375,0.1938
0.2748091603053435,1.1908396946564885,-1.1755725190839694,0.017333984375,-0.0634765625,-0.617919921875,0.19549999999999998
0.3511450381679389,1.1755725190839694,-1.297709923664122,0.011962890625,-0.06396484375,-0.6162109375,0.1972
0.1984732824427481,1.2061068702290076,-1.1450381679389312,0.01953125,-0.065185546875,-0.620849609375,0.1989
0.42748091603053434,1.1755725190839694,-1.1297709923664123,0.01416015625,-0.066162109375,-0.61181640625,0.2006
0.32061068702290074,1.3282442748091603,-1.1145038167938932,0.011962890625,-0.0634765625,-0.61669921875,0.20229999999999998
0.5190839694656488,1.2061068702290076,-1.2366412213740459,0.01513671875,-0.065185546875,-0.615966796875,0.204
0.6564885496183206,1.450381679389313,-0.9465648854961832,0.01513671875,-0.073486328125,-0.615478515625,0.2057
0.42748091603053434,1.282442748091603,-1.1297709923664123,0.01513671875,-0.06591796875,-0.6162109375,0.2074
0.4122137404580153,1.2366412213740459,-0.9923664122137404,0.017578125,-0.067626953125,-0.609130859375,0.20909999999999998
0.7022900763358778,1.297709923664122,-1.297709923664122,0.0166015625,-0.063720703125,-0.611328125,0.2108
0.6259541984732825,1.2366412213740459,-1.0687022900763359,0.01318359375,-0.062255859375,-0.621337890625,0.2125
0.916030534351145,1.297709923664122,-1.2061068702290076,0.016357421875,-0.06298828125,-0.618896484375,0.2142
0.6412213740458015,1.1755725190839694,-1.0687022900763359,0.01220703125,-0.061279296875,-0.62158203125,0.21589999999999998
0.7633587786259542,1.297709923664122,-1.083969465648855,0.018798828125,-0.0654296875,-0.6123046875,0.2176
0.5343511450381679,1.3893129770992367,-1.0534351145038168,0.011474609375,-0.065673828125,-0.614990234375,0.2193
0.5038167938931297,1.297709923664122,-1.2366412213740459,0.016357421875,-0.065673828125,-0.617919921875,0.22099999999999997
0.8091603053435115,1.2366412213740459,-1.1755725190839694,0.0126953125,-0.060302734375,-0.617431640625,0.22269999999999998
0.8396946564885496,1.2366412213740459,-1.1145038167938932,0.0146484375,-0.064208984375,-0.616943359375,0.2244
0.8091603053435115,1.1297709923664123,-1.1145038167938932,0.020263671875,-0.065185546875,-0.61328125,0.2261
1.0076335877862594,1.1603053435114503,-1.2061068702290076,0.018798828125,-0.06396484375,-0.614990234375,0.22779999999999997
0.8549618320610687,1.2213740458015268,-1.0076335877862594,0.01611328125,-0.06298828125,-0.607666015625,0.22949999999999998
0.8854961832061069,1.1297709923664123,-1.1908396946564885,0.014892578125,-0.06201171875,-0.613037109375,0.2312
0.8396946564885496,1.0229007633587786,-1.1755725190839694,0.017333984375,-0.0615234375,-0.619873046875,0.2329
0.9465648854961832,1.1145038167938932,-1.2213740458015268,0.011962890625,-0.063232421875,-0.618408203125,0.23459999999999998
1.297709923664122,1.2213740458015268,-0.9923664122137404,0.0166015625,-0.06884765625,-0.61767578125,0.23629999999999998
1.3282442748091603,0.9312977099236641,-1.618320610687023,0.01611328125,-0.064697265625,-0.6171875,0.238
1.4045801526717556,1.0381679389312977,-1.2366412213740459,0.01611328125,-0.06201171875,-0.624267578125,0.2397
1.3129770992366412,1.1755725190839694,-1.2061068702290076,0.014892578125,-0.0703125,-0.611572265625,0.24139999999999998
1.4198473282442747,1.2213740458015268,-1.2213740458015268,0.01220703125,-0.0634765625,-0.60791015625,0.24309999999999998
1.2671755725190839,1.2671755725190839,-1.251908396946565,0.014404296875,-0.068115234375,-0.621337890625,0.2448
1.6488549618320612,1.1450381679389312,-1.2671755725190839,0.013427734375,-0.067138671875,-0.609375,0.2465
1.6488549618320612,1.4045801526717556,-1.251908396946565,0.012451171875,-0.065673828125,-0.6162109375,0.24819999999999998
1.4351145038167938,1.4351145038167938,-1.1755725190839694,0.012939453125,-0.06396484375,-0.621337890625,0.24989999999999998
1.450381679389313,1.465648854961832,-1.3587786259541985,0.015380859375,-0.065673828125,-0.61181640625,0.2516
1.6641221374045803,1.2671755725190839,-1.2213740458015268,0.017578125,-0.06298828125,-0.618408203125,0.25329999999999997
1.5114503816793894,1.3282442748091603,-1.4351145038167938,0.0078125,-0.06884765625,-0.6201171875,0.255
1.5419847328244274,1.2366412213740459,-1.099236641221374,0.0126953125,-0.06494140625,-0.615478515625,0.2567
1.5572519083969465,1.4045801526717556,-1.465648854961832,0.01611328125,-0.06640625,-0.613525390625,0.25839999999999996
1.3435114503816794,1.3893129770992367,-1.282442748091603,0.014892578125,-0.06494140625,-0.611083984375,0.2601
1.3129770992366412,1.465648854961832,-1.4961832061068703,0.0166015625,-0.06640625,-0.616455078125,0.2618
1.297709923664122,1.4045801526717556,-1.4045801526717556,0.01171875,-0.0654296875,-0.611572265625,0.2635
1.083969465648855,1.3435114503816794,-1.4809160305343512,0.01416015625,-0.06640625,-0.612548828125,0.2652
0.9312977099236641,1.450381679389313,-1.3587786259541985,0.019287109375,-0.068359375,-0.608154296875,0.26689999999999997
1.0229007633587786,1.450381679389313,-1.2366412213740459,0.013671875,-0.069580078125,-0.615966796875,0.2686
1.099236641221374,1.4045801526717556,-1.3129770992366412,0.012939453125,-0.070068359375,-0.61474609375,0.2703
1.0076335877862594,1.450381679389313,-1.465648854961832,0.017578125,-0.0712890625,-0.620849609375,0.27199999999999996
0.7480916030534351,1.8015267175572518,-1.2671755725190839,0.014404296875,-0.063232421875,-0.62060546875,0.2737
0.9007633587786259,1.6793893129770991,-1.3282442748091603,0.015625,-0.06787109375,-0.615478515625,0.2754
0.8091603053435115,1.5419847328244274,-1.2061068702290076,0.02099609375,-0.06689453125,-0.61279296875,0.27709999999999996
0.8702290076335878,1.6488549618320612,-1.2061068702290076,0.01708984375,-0.063232421875,-0.61767578125,0.2788
0.549618320610687,1.4961832061068703,-1.251908396946565,0.01513671875,-0.066650390625,-0.60693359375,0.28049999999999997
0.7633587786259542,1.4809160305343512,-1.0687022900763359,0.01708984375,-0.0673828125,-0.60791015625,0.2822
0.7938931297709924,1.6641221374045803,-1.0229007633587786,0.01806640625,-0.0634765625,-0.619873046875,0.2839
0.5648854961832062,1.6641221374045803,-1.2061068702290076,0.018798828125,-0.07373046875,-0.6123046875,0.28559999999999997
0.7022900763358778,1.5877862595419847,-1.0381679389312977,0.020263671875,-0.07080078125,-0.618408203125,0.2873
0.4580152671755725,1.6793893129770991,-1.2213740458015268,0.01611328125,-0.069580078125,-0.616455078125,0.289
0.5190839694656488,1.5419847328244274,-0.8396946564885496,0.014404296875,-0.064208984375,-0.61083984375,0.29069999999999996
0.6259541984732825,1.5114503816793894,-0.9007633587786259,0.016845703125,-0.060791015625,-0.61328125,0.2924
0.5343511450381679,1.465648854961832,-0.8549618320610687,0.0224609375,-0.06494140625,-0.623046875,0.2941
0.3511450381679389,1.465648854961832,-0.9007633587786259,0.01953125,-0.065673828125,-0.61474609375,0.2958
0.42748091603053434,1.3740458015267176,-0.7480916030534351,0.016845703125,-0.064453125,-0.61376953125,0.2975
0.549618320610687,1.6030534351145038,-1.251908396946565,0.0205078125,-0.068603515625,-0.615966796875,0.29919999999999997
0.16793893129770993,1.4351145038167938,-0.9312977099236641,0.02001953125,-0.0625,-0.61962890625,0.3009
0.21374045801526717,1.4961832061068703,-0.8549618320610687,0.0185546875,-0.063720703125,-0.619873046875,0.3026
0.6106870229007634,1.1908396946564885,-1.1145038167938932,0.01904296875,-0.065185546875,-0.61572265625,0.30429999999999996
0.4732824427480916,1.282442748091603,-1.2061068702290076,0.01708984375,-0.064697265625,-0.61962890625,0.306
0.33587786259541985,1.2671755725190839,-1.1145038167938932,0.016845703125,-0.06298828125,-0.6142578125,0.3077
0.48854961832061067,1.3893129770992367,-0.9618320610687023,0.017578125,-0.068115234375,-0.61474609375,0.3094
0.5038167938931297,1.3435114503816794,-0.916030534351145,0.014892578125,-0.067626953125,-0.61328125,0.3111
0.8244274809160306,1.4809160305343512,-1.282442748091603,0.018798828125,-0.062255859375,-0.61279296875,0.31279999999999997
0.7633587786259542,1.5725190839694656,-1.0534351145038168,0.01611328125,-0.061279296875,-0.61083984375,0.3145
0.9465648854961832,1.2213740458015268,-1.2061068702290076,0.016845703125,-0.064697265625,-0.61767578125,0.3162
1.0534351145038168,1.1603053435114503,-1.1755725190839694,0.01904296875,-0.0673828125,-0.60595703125,0.31789999999999996
1.0534351145038168,1.4809160305343512,-1.2061068702290076,0.014892578125,-0.073974609375,-0.602294921875,0.3196
0.916030534351145,1.4045801526717556,-1.0381679389312977,0.011474609375,-0.0703125,-0.60693359375,0.3213
1.083969465648855,1.3893129770992367,-1.1755725190839694,0.01953125,-0.065673828125,-0.6103515625,0.323
1.1450381679389312,1.2671755725190839,-1.3893129770992367,0.017822265625,-0.06298828125,-0.6162109375,0.3247
1.251908396946565,1.4961832061068703,-1.3282442748091603,0.020263671875,-0.064208984375,-0.6181640625,0.32639999999999997
1.297709923664122,1.3587786259541985,-1.1755725190839694,0.013427734375,-0.064208984375,-0.609375,0.3281
1.1908396946564885,1.1297709923664123,-1.4198473282442747,0.015380859375,-0.06591796875,-0.6142578125,0.3298
1.450381679389313,1.3435114503816794,-1.3282442748091603,0.01904296875,-0.0693359375,-0.609130859375,0.33149999999999996
1.3893129770992367,1.5114503816793894,-1.1908396946564885,0.0166015625,-0.068115234375,-0.6162109375,0.3332
1.3893129770992367,1.3435114503816794,-1.3587786259541985,0.013427734375,-0.06787109375,-0.615234375,0.3349
1.5877862595419847,1.1908396946564885,-1.465648854961832,0.011962890625,-0.065673828125,-0.615478515625,0.33659999999999995
1.4961832061068703,1.2213740458015268,-1.3435114503816794,0.019775390625,-0.064697265625,-0.61083984375,0.3383
1.5725190839694656,1.3129770992366412,-1.4198473282442747,0.0185546875,-0.06689453125,-0.612548828125,0.33999999999999997
1.5267175572519085,1.1145038167938932,-1.6946564885496183,0.018798828125,-0.065185546875,-0.6162109375,0.3417
1.9541984732824427,1.099236641221374,-1.6488549618320612,0.017822265625,-0.061767578125,-0.616943359375,0.3434
1.7404580152671756,1.0534351145038168,-1.4961832061068703,0.015625,-0.066650390625,-0.61279296875,0.34509999999999996
1.3587786259541985,1.099236641221374,-1.465648854961832,0.012451171875,-0.06689453125,-0.6142578125,0.3468
1.2366412213740459,1.2061068702290076,-1.6946564885496183,0.015625,-0.065673828125,-0.611572265625,0.3485
1.297709923664122,1.0534351145038168,-1.5572519083969465,0.015625,-0.06298828125,-0.61669921875,0.35019999999999996
1.3740458015267176,1.099236641221374,-1.633587786259542,0.016357421875,-0.068115234375,-0.61279296875,0.3519
1.0229007633587786,1.1450381679389312,-1.83206106870229,0.017822265625,-0.063232421875,-0.61279296875,0.35359999999999997
1.0381679389312977,1.1908396946564885,-1.6793893129770991,0.019287109375,-0.06591796875,-0.62353515625,0.3553
1.0381679389312977,1.0534351145038168,-1.7099236641221374,0.0185546875,-0.06298828125,-0.61328125,0.357
1.1603053435114503,0.9618320610687023,-1.7709923664122138,0.023193359375,-0.0634765625,-0.61962890625,0.35869999999999996
1.1145038167938932,0.7938931297709924,-1.5114503816793894,0.023193359375,-0.06298828125,-0.608154296875,0.3604
0.9770992366412213,0.8549618320610687,-1.7251908396946565,0.013427734375,-0.06201171875,-0.61962890625,0.3621
1.0381679389312977,0.916030534351145,-1.465648854961832,0.020263671875,-0.06396484375,-0.610595703125,0.36379999999999996
1.0381679389312977,0.9770992366412213,-1.786259541984733,0.013427734375,-0.061279296875,-0.610107421875,0.3655
0.8854961832061069,1.0687022900763359,-1.8625954198473282,0.0146484375,-0.06884765625,-0.614013671875,0.36719999999999997
1.0381679389312977,0.8854961832061069,-1.5725190839694656,0.0185546875,-0.06201171875,-0.61865234375,0.3689
1.1450381679389312,0.7022900763358778,-1.4351145038167938,0.016357421875,-0.065673828125,-0.617919921875,0.3706
1.2061068702290076,0.7938931297709924,-1.4045801526717556,0.015869140625,-0.068115234375,-0.6123046875,0.37229999999999996
1.282442748091603,0.6870229007633588,-1.4961832061068703,0.01513671875,-0.067138671875,-0.61865234375,0.374
1.0229007633587786,0.5954198473282443,-1.7251908396946565,0.01416015625,-0.067138671875,-0.611328125,0.3757
1.099236641221374,0.5954198473282443,-1.450381679389313,0.014892578125,-0.06396484375,-0.61865234375,0.37739999999999996
1.3129770992366412,0.7786259541984732,-1.3587786259541985,0.014892578125,-0.06982421875,-0.613037109375,0.3791
1.1755725190839694,0.7022900763358778,-1.5877862595419847,0.015625,-0.061279296875,-0.611572265625,0.38079999999999997
1.1908396946564885,0.7175572519083969,-1.5267175572519085,0.011474609375,-0.0634765625,-0.61328125,0.38249999999999995
1.1603053435114503,0.7633587786259542,-1.3740458015267176,0.015380859375,-0.066162109375,-0.616943359375,0.3842
1.0229007633587786,0.6870229007633588,-1.6641221374045803,0.01416015625,-0.06396484375,-0.60791015625,0.38589999999999997
1.0687022900763359,1.0229007633587786,-1.4351145038167938,0.012939453125,-0.065185546875,-0.61083984375,0.3876
0.916030534351145,0.9465648854961832,-1.3435114503816794,0.01171875,-0.068603515625,-0.615478515625,0.3893
1.099236641221374,0.9618320610687023,-1.2213740458015268,0.018798828125,-0.06640625,-0.613525390625,0.39099999999999996
0.9923664122137404,0.9312977099236641,-1.3282442748091603,0.0185546875,-0.061767578125,-0.621337890625,0.3927
0.916030534351145,0.9007633587786259,-1.5877862595419847,0.013427734375,-0.067626953125,-0.610595703125,0.3944
0.9618320610687023,1.0076335877862594,-1.5725190839694656,0.014404296875,-0.070556640625,-0.619140625,0.39609999999999995
0.7480916030534351,0.9312977099236641,-1.4198473282442747,0.015625,-0.068603515625,-0.609375,0.3978
0.6870229007633588,0.7938931297709924,-1.8015267175572518,0.0166015625,-0.070068359375,-0.6123046875,0.39949999999999997
0.7022900763358778,0.8244274809160306,-1.5419847328244274,0.016357421875,-0.0693359375,-0.61572265625,0.4012
0.549618320610687,1.0381679389312977,-1.618320610687023,0.013916015625,-0.0693359375,-0.61572265625,0.4029
0.42748091603053434,0.8549618320610687,-1.7099236641221374,0.014892578125,-0.06884765625,-0.61865234375,0.40459999999999996
0.33587786259541985,0.9618320610687023,-1.8931297709923665,0.010498046875,-0.067626953125,-0.61279296875,0.4063
0.5954198473282443,1.2671755725190839,-1.6030534351145038,0.0126953125,-0.0693359375,-0.6162109375,0.408
0.32061068702290074,0.9770992366412213,-1.8778625954198473,0.01171875,-0.069580078125,-0.609619140625,0.40969999999999995
0.5038167938931297,1.251908396946565,-1.5572519083969465,0.016357421875,-0.065673828125,-0.61083984375,0.4114
0.5038167938931297,1.0076335877862594,-1.8778625954198473,0.015625,-0.0654296875,-0.608642578125,0.41309999999999997
0.21374045801526717,0.9465648854961832,-1.8015267175572518,0.016845703125,-0.06298828125,-0.610107421875,0.4148
0.32061068702290074,1.1297709923664123,-1.7557251908396947,0.011474609375,-0.066162109375,-0.614501953125,0.4165
0.44274809160305345,1.0076335877862594,-1.786259541984733,0.0126953125,-0.063720703125,-0.615478515625,0.41819999999999996
0.48854961832061067,1.099236641221374,-1.9083969465648856,0.017822265625,-0.063232421875,-0.611083984375,0.4199
0.3511450381679389,1.1297709923664123,-1.8473282442748091,0.0166015625,-0.068115234375,-0.61328125,0.4216
0.6106870229007634,1.2366412213740459,-1.83206106870229,0.0146484375,-0.06298828125,-0.614501953125,0.42329999999999995
0.5801526717557252,1.1450381679389312,-1.816793893129771,0.018310546875,-0.06689453125,-0.6162109375,0.425
0.5343511450381679,1.1450381679389312,-1.8473282442748091,0.02099609375,-0.067626953125,-0.61767578125,0.42669999999999997
0.7022900763358778,1.083969465648855,-1.8931297709923665,0.020263671875,-0.05908203125,-0.61474609375,0.4284
0.9770992366412213,1.0229007633587786,-1.9541984732824427,0.02197265625,-0.059814453125,-0.61279296875,0.4301
0.9770992366412213,1.1450381679389312,-1.6641221374045803,0.01904296875,-0.066162109375,-0.61083984375,0.43179999999999996
1.083969465648855,0.8854961832061069,-1.9541984732824427,0.017822265625,-0.059814453125,-0.607666015625,0.4335
1.297709923664122,1.099236641221374,-1.6946564885496183,0.01708984375,-0.06298828125,-0.6103515625,0.4352
1.297709923664122,0.9618320610687023,-1.786259541984733,0.014404296875,-0.0634765625,-0.61669921875,0.43689999999999996
1.465648854961832,0.8091603053435115,-1.9389312977099236,0.0146484375,-0.06591796875,-0.612548828125,0.4386
1.633587786259542,0.9923664122137404,-2.030534351145038,0.01513671875,-0.065673828125,-0.60986328125,0.44029999999999997
1.83206106870229,1.083969465648855,-1.816793893129771,0.01904296875,-0.064453125,-0.61669921875,0.44199999999999995
1.984732824427481,1.1145038167938932,-1.8931297709923665,0.015869140625,-0.068115234375,-0.62158203125,0.4437
1.9541984732824427,0.9312977099236641,-1.786259541984733,0.0185546875,-0.060302734375,-0.6142578125,0.44539999999999996
2.015267175572519,1.083969465648855,-1.8015267175572518,0.01611328125,-0.06494140625,-0.608154296875,0.4471
2.198473282442748,1.2366412213740459,-1.8015267175572518,0.0146484375,-0.06298828125,-0.610107421875,0.4488
2.122137404580153,1.0381679389312977,-1.8015267175572518,0.01611328125,-0.06689453125,-0.607177734375,0.45049999999999996
2.0610687022900764,1.0229007633587786,-1.6793893129770991,0.016845703125,-0.062744140625,-0.607666015625,0.4522
2.1068702290076335,1.1755725190839694,-1.7099236641221374,0.01708984375,-0.064208984375,-0.614990234375,0.45389999999999997
2.2442748091603053,1.1908396946564885,-1.6641221374045803,0.0205078125,-0.064453125,-0.616455078125,0.45559999999999995
2.4122137404580153,1.1603053435114503,-1.7404580152671756,0.0107421875,-0.066162109375,-0.614990234375,0.4573
1.9083969465648856,1.2213740458015268,-1.7099236641221374,0.012451171875,-0.068603515625,-0.6142578125,0.45899999999999996
1.6488549618320612,1.3282442748091603,-1.6946564885496183,0.01513671875,-0.0654296875,-0.61865234375,0.4607
1.9694656488549618,1.465648854961832,-1.6488549618320612,0.01708984375,-0.066162109375,-0.6123046875,0.4624
1.8778625954198473,1.4198473282442747,-1.5419847328244274,0.020263671875,-0.068359375,-0.622802734375,0.46409999999999996
1.786259541984733,1.3129770992366412,-1.9541984732824427,0.021728515625,-0.070556640625,-0.62060546875,0.4658
1.5877862595419847,1.1450381679389312,-1.9694656488549618,0.015625,-0.069091796875,-0.610595703125,0.46749999999999997
1.5419847328244274,1.297709923664122,-1.4809160305343512,0.015625,-0.063720703125,-0.617431640625,0.46919999999999995
1.5267175572519085,1.2213740458015268,-1.7251908396946565,0.012451171875,-0.067138671875,-0.6240234375,0.4709
1.5419847328244274,1.0076335877862594,-1.7404580152671756,0.0205078125,-0.063232421875,-0.621826171875,0.47259999999999996
1.6946564885496183,1.099236641221374,-1.9236641221374047,0.010009765625,-0.0673828125,-0.62451171875,0.4743
1.465648854961832,1.1450381679389312,-1.8015267175572518,0.013671875,-0.068115234375,-0.610595703125,0.476
1.3587786259541985,1.099236641221374,-1.8473282442748091,0.017333984375,-0.060791015625,-0.619873046875,0.47769999999999996
1.2671755725190839,0.9465648854961832,-1.9236641221374047,0.018798828125,-0.069580078125,-0.606689453125,0.4794
1.2671755725190839,0.9007633587786259,-1.8473282442748091,0.017822265625,-0.06494140625,-0.607421875,0.48109999999999997
1.282442748091603,0.8091603053435115,-1.7557251908396947,0.021240234375,-0.067138671875,-0.612548828125,0.48279999999999995
1.3435114503816794,0.8396946564885496,-1.786259541984733,0.0146484375,-0.06591796875,-0.618896484375,0.4845
1.2366412213740459,1.083969465648855,-1.7404580152671756,0.014892578125,-0.069580078125,-0.62060546875,0.48619999999999997
1.282442748091603,1.0076335877862594,-1.9083969465648856,0.019775390625,-0.06689453125,-0.626953125,0.4879
1.1145038167938932,1.083969465648855,-1.7251908396946565,0.0205078125,-0.068115234375,-0.6240234375,0.4896
0.916030534351145,0.9312977099236641,-1.633587786259542,0.017333984375,-0.06591796875,-0.616943359375,0.49129999999999996
0.9465648854961832,0.9312977099236641,-1.6488549618320612,0.01904296875,-0.068359375,-0.61767578125,0.493
0.7480916030534351,1.099236641221374,-1.9236641221374047,0.013671875,-0.066650390625,-0.616455078125,0.4947
0.366412213740458,1.099236641221374,-1.8015267175572518,0.014892578125,-0.06689453125,-0.619140625,0.49639999999999995
0.4580152671755725,0.916030534351145,-2.0,0.015380859375,-0.065673828125,-0.617919921875,0.4981
0.5801526717557252,1.0534351145038168,-1.8625954198473282,0.015380859375,-0.070068359375,-0.61865234375,0.49979999999999997
0.4122137404580153,1.1145038167938932,-1.9389312977099236,0.014892578125,-0.06201171875,-0.615478515625,0.5015
0.22900763358778625,0.916030534351145,-1.8473282442748091,0.02001953125,-0.0615234375,-0.6201171875,0.5032
0.2595419847328244,0.9770992366412213,-1.83206106870229,0.01513671875,-0.063720703125,-0.6162109375,0.5049
0.3053435114503817,0.9770992366412213,-1.7099236641221374,0.01708984375,-0.065673828125,-0.619140625,0.5065999999999999
0.3511450381679389,0.7480916030534351,-1.8778625954198473,0.01708984375,-0.0615234375,-0.619140625,0.5083
0.5343511450381679,0.9923664122137404,-1.8473282442748091,0.01611328125,-0.059814453125,-0.615234375,0.51
0.732824427480916,0.9312977099236641,-1.8625954198473282,0.015380859375,-0.063720703125,-0.613525390625,0.5116999999999999
0.5954198473282443,0.6412213740458015,-1.7557251908396947,0.016845703125,-0.060546875,-0.611328125,0.5134
0.6412213740458015,0.5954198473282443,-1.9694656488549618,0.017333984375,-0.064208984375,-0.62353515625,0.5151
0.7480916030534351,0.549618320610687,-2.030534351145038,0.017822265625,-0.061767578125,-0.625732421875,0.5167999999999999
1.1297709923664123,0.4122137404580153,-1.984732824427481,0.016357421875,-0.059814453125,-0.61767578125,0.5185
1.0229007633587786,0.5801526717557252,-1.984732824427481,0.01806640625,-0.056884765625,-0.624267578125,0.5202
1.3435114503816794,0.7633587786259542,-2.045801526717557,0.01708984375,-0.06005859375,-0.615966796875,0.5218999999999999
1.3129770992366412,0.5801526717557252,-1.9541984732824427,0.0166015625,-0.065185546875,-0.62109375,0.5236
1.4351145038167938,0.5190839694656488,-2.2290076335877864,0.018798828125,-0.06591796875,-0.610595703125,0.5253
1.251908396946565,0.5343511450381679,-1.9083969465648856,0.015625,-0.06494140625,-0.612548828125,0.527
1.450381679389313,0.7786259541984732,-1.8015267175572518,0.01123046875,-0.065673828125,-0.616455078125,0.5287
1.2671755725190839,0.732824427480916,-1.9083969465648856,0.0166015625,-0.0625,-0.61572265625,0.5304
1.3435114503816794,0.7938931297709924,-2.0916030534351147,0.017822265625,-0.065185546875,-0.6142578125,0.5321
1.3587786259541985,0.7022900763358778,-1.7099236641221374,0.011962890625,-0.06591796875,-0.61962890625,0.5337999999999999
1.1908396946564885,0.6717557251908397,-1.9389312977099236,0.017333984375,-0.071533203125,-0.61376953125,0.5355
1.1755725190839694,0.9923664122137404,-1.8625954198473282,0.013427734375,-0.064697265625,-0.61865234375,0.5372
1.1145038167938932,0.9007633587786259,-2.0916030534351147,0.010986328125,-0.06103515625,-0.622314453125,0.5388999999999999
0.9618320610687023,0.9007633587786259,-1.9236641221374047,0.013671875,-0.068115234375,-0.614990234375,0.5406
1.083969465648855,0.8091603053435115,-1.9083969465648856,0.01416015625,-0.06103515625,-0.61181640625,0.5423
1.1297709923664123,0.732824427480916,-2.1068702290076335,0.013916015625,-0.068115234375,-0.614990234375,0.5439999999999999
0.916030534351145,0.7786259541984732,-2.0,0.014404296875,-0.064208984375,-0.6279296875,0.5457
1.0076335877862594,0.8091603053435115,-2.0,0.01708984375,-0.063232421875,-0.617431640625,0.5474
0.9923664122137404,0.6259541984732825,-1.9236641221374047,0.0185546875,-0.062744140625,-0.61962890625,0.5490999999999999
1.0687022900763359,0.5801526717557252,-2.122137404580153,0.020263671875,-0.065673828125,-0.620849609375,0.5508
1.1145038167938932,0.7480916030534351,-2.015267175572519,0.0107421875,-0.0634765625,-0.619873046875,0.5525
1.3129770992366412,0.6412213740458015,-1.9389312977099236,0.009033203125,-0.0625,-0.61328125,0.5541999999999999
1.1908396946564885,0.5648854961832062,-1.9083969465648856,0.009033203125,-0.064208984375,-0.607421875,0.5559
1.450381679389313,0.6259541984732825,-2.045801526717557,0.015625,-0.06591796875,-0.618408203125,0.5576
1.3282442748091603,0.7175572519083969,-1.9541984732824427,0.01318359375,-0.0654296875,-0.6181640625,0.5593
1.3129770992366412,0.6106870229007634,-1.9389312977099236,0.0078125,-0.06005859375,-0.61572265625,0.5609999999999999
1.282442748091603,0.3053435114503817,-1.8778625954198473,0.01806640625,-0.061279296875,-0.619873046875,0.5627
1.3587786259541985,0.5190839694656488,-1.9389312977099236,0.011474609375,-0.067138671875,-0.6142578125,0.5644
1.1297709923664123,0.6870229007633588,-2.2748091603053435,0.01220703125,-0.065673828125,-0.6083984375,0.5660999999999999
1.0687022900763359,0.6870229007633588,-2.0916030534351147,0.011474609375,-0.0654296875,-0.619140625,0.5678
1.1755725190839694,0.732824427480916,-2.0,0.012451171875,-0.06298828125,-0.61474609375,0.5695
0.9312977099236641,0.6106870229007634,-1.984732824427481,0.01416015625,-0.06640625,-0.619873046875,0.5711999999999999
0.5954198473282443,0.549618320610687,-2.2748091603053435,0.01171875,-0.0673828125,-0.623779296875,0.5729
0.5954198473282443,0.7175572519083969,-2.1374045801526718,0.015380859375,-0.060302734375,-0.62109375,0.5746
0.24427480916030533,0.9312977099236641,-2.045801526717557,0.015869140625,-0.06494140625,-0.623291015625,0.5762999999999999
0.061068702290076333,0.8091603053435115,-2.1526717557251906,0.014404296875,-0.0673828125,-0.623291015625,0.578
0.183206106870229,0.7786259541984732,-2.122137404580153,0.015380859375,-0.0703125,-0.6123046875,0.5797
0.07633587786259542,0.6717557251908397,-2.213740458015267,0.01611328125,-0.064697265625,-0.6123046875,0.5813999999999999
-0.061068702290076333,0.916030534351145,-2.2595419847328246,0.017333984375,-0.064697265625,-0.615478515625,0.5831
-0.0916030534351145,0.9618320610687023,-2.4580152671755724,0.010009765625,-0.067138671875,-0.620361328125,0.5848
-0.10687022900763359,0.8091603053435115,-2.0763358778625953,0.015380859375,-0.0673828125,-0.621337890625,0.5865
-0.10687022900763359,0.6870229007633588,-2.4580152671755724,0.017578125,-0.0693359375,-0.616455078125,0.5882
-0.2900763358778626,0.7938931297709924,-2.2900763358778624,0.01806640625,-0.071533203125,-0.6181640625,0.5899
-0.07633587786259542,0.6106870229007634,-2.122137404580153,0.01708984375,-0.067138671875,-0.614990234375,0.5916
-0.21374045801526717,0.5038167938931297,-2.2748091603053435,0.015625,-0.06640625,-0.60888671875,0.5932999999999999
0.015267175572519083,0.5801526717557252,-2.4427480916030535,0.02001953125,-0.067626953125,-0.611083984375,0.595
-0.183206106870229,0.7633587786259542,-2.2900763358778624,0.01708984375,-0.0654296875,-0.61962890625,0.5967
0.04580152671755725,0.5343511450381679,-2.4122137404580153,0.01416015625,-0.06103515625,-0.618408203125,0.5983999999999999
0.33587786259541985,0.7022900763358778,-2.381679389312977,0.014404296875,-0.068115234375,-0.615234375,0.6001
0.22900763358778625,0.5954198473282443,-2.33587786259542,0.01171875,-0.062255859375,-0.620849609375,0.6018
0.3969465648854962,0.5648854961832062,-2.3053435114503817,0.018798828125,-0.06201171875,-0.613525390625,0.6034999999999999
0.366412213740458,0.8244274809160306,-2.2290076335877864,0.016357421875,-0.05859375,-0.618896484375,0.6052
0.3511450381679389,0.7175572519083969,-2.2748091603053435,0.011474609375,-0.06103515625,-0.620849609375,0.6069
0.24427480916030533,0.6564885496183206,-2.0610687022900764,0.016357421875,-0.0615234375,-0.6171875,0.6085999999999999
0.1984732824427481,0.8549618320610687,-2.213740458015267,0.015869140625,-0.06005859375,-0.61279296875,0.6103
0.4732824427480916,1.0076335877862594,-2.2748091603053435,0.0146484375,-0.063232421875,-0.615966796875,0.612
0.5343511450381679,0.8702290076335878,-2.1526717557251906,0.015869140625,-0.060302734375,-0.61962890625,0.6136999999999999
0.15267175572519084,0.8244274809160306,-1.984732824427481,0.014404296875,-0.06005859375,-0.60791015625,0.6154
0.5190839694656488,0.8549618320610687,-2.122137404580153,0.01416015625,-0.0654296875,-0.608642578125,0.6171
0.5954198473282443,0.9465648854961832,-2.1374045801526718,0.0166015625,-0.060302734375,-0.611328125,0.6188
0.4732824427480916,0.9465648854961832,-1.9694656488549618,0.015625,-0.066162109375,-0.613037109375,0.6204999999999999
0.3511450381679389,1.1297709923664123,-2.183206106870229,0.013427734375,-0.066650390625,-0.619140625,0.6222
0.5190839694656488,1.1297709923664123,-1.618320610687023,0.015625,-0.05908203125,-0.61865234375,0.6239
0.6717557251908397,1.0381679389312977,-1.9389312977099236,0.01318359375,-0.06201171875,-0.6064453125,0.6255999999999999
0.5343511450381679,1.099236641221374,-1.9083969465648856,0.016357421875,-0.0595703125,-0.610107421875,0.6273
0.42748091603053434,1.0076335877862594,-1.9236641221374047,0.011962890625,-0.0634765625,-0.605224609375,0.629
0.6412213740458015,1.0534351145038168,-1.9389312977099236,0.008056640625,-0.064208984375,-0.611572265625,0.6306999999999999
0.6106870229007634,1.099236641221374,-1.83206106870229,0.009765625,-0.064208984375,-0.61279296875,0.6324
0.7786259541984732,1.2061068702290076,-1.450381679389313,0.01171875,-0.06201171875,-0.616455078125,0.6341
0.8702290076335878,1.1908396946564885,-1.618320610687023,0.01025390625,-0.066650390625,-0.609619140625,0.6357999999999999
0.8854961832061069,1.1755725190839694,-1.7404580152671756,0.01220703125,-0.0673828125,-0.6083984375,0.6375
1.0381679389312977,1.3435114503816794,-1.6030534351145038,0.012939453125,-0.065673828125,-0.612060546875,0.6392
1.1297709923664123,1.3587786259541985,-1.786259541984733,0.01123046875,-0.063720703125,-0.611572265625,0.6408999999999999
1.282442748091603,1.5572519083969465,-1.7251908396946565,0.014892578125,-0.06298828125,-0.607666015625,0.6426
1.3282442748091603,1.2671755725190839,-1.618320610687023,0.0146484375,-0.06884765625,-0.61474609375,0.6443
1.3435114503816794,1.3435114503816794,-1.5267175572519085,0.01025390625,-0.0673828125,-0.611572265625,0.646
1.2671755725190839,1.465648854961832,-1.5114503816793894,0.010498046875,-0.065185546875,-0.620849609375,0.6476999999999999
1.2213740458015268,1.465648854961832,-1.5267175572519085,0.01708984375,-0.067138671875,-0.610107421875,0.6494
1.1755725190839694,1.4351145038167938,-1.6488549618320612,0.015380859375,-0.068603515625,-0.60986328125,0.6511
1.1908396946564885,1.4809160305343512,-1.450381679389313,0.015625,-0.07275390625,-0.613525390625,0.6527999999999999
0.9465648854961832,1.5725190839694656,-1.2366412213740459,0.0126953125,-0.066162109375,-0.603515625,0.6545
0.8396946564885496,1.5572519083969465,-1.633587786259542,0.012451171875,-0.06689453125,-0.61279296875,0.6562
0.8396946564885496,1.6946564885496183,-1.3282442748091603,0.01611328125,-0.067626953125,-0.61181640625,0.6578999999999999
0.7175572519083969,1.5572519083969465,-1.4045801526717556,0.0126953125,-0.06640625,-0.615966796875,0.6596
1.0687022900763359,1.6030534351145038,-1.2061068702290076,0.011962890625,-0.0634765625,-0.6142578125,0.6613
0.7786259541984732,1.8015267175572518,-1.2366412213740459,0.013916015625,-0.0703125,-0.60791015625,0.6629999999999999
0.5343511450381679,1.633587786259542,-1.282442748091603,0.017333984375,-0.0634765625,-0.6162109375,0.6647
0.42748091603053434,1.4198473282442747,-1.1755725190839694,0.014404296875,-0.05859375,-0.611328125,0.6664
0.3511450381679389,1.4809160305343512,-1.0076335877862594,0.011962890625,-0.06494140625,-0.611572265625,0.6680999999999999
0.3969465648854962,1.7251908396946565,-1.2213740458015268,0.013671875,-0.06396484375,-0.61376953125,0.6698
0.3969465648854962,1.8625954198473282,-1.1145038167938932,0.009521484375,-0.064208984375,-0.60791015625,0.6715
0.21374045801526717,1.9389312977099236,-1.1145038167938932,0.014404296875,-0.06396484375,-0.614013671875,0.6731999999999999
0.33587786259541985,1.8931297709923665,-0.9312977099236641,0.01318359375,-0.06591796875,-0.6123046875,0.6748999999999999
0.42748091603053434,1.7404580152671756,-1.2061068702290076,0.01806640625,-0.066650390625,-0.61572265625,0.6766
0.4580152671755725,1.5572519083969465,-1.0687022900763359,0.017333984375,-0.06640625,-0.61962890625,0.6783
0.22900763358778625,1.5877862595419847,-1.4351145038167938,0.01318359375,-0.06494140625,-0.616455078125,0.6799999999999999
0.22900763358778625,1.6946564885496183,-0.9007633587786259,0.013671875,-0.063720703125,-0.613037109375,0.6817
0.3053435114503817,1.6488549618320612,-1.1755725190839694,0.01171875,-0.06298828125,-0.617431640625,0.6834
0.3969465648854962,1.5114503816793894,-1.0687022900763359,0.0166015625,-0.06689453125,-0.609375,0.6850999999999999
0.44274809160305345,1.5267175572519085,-1.1908396946564885,0.010986328125,-0.06103515625,-0.613525390625,0.6868
0.42748091603053434,1.6641221374045803,-1.1755725190839694,0.010498046875,-0.063232421875,-0.618896484375,0.6885
0.5038167938931297,1.633587786259542,-1.2366412213740459,0.014892578125,-0.063720703125,-0.61279296875,0.6901999999999999
0.42748091603053434,1.6488549618320612,-1.1450381679389312,0.014404296875,-0.0625,-0.614990234375,0.6919
0.6259541984732825,1.5419847328244274,-1.1908396946564885,0.013427734375,-0.06396484375,-0.61767578125,0.6936
0.5343511450381679,1.7251908396946565,-1.099236641221374,0.0166015625,-0.062744140625,-0.616455078125,0.6952999999999999
0.7480916030534351,1.6488549618320612,-1.1908396946564885,0.012939453125,-0.061767578125,-0.614013671875,0.697
0.6717557251908397,1.7099236641221374,-0.916030534351145,0.017578125,-0.07080078125,-0.610107421875,0.6987
0.6259541984732825,1.5267175572519085,-1.2061068702290076,0.013916015625,-0.06689453125,-0.61767578125,0.7003999999999999
0.6259541984732825,1.8473282442748091,-1.083969465648855,0.014892578125,-0.06591796875,-0.62158203125,0.7021
0.6106870229007634,1.5419847328244274,-1.2366412213740459,0.020751953125,-0.060791015625,-0.61083984375,0.7038
0.3969465648854962,1.6030534351145038,-1.1450381679389312,0.018310546875,-0.05859375,-0.614990234375,0.7055
0.6259541984732825,1.5419847328244274,-1.0534351145038168,0.01806640625,-0.06689453125,-0.61376953125,0.7071999999999999
0.44274809160305345,1.4351145038167938,-1.2671755725190839,0.0185546875,-0.067138671875,-0.619384765625,0.7089
0.4732824427480916,1.6793893129770991,-1.2366412213740459,0.01611328125,-0.063720703125,-0.61181640625,0.7106
0.549618320610687,1.5267175572519085,-0.9770992366412213,0.016357421875,-0.06298828125,-0.614501953125,0.7122999999999999
0.4732824427480916,1.3740458015267176,-1.1755725190839694,0.0185546875,-0.062744140625,-0.619140625,0.714
0.7480916030534351,1.3740458015267176,-1.0076335877862594,0.010498046875,-0.05908203125,-0.61376953125,0.7157
0.8854961832061069,1.1450381679389312,-1.282442748091603,0.01025390625,-0.065673828125,-0.61669921875,0.7173999999999999
1.0687022900763359,1.1603053435114503,-1.3740458015267176,0.01904296875,-0.062255859375,-0.61328125,0.7191
1.251908396946565,1.450381679389313,-1.297709923664122,0.0107421875,-0.069580078125,-0.60791015625,0.7208
1.297709923664122,1.4045801526717556,-1.1908396946564885,0.0146484375,-0.072265625,-0.610107421875,0.7224999999999999
1.5114503816793894,1.1603053435114503,-1.1603053435114503,0.01318359375,-0.0654296875,-0.610595703125,0.7242
1.4961832061068703,1.2061068702290076,-1.083969465648855,0.011474609375,-0.0634765625,-0.617919921875,0.7259
1.3740458015267176,1.3587786259541985,-1.251908396946565,0.015625,-0.068115234375,-0.618408203125,0.7275999999999999
1.450381679389313,1.3129770992366412,-1.3587786259541985,0.013427734375,-0.06201171875,-0.619384765625,0.7293
1.251908396946565,1.450381679389313,-1.3129770992366412,0.013671875,-0.059814453125,-0.617431640625,0.731
1.5572519083969465,1.5725190839694656,-1.1297709923664123,0.014404296875,-0.064697265625,-0.619384765625,0.7326999999999999
1.4198473282442747,1.633587786259542,-1.2671755725190839,0.013427734375,-0.062744140625,-0.616943359375,0.7343999999999999
1.3435114503816794,1.6641221374045803,-1.0534351145038168,0.013671875,-0.067626953125,-0.61376953125,0.7361
1.099236641221374,1.5572519083969465,-1.2366412213740459,0.013916015625,-0.065185546875,-0.6142578125,0.7378
1.2061068702290076,1.6793893129770991,-1.099236641221374,0.012939453125,-0.064208984375,-0.626220703125,0.7394999999999999
1.1297709923664123,1.465648854961832,-1.1755725190839694,0.018798828125,-0.0703125,-0.615966796875,0.7412
1.3282442748091603,1.6488549618320612,-0.9770992366412213,0.018310546875,-0.071533203125,-0.6240234375,0.7429
1.2671755725190839,1.6641221374045803,-1.2366412213740459,0.017822265625,-0.06982421875,-0.619873046875,0.7445999999999999
1.1450381679389312,1.6641221374045803,-1.0687022900763359,0.011962890625,-0.0634765625,-0.617919921875,0.7463
1.0381679389312977,1.8473282442748091,-0.8854961832061069,0.01513671875,-0.06640625,-0.610107421875,0.748
1.083969465648855,1.4351145038167938,-1.0229007633587786,0.018798828125,-0.066162109375,-0.617919921875,0.7496999999999999
0.9923664122137404,1.3435114503816794,-1.099236641221374,0.014404296875,-0.06982421875,-0.621337890625,0.7514
0.8396946564885496,1.5725190839694656,-1.0229007633587786,0.010009765625,-0.0634765625,-0.6171875,0.7531
0.5801526717557252,1.618320610687023,-0.9923664122137404,0.017333984375,-0.064697265625,-0.614501953125,0.7547999999999999
0.6564885496183206,1.4809160305343512,-0.8854961832061069,0.01611328125,-0.066650390625,-0.6171875,0.7565
0.6412213740458015,1.297709923664122,-1.099236641221374,0.015625,-0.06396484375,-0.61865234375,0.7582
0.7480916030534351,1.3893129770992367,-0.9618320610687023,0.017578125,-0.06298828125,-0.60498046875,0.7598999999999999
0.5648854961832062,1.3587786259541985,-1.1908396946564885,0.01318359375,-0.0634765625,-0.60888671875,0.7615999999999999
0.7175572519083969,1.297709923664122,-1.0687022900763359,0.019775390625,-0.066650390625,-0.616943359375,0.7633
0.6870229007633588,1.4351145038167938,-1.099236641221374,0.018798828125,-0.064208984375,-0.617431640625,0.7649999999999999
0.7175572519083969,1.282442748091603,-1.099236641221374,0.01416015625,-0.059814453125,-0.60791015625,0.7666999999999999
0.7480916030534351,1.251908396946565,-1.3129770992366412,0.018310546875,-0.06494140625,-0.608642578125,0.7684
0.5954198473282443,1.3282442748091603,-1.2671755725190839,0.01611328125,-0.06787109375,-0.621826171875,0.7701
0.7022900763358778,1.4351145038167938,-1.1908396946564885,0.017822265625,-0.060791015625,-0.611328125,0.7717999999999999
0.8091603053435115,1.083969465648855,-1.1297709923664123,0.01611328125,-0.060791015625,-0.622314453125,0.7735
0.8244274809160306,1.0687022900763359,-1.0687022900763359,0.017578125,-0.066650390625,-0.60546875,0.7752
0.9770992366412213,1.2213740458015268,-1.297709923664122,0.018798828125,-0.062255859375,-0.611083984375,0.7768999999999999
0.7938931297709924,1.2366412213740459,-1.3435114503816794,0.017578125,-0.067138671875,-0.611572265625,0.7786
0.9312977099236641,1.3587786259541985,-1.2061068702290076,0.016357421875,-0.06201171875,-0.622314453125,0.7803
0.8854961832061069,1.3893129770992367,-1.3435114503816794,0.01611328125,-0.0615234375,-0.612060546875,0.7819999999999999
1.2061068702290076,1.4351145038167938,-1.297709923664122,0.017578125,-0.06298828125,-0.61279296875,0.7837
0.9618320610687023,1.3129770992366412,-1.282442748091603,0.01611328125,-0.06201171875,-0.6103515625,0.7854
0.8702290076335878,1.4809160305343512,-1.4198473282442747,0.0146484375,-0.062744140625,-0.613037109375,0.7870999999999999
0.9923664122137404,1.4198473282442747,-1.3435114503816794,0.015380859375,-0.069091796875,-0.61279296875,0.7888
0.6564885496183206,1.3282442748091603,-1.3893129770992367,0.014404296875,-0.064208984375,-0.615966796875,0.7905
0.6412213740458015,1.2671755725190839,-1.465648854961832,0.012939453125,-0.06201171875,-0.61474609375,0.7921999999999999
0.8702290076335878,1.297709923664122,-1.4198473282442747,0.016845703125,-0.06787109375,-0.60302734375,0.7938999999999999
1.0076335877862594,1.4045801526717556,-1.450381679389313,0.013916015625,-0.065185546875,-0.611328125,0.7956
0.6259541984732825,1.083969465648855,-1.450381679389313,0.0146484375,-0.065673828125,-0.615234375,0.7973
0.5801526717557252,1.1603053435114503,-1.4198473282442747,0.017822265625,-0.0634765625,-0.61572265625,0.7989999999999999
0.5343511450381679,1.3282442748091603,-1.633587786259542,0.0166015625,-0.070068359375,-0.61376953125,0.8007
0.6259541984732825,1.465648854961832,-1.5572519083969465,0.017333984375,-0.060302734375,-0.6162109375,0.8024
0.7175572519083969,1.2061068702290076,-1.5877862595419847,0.01953125,-0.0673828125,-0.6142578125,0.8040999999999999
0.6564885496183206,1.1755725190839694,-1.633587786259542,0.018310546875,-0.069091796875,-0.6044921875,0.8058
0.5801526717557252,0.9007633587786259,-1.5572519083969465,0.01708984375,-0.06591796875,-0.61474609375,0.8075
0.5343511450381679,0.8244274809160306,-1.7251908396946565,0.0185546875,-0.064697265625,-0.612548828125,0.8091999999999999
0.6717557251908397,1.0534351145038168,-1.5267175572519085,0.020263671875,-0.0673828125,-0.614013671875,0.8109
0.7480916030534351,0.9312977099236641,-1.6488549618320612,0.020263671875,-0.06689453125,-0.61279296875,0.8126
0.8702290076335878,0.6412213740458015,-1.7404580152671756,0.016845703125,-0.0673828125,-0.619873046875,0.8142999999999999
0.8854961832061069,0.8396946564885496,-1.5114503816793894,0.02001953125,-0.065673828125,-0.621337890625,0.816
1.0076335877862594,0.8396946564885496,-1.6488549618320612,0.019775390625,-0.06787109375,-0.611572265625,0.8177
1.0381679389312977,0.8396946564885496,-1.465648854961832,0.0166015625,-0.068359375,-0.612548828125,0.8193999999999999
1.251908396946565,0.8702290076335878,-1.5419847328244274,0.01806640625,-0.06884765625,-0.610595703125,0.8210999999999999
1.2671755725190839,0.8244274809160306,-1.5267175572519085,0.01513671875,-0.06494140625,-0.610595703125,0.8228
1.3435114503816794,0.8702290076335878,-1.5419847328244274,0.016357421875,-0.06494140625,-0.61474609375,0.8244999999999999
1.4351145038167938,0.8244274809160306,-1.5572519083969465,0.01708984375,-0.0634765625,-0.6064453125,0.8261999999999999
1.2061068702290076,0.7633587786259542,-1.5419847328244274,0.014404296875,-0.06640625,-0.613037109375,0.8279
1.251908396946565,0.8396946564885496,-1.251908396946565,0.015625,-0.065673828125,-0.609375,0.8296
1.1297709923664123,0.6717557251908397,-1.3893129770992367,0.01318359375,-0.061767578125,-0.61376953125,0.8312999999999999
1.3587786259541985,0.8549618320610687,-1.3587786259541985,0.019775390625,-0.064453125,-0.61865234375,0.833
0.9618320610687023,1.1603053435114503,-1.3740458015267176,0.0166015625,-0.068603515625,-0.614990234375,0.8347
0.9770992366412213,1.099236641221374,-1.3435114503816794,0.02001953125,-0.06298828125,-0.60791015625,0.8363999999999999
1.1297709923664123,1.1145038167938932,-1.6030534351145038,0.02001953125,-0.0595703125,-0.614013671875,0.8381
1.2061068702290076,1.1755725190839694,-1.3587786259541985,0.014404296875,-0.064208984375,-0.6162109375,0.8398
1.0687022900763359,1.2213740458015268,-1.465648854961832,0.01123046875,-0.0615234375,-0.61962890625,0.8414999999999999
0.916030534351145,1.0687022900763359,-1.4045801526717556,0.011962890625,-0.065673828125,-0.614990234375,0.8432
1.1908396946564885,1.3129770992366412,-1.4961832061068703,0.0126953125,-0.065673828125,-0.618408203125,0.8449
1.0687022900763359,1.251908396946565,-1.4045801526717556,0.021484375,-0.06494140625,-0.6123046875,0.8465999999999999
1.1755725190839694,1.0229007633587786,-1.4961832061068703,0.017578125,-0.0634765625,-0.610107421875,0.8482999999999999
1.1297709923664123,1.0534351145038168,-1.4961832061068703,0.02099609375,-0.067626953125,-0.60400390625,0.85
1.0076335877862594,1.099236641221374,-1.633587786259542,0.015380859375,-0.0615234375,-0.607177734375,0.8516999999999999
0.9465648854961832,1.1908396946564885,-1.6030534351145038,0.010986328125,-0.060791015625,-0.612060546875,0.8533999999999999
0.7633587786259542,1.2671755725190839,-1.5419847328244274,0.009033203125,-0.056396484375,-0.61181640625,0.8551
0.9312977099236641,1.083969465648855,-1.5725190839694656,0.01611328125,-0.058837890625,-0.6103515625,0.8568
0.8091603053435115,1.083969465648855,-1.4198473282442747,0.0185546875,-0.062255859375,-0.612548828125,0.8584999999999999
0.9007633587786259,1.1908396946564885,-1.465648854961832,0.015869140625,-0.065673828125,-0.6171875,0.8602
0.6412213740458015,1.1755725190839694,-1.9541984732824427,0.01708984375,-0.06201171875,-0.619873046875,0.8619
0.5190839694656488,1.1755725190839694,-1.5725190839694656,0.01611328125,-0.060546875,-0.61865234375,0.8635999999999999
0.5343511450381679,1.2213740458015268,-1.5877862595419847,0.017578125,-0.056884765625,-0.616455078125,0.8653
0.5038167938931297,1.3740458015267176,-1.633587786259542,0.014404296875,-0.06005859375,-0.60986328125,0.867
0.5190839694656488,1.2061068702290076,-1.7557251908396947,0.019775390625,-0.0625,-0.615234375,0.8686999999999999
0.3053435114503817,1.083969465648855,-1.7251908396946565,0.018798828125,-0.064208984375,-0.615478515625,0.8704
0.366412213740458,0.9923664122137404,-1.9083969465648856,0.014404296875,-0.063232421875,-0.6162109375,0.8721
0.3816793893129771,0.9923664122137404,-1.5572519083969465,0.01171875,-0.069091796875,-0.6142578125,0.8737999999999999
0.48854961832061067,1.083969465648855,-1.7099236641221374,0.015380859375,-0.069580078125,-0.61328125,0.8755
0.3816793893129771,1.0229007633587786,-1.6030534351145038,0.01708984375,-0.059326171875,-0.61181640625,0.8772
0.5343511450381679,1.0076335877862594,-1.8625954198473282,0.015625,-0.0625,-0.60986328125,0.8788999999999999
0.4580152671755725,1.2213740458015268,-1.4809160305343512,0.018310546875,-0.065673828125,-0.61767578125,0.8805999999999999
0.3053435114503817,1.083969465648855,-1.6488549618320612,0.016357421875,-0.0625,-0.616943359375,0.8823
0.5648854961832062,0.7938931297709924,-1.5419847328244274,0.016357421875,-0.066650390625,-0.6123046875,0.8839999999999999
0.6717557251908397,0.5343511450381679,-1.6030534351145038,0.0205078125,-0.065673828125,-0.620849609375,0.8856999999999999
0.8244274809160306,0.7175572519083969,-1.4351145038167938,0.016845703125,-0.062744140625,-0.627197265625,0.8874
0.7480916030534351,0.7022900763358778,-1.5267175572519085,0.01904296875,-0.061767578125,-0.615234375,0.8891
0.732824427480916,0.6870229007633588,-1.4961832061068703,0.013427734375,-0.061767578125,-0.614501953125,0.8907999999999999
1.0687022900763359,0.7480916030534351,-1.5725190839694656,0.0234375,-0.06396484375,-0.613037109375,0.8925
1.099236641221374,0.5648854961832062,-1.6488549618320612,0.025634765625,-0.0673828125,-0.616943359375,0.8942
1.0229007633587786,0.6717557251908397,-1.465648854961832,0.016845703125,-0.064453125,-0.611328125,0.8958999999999999
1.0381679389312977,0.5801526717557252,-1.4045801526717556,0.016357421875,-0.062255859375,-0.61865234375,0.8976
1.0687022900763359,0.6106870229007634,-1.5725190839694656,0.017578125,-0.06689453125,-0.61474609375,0.8993
1.251908396946565,0.7175572519083969,-1.5877862595419847,0.018310546875,-0.0634765625,-0.6103515625,0.9009999999999999
1.1755725190839694,0.6717557251908397,-1.4961832061068703,0.013671875,-0.06396484375,-0.609619140625,0.9027
0.8396946564885496,0.7938931297709924,-1.282442748091603,0.01806640625,-0.065185546875,-0.607177734375,0.9044
1.1450381679389312,0.7022900763358778,-1.5114503816793894,0.01123046875,-0.061279296875,-0.612548828125,0.9060999999999999
1.2213740458015268,0.6870229007633588,-1.5114503816793894,0.013671875,-0.064697265625,-0.61669921875,0.9077999999999999
0.9007633587786259,0.4732824427480916,-1.633587786259542,0.02197265625,-0.065185546875,-0.611572265625,0.9095
0.9923664122137404,0.6717557251908397,-1.465648854961832,0.0185546875,-0.064697265625,-0.61572265625,0.9111999999999999
1.0381679389312977,0.8854961832061069,-1.5267175572519085,0.0185546875,-0.064208984375,-0.624267578125,0.9128999999999999
1.0229007633587786,0.8854961832061069,-1.3129770992366412,0.0146484375,-0.05908203125,-0.616943359375,0.9146
1.0076335877862594,0.8854961832061069,-1.3893129770992367,0.013916015625,-0.063720703125,-0.616455078125,0.9163
1.099236641221374,0.8549618320610687,-1.3282442748091603,0.01708984375,-0.06396484375,-0.612548828125,0.9179999999999999
1.2061068702290076,0.7786259541984732,-1.5419847328244274,0.01318359375,-0.064208984375,-0.60888671875,0.9197
1.0687022900763359,0.9312977099236641,-1.282442748091603,0.01708984375,-0.06298828125,-0.61279296875,0.9214
0.8702290076335878,1.0381679389312977,-1.5572519083969465,0.015380859375,-0.0625,-0.615478515625,0.9230999999999999
0.8244274809160306,0.8854961832061069,-1.5572519083969465,0.019775390625,-0.06201171875,-0.614990234375,0.9248
1.1755725190839694,0.916030534351145,-1.465648854961832,0.015869140625,-0.064208984375,-0.611572265625,0.9265
1.1755725190839694,0.9770992366412213,-1.4045801526717556,0.0205078125,-0.0673828125,-0.618408203125,0.9281999999999999
0.7022900763358778,0.9312977099236641,-1.3282442748091603,0.020751953125,-0.06494140625,-0.61181640625,0.9299
0.9618320610687023,0.7633587786259542,-1.3740458015267176,0.0146484375,-0.065673828125,-0.615478515625,0.9316
1.0534351145038168,0.8854961832061069,-1.3435114503816794,0.017822265625,-0.063232421875,-0.616455078125,0.9332999999999999
1.2061068702290076,0.9465648854961832,-1.1908396946564885,0.02001953125,-0.0625,-0.622802734375,0.9349999999999999
1.0229007633587786,0.8549618320610687,-1.618320610687023,0.01953125,-0.062255859375,-0.61572265625,0.9367
0.7938931297709924,0.7480916030534351,-1.3282442748091603,0.01416015625,-0.06494140625,-0.62548828125,0.9383999999999999
1.083969465648855,1.0687022900763359,-1.450381679389313,0.0166015625,-0.0673828125,-0.62060546875,0.9400999999999999
1.099236641221374,0.8854961832061069,-1.3282442748091603,0.018798828125,-0.066650390625,-0.614013671875,0.9418
0.9007633587786259,0.9007633587786259,-1.5267175572519085,0.009521484375,-0.0615234375,-0.6103515625,0.9434999999999999
0.7938931297709924,1.099236641221374,-1.5725190839694656,0.016357421875,-0.06298828125,-0.62255859375,0.9451999999999999
0.8549618320610687,1.0381679389312977,-1.5572519083969465,0.01708984375,-0.060791015625,-0.615234375,0.9469
0.8854961832061069,1.1145038167938932,-1.4351145038167938,0.015869140625,-0.064453125,-0.6171875,0.9486
0.8549618320610687,0.8854961832061069,-1.297709923664122,0.016845703125,-0.0673828125,-0.61474609375,0.9502999999999999
0.7938931297709924,0.9312977099236641,-1.4045801526717556,0.0126953125,-0.06689453125,-0.618408203125,0.952
0.8702290076335878,1.1450381679389312,-1.4961832061068703,0.0126953125,-0.063720703125,-0.6201171875,0.9537
0.8854961832061069,1.2213740458015268,-1.4198473282442747,0.012451171875,-0.068115234375,-0.610107421875,0.9553999999999999
0.8244274809160306,1.251908396946565,-1.7557251908396947,0.01171875,-0.066162109375,-0.6123046875,0.9571
0.9465648854961832,1.1755725190839694,-1.6030534351145038,0.01611328125,-0.05810546875,-0.613525390625,0.9588
0.9770992366412213,1.1755725190839694,-1.7099236641221374,0.015869140625,-0.062744140625,-0.61572265625,0.9604999999999999
1.0229007633587786,1.2213740458015268,-1.6641221374045803,0.015380859375,-0.059814453125,-0.620849609375,0.9621999999999999
1.0687022900763359,1.1145038167938932,-1.984732824427481,0.014404296875,-0.066162109375,-0.61962890625,0.9639
0.9770992366412213,1.1145038167938932,-1.5877862595419847,0.020263671875,-0.06591796875,-0.6142578125,0.9655999999999999
1.0381679389312977,1.0076335877862594,-1.6641221374045803,0.0146484375,-0.070068359375,-0.619873046875,0.9672999999999999
1.0381679389312977,1.1145038167938932,-1.6946564885496183,0.01416015625,-0.06689453125,-0.615478515625,0.969
1.099236641221374,1.0076335877862594,-1.7251908396946565,0.015625,-0.0625,-0.610107421875,0.9706999999999999
1.1908396946564885,1.0534351145038168,-1.6030534351145038,0.013916015625,-0.060302734375,-0.6123046875,0.9723999999999999
1.0229007633587786,1.0076335877862594,-1.633587786259542,0.013427734375,-0.0634765625,-0.616455078125,0.9741
1.3129770992366412,1.0534351145038168,-1.633587786259542,0.01708984375,-0.063720703125,-0.614990234375,0.9758
0.9923664122137404,0.9465648854961832,-1.6030534351145038,0.016845703125,-0.066650390625,-0.615478515625,0.9774999999999999
1.0534351145038168,1.0687022900763359,-1.6946564885496183,0.01416015625,-0.065185546875,-0.619140625,0.9792
1.099236641221374,1.0076335877862594,-1.6488549618320612,0.014892578125,-0.0654296875,-0.616455078125,0.9809
0.7175572519083969,1.251908396946565,-1.6030534351145038,0.016845703125,-0.065673828125,-0.615478515625,0.9825999999999999
1.0229007633587786,1.1908396946564885,-1.5572519083969465,0.01611328125,-0.07177734375,-0.60986328125,0.9843
0.7175572519083969,1.282442748091603,-1.5572519083969465,0.016845703125,-0.070556640625,-0.608642578125,0.986
0.7480916030534351,1.2061068702290076,-1.7099236641221374,0.0126953125,-0.06591796875,-0.617431640625,0.9876999999999999
0.5190839694656488,1.4198473282442747,-1.618320610687023,0.016357421875,-0.06787109375,-0.611083984375,0.9894
0.5648854961832062,1.2213740458015268,-1.6488549618320612,0.0166015625,-0.06884765625,-0.616943359375,0.9911
0.5038167938931297,1.1297709923664123,-1.6488549618320612,0.01220703125,-0.0634765625,-0.613525390625,0.9927999999999999
0.3053435114503817,1.2671755725190839,-1.6488549618320612,0.01171875,-0.066650390625,-0.617431640625,0.9944999999999999
0.2900763358778626,0.9923664122137404,-1.5572519083969465,0.0107421875,-0.06298828125,-0.611572265625,0.9962
0.21374045801526717,1.2366412213740459,-1.5572519083969465,0.01416015625,-0.069580078125,-0.6181640625,0.9978999999999999
-0.07633587786259542,1.1755725190839694,-1.5572519083969465,0.016845703125,-0.061279296875,-0.6123046875,0.9995999999999999
0.07633587786259542,1.0229007633587786,-1.6641221374045803,0.016357421875,-0.063232421875,-0.6181640625,1.0012999999999999
0.061068702290076333,1.2213740458015268,-1.6793893129770991,0.01611328125,-0.06396484375,-0.609619140625,1.003
0.061068702290076333,1.2061068702290076,-1.6641221374045803,0.010986328125,-0.065673828125,-0.607421875,1.0047
0.15267175572519084,1.099236641221374,-1.618320610687023,0.010986328125,-0.06689453125,-0.61572265625,1.0064
0.04580152671755725,1.465648854961832,-1.5572519083969465,0.0107421875,-0.06494140625,-0.61767578125,1.0081
0.07633587786259542,1.0687022900763359,-1.6641221374045803,0.014404296875,-0.0615234375,-0.617431640625,1.0098
0.16793893129770993,1.099236641221374,-1.7099236641221374,0.004638671875,-0.06982421875,-0.620361328125,1.0114999999999998
0.1984732824427481,1.3893129770992367,-1.786259541984733,0.0107421875,-0.0654296875,-0.620361328125,1.0131999999999999
0.24427480916030533,1.4045801526717556,-1.8931297709923665,0.01220703125,-0.063720703125,-0.6181640625,1.0149
0.07633587786259542,1.0381679389312977,-1.6793893129770991,0.010986328125,-0.0634765625,-0.616943359375,1.0166
0.15267175572519084,1.2366412213740459,-1.633587786259542,0.00927734375,-0.068115234375,-0.611328125,1.0183
0.1984732824427481,1.3282442748091603,-1.5877862595419847,0.021728515625,-0.07177734375,-0.615478515625,1.02
0.15267175572519084,1.3129770992366412,-1.633587786259542,0.017333984375,-0.06689453125,-0.6162109375,1.0217
0.42748091603053434,1.3435114503816794,-1.5877862595419847,0.015380859375,-0.0673828125,-0.61767578125,1.0233999999999999
0.4732824427480916,1.3740458015267176,-1.6641221374045803,0.012451171875,-0.066162109375,-0.612060546875,1.0251
0.2595419847328244,1.3129770992366412,-1.7709923664122138,0.01318359375,-0.06591796875,-0.61181640625,1.0268
0.5190839694656488,1.4045801526717556,-1.7404580152671756,0.015625,-0.06591796875,-0.61669921875,1.0285
0.5190839694656488,1.4961832061068703,-1.5267175572519085,0.013671875,-0.068115234375,-0.61767578125,1.0302
0.3511450381679389,1.4045801526717556,-1.633587786259542,0.013916015625,-0.06494140625,-0.61376953125,1.0319
0.732824427480916,1.4809160305343512,-1.6030534351145038,0.014892578125,-0.06494140625,-0.6025390625,1.0335999999999999
0.7480916030534351,1.6030534351145038,-1.6030534351145038,0.0126953125,-0.064208984375,-0.607421875,1.0352999999999999
0.7786259541984732,1.4351145038167938,-1.5419847328244274,0.015380859375,-0.064697265625,-0.611083984375,1.037
0.7938931297709924,1.5267175572519085,-1.4351145038167938,0.012939453125,-0.0576171875,-0.603271484375,1.0387
0.9312977099236641,1.4961832061068703,-1.7709923664122138,0.014892578125,-0.063720703125,-0.611328125,1.0404
0.9312977099236641,1.5267175572519085,-1.633587786259542,0.0068359375,-0.060302734375,-0.6171875,1.0421
1.1297709923664123,1.4961832061068703,-1.618320610687023,0.0146484375,-0.067626953125,-0.61181640625,1.0437999999999998
1.2671755725190839,1.4809160305343512,-1.7404580152671756,0.011474609375,-0.06298828125,-0.61279296875,1.0454999999999999
1.3587786259541985,1.4198473282442747,-1.6488549618320612,0.015380859375,-0.06298828125,-0.6123046875,1.0472
1.2671755725190839,1.5725190839694656,-1.5877862595419847,0.01513671875,-0.064208984375,-0.6123046875,1.0489
1.251908396946565,1.297709923664122,-1.8625954198473282,0.014892578125,-0.06591796875,-0.607177734375,1.0506
1.4198473282442747,1.3587786259541985,-1.5572519083969465,0.019775390625,-0.063720703125,-0.6142578125,1.0523
1.5725190839694656,1.3740458015267176,-1.6946564885496183,0.018798828125,-0.061279296875,-0.6171875,1.054
1.4045801526717556,1.2366412213740459,-1.6793893129770991,0.014892578125,-0.061279296875,-0.61376953125,1.0556999999999999
1.3587786259541985,1.1908396946564885,-1.7251908396946565,0.010498046875,-0.064697265625,-0.614990234375,1.0574
1.465648854961832,1.1450381679389312,-1.7099236641221374,0.016845703125,-0.06103515625,-0.615478515625,1.0591
1.5419847328244274,1.3129770992366412,-1.618320610687023,0.012939453125,-0.059326171875,-0.610595703125,1.0608
1.297709923664122,1.0534351145038168,-1.465648854961832,0.014404296875,-0.06640625,-0.616455078125,1.0625
1.6641221374045803,1.1603053435114503,-1.618320610687023,0.01708984375,-0.064208984375,-0.610595703125,1.0642
1.5725190839694656,1.1297709923664123,-1.4809160305343512,0.015380859375,-0.0634765625,-0.619140625,1.0658999999999998
1.6946564885496183,1.3129770992366412,-1.3587786259541985,0.01611328125,-0.065185546875,-0.620361328125,1.0675999999999999
1.9236641221374047,1.282442748091603,-1.3282442748091603,0.013671875,-0.057373046875,-0.6103515625,1.0693
1.7557251908396947,1.282442748091603,-1.465648854961832,0.010986328125,-0.059814453125,-0.61083984375,1.071
1.6946564885496183,1.450381679389313,-1.251908396946565,0.01318359375,-0.06396484375,-0.619873046875,1.0727
1.83206106870229,1.2671755725190839,-1.2671755725190839,0.010009765625,-0.065185546875,-0.614013671875,1.0744
1.786259541984733,1.282442748091603,-1.1603053435114503,0.012939453125,-0.06396484375,-0.617919921875,1.0760999999999998
1.9541984732824427,1.2671755725190839,-1.1297709923664123,0.0107421875,-0.066162109375,-0.6201171875,1.0777999999999999
1.7404580152671756,1.4198473282442747,-1.297709923664122,0.012939453125,-0.06494140625,-0.61962890625,1.0795
1.8625954198473282,1.1755725190839694,-1.1908396946564885,0.010009765625,-0.063720703125,-0.615234375,1.0812
1.7404580152671756,1.099236641221374,-1.1297709923664123,0.013671875,-0.06396484375,-0.603515625,1.0829
1.6641221374045803,1.083969465648855,-1.1908396946564885,0.01513671875,-0.06494140625,-0.607177734375,1.0846
1.465648854961832,1.2061068702290076,-1.2061068702290076,0.017822265625,-0.06591796875,-0.611083984375,1.0863
1.5725190839694656,1.282442748091603,-1.297709923664122,0.0126953125,-0.06494140625,-0.615234375,1.0879999999999999
1.5572519083969465,1.2213740458015268,-1.1450381679389312,0.01611328125,-0.0634765625,-0.62060546875,1.0897
1.4045801526717556,1.2213740458015268,-1.297709923664122,0.015380859375,-0.064453125,-0.61376953125,1.0914
1.2671755725190839,1.3282442748091603,-1.2061068702290076,0.0107421875,-0.066650390625,-0.619140625,1.0931
1.0534351145038168,1.2061068702290076,-1.3587786259541985,0.01513671875,-0.062255859375,-0.6201171875,1.0948
0.9618320610687023,1.3435114503816794,-1.1908396946564885,0.01513671875,-0.0615234375,-0.607421875,1.0965
0.549618320610687,1.3435114503816794,-1.2213740458015268,0.01513671875,-0.06640625,-0.613037109375,1.0981999999999998
0.7480916030534351,1.3282442748091603,-1.2213740458015268,0.020751953125,-0.063720703125,-0.611083984375,1.0998999999999999
0.732824427480916,1.2213740458015268,-1.3435114503816794,0.01220703125,-0.063232421875,-0.61328125,1.1016
0.732824427480916,1.3129770992366412,-1.2366412213740459,0.013427734375,-0.068115234375,-0.61572265625,1.1033
0.5648854961832062,1.2213740458015268,-1.297709923664122,0.012451171875,-0.062255859375,-0.614990234375,1.105
0.4732824427480916,1.3435114503816794,-1.1755725190839694,0.015380859375,-0.06396484375,-0.6171875,1.1067
0.4122137404580153,1.1908396946564885,-1.2061068702290076,0.017578125,-0.066162109375,-0.615234375,1.1083999999999998
0.4732824427480916,1.1145038167938932,-1.1755725190839694,0.016357421875,-0.05908203125,-0.614501953125,1.1100999999999999
0.5954198473282443,1.1908396946564885,-1.3740458015267176,0.020751953125,-0.060791015625,-0.61083984375,1.1118
0.42748091603053434,1.2671755725190839,-1.251908396946565,0.01904296875,-0.064208984375,-0.61962890625,1.1135
0.6870229007633588,1.0229007633587786,-1.0381679389312977,0.016845703125,-0.065185546875,-0.62255859375,1.1152
0.7633587786259542,1.0076335877862594,-1.099236641221374,0.01611328125,-0.06298828125,-0.611083984375,1.1169
0.732824427480916,1.1297709923664123,-1.2061068702290076,0.0166015625,-0.06396484375,-0.6123046875,1.1186
0.732824427480916,0.9465648854961832,-1.0076335877862594,0.018310546875,-0.064208984375,-0.61865234375,1.1202999999999999
0.732824427480916,1.1755725190839694,-1.1755725190839694,0.012451171875,-0.0712890625,-0.6162109375,1.1219999999999999
0.7786259541984732,0.9618320610687023,-1.1297709923664123,0.012939453125,-0.0625,-0.614990234375,1.1237
0.7938931297709924,1.0534351145038168,-1.3587786259541985,0.010009765625,-0.058349609375,-0.613525390625,1.1254
0.7938931297709924,1.1450381679389312,-1.1145038167938932,0.01611328125,-0.064208984375,-0.6220703125,1.1271
0.8702290076335878,1.0381679389312977,-0.9770992366412213,0.0185546875,-0.064453125,-0.61865234375,1.1288
0.9007633587786259,0.916030534351145,-1.1297709923664123,0.016845703125,-0.0634765625,-0.615478515625,1.1304999999999998
0.8091603053435115,0.6564885496183206,-1.1908396946564885,0.018798828125,-0.062255859375,-0.6162109375,1.1321999999999999
0.7786259541984732,0.916030534351145,-1.0687022900763359,0.015380859375,-0.060791015625,-0.617919921875,1.1339
0.8396946564885496,0.9007633587786259,-1.450381679389313,0.0146484375,-0.058837890625,-0.615234375,1.1356
0.916030534351145,0.8549618320610687,-1.083969465648855,0.01220703125,-0.060546875,-0.611328125,1.1373
1.0229007633587786,0.7175572519083969,-1.2671755725190839,0.016357421875,-0.059326171875,-0.618896484375,1.139
1.2366412213740459,0.6564885496183206,-1.2366412213740459,0.011474609375,-0.0625,-0.616943359375,1.1407
1.1908396946564885,0.7480916030534351,-1.297709923664122,0.014892578125,-0.062744140625,-0.610107421875,1.1423999999999999
1.3282442748091603,1.0076335877862594,-1.3435114503816794,0.0166015625,-0.06201171875,-0.608642578125,1.1441
1.450381679389313,0.7633587786259542,-1.2061068702290076,0.014892578125,-0.064453125,-0.60986328125,1.1458
1.465648854961832,0.7786259541984732,-1.1297709923664123,0.01220703125,-0.0634765625,-0.612548828125,1.1475
1.3893129770992367,0.8854961832061069,-1.282442748091603,0.01904296875,-0.060302734375,-0.614501953125,1.1492
1.5725190839694656,0.7938931297709924,-1.1755725190839694,0.01953125,-0.05859375,-0.609375,1.1509
2.0610687022900764,0.732824427480916,-1.1755725190839694,0.016357421875,-0.064697265625,-0.613037109375,1.1525999999999998
1.984732824427481,0.6870229007633588,-0.9923664122137404,0.014404296875,-0.05810546875,-0.61328125,1.1542999999999999
2.1526717557251906,0.4122137404580153,-0.9770992366412213,0.016357421875,-0.065185546875,-0.611328125,1.156
2.16793893129771,0.732824427480916,-0.9923664122137404,0.01708984375,-0.06640625,-0.618896484375,1.1577
2.1526717557251906,0.7633587786259542,-1.2213740458015268,0.011474609375,-0.060546875,-0.609619140625,1.1594
2.3206106870229006,0.8244274809160306,-1.0534351145038168,0.014892578125,-0.06689453125,-0.610595703125,1.1611
2.0610687022900764,0.5343511450381679,-1.0534351145038168,0.011474609375,-0.06396484375,-0.61279296875,1.1627999999999998
2.33587786259542,0.6870229007633588,-0.9923664122137404,0.015380859375,-0.067138671875,-0.607666015625,1.1644999999999999
2.183206106870229,0.8091603053435115,-1.0076335877862594,0.01220703125,-0.0625,-0.610107421875,1.1662
2.1374045801526718,0.732824427480916,-1.0229007633587786,0.0185546875,-0.065673828125,-0.619140625,1.1679
2.1374045801526718,0.8244274809160306,-1.083969465648855,0.0166015625,-0.068359375,-0.621337890625,1.1696
1.8931297709923665,0.5801526717557252,-1.0229007633587786,0.01904296875,-0.064453125,-0.60888671875,1.1713
2.1068702290076335,0.6717557251908397,-1.282442748091603,0.015869140625,-0.069580078125,-0.614013671875,1.173
1.8931297709923665,0.6259541984732825,-1.297709923664122,0.012451171875,-0.0703125,-0.6171875,1.1746999999999999
1.7709923664122138,0.6259541984732825,-1.0534351145038168,0.01904296875,-0.063720703125,-0.62158203125,1.1764
1.7709923664122138,0.5954198473282443,-1.2213740458015268,0.020263671875,-0.0703125,-0.61669921875,1.1781
1.7099236641221374,0.5648854961832062,-1.1145038167938932,0.017333984375,-0.06982421875,-0.61279296875,1.1798
1.618320610687023,0.6564885496183206,-0.9770992366412213,0.013671875,-0.06591796875,-0.613525390625,1.1815
1.6946564885496183,0.6870229007633588,-1.0534351145038168,0.0146484375,-0.060791015625,-0.61474609375,1.1832
1.5572519083969465,0.732824427480916,-0.9312977099236641,0.012939453125,-0.07080078125,-0.61865234375,1.1848999999999998
1.7404580152671756,0.6564885496183206,-1.0381679389312977,0.0126953125,-0.070068359375,-0.620361328125,1.1865999999999999
1.7099236641221374,0.7938931297709924,-1.099236641221374,0.01611328125,-0.063232421875,-0.614990234375,1.1883
1.5877862595419847,0.8244274809160306,-1.083969465648855,0.018798828125,-0.070068359375,-0.616943359375,1.19
1.8015267175572518,0.8549618320610687,-0.8244274809160306,0.018310546875,-0.074951171875,-0.61376953125,1.1917
1.618320610687023,0.7175572519083969,-1.1603053435114503,0.015625,-0.06884765625,-0.608642578125,1.1934
1.7099236641221374,1.0076335877862594,-1.1297709923664123,0.01513671875,-0.06494140625,-0.6103515625,1.1950999999999998
1.7404580152671756,1.0687022900763359,-1.2061068702290076,0.015869140625,-0.060546875,-0.612548828125,1.1967999999999999
1.3740458015267176,1.099236641221374,-1.1297709923664123,0.011962890625,-0.06787109375,-0.61767578125,1.1985
1.4045801526717556,1.3893129770992367,-1.1908396946564885,0.0126953125,-0.0654296875,-0.613037109375,1.2002
1.251908396946565,1.1450381679389312,-1.1145038167938932,0.0166015625,-0.06982421875,-0.61865234375,1.2019
1.2671755725190839,1.1603053435114503,-1.2366412213740459,0.0146484375,-0.0732421875,-0.610107421875,1.2036
1.1297709923664123,1.1908396946564885,-1.5114503816793894,0.015625,-0.070556640625,-0.624267578125,1.2053
1.0076335877862594,1.2366412213740459,-1.2366412213740459,0.017578125,-0.066162109375,-0.614990234375,1.2069999999999999
0.8396946564885496,1.3282442748091603,-1.2366412213740459,0.016845703125,-0.068115234375,-0.611572265625,1.2086999999999999
0.7175572519083969,1.2213740458015268,-1.450381679389313,0.011962890625,-0.06884765625,-0.621337890625,1.2104
0.549618320610687,1.251908396946565,-1.282442748091603,0.015380859375,-0.066162109375,-0.61962890625,1.2121
0.5190839694656488,1.2671755725190839,-1.3435114503816794,0.019775390625,-0.063720703125,-0.6142578125,1.2138
0.4580152671755725,1.4351145038167938,-1.3587786259541985,0.01708984375,-0.069580078125,-0.610107421875,1.2155
0.0,1.3282442748091603,-1.4045801526717556,0.012939453125,-0.068603515625,-0.619384765625,1.2171999999999998
0.183206106870229,1.4045801526717556,-1.3587786259541985,0.01025390625,-0.069091796875,-0.623291015625,1.2188999999999999
0.22900763358778625,1.297709923664122,-1.4351145038167938,0.010498046875,-0.06982421875,-0.621826171875,1.2206
0.32061068702290074,1.2061068702290076,-1.4809160305343512,0.009765625,-0.066162109375,-0.615234375,1.2223
0.3511450381679389,1.297709923664122,-1.4198473282442747,0.013916015625,-0.06640625,-0.611572265625,1.224
0.2900763358778626,1.2671755725190839,-1.5572519083969465,0.01416015625,-0.06884765625,-0.6171875,1.2257
0.13740458015267176,1.2061068702290076,-1.786259541984733,0.015625,-0.064697265625,-0.617431640625,1.2273999999999998
0.3053435114503817,1.2061068702290076,-1.6946564885496183,0.016845703125,-0.061279296875,-0.614990234375,1.2290999999999999
0.33587786259541985,1.2366412213740459,-1.8625954198473282,0.015869140625,-0.05810546875,-0.6123046875,1.2308
0.4580152671755725,1.3129770992366412,-1.786259541984733,0.00927734375,-0.062744140625,-0.6103515625,1.2325
0.6564885496183206,1.282442748091603,-1.6793893129770991,0.016357421875,-0.06201171875,-0.619384765625,1.2342
0.7175572519083969,1.4198473282442747,-1.7404580152671756,0.016357421875,-0.06201171875,-0.624755859375,1.2359
0.6412213740458015,1.450381679389313,-1.9083969465648856,0.01953125,-0.064208984375,-0.6142578125,1.2376
0.6564885496183206,1.5725190839694656,-1.984732824427481,0.014404296875,-0.0595703125,-0.619140625,1.2392999999999998
0.549618320610687,1.3740458015267176,-1.8473282442748091,0.017333984375,-0.06103515625,-0.620361328125,1.2409999999999999
0.5801526717557252,1.3893129770992367,-1.6946564885496183,0.015380859375,-0.06201171875,-0.61376953125,1.2427
0.4732824427480916,1.3740458015267176,-1.450381679389313,0.017333984375,-0.064697265625,-0.6171875,1.2444
0.5343511450381679,1.465648854961832,-1.3740458015267176,0.01708984375,-0.059326171875,-0.61669921875,1.2461
0.7175572519083969,1.4809160305343512,-1.5419847328244274,0.019775390625,-0.06298828125,-0.615234375,1.2478
0.9770992366412213,1.5725190839694656,-1.5419847328244274,0.0166015625,-0.0634765625,-0.615478515625,1.2494999999999998
0.8244274809160306,1.5114503816793894,-1.465648854961832,0.016845703125,-0.058837890625,-0.618896484375,1.2511999999999999
1.1145038167938932,1.3587786259541985,-1.4961832061068703,0.0205078125,-0.066162109375,-0.62548828125,1.2529
0.8854961832061069,1.3893129770992367,-1.6793893129770991,0.017578125,-0.0615234375,-0.61328125,1.2546
1.0076335877862594,1.4961832061068703,-1.618320610687023,0.01904296875,-0.064208984375,-0.6103515625,1.2563
1.1755725190839694,1.3740458015267176,-1.618320610687023,0.012939453125,-0.058837890625,-0.61279296875,1.258
1.1603053435114503,1.1145038167938932,-1.6030534351145038,0.013916015625,-0.061279296875,-0.61767578125,1.2596999999999998
1.3587786259541985,1.3282442748091603,-1.7557251908396947,0.01025390625,-0.06640625,-0.61767578125,1.2613999999999999
1.6641221374045803,1.450381679389313,-1.9083969465648856,0.01416015625,-0.0625,-0.6181640625,1.2631
1.5114503816793894,1.2671755725190839,-1.786259541984733,0.017822265625,-0.06005859375,-0.620849609375,1.2648
1.282442748091603,1.3587786259541985,-1.83206106870229,0.019775390625,-0.06298828125,-0.612060546875,1.2665
1.618320610687023,1.3587786259541985,-1.83206106870229,0.016357421875,-0.060302734375,-0.619140625,1.2682
1.8015267175572518,1.6488549618320612,-2.015267175572519,0.008056640625,-0.06005859375,-0.614013671875,1.2699
1.4961832061068703,1.6793893129770991,-1.9236641221374047,0.01171875,-0.061279296875,-0.61962890625,1.2715999999999998
1.450381679389313,1.7099236641221374,-2.0,0.014892578125,-0.066162109375,-0.6201171875,1.2732999999999999
1.786259541984733,1.4961832061068703,-2.0,0.01171875,-0.0654296875,-0.6142578125,1.275
1.6030534351145038,1.6641221374045803,-1.83206106870229,0.016357421875,-0.069091796875,-0.61376953125,1.2767
1.4045801526717556,1.8015267175572518,-1.83206106870229,0.016845703125,-0.064208984375,-0.6201171875,1.2784
1.3129770992366412,2.030534351145038,-1.984732824427481,0.015380859375,-0.0654296875,-0.6181640625,1.2801
0.732824427480916,1.7557251908396947,-1.83206106870229,0.013427734375,-0.06591796875,-0.61865234375,1.2817999999999998
0.9312977099236641,1.786259541984733,-1.816793893129771,0.01611328125,-0.066162109375,-0.617919921875,1.2834999999999999
0.9770992366412213,1.8931297709923665,-1.9389312977099236,0.0205078125,-0.06591796875,-0.617431640625,1.2852
0.9923664122137404,1.7099236641221374,-2.0,0.016357421875,-0.06298828125,-0.614013671875,1.2869
0.8702290076335878,1.5725190839694656,-1.9236641221374047,0.01611328125,-0.064697265625,-0.608642578125,1.2886
0.4732824427480916,1.6793893129770991,-2.030534351145038,0.021240234375,-0.064453125,-0.604736328125,1.2903
0.5954198473282443,1.5725190839694656,-1.8625954198473282,0.02001953125,-0.06640625,-0.614013671875,1.292
0.4732824427480916,1.6641221374045803,-1.7251908396946565,0.01416015625,-0.068115234375,-0.61474609375,1.2936999999999999
0.3816793893129771,1.633587786259542,-1.618320610687023,0.012451171875,-0.072265625,-0.614501953125,1.2953999999999999
0.366412213740458,1.633587786259542,-1.6946564885496183,0.015380859375,-0.059326171875,-0.6064453125,1.2971
0.5190839694656488,1.6030534351145038,-1.8931297709923665,0.01806640625,-0.06982421875,-0.61328125,1.2988
0.549618320610687,1.5572519083969465,-1.786259541984733,0.01611328125,-0.070068359375,-0.611328125,1.3005
0.4732824427480916,1.633587786259542,-1.5572519083969465,0.017822265625,-0.068603515625,-0.61376953125,1.3022
0.44274809160305345,1.4045801526717556,-1.7709923664122138,0.017578125,-0.06494140625,-0.61279296875,1.3038999999999998
0.33587786259541985,1.5725190839694656,-1.6946564885496183,0.017578125,-0.06982421875,-0.61181640625,1.3055999999999999
0.3816793893129771,1.6641221374045803,-1.6793893129770991,0.01513671875,-0.067138671875,-0.616455078125,1.3073
0.5190839694656488,1.5725190839694656,-1.5114503816793894,0.016357421875,-0.0673828125,-0.622802734375,1.309
0.3816793893129771,1.450381679389313,-1.7709923664122138,0.017578125,-0.06689453125,-0.61962890625,1.3107
0.366412213740458,1.4809160305343512,-1.3740458015267176,0.014404296875,-0.0703125,-0.61328125,1.3124
0.5190839694656488,1.6793893129770991,-1.6030534351145038,0.013671875,-0.068603515625,-0.61181640625,1.3140999999999998
0.4732824427480916,1.6488549618320612,-1.465648854961832,0.017578125,-0.06494140625,-0.609619140625,1.3157999999999999
0.8091603053435115,1.5419847328244274,-1.3435114503816794,0.0185546875,-0.0634765625,-0.616943359375,1.3175
0.7022900763358778,1.7404580152671756,-1.3893129770992367,0.01611328125,-0.063720703125,-0.609619140625,1.3192
0.5190839694656488,1.3893129770992367,-1.4961832061068703,0.016845703125,-0.06689453125,-0.6162109375,1.3209
0.916030534351145,1.4961832061068703,-1.465648854961832,0.0224609375,-0.061279296875,-0.607177734375,1.3226
0.9923664122137404,1.4045801526717556,-1.5267175572519085,0.02001953125,-0.06396484375,-0.617919921875,1.3243
0.6870229007633588,1.618320610687023,-1.2366412213740459,0.02099609375,-0.0576171875,-0.61865234375,1.3259999999999998
0.6717557251908397,1.3893129770992367,-1.5419847328244274,0.014404296875,-0.06787109375,-0.60986328125,1.3276999999999999
0.7938931297709924,1.3893129770992367,-1.6641221374045803,0.011962890625,-0.06201171875,-0.6103515625,1.3294
0.8396946564885496,1.4198473282442747,-1.6488549618320612,0.013427734375,-0.065673828125,-0.613525390625,1.3311
0.8702290076335878,1.3740458015267176,-1.297709923664122,0.018798828125,-0.062255859375,-0.6201171875,1.3328
1.0381679389312977,1.251908396946565,-1.5114503816793894,0.018310546875,-0.05810546875,-0.611328125,1.3345
0.8549618320610687,1.4198473282442747,-1.786259541984733,0.01611328125,-0.062255859375,-0.61279296875,1.3361999999999998
0.9465648854961832,1.2671755725190839,-1.6641221374045803,0.01318359375,-0.064697265625,-0.611572265625,1.3378999999999999
1.1145038167938932,1.2061068702290076,-1.5114503816793894,0.01806640625,-0.061767578125,-0.614013671875,1.3396
1.3282442748091603,1.282442748091603,-1.786259541984733,0.016357421875,-0.066650390625,-0.61572265625,1.3413
1.251908396946565,1.3893129770992367,-1.9541984732824427,0.01123046875,-0.06982421875,-0.621337890625,1.343
1.251908396946565,1.4045801526717556,-1.8625954198473282,0.01123046875,-0.064453125,-0.618896484375,1.3447
1.3893129770992367,1.1297709923664123,-1.5725190839694656,0.0166015625,-0.065673828125,-0.619873046875,1.3463999999999998
1.450381679389313,1.2061068702290076,-1.6030534351145038,0.0146484375,-0.0654296875,-0.61181640625,1.3480999999999999
1.7404580152671756,1.3129770992366412,-1.7251908396946565,0.0166015625,-0.05810546875,-0.60986328125,1.3497999999999999
1.5419847328244274,1.3587786259541985,-1.7404580152671756,0.013916015625,-0.069580078125,-0.6162109375,1.3515
1.5725190839694656,1.3435114503816794,-1.7404580152671756,0.015869140625,-0.071533203125,-0.6162109375,1.3532
1.3129770992366412,1.297709923664122,-1.786259541984733,0.014892578125,-0.05810546875,-0.615966796875,1.3549
1.3129770992366412,1.4045801526717556,-1.5419847328244274,0.01513671875,-0.065673828125,-0.61962890625,1.3566
1.3893129770992367,1.3587786259541985,-1.6641221374045803,0.0146484375,-0.06884765625,-0.615234375,1.3582999999999998
1.3129770992366412,1.2671755725190839,-1.618320610687023,0.016845703125,-0.06591796875,-0.61767578125,1.3599999999999999
1.251908396946565,1.1908396946564885,-1.7709923664122138,0.01025390625,-0.06201171875,-0.6083984375,1.3617
1.083969465648855,1.2366412213740459,-1.5267175572519085,0.010986328125,-0.064697265625,-0.615966796875,1.3634
0.9923664122137404,1.297709923664122,-1.7557251908396947,0.014404296875,-0.06884765625,-0.607421875,1.3651
1.2671755725190839,1.3282442748091603,-1.633587786259542,0.01416015625,-0.068603515625,-0.614990234375,1.3668
0.9312977099236641,1.3282442748091603,-1.5877862595419847,0.010498046875,-0.0634765625,-0.6142578125,1.3684999999999998
1.2366412213740459,1.1908396946564885,-1.5114503816793894,0.01416015625,-0.066650390625,-0.616455078125,1.3701999999999999
1.2213740458015268,1.1603053435114503,-1.633587786259542,0.013916015625,-0.063720703125,-0.6181640625,1.3719
0.916030534351145,1.0534351145038168,-1.6946564885496183,0.016845703125,-0.067138671875,-0.6142578125,1.3736
0.7938931297709924,1.1603053435114503,-1.6030534351145038,0.01416015625,-0.06298828125,-0.61865234375,1.3753
0.8854961832061069,1.0381679389312977,-1.4809160305343512,0.01708984375,-0.064208984375,-0.61376953125,1.377
1.099236641221374,1.0229007633587786,-1.7251908396946565,0.016357421875,-0.068115234375,-0.619140625,1.3786999999999998
0.9312977099236641,1.1755725190839694,-1.5877862595419847,0.010986328125,-0.0625,-0.613525390625,1.3803999999999998
0.7480916030534351,1.3587786259541985,-1.6641221374045803,0.0107421875,-0.067138671875,-0.621337890625,1.3820999999999999
0.732824427480916,1.099236641221374,-1.4961832061068703,0.0068359375,-0.068359375,-0.607421875,1.3838
0.8244274809160306,1.0534351145038168,-1.6793893129770991,0.015625,-0.0654296875,-0.616943359375,1.3855
0.7175572519083969,1.2366412213740459,-1.8015267175572518,0.015625,-0.06396484375,-0.613525390625,1.3872
0.5648854961832062,1.1450381679389312,-1.7557251908396947,0.01708984375,-0.063720703125,-0.61474609375,1.3889
0.4580152671755725,1.2671755725190839,-1.465648854961832,0.00830078125,-0.064208984375,-0.612548828125,1.3905999999999998
0.549618320610687,1.3282442748091603,-1.5725190839694656,0.01220703125,-0.061279296875,-0.62060546875,1.3922999999999999
0.366412213740458,1.1145038167938932,-1.6641221374045803,0.012939453125,-0.063720703125,-0.6171875,1.394
0.16793893129770993,1.2366412213740459,-1.6030534351145038,0.01513671875,-0.064697265625,-0.610107421875,1.3957
0.7175572519083969,1.0687022900763359,-1.5572519083969465,0.013916015625,-0.055419921875,-0.6103515625,1.3974
0.8244274809160306,1.0381679389312977,-1.5572519083969465,0.016845703125,-0.060546875,-0.609375,1.3991
0.7633587786259542,0.9465648854961832,-1.6030534351145038,0.013427734375,-0.06396484375,-0.610107421875,1.4007999999999998
0.7175572519083969,0.7938931297709924,-1.6793893129770991,0.017333984375,-0.064208984375,-0.610107421875,1.4024999999999999
0.8702290076335878,0.9007633587786259,-1.6488549618320612,0.016845703125,-0.06396484375,-0.614013671875,1.4042
1.1297709923664123,0.9770992366412213,-1.8778625954198473,0.017333984375,-0.065185546875,-0.61865234375,1.4059
0.9770992366412213,0.7938931297709924,-1.8625954198473282,0.016357421875,-0.065185546875,-0.618896484375,1.4076
1.1908396946564885,0.8702290076335878,-1.7404580152671756,0.017333984375,-0.0615234375,-0.61474609375,1.4093
0.9923664122137404,0.8244274809160306,-1.83206106870229,0.013916015625,-0.064697265625,-0.616943359375,1.411
1.297709923664122,0.9465648854961832,-1.8015267175572518,0.015380859375,-0.069580078125,-0.619384765625,1.4126999999999998
1.3740458015267176,0.9465648854961832,-1.8625954198473282,0.018310546875,-0.064697265625,-0.61181640625,1.4143999999999999
0.8549618320610687,0.8854961832061069,-2.015267175572519,0.016357421875,-0.057861328125,-0.61767578125,1.4161
0.9618320610687023,0.9007633587786259,-1.8778625954198473,0.017333984375,-0.065185546875,-0.61474609375,1.4178
1.0534351145038168,1.0381679389312977,-2.1526717557251906,0.0185546875,-0.06298828125,-0.6103515625,1.4195
1.1297709923664123,1.0687022900763359,-1.7251908396946565,0.017822265625,-0.061767578125,-0.612548828125,1.4212
0.9465648854961832,0.8854961832061069,-2.045801526717557,0.01611328125,-0.061279296875,-0.621826171875,1.4228999999999998
1.0076335877862594,1.0381679389312977,-2.213740458015267,0.01513671875,-0.063720703125,-0.616455078125,1.4245999999999999
1.2366412213740459,1.099236641221374,-1.9694656488549618,0.01953125,-0.06396484375,-0.60986328125,1.4263
0.7480916030534351,1.1603053435114503,-2.015267175572519,0.016357421875,-0.0615234375,-0.619873046875,1.428
0.8702290076335878,1.1450381679389312,-2.0763358778625953,0.012939453125,-0.072021484375,-0.615478515625,1.4297
1.083969465648855,1.1603053435114503,-2.1068702290076335,0.010009765625,-0.065185546875,-0.611328125,1.4314
1.099236641221374,1.083969465648855,-1.8778625954198473,0.018798828125,-0.064453125,-0.613525390625,1.4330999999999998
1.0229007633587786,1.2061068702290076,-2.0916030534351147,0.016845703125,-0.065185546875,-0.60888671875,1.4347999999999999
1.3893129770992367,1.2061068702290076,-1.984732824427481,0.01708984375,-0.062255859375,-0.620849609375,1.4364999999999999
1.450381679389313,1.251908396946565,-2.1526717557251906,0.01611328125,-0.064697265625,-0.618408203125,1.4382
1.2366412213740459,1.1755725190839694,-1.9541984732824427,0.014892578125,-0.071533203125,-0.609375,1.4399
1.5114503816793894,1.3435114503816794,-1.9694656488549618,0.014892578125,-0.06298828125,-0.6171875,1.4416
1.5572519083969465,1.4351145038167938,-2.0916030534351147,0.01513671875,-0.065673828125,-0.610107421875,1.4433
1.4045801526717556,1.1297709923664123,-2.0,0.013671875,-0.063232421875,-0.617431640625,1.4449999999999998
1.3129770992366412,1.5267175572519085,-2.0610687022900764,0.015869140625,-0.065185546875,-0.615966796875,1.4466999999999999
1.2366412213740459,1.6641221374045803,-2.030534351145038,0.01171875,-0.0673828125,-0.613037109375,1.4484
1.3435114503816794,1.5267175572519085,-2.045801526717557,0.010009765625,-0.06787109375,-0.6142578125,1.4501
1.282442748091603,1.6793893129770991,-2.213740458015267,0.01416015625,-0.069580078125,-0.6142578125,1.4518
1.1450381679389312,1.5725190839694656,-2.122137404580153,0.012939453125,-0.06396484375,-0.614501953125,1.4535
0.9007633587786259,1.4351145038167938,-1.9389312977099236,0.014892578125,-0.06005859375,-0.61376953125,1.4551999999999998
0.916030534351145,1.5267175572519085,-1.9694656488549618,0.01708984375,-0.063232421875,-0.61279296875,1.4568999999999999
0.8854961832061069,1.6793893129770991,-2.1374045801526718,0.009765625,-0.065185546875,-0.609619140625,1.4586
0.9007633587786259,1.633587786259542,-1.984732824427481,0.009765625,-0.062744140625,-0.6103515625,1.4603
0.8396946564885496,1.5419847328244274,-2.045801526717557,0.012451171875,-0.070556640625,-0.610107421875,1.462
0.7480916030534351,1.5877862595419847,-1.8625954198473282,0.009521484375,-0.067138671875,-0.611083984375,1.4637
0.7786259541984732,1.5572519083969465,-1.9236641221374047,0.0068359375,-0.065185546875,-0.605712890625,1.4653999999999998
0.7175572519083969,1.7709923664122138,-1.9694656488549618,0.010498046875,-0.0712890625,-0.6181640625,1.4670999999999998
0.7786259541984732,1.618320610687023,-1.8625954198473282,0.010986328125,-0.0625,-0.614013671875,1.4687999999999999
0.8396946564885496,1.633587786259542,-2.2748091603053435,0.015625,-0.06201171875,-0.623291015625,1.4705
0.8702290076335878,1.7404580152671756,-1.8778625954198473,0.009765625,-0.067138671875,-0.615966796875,1.4722
0.732824427480916,1.7557251908396947,-1.816793893129771,0.01025390625,-0.0615234375,-0.61572265625,1.4739
0.6717557251908397,1.7251908396946565,-1.8015267175572518,0.01025390625,-0.0615234375,-0.607177734375,1.4756
0.7480916030534351,1.5267175572519085,-1.8015267175572518,0.01513671875,-0.068115234375,-0.61328125,1.4772999999999998
0.8702290076335878,1.786259541984733,-1.8931297709923665,0.015380859375,-0.066650390625,-0.611572265625,1.4789999999999999
0.8091603053435115,1.6793893129770991,-1.8473282442748091,0.018310546875,-0.06640625,-0.6181640625,1.4807
0.5038167938931297,1.4198473282442747,-1.83206106870229,0.01025390625,-0.060791015625,-0.615478515625,1.4824
0.6564885496183206,1.618320610687023,-1.786259541984733,0.013916015625,-0.0634765625,-0.617431640625,1.4841
0.8396946564885496,1.6488549618320612,-1.83206106870229,0.0126953125,-0.063232421875,-0.616943359375,1.4858
0.732824427480916,1.6946564885496183,-1.6488549618320612,0.014404296875,-0.067138671875,-0.613525390625,1.4874999999999998
0.549618320610687,1.7404580152671756,-1.450381679389313,0.018310546875,-0.060302734375,-0.62109375,1.4891999999999999
0.2595419847328244,1.816793893129771,-1.4809160305343512,0.015625,-0.068603515625,-0.619384765625,1.4909
0.6870229007633588,1.4809160305343512,-1.5572519083969465,0.01513671875,-0.06591796875,-0.617431640625,1.4926
0.5648854961832062,1.4961832061068703,-1.6030534351145038,0.016845703125,-0.06396484375,-0.63037109375,1.4943
0.5343511450381679,1.618320610687023,-1.5267175572519085,0.011474609375,-0.06396484375,-0.61962890625,1.496
0.7786259541984732,1.4809160305343512,-1.4961832061068703,0.016845703125,-0.06005859375,-0.618408203125,1.4976999999999998
0.8244274809160306,1.450381679389313,-1.6030534351145038,0.013916015625,-0.060791015625,-0.6181640625,1.4993999999999998
1.0534351145038168,1.618320610687023,-1.6641221374045803,0.016357421875,-0.063720703125,-0.615966796875,1.5010999999999999
0.8854961832061069,1.618320610687023,-1.7251908396946565,0.0185546875,-0.06396484375,-0.616943359375,1.5028
0.8396946564885496,1.7251908396946565,-1.6030534351145038,0.018798828125,-0.066650390625,-0.62060546875,1.5045
1.1450381679389312,1.5114503816793894,-1.6793893129770991,0.01708984375,-0.06640625,-0.61669921875,1.5062
1.0687022900763359,1.3893129770992367,-1.5267175572519085,0.0126953125,-0.064453125,-0.61572265625,1.5079
1.1603053435114503,1.4961832061068703,-1.450381679389313,0.011474609375,-0.064208984375,-0.611328125,1.5095999999999998
1.1603053435114503,1.7251908396946565,-1.465648854961832,0.011474609375,-0.063720703125,-0.613525390625,1.5112999999999999
1.0076335877862594,1.3435114503816794,-1.6030534351145038,0.014404296875,-0.0673828125,-0.6201171875,1.513
0.8396946564885496,1.465648854961832,-1.465648854961832,0.013427734375,-0.064208984375,-0.623046875,1.5147
0.9007633587786259,1.5267175572519085,-1.5419847328244274,0.012451171875,-0.064208984375,-0.622314453125,1.5164
0.8549618320610687,1.6030534351145038,-1.618320610687023,0.019775390625,-0.06494140625,-0.622314453125,1.5181
0.6412213740458015,1.4961832061068703,-1.5419847328244274,0.013916015625,-0.067626953125,-0.61767578125,1.5197999999999998
0.6717557251908397,1.450381679389313,-1.5877862595419847,0.01708984375,-0.064453125,-0.620361328125,1.5214999999999999
0.7938931297709924,1.5419847328244274,-1.3282442748091603,0.013671875,-0.065673828125,-0.619384765625,1.5231999999999999
0.8702290076335878,1.3740458015267176,-1.450381679389313,0.01513671875,-0.068359375,-0.622314453125,1.5249
0.7938931297709924,1.3435114503816794,-1.786259541984733,0.01611328125,-0.06494140625,-0.6318359375,1.5266
0.6870229007633588,1.099236641221374,-1.618320610687023,0.017822265625,-0.0625,-0.619873046875,1.5283
0.6259541984732825,1.099236641221374,-1.7404580152671756,0.01611328125,-0.059814453125,-0.61572265625,1.5299999999999998
0.7175572519083969,1.2213740458015268,-1.4961832061068703,0.013427734375,-0.063720703125,-0.611572265625,1.5316999999999998
0.7480916030534351,1.1603053435114503,-1.5114503816793894,0.01611328125,-0.06298828125,-0.614013671875,1.5333999999999999
0.6564885496183206,0.9465648854961832,-1.6030534351145038,0.0185546875,-0.066650390625,-0.625244140625,1.5351
1.0381679389312977,0.9618320610687023,-1.8778625954198473,0.0185546875,-0.06005859375,-0.623046875,1.5368
0.5648854961832062,0.8091603053435115,-1.6946564885496183,0.016357421875,-0.06201171875,-0.624267578125,1.5385
0.732824427480916,0.9312977099236641,-1.786259541984733,0.017578125,-0.06298828125,-0.61767578125,1.5402
0.6259541984732825,0.8702290076335878,-1.6946564885496183,0.014404296875,-0.063720703125,-0.60888671875,1.5418999999999998
0.7786259541984732,0.8396946564885496,-1.7557251908396947,0.01611328125,-0.063232421875,-0.615478515625,1.5435999999999999
0.7633587786259542,0.7786259541984732,-1.5419847328244274,0.01611328125,-0.058837890625,-0.614501953125,1.5453
0.732824427480916,0.9312977099236641,-2.015267175572519,0.01318359375,-0.059326171875,-0.613037109375,1.547
0.8091603053435115,0.8244274809160306,-1.6488549618320612,0.0126953125,-0.06640625,-0.6123046875,1.5487
0.6870229007633588,0.8396946564885496,-1.7404580152671756,0.01318359375,-0.063232421875,-0.61376953125,1.5504
0.5801526717557252,0.916030534351145,-1.633587786259542,0.01904296875,-0.060546875,-0.609619140625,1.5520999999999998
0.5343511450381679,0.8091603053435115,-1.7251908396946565,0.016357421875,-0.062744140625,-0.611572265625,1.5537999999999998
0.7022900763358778,0.8396946564885496,-1.6030534351145038,0.013427734375,-0.0634765625,-0.610595703125,1.5554999999999999
0.7480916030534351,0.7633587786259542,-1.5419847328244274,0.015625,-0.05615234375,-0.613525390625,1.5572
0.7786259541984732,0.5648854961832062,-1.4809160305343512,0.01708984375,-0.06201171875,-0.61279296875,1.5589
0.6564885496183206,0.6412213740458015,-1.5114503816793894,0.0166015625,-0.0634765625,-0.615966796875,1.5606
0.7480916030534351,0.732824427480916,-1.4961832061068703,0.01513671875,-0.061279296875,-0.621337890625,1.5623
0.5954198473282443,0.549618320610687,-1.5267175572519085,0.01953125,-0.0654296875,-0.61083984375,1.5639999999999998
0.8091603053435115,0.7938931297709924,-1.465648854961832,0.0126953125,-0.072265625,-0.60986328125,1.5656999999999999
0.5954198473282443,0.6412213740458015,-1.4351145038167938,0.017578125,-0.06103515625,-0.618408203125,1.5674
0.8244274809160306,0.732824427480916,-1.251908396946565,0.02490234375,-0.068359375,-0.6201171875,1.5691
0.9312977099236641,0.6870229007633588,-1.2671755725190839,0.016845703125,-0.064697265625,-0.611328125,1.5708
1.1450381679389312,0.5801526717557252,-1.0687022900763359,0.0146484375,-0.062744140625,-0.62646484375,1.5725
0.9770992366412213,0.5954198473282443,-1.3740458015267176,0.0078125,-0.068603515625,-0.62109375,1.5741999999999998
1.0229007633587786,0.6412213740458015,-1.297709923664122,0.01513671875,-0.06396484375,-0.615478515625,1.5758999999999999
0.9465648854961832,0.4580152671755725,-1.2366412213740459,0.011962890625,-0.064453125,-0.609130859375,1.5776
0.9770992366412213,0.4580152671755725,-1.2213740458015268,0.010498046875,-0.065185546875,-0.6171875,1.5793
1.2061068702290076,0.5038167938931297,-1.3587786259541985,0.0107421875,-0.0634765625,-0.61328125,1.581
0.9465648854961832,0.5343511450381679,-1.251908396946565,0.013427734375,-0.069580078125,-0.617919921875,1.5827
1.0076335877862594,0.549618320610687,-1.3129770992366412,0.01318359375,-0.068115234375,-0.62451171875,1.5843999999999998
1.1297709923664123,0.4732824427480916,-1.1755725190839694,0.009033203125,-0.06787109375,-0.606201171875,1.5860999999999998
0.8854961832061069,0.4732824427480916,-1.2671755725190839,0.018310546875,-0.06396484375,-0.613037109375,1.5877999999999999
0.7633587786259542,0.6259541984732825,-1.1908396946564885,0.013671875,-0.06201171875,-0.61328125,1.5895
0.7938931297709924,0.549618320610687,-1.2671755725190839,0.013671875,-0.0673828125,-0.620849609375,1.5912
0.8091603053435115,0.3816793893129771,-1.1603053435114503,0.01513671875,-0.0595703125,-0.61181640625,1.5929
0.7480916030534351,0.5954198473282443,-1.3435114503816794,0.014892578125,-0.0625,-0.610107421875,1.5946
0.5954198473282443,0.5038167938931297,-1.083969465648855,0.01416015625,-0.06591796875,-0.61279296875,1.5962999999999998
0.5954198473282443,0.549618320610687,-1.2213740458015268,0.01416015625,-0.0634765625,-0.60400390625,1.5979999999999999
0.7938931297709924,0.6717557251908397,-1.0381679389312977,0.01025390625,-0.064697265625,-0.6171875,1.5997
0.3816793893129771,0.7022900763358778,-1.1908396946564885,0.01318359375,-0.06591796875,-0.61376953125,1.6014
0.6106870229007634,0.6870229007633588,-1.1450381679389312,0.01953125,-0.065673828125,-0.617919921875,1.6031
0.33587786259541985,0.8091603053435115,-1.4045801526717556,0.020263671875,-0.063232421875,-0.6171875,1.6048
0.33587786259541985,0.9770992366412213,-1.251908396946565,0.019775390625,-0.06103515625,-0.61181640625,1.6064999999999998
0.549618320610687,0.8702290076335878,-1.282442748091603,0.01416015625,-0.060302734375,-0.612060546875,1.6081999999999999
0.6412213740458015,0.6870229007633588,-1.1908396946564885,0.01220703125,-0.064208984375,-0.6171875,1.6098999999999999
0.5190839694656488,0.8549618320610687,-1.3282442748091603,0.011474609375,-0.0654296875,-0.620361328125,1.6116
0.5343511450381679,0.8549618320610687,-1.2061068702290076,0.013671875,-0.065673828125,-0.622314453125,1.6133
0.44274809160305345,0.6717557251908397,-1.3129770992366412,0.010986328125,-0.0625,-0.6162109375,1.615
0.6412213740458015,0.8549618320610687,-0.9465648854961832,0.01611328125,-0.063720703125,-0.614013671875,1.6166999999999998
0.6717557251908397,0.7786259541984732,-1.2366412213740459,0.015869140625,-0.0673828125,-0.617919921875,1.6183999999999998
0.6259541984732825,0.8702290076335878,-1.0534351145038168,0.016845703125,-0.06201171875,-0.607421875,1.6200999999999999
0.7938931297709924,0.8854961832061069,-1.2366412213740459,0.0166015625,-0.06787109375,-0.611328125,1.6218
0.7175572519083969,0.8091603053435115,-1.0381679389312977,0.0205078125,-0.068603515625,-0.615966796875,1.6235
0.7022900763358778,0.8396946564885496,-1.1450381679389312,0.01806640625,-0.06640625,-0.6162109375,1.6252
0.7786259541984732,0.8854961832061069,-1.1297709923664123,0.015869140625,-0.067626953125,-0.61083984375,1.6269
0.8244274809160306,1.099236641221374,-1.1145038167938932,0.015625,-0.06494140625,-0.618408203125,1.6285999999999998
0.7786259541984732,0.8091603053435115,-1.099236641221374,0.015625,-0.064208984375,-0.612548828125,1.6302999999999999
1.0381679389312977,0.7938931297709924,-1.083969465648855,0.0166015625,-0.065673828125,-0.61669921875,1.632
0.6717557251908397,0.8702290076335878,-1.1450381679389312,0.018798828125,-0.065673828125,-0.620849609375,1.6337
0.916030534351145,1.1297709923664123,-1.1603053435114503,0.01708984375,-0.0625,-0.61376953125,1.6354
0.9007633587786259,0.9770992366412213,-1.0687022900763359,0.01904296875,-0.064453125,-0.61474609375,1.6371
0.7786259541984732,1.1603053435114503,-1.1603053435114503,0.01953125,-0.063720703125,-0.610595703125,1.6387999999999998
1.099236641221374,1.3129770992366412,-1.0076335877862594,0.015869140625,-0.065185546875,-0.615478515625,1.6404999999999998
1.1145038167938932,1.1450381679389312,-1.083969465648855,0.012451171875,-0.0673828125,-0.610107421875,1.6421999999999999
1.1145038167938932,1.2061068702290076,-0.9618320610687023,0.015380859375,-0.062744140625,-0.617431640625,1.6439
1.1603053435114503,1.4198473282442747,-1.1603053435114503,0.0126953125,-0.0654296875,-0.61376953125,1.6456
1.083969465648855,1.4351145038167938,-1.0534351145038168,0.009765625,-0.062255859375,-0.60693359375,1.6473
1.0229007633587786,1.5267175572519085,-1.2061068702290076,0.010986328125,-0.0615234375,-0.6142578125,1.6489999999999998
1.083969465648855,1.5114503816793894,-1.0229007633587786,0.013427734375,-0.06640625,-0.6103515625,1.6506999999999998
1.0381679389312977,1.5572519083969465,-0.916030534351145,0.013916015625,-0.065673828125,-0.61865234375,1.6523999999999999
0.9007633587786259,1.6641221374045803,-1.1908396946564885,0.008056640625,-0.06689453125,-0.611572265625,1.6541
0.6564885496183206,1.816793893129771,-1.099236641221374,0.0078125,-0.068115234375,-0.60546875,1.6558
0.6564885496183206,1.8473282442748091,-1.0229007633587786,0.014892578125,-0.07080078125,-0.611572265625,1.6575
0.5343511450381679,1.7099236641221374,-0.8702290076335878,0.017822265625,-0.067138671875,-0.61962890625,1.6592
0.4732824427480916,1.7709923664122138,-0.9770992366412213,0.01123046875,-0.070556640625,-0.615234375,1.6608999999999998
0.33587786259541985,1.9236641221374047,-1.0381679389312977,0.01123046875,-0.0634765625,-0.610107421875,1.6625999999999999
0.5343511450381679,1.7557251908396947,-1.0687022900763359,0.01171875,-0.0673828125,-0.6142578125,1.6643
0.8091603053435115,1.8473282442748091,-1.0687022900763359,0.011474609375,-0.072021484375,-0.614501953125,1.666
0.6412213740458015,1.6793893129770991,-1.0229007633587786,0.0126953125,-0.068115234375,-0.6064453125,1.6677
0.5190839694656488,1.786259541984733,-1.251908396946565,0.012451171875,-0.06640625,-0.610107421875,1.6694
0.4732824427480916,1.8625954198473282,-1.1755725190839694,0.013671875,-0.0673828125,-0.609619140625,1.6710999999999998
0.6259541984732825,1.7251908396946565,-1.3129770992366412,0.01025390625,-0.0625,-0.618408203125,1.6727999999999998
0.7175572519083969,1.83206106870229,-1.1145038167938932,0.01416015625,-0.06689453125,-0.61181640625,1.6744999999999999
0.6106870229007634,1.8778625954198473,-1.282442748091603,0.0126953125,-0.067626953125,-0.6064453125,1.6762
0.5190839694656488,1.8015267175572518,-1.2213740458015268,0.01220703125,-0.067138671875,-0.602294921875,1.6779
0.5343511450381679,1.9083969465648856,-1.465648854961832,0.013916015625,-0.0634765625,-0.609619140625,1.6796
0.6259541984732825,2.0,-1.1908396946564885,0.017578125,-0.063720703125,-0.61572265625,1.6813
0.48854961832061067,1.6946564885496183,-1.297709923664122,0.012939453125,-0.06494140625,-0.614990234375,1.6829999999999998
0.5648854961832062,1.7404580152671756,-1.3740458015267176,0.01806640625,-0.065673828125,-0.611328125,1.6846999999999999
0.5801526717557252,1.984732824427481,-1.6030534351145038,0.01708984375,-0.064208984375,-0.621337890625,1.6864
0.2748091603053435,1.7251908396946565,-1.3587786259541985,0.01708984375,-0.06103515625,-0.616455078125,1.6881
0.5954198473282443,1.984732824427481,-1.297709923664122,0.015380859375,-0.064453125,-0.620849609375,1.6898
0.42748091603053434,1.83206106870229,-1.3435114503816794,0.012939453125,-0.068115234375,-0.61181640625,1.6915
0.4122137404580153,2.122137404580153,-1.4198473282442747,0.015625,-0.0625,-0.61376953125,1.6931999999999998
0.8854961832061069,1.9694656488549618,-1.3740458015267176,0.016845703125,-0.064697265625,-0.623291015625,1.6948999999999999
0.8091603053435115,2.0916030534351147,-1.3129770992366412,0.01904296875,-0.062744140625,-0.6201171875,1.6965999999999999
0.8854961832061069,2.0610687022900764,-1.450381679389313,0.017333984375,-0.0654296875,-0.615966796875,1.6983
1.0076335877862594,1.83206106870229,-1.3435114503816794,0.01220703125,-0.0673828125,-0.6064453125,1.7
1.2671755725190839,1.9236641221374047,-1.251908396946565,0.014404296875,-0.0673828125,-0.625732421875,1.7017
1.251908396946565,1.9083969465648856,-1.3587786259541985,0.01220703125,-0.06298828125,-0.6142578125,1.7033999999999998
1.2366412213740459,1.9083969465648856,-1.4961832061068703,0.0234375,-0.06884765625,-0.607666015625,1.7050999999999998
1.3282442748091603,2.1526717557251906,-1.4809160305343512,0.025390625,-0.066650390625,-0.61279296875,1.7067999999999999
1.3587786259541985,1.984732824427481,-1.1145038167938932,0.01416015625,-0.068115234375,-0.61376953125,1.7085
1.465648854961832,2.0916030534351147,-1.297709923664122,0.014404296875,-0.05908203125,-0.611328125,1.7102
1.6488549618320612,2.0610687022900764,-1.4198473282442747,0.01416015625,-0.06201171875,-0.61181640625,1.7119
1.6030534351145038,2.122137404580153,-1.3740458015267176,0.017822265625,-0.067138671875,-0.614990234375,1.7136
1.4961832061068703,1.9083969465648856,-1.465648854961832,0.016845703125,-0.0634765625,-0.609619140625,1.7152999999999998
1.618320610687023,2.030534351145038,-1.465648854961832,0.0146484375,-0.06298828125,-0.609130859375,1.7169999999999999
1.633587786259542,2.0610687022900764,-1.5419847328244274,0.014892578125,-0.06787109375,-0.61767578125,1.7187
1.5877862595419847,1.9236641221374047,-1.4045801526717556,0.01416015625,-0.059814453125,-0.6123046875,1.7204
1.3740458015267176,1.9541984732824427,-1.3893129770992367,0.015380859375,-0.06201171875,-0.618408203125,1.7221
1.5114503816793894,2.0,-1.3893129770992367,0.01611328125,-0.0654296875,-0.603271484375,1.7238
1.5267175572519085,2.0763358778625953,-1.5419847328244274,0.016845703125,-0.062744140625,-0.617431640625,1.7254999999999998
1.5419847328244274,1.7251908396946565,-1.5725190839694656,0.01171875,-0.06640625,-0.615966796875,1.7271999999999998
1.3435114503816794,2.045801526717557,-1.5419847328244274,0.013427734375,-0.064697265625,-0.624267578125,1.7288999999999999
1.3282442748091603,1.7557251908396947,-1.5572519083969465,0.0166015625,-0.06689453125,-0.62255859375,1.7306
1.0534351145038168,1.83206106870229,-1.618320610687023,0.01806640625,-0.067138671875,-0.61865234375,1.7323
1.1450381679389312,1.9541984732824427,-1.5725190839694656,0.013916015625,-0.0693359375,-0.62353515625,1.734
1.1908396946564885,1.7404580152671756,-1.465648854961832,0.01806640625,-0.0693359375,-0.611083984375,1.7356999999999998
0.8244274809160306,1.5877862595419847,-1.5267175572519085,0.016357421875,-0.06787109375,-0.618408203125,1.7373999999999998
0.6564885496183206,1.618320610687023,-1.6488549618320612,0.01318359375,-0.06689453125,-0.612548828125,1.7390999999999999
0.8244274809160306,1.7404580152671756,-1.6488549618320612,0.01318359375,-0.063720703125,-0.6171875,1.7408
0.7175572519083969,1.618320610687023,-1.4809160305343512,0.019287109375,-0.06640625,-0.6142578125,1.7425
0.5038167938931297,1.5419847328244274,-1.786259541984733,0.01904296875,-0.064208984375,-0.6201171875,1.7442
0.549618320610687,1.5267175572519085,-1.7709923664122138,0.0205078125,-0.0625,-0.614990234375,1.7459
0.8396946564885496,1.5114503816793894,-1.5114503816793894,0.015380859375,-0.0654296875,-0.615478515625,1.7475999999999998
0.6259541984732825,1.4809160305343512,-1.7557251908396947,0.020263671875,-0.060791015625,-0.6142578125,1.7492999999999999
0.5954198473282443,1.5267175572519085,-1.83206106870229,0.020263671875,-0.06640625,-0.607421875,1.751
0.4580152671755725,1.4198473282442747,-1.6641221374045803,0.0166015625,-0.064453125,-0.623779296875,1.7527
0.7175572519083969,1.2671755725190839,-1.8931297709923665,0.016357421875,-0.0654296875,-0.6103515625,1.7544
0.7786259541984732,1.3282442748091603,-1.8625954198473282,0.017822265625,-0.06884765625,-0.61962890625,1.7561
1.0076335877862594,1.1145038167938932,-1.618320610687023,0.017822265625,-0.0615234375,-0.6181640625,1.7577999999999998
0.7786259541984732,1.1908396946564885,-1.786259541984733,0.020263671875,-0.06103515625,-0.611328125,1.7594999999999998
0.916030534351145,1.2213740458015268,-1.8015267175572518,0.01953125,-0.060302734375,-0.61181640625,1.7611999999999999
0.916030534351145,1.1755725190839694,-1.7099236641221374,0.01611328125,-0.060546875,-0.611328125,1.7629
1.099236641221374,1.1603053435114503,-1.6946564885496183,0.0185546875,-0.053466796875,-0.60791015625,1.7646
1.1297709923664123,0.9618320610687023,-1.618320610687023,0.01318359375,-0.061279296875,-0.619873046875,1.7663
1.2061068702290076,1.2061068702290076,-1.6793893129770991,0.0126953125,-0.062255859375,-0.624267578125,1.7679999999999998
1.1297709923664123,1.1145038167938932,-1.7251908396946565,0.020751953125,-0.06689453125,-0.616943359375,1.7696999999999998
1.1755725190839694,1.2213740458015268,-1.633587786259542,0.0185546875,-0.064697265625,-0.616455078125,1.7713999999999999
1.251908396946565,0.8244274809160306,-1.83206106870229,0.017822265625,-0.0615234375,-0.60693359375,1.7731
1.297709923664122,1.0381679389312977,-1.6793893129770991,0.01318359375,-0.059814453125,-0.607421875,1.7748
1.4351145038167938,0.9770992366412213,-1.816793893129771,0.015625,-0.0634765625,-0.619140625,1.7765
1.5267175572519085,0.8396946564885496,-1.6488549618320612,0.01953125,-0.06201171875,-0.61279296875,1.7782
1.633587786259542,0.916030534351145,-1.9083969465648856,0.02099609375,-0.060791015625,-0.60791015625,1.7798999999999998
1.6793893129770991,0.9312977099236641,-1.6793893129770991,0.0205078125,-0.06201171875,-0.61279296875,1.7815999999999999
1.450381679389313,0.8549618320610687,-1.7251908396946565,0.016845703125,-0.06689453125,-0.617919921875,1.7832999999999999
1.7251908396946565,0.8702290076335878,-1.8778625954198473,0.017333984375,-0.060791015625,-0.62158203125,1.785
2.0916030534351147,0.8702290076335878,-1.5877862595419847,0.013916015625,-0.06494140625,-0.60888671875,1.7867
2.030534351145038,0.5190839694656488,-1.618320610687023,0.017822265625,-0.06396484375,-0.613037109375,1.7884
1.8625954198473282,0.8244274809160306,-2.015267175572519,0.015625,-0.0625,-0.611572265625,1.7900999999999998
1.7404580152671756,1.0687022900763359,-1.9236641221374047,0.013916015625,-0.0673828125,-0.618896484375,1.7917999999999998
1.9694656488549618,0.8396946564885496,-1.9389312977099236,0.01416015625,-0.0654296875,-0.615234375,1.7934999999999999
2.1374045801526718,0.916030534351145,-1.8625954198473282,0.0166015625,-0.0625,-0.612060546875,1.7952
2.1068702290076335,0.9007633587786259,-2.1068702290076335,0.02734375,-0.06396484375,-0.6064453125,1.7969
1.786259541984733,1.0687022900763359,-1.9541984732824427,0.014404296875,-0.061767578125,-0.615966796875,1.7986
1.83206106870229,0.9007633587786259,-2.0610687022900764,0.013671875,-0.064208984375,-0.6162109375,1.8002999999999998
1.8473282442748091,1.083969465648855,-2.0,0.015380859375,-0.068603515625,-0.60986328125,1.8019999999999998
1.7709923664122138,0.7786259541984732,-1.9541984732824427,0.01708984375,-0.0654296875,-0.611328125,1.8036999999999999
1.5725190839694656,0.9007633587786259,-1.9236641221374047,0.01708984375,-0.064208984375,-0.619140625,1.8054
