gyrox1,gyroy1,gyroz1,accelx1,accely1,accelz1,Time
1.083969465648855,-0.6564885496183206,-0.4122137404580153,-0.467529296875,0.002197265625,-0.11962890625,0.0
1.297709923664122,-0.5801526717557252,-0.1984732824427481,-0.4677734375,-0.007080078125,-0.126953125,0.0017
1.83206106870229,-0.6106870229007634,-0.2748091603053435,-0.463623046875,-0.007568359375,-0.1337890625,0.0034
2.045801526717557,-0.4580152671755725,-0.183206106870229,-0.469482421875,-0.00927734375,-0.130615234375,0.0050999999999999995
2.122137404580153,-0.3969465648854962,-0.5190839694656488,-0.46533203125,-0.007080078125,-0.127197265625,0.0068
2.6259541984732824,-0.183206106870229,-0.5801526717557252,-0.465576171875,-0.00830078125,-0.13623046875,0.008499999999999999
3.2977099236641223,-0.0916030534351145,-0.7175572519083969,-0.4677734375,-0.0048828125,-0.13671875,0.010199999999999999
3.3587786259541983,0.061068702290076333,-0.9465648854961832,-0.468017578125,-0.01025390625,-0.130126953125,0.011899999999999999
3.4656488549618323,0.15267175572519084,-1.1297709923664123,-0.469970703125,-0.0078125,-0.131103515625,0.0136
3.6793893129770994,0.07633587786259542,-1.0076335877862594,-0.467529296875,-0.00439453125,-0.135009765625,0.0153
3.7251908396946565,0.5801526717557252,-1.1755725190839694,-0.46923828125,-0.0087890625,-0.121826171875,0.016999999999999998
4.213740458015267,0.6717557251908397,-1.3587786259541985,-0.46435546875,-0.009521484375,-0.134521484375,0.018699999999999998
4.3816793893129775,0.549618320610687,-1.6946564885496183,-0.4658203125,-0.00732421875,-0.130615234375,0.020399999999999998
3.984732824427481,0.8091603053435115,-1.6793893129770991,-0.465576171875,-0.005126953125,-0.133056640625,0.022099999999999998
3.6946564885496183,0.8396946564885496,-1.7404580152671756,-0.468017578125,-0.005859375,-0.138427734375,0.023799999999999998
3.6946564885496183,0.8854961832061069,-2.015267175572519,-0.465087890625,-0.006103515625,-0.129638671875,0.0255
3.83206106870229,1.0229007633587786,-2.030534351145038,-0.46728515625,-0.011962890625,-0.144287109375,0.0272
3.435114503816794,1.0687022900763359,-2.213740458015267,-0.468017578125,-0.00732421875,-0.138916015625,0.0289
3.2061068702290076,1.3740458015267176,-2.183206106870229,-0.467041015625,-0.0087890625,-0.131591796875,0.0306
2.8244274809160306,1.2671755725190839,-2.427480916030534,-0.470458984375,-0.0087890625,-0.13427734375,0.032299999999999995
2.4580152671755724,1.297709923664122,-2.6564885496183206,-0.46484375,-0.00439453125,-0.1279296875,0.033999999999999996
2.16793893129771,1.282442748091603,-2.717557251908397,-0.469482421875,-0.006591796875,-0.13818359375,0.035699999999999996
2.1374045801526718,1.251908396946565,-2.8702290076335877,-0.470458984375,-0.005859375,-0.134521484375,0.037399999999999996
2.015267175572519,1.099236641221374,-2.9770992366412212,-0.46533203125,-0.0068359375,-0.140380859375,0.039099999999999996
1.7099236641221374,1.4198473282442747,-3.312977099236641,-0.463134765625,-0.01123046875,-0.133544921875,0.040799999999999996
1.3740458015267176,1.1755725190839694,-3.099236641221374,-0.464111328125,-0.005859375,-0.131591796875,0.042499999999999996
1.297709923664122,1.0381679389312977,-3.312977099236641,-0.464599609375,-0.00927734375,-0.12646484375,0.044199999999999996
1.4198473282442747,0.7786259541984732,-3.267175572519084,-0.466796875,-0.0185546875,-0.13232421875,0.045899999999999996
1.1297709923664123,0.7786259541984732,-3.5267175572519083,-0.468017578125,-0.010498046875,-0.13427734375,0.047599999999999996
1.1603053435114503,0.6259541984732825,-3.618320610687023,-0.464111328125,-0.012451171875,-0.139892578125,0.0493
1.1297709923664123,0.8091603053435115,-3.5877862595419847,-0.46484375,-0.009521484375,-0.140869140625,0.051
1.0534351145038168,0.7633587786259542,-3.49618320610687,-0.465576171875,-0.011474609375,-0.134033203125,0.0527
1.2671755725190839,0.8549618320610687,-3.633587786259542,-0.467529296875,-0.014404296875,-0.1259765625,0.0544
1.2366412213740459,0.9007633587786259,-3.49618320610687,-0.46435546875,-0.009033203125,-0.126708984375,0.0561
1.3587786259541985,0.8854961832061069,-3.4656488549618323,-0.4677734375,-0.011962890625,-0.124267578125,0.0578
1.5267175572519085,1.0076335877862594,-3.404580152671756,-0.46533203125,-0.011962890625,-0.1240234375,0.0595
1.5877862595419847,1.2061068702290076,-3.435114503816794,-0.460693359375,-0.0078125,-0.133544921875,0.0612
1.7404580152671756,1.282442748091603,-3.404580152671756,-0.469482421875,-0.00830078125,-0.141845703125,0.0629
1.816793893129771,1.3587786259541985,-3.2213740458015265,-0.4677734375,-0.006591796875,-0.139404296875,0.06459999999999999
1.984732824427481,1.3893129770992367,-3.0839694656488548,-0.471923828125,-0.00634765625,-0.133544921875,0.0663
2.045801526717557,1.7557251908396947,-3.0381679389312977,-0.46826171875,-0.0078125,-0.131591796875,0.06799999999999999
2.2748091603053435,1.8473282442748091,-3.053435114503817,-0.4697265625,-0.01171875,-0.130859375,0.0697
2.8244274809160306,1.9083969465648856,-2.900763358778626,-0.467529296875,-0.008056640625,-0.12646484375,0.07139999999999999
2.9923664122137406,1.8931297709923665,-2.7786259541984735,-0.46875,-0.006591796875,-0.12939453125,0.0731
3.1603053435114505,2.030534351145038,-2.7938931297709924,-0.4697265625,-0.004150390625,-0.131103515625,0.07479999999999999
3.3282442748091605,2.2900763358778624,-2.8396946564885495,-0.468017578125,-0.00244140625,-0.12939453125,0.0765
3.7251908396946565,2.1068702290076335,-2.6259541984732824,-0.465087890625,-0.00634765625,-0.126220703125,0.07819999999999999
3.816793893129771,2.0610687022900764,-2.6259541984732824,-0.46484375,-0.001708984375,-0.12890625,0.0799
3.8625954198473282,2.1374045801526718,-2.4732824427480917,-0.467041015625,-0.000732421875,-0.13525390625,0.08159999999999999
4.183206106870229,2.0610687022900764,-2.6259541984732824,-0.46630859375,-0.000732421875,-0.132080078125,0.0833
4.122137404580153,2.0610687022900764,-2.564885496183206,-0.46875,-0.002197265625,-0.12939453125,0.08499999999999999
4.213740458015267,2.015267175572519,-2.7022900763358777,-0.462158203125,-0.0068359375,-0.1240234375,0.0867
4.396946564885496,1.8778625954198473,-2.6412213740458017,-0.46484375,-0.00341796875,-0.121337890625,0.08839999999999999
4.366412213740458,1.9541984732824427,-2.717557251908397,-0.46533203125,0.000732421875,-0.130126953125,0.0901
4.366412213740458,1.8778625954198473,-2.6717557251908395,-0.464599609375,-0.003173828125,-0.133056640625,0.09179999999999999
4.519083969465649,1.5114503816793894,-2.885496183206107,-0.456787109375,-0.00537109375,-0.131103515625,0.0935
4.396946564885496,1.4045801526717556,-2.7938931297709924,-0.461181640625,-0.00439453125,-0.13623046875,0.09519999999999999
4.625954198473282,1.1755725190839694,-2.7786259541984735,-0.466064453125,0.001953125,-0.129150390625,0.0969
4.732824427480916,1.2366412213740459,-3.0076335877862594,-0.4599609375,-0.00439453125,-0.1279296875,0.0986
4.6106870229007635,1.0381679389312977,-2.9923664122137406,-0.462158203125,-0.0009765625,-0.12744140625,0.1003
4.549618320610687,0.8702290076335878,-2.9923664122137406,-0.4619140625,-0.006591796875,-0.121337890625,0.102
4.854961832061068,0.4580152671755725,-2.946564885496183,-0.46435546875,-0.00537109375,-0.127685546875,0.1037
4.549618320610687,0.061068702290076333,-2.854961832061069,-0.462646484375,-0.00341796875,-0.118896484375,0.1054
4.2748091603053435,-0.04580152671755725,-2.8702290076335877,-0.457763671875,-0.005859375,-0.121826171875,0.1071
4.198473282442748,-0.24427480916030533,-2.931297709923664,-0.4638671875,-0.0048828125,-0.123291015625,0.1088
4.030534351145038,-0.32061068702290074,-2.9770992366412212,-0.459716796875,-0.0048828125,-0.123291015625,0.11049999999999999
3.8473282442748094,-0.3969465648854962,-2.7938931297709924,-0.461181640625,-0.009765625,-0.121826171875,0.1122
3.618320610687023,-0.7480916030534351,-2.8396946564885495,-0.46728515625,-0.0068359375,-0.128662109375,0.11389999999999999
3.5114503816793894,-0.8396946564885496,-2.8702290076335877,-0.46728515625,-0.00927734375,-0.123291015625,0.1156
3.4198473282442747,-0.732824427480916,-2.763358778625954,-0.466064453125,-0.009765625,-0.125732421875,0.11729999999999999
3.236641221374046,-0.8396946564885496,-2.946564885496183,-0.46826171875,-0.009033203125,-0.126708984375,0.119
3.1297709923664123,-0.9465648854961832,-2.9618320610687023,-0.4716796875,-0.01171875,-0.123291015625,0.12069999999999999
2.9923664122137406,-0.8702290076335878,-2.900763358778626,-0.465087890625,-0.0146484375,-0.13037109375,0.1224
2.9770992366412212,-0.9312977099236641,-3.0381679389312977,-0.46435546875,-0.011962890625,-0.118896484375,0.12409999999999999
2.9160305343511452,-0.9007633587786259,-2.854961832061069,-0.47021484375,-0.01318359375,-0.128662109375,0.1258
2.8702290076335877,-0.6106870229007634,-2.7022900763358777,-0.469970703125,-0.01318359375,-0.126953125,0.1275
2.7786259541984735,-0.6564885496183206,-2.366412213740458,-0.46728515625,-0.0087890625,-0.13232421875,0.12919999999999998
2.7480916030534353,-0.5038167938931297,-2.427480916030534,-0.474853515625,-0.011474609375,-0.133056640625,0.1309
3.053435114503817,-0.4732824427480916,-2.4580152671755724,-0.46826171875,-0.011962890625,-0.133544921875,0.1326
3.068702290076336,-0.4122137404580153,-2.2900763358778624,-0.467529296875,-0.011474609375,-0.126220703125,0.1343
3.282442748091603,-0.33587786259541985,-1.984732824427481,-0.47021484375,-0.010986328125,-0.12890625,0.13599999999999998
3.3435114503816794,-0.12213740458015267,-1.6641221374045803,-0.466064453125,-0.013916015625,-0.133544921875,0.1377
3.5114503816793894,-0.10687022900763359,-1.6793893129770991,-0.46826171875,-0.0078125,-0.146240234375,0.1394
3.8473282442748094,0.015267175572519083,-1.816793893129771,-0.466796875,-0.011962890625,-0.136962890625,0.1411
3.8931297709923665,0.24427480916030533,-1.5725190839694656,-0.469970703125,-0.010986328125,-0.14453125,0.14279999999999998
4.213740458015267,0.4122137404580153,-1.465648854961832,-0.474609375,-0.00830078125,-0.14013671875,0.1445
4.5038167938931295,0.3511450381679389,-1.5419847328244274,-0.4697265625,-0.006591796875,-0.141845703125,0.1462
4.67175572519084,0.4732824427480916,-1.5572519083969465,-0.470458984375,-0.0087890625,-0.137451171875,0.1479
5.0534351145038165,0.6717557251908397,-1.6488549618320612,-0.47265625,-0.00830078125,-0.1376953125,0.14959999999999998
5.145038167938932,0.6412213740458015,-1.8778625954198473,-0.4677734375,-0.0107421875,-0.138671875,0.1513
5.419847328244275,0.7022900763358778,-1.7251908396946565,-0.469482421875,-0.010986328125,-0.133056640625,0.153
5.4961832061068705,0.6870229007633588,-1.5419847328244274,-0.4677734375,-0.010986328125,-0.137451171875,0.1547
5.557251908396947,0.8396946564885496,-1.7709923664122138,-0.470947265625,-0.00830078125,-0.1416015625,0.15639999999999998
5.480916030534351,0.8396946564885496,-2.0916030534351147,-0.46630859375,-0.0126953125,-0.137451171875,0.1581
5.282442748091603,0.7175572519083969,-1.8778625954198473,-0.468505859375,-0.01220703125,-0.13525390625,0.1598
5.4961832061068705,0.48854961832061067,-1.8473282442748091,-0.46337890625,-0.0087890625,-0.12939453125,0.1615
5.480916030534351,0.7175572519083969,-1.8931297709923665,-0.47119140625,-0.010986328125,-0.13037109375,0.16319999999999998
5.083969465648855,0.6259541984732825,-2.0,-0.462646484375,-0.01123046875,-0.13330078125,0.1649
4.961832061068702,0.5648854961832062,-2.16793893129771,-0.46044921875,-0.00927734375,-0.13818359375,0.1666
4.717557251908397,0.4580152671755725,-2.16793893129771,-0.469482421875,-0.012451171875,-0.13232421875,0.16829999999999998
4.213740458015267,0.3053435114503817,-1.9389312977099236,-0.469970703125,-0.007568359375,-0.132080078125,0.16999999999999998
4.183206106870229,0.3969465648854962,-2.16793893129771,-0.46826171875,-0.01123046875,-0.13623046875,0.1717
3.7404580152671754,0.1984732824427481,-2.0916030534351147,-0.465576171875,-0.017333984375,-0.1376953125,0.1734
3.4656488549618323,0.16793893129770993,-2.351145038167939,-0.4677734375,-0.010498046875,-0.135498046875,0.17509999999999998
3.0381679389312977,0.16793893129770993,-2.3206106870229006,-0.466552734375,-0.012939453125,-0.13427734375,0.17679999999999998
2.7022900763358777,0.12213740458015267,-2.3969465648854964,-0.46875,-0.0146484375,-0.130126953125,0.1785
2.4122137404580153,0.015267175572519083,-2.2900763358778624,-0.465087890625,-0.011962890625,-0.1357421875,0.1802
1.9236641221374047,0.24427480916030533,-2.3206106870229006,-0.46337890625,-0.015380859375,-0.13037109375,0.18189999999999998
1.9083969465648856,0.12213740458015267,-2.4580152671755724,-0.4599609375,-0.01953125,-0.132568359375,0.18359999999999999
1.4809160305343512,0.2748091603053435,-2.564885496183206,-0.462890625,-0.0166015625,-0.133056640625,0.1853
1.3893129770992367,0.32061068702290074,-2.427480916030534,-0.465087890625,-0.011474609375,-0.136474609375,0.187
1.1297709923664123,0.2900763358778626,-2.6106870229007635,-0.4638671875,-0.011474609375,-0.129150390625,0.18869999999999998
1.0534351145038168,0.44274809160305345,-2.7022900763358777,-0.461181640625,-0.018798828125,-0.133544921875,0.19039999999999999
0.8244274809160306,0.3816793893129771,-2.763358778625954,-0.465087890625,-0.019775390625,-0.134765625,0.1921
0.8702290076335878,0.10687022900763359,-2.717557251908397,-0.46728515625,-0.02099609375,-0.12841796875,0.1938
0.6717557251908397,0.0916030534351145,-2.8396946564885495,-0.471923828125,-0.017578125,-0.12255859375,0.19549999999999998
0.6870229007633588,0.10687022900763359,-3.068702290076336,-0.467529296875,-0.0205078125,-0.123291015625,0.1972
0.7633587786259542,0.32061068702290074,-3.1755725190839694,-0.463623046875,-0.0146484375,-0.124755859375,0.1989
0.4580152671755725,0.2595419847328244,-3.145038167938931,-0.4677734375,-0.015625,-0.117431640625,0.2006
0.8091603053435115,0.0,-3.236641221374046,-0.4677734375,-0.017578125,-0.1318359375,0.20229999999999998
0.6564885496183206,0.015267175572519083,-3.099236641221374,-0.462890625,-0.021728515625,-0.12890625,0.204
0.6870229007633588,0.030534351145038167,-3.282442748091603,-0.463623046875,-0.016845703125,-0.128662109375,0.2057
0.6106870229007634,-0.07633587786259542,-3.0381679389312977,-0.458740234375,-0.015380859375,-0.125732421875,0.2074
0.6259541984732825,0.030534351145038167,-2.8091603053435112,-0.46533203125,-0.01416015625,-0.1259765625,0.20909999999999998
0.5343511450381679,0.10687022900763359,-2.8396946564885495,-0.465087890625,-0.01123046875,-0.12548828125,0.2108
0.8396946564885496,-0.07633587786259542,-2.8091603053435112,-0.463134765625,-0.013671875,-0.123046875,0.2125
0.7938931297709924,0.015267175572519083,-2.519083969465649,-0.46044921875,-0.0107421875,-0.122314453125,0.2142
0.732824427480916,0.015267175572519083,-2.595419847328244,-0.46630859375,-0.011474609375,-0.133056640625,0.21589999999999998
0.8702290076335878,-0.015267175572519083,-2.50381679389313,-0.46728515625,-0.00341796875,-0.131591796875,0.2176
0.8244274809160306,-0.061068702290076333,-2.366412213740458,-0.467529296875,-0.001953125,-0.1279296875,0.2193
1.0381679389312977,0.0916030534351145,-2.1374045801526718,-0.463623046875,-0.006591796875,-0.12890625,0.22099999999999997
1.251908396946565,0.22900763358778625,-2.183206106870229,-0.47021484375,-0.005859375,-0.128662109375,0.22269999999999998
1.5725190839694656,0.12213740458015267,-2.0763358778625953,-0.465087890625,-0.005859375,-0.135986328125,0.2244
1.7557251908396947,0.1984732824427481,-2.1068702290076335,-0.458251953125,-0.00146484375,-0.128662109375,0.2261
1.9389312977099236,0.5954198473282443,-1.7557251908396947,-0.46435546875,-0.0009765625,-0.130859375,0.22779999999999997
2.351145038167939,0.7938931297709924,-1.7557251908396947,-0.4658203125,0.00048828125,-0.13671875,0.22949999999999998
2.5801526717557253,0.7938931297709924,-1.6030534351145038,-0.470947265625,-0.000244140625,-0.129150390625,0.2312
2.946564885496183,0.9312977099236641,-1.6946564885496183,-0.4736328125,-0.001708984375,-0.133544921875,0.2329
3.145038167938931,1.3740458015267176,-1.4809160305343512,-0.473876953125,-0.002685546875,-0.13916015625,0.23459999999999998
3.0076335877862594,1.5725190839694656,-1.4045801526717556,-0.465576171875,0.003662109375,-0.1376953125,0.23629999999999998
3.5267175572519083,1.5419847328244274,-1.5419847328244274,-0.467041015625,0.00244140625,-0.138427734375,0.238
3.66412213740458,1.8015267175572518,-1.4961832061068703,-0.467041015625,-0.003173828125,-0.1357421875,0.2397
3.66412213740458,1.7099236641221374,-1.465648854961832,-0.466064453125,0.00341796875,-0.130126953125,0.24139999999999998
3.9236641221374047,1.7709923664122138,-1.4198473282442747,-0.464599609375,0.0009765625,-0.133544921875,0.24309999999999998
3.9083969465648853,1.5725190839694656,-1.1603053435114503,-0.4697265625,-0.00048828125,-0.13134765625,0.2448
4.0,1.7557251908396947,-1.3587786259541985,-0.469482421875,0.0009765625,-0.126220703125,0.2465
3.816793893129771,1.5877862595419847,-1.3282442748091603,-0.464111328125,-0.0009765625,-0.135498046875,0.24819999999999998
4.0,1.4198473282442747,-1.282442748091603,-0.466552734375,-0.001708984375,-0.136962890625,0.24989999999999998
3.633587786259542,1.450381679389313,-1.3740458015267176,-0.46337890625,-0.00146484375,-0.128173828125,0.2516
3.66412213740458,0.9312977099236641,-1.4961832061068703,-0.46240234375,-0.003173828125,-0.12255859375,0.25329999999999997
3.480916030534351,0.916030534351145,-1.297709923664122,-0.467529296875,-0.0029296875,-0.1201171875,0.255
3.2213740458015265,0.7938931297709924,-1.3435114503816794,-0.4638671875,0.003662109375,-0.1318359375,0.2567
3.1297709923664123,0.5038167938931297,-1.251908396946565,-0.459228515625,-0.001953125,-0.1318359375,0.25839999999999996
2.9770992366412212,0.32061068702290074,-1.618320610687023,-0.459716796875,-0.008056640625,-0.1318359375,0.2601
2.687022900763359,0.5190839694656488,-1.4351145038167938,-0.460205078125,-0.00244140625,-0.1328125,0.2618
2.3053435114503817,0.13740458015267176,-1.4198473282442747,-0.457275390625,-0.0078125,-0.136474609375,0.2635
2.030534351145038,-0.061068702290076333,-1.4351145038167938,-0.466796875,-0.01220703125,-0.127197265625,0.2652
1.7557251908396947,-0.42748091603053434,-1.7557251908396947,-0.4638671875,-0.01318359375,-0.12744140625,0.26689999999999997
1.786259541984733,-0.5038167938931297,-1.6793893129770991,-0.467041015625,-0.010986328125,-0.1259765625,0.2686
1.5419847328244274,-0.48854961832061067,-1.7709923664122138,-0.46240234375,-0.010009765625,-0.132568359375,0.2703
1.633587786259542,-0.5801526717557252,-1.8015267175572518,-0.460693359375,-0.015869140625,-0.130859375,0.27199999999999996
1.633587786259542,-0.6870229007633588,-1.9694656488549618,-0.467041015625,-0.018310546875,-0.119140625,0.2737
1.5877862595419847,-0.6564885496183206,-1.9694656488549618,-0.46337890625,-0.015380859375,-0.125244140625,0.2754
1.6793893129770991,-0.6259541984732825,-1.9389312977099236,-0.47314453125,-0.019775390625,-0.127685546875,0.27709999999999996
2.2290076335877864,-0.5038167938931297,-1.8625954198473282,-0.467529296875,-0.016845703125,-0.125,0.2788
2.2748091603053435,-0.4732824427480916,-1.9694656488549618,-0.46533203125,-0.020751953125,-0.12841796875,0.28049999999999997
2.519083969465649,-0.366412213740458,-2.183206106870229,-0.465087890625,-0.012939453125,-0.135009765625,0.2822
2.9923664122137406,-0.4122137404580153,-2.183206106870229,-0.471435546875,-0.018310546875,-0.12939453125,0.2839
3.2213740458015265,-0.3053435114503817,-2.2900763358778624,-0.4697265625,-0.016357421875,-0.12548828125,0.28559999999999997
3.3740458015267176,0.183206106870229,-2.427480916030534,-0.46923828125,-0.021728515625,-0.126708984375,0.2873
3.572519083969466,0.2595419847328244,-2.427480916030534,-0.470947265625,-0.017333984375,-0.130859375,0.289
3.786259541984733,0.15267175572519084,-2.427480916030534,-0.4677734375,-0.01953125,-0.130615234375,0.29069999999999996
3.9389312977099236,0.3816793893129771,-2.717557251908397,-0.468505859375,-0.01953125,-0.13037109375,0.2924
4.1679389312977095,0.6717557251908397,-2.6717557251908395,-0.466064453125,-0.022216796875,-0.142578125,0.2941
4.198473282442748,0.5954198473282443,-2.519083969465649,-0.46826171875,-0.013671875,-0.12939453125,0.2958
4.122137404580153,0.8396946564885496,-2.564885496183206,-0.468017578125,-0.012939453125,-0.12841796875,0.2975
3.969465648854962,1.0381679389312977,-2.763358778625954,-0.469970703125,-0.011474609375,-0.131103515625,0.29919999999999997
4.0,1.1908396946564885,-2.9160305343511452,-0.47119140625,-0.010986328125,-0.135498046875,0.3009
4.106870229007634,1.1603053435114503,-2.8244274809160306,-0.469482421875,-0.012939453125,-0.132568359375,0.3026
3.6030534351145036,1.3587786259541985,-2.8702290076335877,-0.469482421875,-0.01220703125,-0.1328125,0.30429999999999996
3.282442748091603,1.5419847328244274,-2.687022900763359,-0.470947265625,-0.010498046875,-0.13525390625,0.306
2.9923664122137406,1.4961832061068703,-2.6412213740458017,-0.469482421875,-0.0107421875,-0.130615234375,0.3077
3.0381679389312977,1.3893129770992367,-3.114503816793893,-0.469970703125,-0.00634765625,-0.12841796875,0.3094
2.5343511450381677,1.297709923664122,-2.564885496183206,-0.47119140625,-0.007568359375,-0.12841796875,0.3111
2.183206106870229,1.1145038167938932,-2.885496183206107,-0.468017578125,-0.007568359375,-0.12744140625,0.31279999999999997
2.16793893129771,1.0381679389312977,-2.6564885496183206,-0.464599609375,-0.00634765625,-0.135009765625,0.3145
1.5572519083969465,0.7938931297709924,-2.519083969465649,-0.462646484375,-0.006591796875,-0.126220703125,0.3162
1.450381679389313,0.7480916030534351,-2.50381679389313,-0.464111328125,-0.010009765625,-0.126220703125,0.31789999999999996
1.3435114503816794,0.6259541984732825,-2.5343511450381677,-0.467041015625,-0.00634765625,-0.126953125,0.3196
1.1755725190839694,0.3053435114503817,-2.4732824427480917,-0.46826171875,-0.00537109375,-0.13037109375,0.3213
0.7480916030534351,0.15267175572519084,-2.381679389312977,-0.463623046875,-0.005126953125,-0.132568359375,0.323
0.5190839694656488,0.1984732824427481,-2.2748091603053435,-0.4677734375,-0.0087890625,-0.13232421875,0.3247
0.8396946564885496,-0.015267175572519083,-2.2442748091603053,-0.462158203125,-0.0107421875,-0.127685546875,0.32639999999999997
0.6412213740458015,0.0916030534351145,-2.1068702290076335,-0.46142578125,-0.0087890625,-0.12548828125,0.3281
0.5038167938931297,-0.2748091603053435,-2.213740458015267,-0.462646484375,-0.0078125,-0.128662109375,0.3298
0.8244274809160306,-0.3816793893129771,-1.8931297709923665,-0.463134765625,-0.007568359375,-0.133544921875,0.33149999999999996
0.9007633587786259,-0.3969465648854962,-1.618320610687023,-0.462158203125,-0.00927734375,-0.1259765625,0.3332
1.1603053435114503,-0.10687022900763359,-1.6488549618320612,-0.466552734375,-0.006103515625,-0.123291015625,0.3349
1.2213740458015268,-0.07633587786259542,-1.7251908396946565,-0.460693359375,-0.00927734375,-0.1220703125,0.33659999999999995
1.083969465648855,-0.16793893129770993,-1.6488549618320612,-0.463623046875,-0.00927734375,-0.1240234375,0.3383
1.1297709923664123,-0.22900763358778625,-1.5267175572519085,-0.4638671875,-0.00927734375,-0.1298828125,0.33999999999999997
1.2671755725190839,-0.10687022900763359,-1.251908396946565,-0.458740234375,-0.005859375,-0.129638671875,0.3417
0.916030534351145,0.04580152671755725,-1.2061068702290076,-0.468017578125,-0.011962890625,-0.127685546875,0.3434
0.8702290076335878,0.015267175572519083,-1.251908396946565,-0.4697265625,-0.009033203125,-0.12451171875,0.34509999999999996
1.2671755725190839,0.3816793893129771,-1.297709923664122,-0.464599609375,-0.009521484375,-0.123291015625,0.3468
1.0076335877862594,0.3511450381679389,-1.1145038167938932,-0.46728515625,-0.008056640625,-0.1259765625,0.3485
1.0229007633587786,0.44274809160305345,-1.1145038167938932,-0.461669921875,-0.0068359375,-0.132080078125,0.35019999999999996
0.9007633587786259,0.7175572519083969,-0.9770992366412213,-0.463134765625,-0.009765625,-0.131591796875,0.3519
1.099236641221374,0.7938931297709924,-1.2061068702290076,-0.464599609375,-0.008056640625,-0.135498046875,0.35359999999999997
1.3129770992366412,1.0534351145038168,-1.083969465648855,-0.45947265625,-0.008056640625,-0.130859375,0.3553
1.4045801526717556,1.4809160305343512,-1.0534351145038168,-0.46826171875,-0.009521484375,-0.12744140625,0.357
1.4351145038167938,1.7404580152671756,-0.9923664122137404,-0.459228515625,-0.0146484375,-0.1376953125,0.35869999999999996
1.6030534351145038,1.6946564885496183,-1.0076335877862594,-0.46484375,-0.0078125,-0.13134765625,0.3604
2.1068702290076335,2.015267175572519,-0.916030534351145,-0.46630859375,-0.008544921875,-0.125732421875,0.3621
2.33587786259542,2.0610687022900764,-1.0687022900763359,-0.466552734375,-0.010498046875,-0.130126953125,0.36379999999999996
2.3206106870229006,2.2290076335877864,-0.9312977099236641,-0.4609375,-0.011962890625,-0.121337890625,0.3655
2.9923664122137406,2.4580152671755724,-1.2213740458015268,-0.461181640625,-0.012939453125,-0.12939453125,0.36719999999999997
3.3282442748091605,2.4427480916030535,-1.4351145038167938,-0.461181640625,-0.010498046875,-0.132080078125,0.3689
3.6946564885496183,2.564885496183206,-1.786259541984733,-0.458740234375,-0.012451171875,-0.12548828125,0.3706
4.106870229007634,2.427480916030534,-1.7709923664122138,-0.467041015625,-0.008544921875,-0.128173828125,0.37229999999999996
4.33587786259542,2.2900763358778624,-2.122137404580153,-0.460205078125,-0.015380859375,-0.133056640625,0.374
4.595419847328245,2.366412213740458,-2.16793893129771,-0.467529296875,-0.01220703125,-0.121337890625,0.3757
4.580152671755725,2.16793893129771,-2.3206106870229006,-0.462890625,-0.01708984375,-0.125244140625,0.37739999999999996
4.977099236641221,1.9541984732824427,-2.4580152671755724,-0.4638671875,-0.012939453125,-0.130615234375,0.3791
4.99236641221374,2.1526717557251906,-2.763358778625954,-0.468505859375,-0.00927734375,-0.133544921875,0.38079999999999997
5.0534351145038165,2.0610687022900764,-2.7786259541984735,-0.46240234375,-0.0166015625,-0.129638671875,0.38249999999999995
5.083969465648855,1.8473282442748091,-3.0229007633587788,-0.466064453125,-0.01513671875,-0.129638671875,0.3842
4.931297709923665,1.8015267175572518,-3.0229007633587788,-0.464111328125,-0.017578125,-0.129638671875,0.38589999999999997
4.442748091603053,1.8015267175572518,-3.0839694656488548,-0.468994140625,-0.01953125,-0.13427734375,0.3876
4.2748091603053435,1.786259541984733,-3.2061068702290076,-0.46533203125,-0.013671875,-0.130126953125,0.3893
4.106870229007634,1.6946564885496183,-3.2977099236641223,-0.4638671875,-0.015380859375,-0.130126953125,0.39099999999999996
3.7557251908396947,1.6030534351145038,-3.5572519083969465,-0.469482421875,-0.013427734375,-0.1357421875,0.3927
3.5419847328244276,1.7251908396946565,-3.6946564885496183,-0.46875,-0.017333984375,-0.128173828125,0.3944
3.3740458015267176,1.6030534351145038,-3.49618320610687,-0.467529296875,-0.0146484375,-0.132080078125,0.39609999999999995
3.1297709923664123,1.5267175572519085,-3.572519083969466,-0.46484375,-0.015869140625,-0.1279296875,0.3978
3.267175572519084,1.5267175572519085,-3.4656488549618323,-0.470458984375,-0.0087890625,-0.124267578125,0.39949999999999997
2.9770992366412212,1.3435114503816794,-3.5877862595419847,-0.465087890625,-0.010498046875,-0.135009765625,0.4012
2.687022900763359,1.1908396946564885,-3.3587786259541983,-0.46728515625,-0.0087890625,-0.12158203125,0.4029
2.854961832061069,0.9923664122137404,-3.3587786259541983,-0.46826171875,-0.016845703125,-0.13232421875,0.40459999999999996
2.8244274809160306,0.8854961832061069,-3.1603053435114505,-0.46484375,-0.0205078125,-0.1259765625,0.4063
2.7786259541984735,0.9923664122137404,-3.1603053435114505,-0.467041015625,-0.01318359375,-0.122802734375,0.408
2.946564885496183,0.6717557251908397,-3.0381679389312977,-0.464599609375,-0.01318359375,-0.122314453125,0.40969999999999995
2.549618320610687,0.6564885496183206,-3.0229007633587788,-0.4697265625,-0.013427734375,-0.13525390625,0.4114
2.595419847328244,0.5648854961832062,-2.6259541984732824,-0.47314453125,-0.008056640625,-0.135498046875,0.41309999999999997
2.6564885496183206,0.7633587786259542,-2.6564885496183206,-0.470458984375,-0.012939453125,-0.130126953125,0.4148
2.4580152671755724,0.7938931297709924,-2.50381679389313,-0.473876953125,-0.003662109375,-0.126953125,0.4165
2.213740458015267,0.5801526717557252,-2.4427480916030535,-0.4658203125,-0.007568359375,-0.125244140625,0.41819999999999996
1.9236641221374047,0.7938931297709924,-2.2290076335877864,-0.46630859375,-0.01318359375,-0.126708984375,0.4199
1.816793893129771,0.732824427480916,-1.9694656488549618,-0.46630859375,-0.0087890625,-0.131103515625,0.4216
1.83206106870229,0.9312977099236641,-1.7099236641221374,-0.466552734375,-0.007080078125,-0.13134765625,0.42329999999999995
1.5877862595419847,1.099236641221374,-1.786259541984733,-0.471435546875,-0.017578125,-0.133544921875,0.425
1.3129770992366412,1.2061068702290076,-1.4045801526717556,-0.472900390625,-0.010986328125,-0.12744140625,0.42669999999999997
1.0229007633587786,1.0381679389312977,-1.3435114503816794,-0.4755859375,-0.010986328125,-0.131591796875,0.4284
0.9465648854961832,1.3282442748091603,-1.0381679389312977,-0.468017578125,-0.011474609375,-0.1337890625,0.4301
1.0381679389312977,1.2671755725190839,-1.099236641221374,-0.4736328125,-0.0166015625,-0.1279296875,0.43179999999999996
0.6870229007633588,1.5267175572519085,-0.9312977099236641,-0.478759765625,-0.01416015625,-0.126220703125,0.4335
0.6717557251908397,1.1297709923664123,-0.8244274809160306,-0.472900390625,-0.00830078125,-0.13427734375,0.4352
0.6717557251908397,1.2213740458015268,-0.5343511450381679,-0.466796875,-0.0107421875,-0.133544921875,0.43689999999999996
0.7938931297709924,1.4961832061068703,-0.8396946564885496,-0.46728515625,-0.01171875,-0.133056640625,0.4386
0.6717557251908397,1.5419847328244274,-0.6717557251908397,-0.4697265625,-0.01123046875,-0.1298828125,0.44029999999999997
0.6412213740458015,1.6030534351145038,-0.48854961832061067,-0.46728515625,-0.011962890625,-0.13427734375,0.44199999999999995
0.9465648854961832,1.5267175572519085,-0.5801526717557252,-0.467529296875,-0.013671875,-0.132568359375,0.4437
0.7480916030534351,1.5725190839694656,-0.7175572519083969,-0.468017578125,-0.0126953125,-0.13134765625,0.44539999999999996
0.732824427480916,1.5572519083969465,-0.2595419847328244,-0.467529296875,-0.010009765625,-0.13720703125,0.4471
1.0534351145038168,1.4809160305343512,-0.7175572519083969,-0.463134765625,-0.012451171875,-0.133056640625,0.4488
1.0687022900763359,1.618320610687023,-0.7022900763358778,-0.46728515625,-0.014404296875,-0.13525390625,0.45049999999999996
0.8854961832061069,1.5877862595419847,-0.8549618320610687,-0.468017578125,-0.009765625,-0.128662109375,0.4522
1.083969465648855,1.6946564885496183,-0.8549618320610687,-0.461181640625,-0.011962890625,-0.14306640625,0.45389999999999997
1.0534351145038168,1.3893129770992367,-0.916030534351145,-0.466552734375,-0.0146484375,-0.1455078125,0.45559999999999995
1.099236641221374,1.5725190839694656,-1.0229007633587786,-0.46630859375,-0.007568359375,-0.138671875,0.4573
1.0534351145038168,1.450381679389313,-1.1297709923664123,-0.46337890625,-0.00537109375,-0.13525390625,0.45899999999999996
0.8396946564885496,1.4809160305343512,-1.2061068702290076,-0.465087890625,-0.009765625,-0.12841796875,0.4607
0.916030534351145,1.3587786259541985,-1.2671755725190839,-0.46435546875,-0.012939453125,-0.13623046875,0.4624
0.7022900763358778,1.6030534351145038,-1.3282442748091603,-0.4609375,-0.010009765625,-0.13330078125,0.46409999999999996
0.6106870229007634,1.6488549618320612,-1.5114503816793894,-0.4677734375,-0.015869140625,-0.135498046875,0.4658
0.42748091603053434,1.633587786259542,-1.6641221374045803,-0.4658203125,-0.015869140625,-0.13037109375,0.46749999999999997
0.3816793893129771,1.8625954198473282,-1.4198473282442747,-0.46826171875,-0.0107421875,-0.136962890625,0.46919999999999995
-0.22900763358778625,1.6946564885496183,-1.6641221374045803,-0.46240234375,-0.012939453125,-0.125732421875,0.4709
0.07633587786259542,1.618320610687023,-1.6488549618320612,-0.46728515625,-0.015869140625,-0.13037109375,0.47259999999999996
-0.33587786259541985,1.7099236641221374,-1.6641221374045803,-0.465576171875,-0.0126953125,-0.133544921875,0.4743
-0.7022900763358778,1.9236641221374047,-1.7709923664122138,-0.466552734375,-0.014404296875,-0.1357421875,0.476
-0.9923664122137404,1.633587786259542,-1.7557251908396947,-0.467041015625,-0.008544921875,-0.127685546875,0.47769999999999996
-0.8702290076335878,1.6946564885496183,-1.8015267175572518,-0.464599609375,-0.011962890625,-0.123291015625,0.4794
-1.282442748091603,1.7099236641221374,-1.786259541984733,-0.46728515625,-0.0185546875,-0.12939453125,0.48109999999999997
-1.5572519083969465,1.6488549618320612,-2.015267175572519,-0.463623046875,-0.010498046875,-0.125244140625,0.48279999999999995
-1.297709923664122,1.618320610687023,-1.7099236641221374,-0.45947265625,-0.010986328125,-0.126953125,0.4845
-1.450381679389313,1.4961832061068703,-1.7251908396946565,-0.46484375,-0.01220703125,-0.12841796875,0.48619999999999997
-1.6641221374045803,1.5572519083969465,-1.83206106870229,-0.4677734375,-0.015869140625,-0.1318359375,0.4879
-1.5114503816793894,1.2366412213740459,-1.8625954198473282,-0.46484375,-0.01171875,-0.130859375,0.4896
-1.4809160305343512,1.297709923664122,-1.9694656488549618,-0.460693359375,-0.01318359375,-0.131103515625,0.49129999999999996
-1.2213740458015268,1.2213740458015268,-2.0,-0.463623046875,-0.01025390625,-0.116943359375,0.493
-0.9312977099236641,1.1755725190839694,-1.786259541984733,-0.4619140625,-0.013427734375,-0.11376953125,0.4947
-0.8702290076335878,1.1297709923664123,-1.9083969465648856,-0.463623046875,-0.015625,-0.115234375,0.49639999999999995
-0.4732824427480916,0.9465648854961832,-1.8931297709923665,-0.4658203125,-0.01123046875,-0.12890625,0.4981
-0.5648854961832062,1.0229007633587786,-2.0763358778625953,-0.46240234375,-0.011962890625,-0.11328125,0.49979999999999997
-0.015267175572519083,1.0229007633587786,-1.9541984732824427,-0.4619140625,-0.0107421875,-0.11328125,0.5015
0.1984732824427481,0.8854961832061069,-1.8778625954198473,-0.459228515625,-0.008544921875,-0.1181640625,0.5032
0.2595419847328244,0.44274809160305345,-1.9083969465648856,-0.461181640625,-0.0126953125,-0.11962890625,0.5049
0.5190839694656488,0.5343511450381679,-2.1068702290076335,-0.459716796875,-0.01025390625,-0.125,0.5065999999999999
0.8091603053435115,0.6106870229007634,-1.8625954198473282,-0.466796875,-0.0078125,-0.12646484375,0.5083
0.9465648854961832,0.2748091603053435,-1.5114503816793894,-0.46044921875,-0.00634765625,-0.12548828125,0.51
0.9007633587786259,0.21374045801526717,-1.5877862595419847,-0.462158203125,-0.0048828125,-0.120849609375,0.5116999999999999
1.0076335877862594,0.33587786259541985,-1.5267175572519085,-0.46533203125,-0.005615234375,-0.1201171875,0.5134
1.4809160305343512,0.44274809160305345,-1.3587786259541985,-0.464111328125,-0.006591796875,-0.122314453125,0.5151
1.465648854961832,0.3816793893129771,-1.2061068702290076,-0.468017578125,-0.00439453125,-0.12353515625,0.5167999999999999
1.5725190839694656,0.42748091603053434,-1.0534351145038168,-0.4658203125,-0.00390625,-0.119873046875,0.5185
1.6641221374045803,0.6717557251908397,-0.9618320610687023,-0.46240234375,-0.008056640625,-0.117431640625,0.5202
2.0916030534351147,0.549618320610687,-0.8549618320610687,-0.468505859375,-0.007080078125,-0.1328125,0.5218999999999999
2.4580152671755724,0.732824427480916,-0.8549618320610687,-0.46875,-0.0068359375,-0.1279296875,0.5236
2.595419847328244,0.8396946564885496,-0.8549618320610687,-0.465087890625,-0.008056640625,-0.12890625,0.5253
2.931297709923664,1.0381679389312977,-0.9618320610687023,-0.468994140625,-0.0029296875,-0.129150390625,0.527
3.145038167938931,0.8091603053435115,-0.9007633587786259,-0.46533203125,0.00048828125,-0.132568359375,0.5287
3.5114503816793894,1.0076335877862594,-0.5954198473282443,-0.465087890625,-0.0107421875,-0.125244140625,0.5304
3.8625954198473282,0.7633587786259542,-0.6717557251908397,-0.467041015625,-0.004150390625,-0.12890625,0.5321
4.137404580152672,0.6412213740458015,-0.8549618320610687,-0.46630859375,-0.001220703125,-0.1318359375,0.5337999999999999
4.67175572519084,0.9465648854961832,-0.7175572519083969,-0.46484375,-0.005126953125,-0.13232421875,0.5355
4.793893129770993,0.8549618320610687,-0.4580152671755725,-0.46435546875,-0.00537109375,-0.130126953125,0.5372
4.564885496183206,0.6870229007633588,-0.5343511450381679,-0.46826171875,-0.005615234375,-0.127197265625,0.5388999999999999
4.793893129770993,0.6564885496183206,-0.7022900763358778,-0.46630859375,-0.00634765625,-0.124267578125,0.5406
4.900763358778626,0.549618320610687,-0.7938931297709924,-0.4609375,-0.009765625,-0.132568359375,0.5423
4.8396946564885495,0.8854961832061069,-0.6717557251908397,-0.460693359375,-0.01171875,-0.1396484375,0.5439999999999999
4.717557251908397,0.9312977099236641,-0.7633587786259542,-0.4638671875,-0.008056640625,-0.139892578125,0.5457
4.396946564885496,0.8702290076335878,-0.7786259541984732,-0.471435546875,-0.0087890625,-0.134033203125,0.5474
4.259541984732825,1.1908396946564885,-0.9618320610687023,-0.46630859375,-0.0126953125,-0.136474609375,0.5490999999999999
4.198473282442748,0.9618320610687023,-0.8396946564885496,-0.4736328125,-0.011474609375,-0.134521484375,0.5508
4.030534351145038,1.099236641221374,-1.0381679389312977,-0.466552734375,-0.008056640625,-0.1279296875,0.5525
3.969465648854962,1.4198473282442747,-1.0534351145038168,-0.467529296875,-0.008056640625,-0.1328125,0.5541999999999999
3.984732824427481,1.251908396946565,-1.1145038167938932,-0.470703125,-0.010009765625,-0.123779296875,0.5559
3.6030534351145036,1.4198473282442747,-1.1755725190839694,-0.46875,-0.010009765625,-0.133544921875,0.5576
3.6946564885496183,1.5267175572519085,-1.450381679389313,-0.46630859375,-0.01123046875,-0.13720703125,0.5593
3.5267175572519083,1.786259541984733,-1.3587786259541985,-0.46240234375,-0.013427734375,-0.134033203125,0.5609999999999999
3.877862595419847,1.7557251908396947,-1.5419847328244274,-0.4697265625,-0.01611328125,-0.130126953125,0.5627
3.6946564885496183,1.6030534351145038,-1.6793893129770991,-0.466552734375,-0.015625,-0.135986328125,0.5644
3.5267175572519083,1.633587786259542,-1.7557251908396947,-0.467041015625,-0.01220703125,-0.13623046875,0.5660999999999999
3.49618320610687,1.4961832061068703,-1.6946564885496183,-0.46875,-0.01708984375,-0.1396484375,0.5678
3.2977099236641223,1.1297709923664123,-2.045801526717557,-0.46875,-0.0146484375,-0.1328125,0.5695
3.053435114503817,1.0534351145038168,-1.8625954198473282,-0.465576171875,-0.01318359375,-0.1220703125,0.5711999999999999
2.7480916030534353,1.1145038167938932,-2.1526717557251906,-0.46728515625,-0.014892578125,-0.119140625,0.5729
2.6717557251908395,0.7175572519083969,-2.2290076335877864,-0.4619140625,-0.020263671875,-0.129638671875,0.5746
2.2595419847328246,0.6717557251908397,-2.16793893129771,-0.466796875,-0.018798828125,-0.11865234375,0.5762999999999999
1.6641221374045803,0.3816793893129771,-2.2595419847328246,-0.46435546875,-0.01708984375,-0.129638671875,0.578
1.2366412213740459,0.3511450381679389,-2.351145038167939,-0.459716796875,-0.019287109375,-0.126708984375,0.5797
0.9618320610687023,0.1984732824427481,-2.3053435114503817,-0.463623046875,-0.021728515625,-0.128662109375,0.5813999999999999
0.5954198473282443,0.2748091603053435,-2.198473282442748,-0.46484375,-0.02197265625,-0.140380859375,0.5831
0.16793893129770993,0.04580152671755725,-2.2748091603053435,-0.462890625,-0.018798828125,-0.134033203125,0.5848
0.0,-0.21374045801526717,-2.1068702290076335,-0.458984375,-0.020263671875,-0.12890625,0.5865
0.015267175572519083,-0.0916030534351145,-1.9389312977099236,-0.47021484375,-0.01806640625,-0.122314453125,0.5882
-0.3053435114503817,-0.183206106870229,-1.984732824427481,-0.46484375,-0.019775390625,-0.126708984375,0.5899
-0.6106870229007634,-0.42748091603053434,-1.984732824427481,-0.466796875,-0.013671875,-0.117431640625,0.5916
-0.7480916030534351,-0.4580152671755725,-1.8778625954198473,-0.4677734375,-0.015869140625,-0.12158203125,0.5932999999999999
-0.6870229007633588,-0.24427480916030533,-1.7709923664122138,-0.461181640625,-0.0146484375,-0.12548828125,0.595
-0.7022900763358778,-0.4122137404580153,-1.816793893129771,-0.464111328125,-0.01220703125,-0.126708984375,0.5967
-0.42748091603053434,-0.5343511450381679,-1.5725190839694656,-0.4619140625,-0.01513671875,-0.11865234375,0.5983999999999999
-0.48854961832061067,-0.42748091603053434,-1.4198473282442747,-0.465576171875,-0.011474609375,-0.1201171875,0.6001
-0.5801526717557252,-0.5954198473282443,-1.465648854961832,-0.463623046875,-0.012939453125,-0.12744140625,0.6018
-0.44274809160305345,-0.7938931297709924,-1.251908396946565,-0.4638671875,-0.00927734375,-0.12060546875,0.6034999999999999
-0.3511450381679389,-0.9312977099236641,-0.9465648854961832,-0.46533203125,-0.01220703125,-0.1240234375,0.6052
-0.4580152671755725,-0.9618320610687023,-0.9007633587786259,-0.46435546875,-0.010498046875,-0.122802734375,0.6069
0.0916030534351145,-0.916030534351145,-0.8244274809160306,-0.46826171875,-0.01220703125,-0.126708984375,0.6085999999999999
0.4122137404580153,-0.6717557251908397,-0.8396946564885496,-0.46435546875,-0.01123046875,-0.122314453125,0.6103
0.2595419847328244,-0.7175572519083969,-0.6564885496183206,-0.465087890625,-0.01025390625,-0.1171875,0.612
0.366412213740458,-0.7786259541984732,-0.6717557251908397,-0.47119140625,-0.011474609375,-0.128173828125,0.6136999999999999
0.44274809160305345,-0.8702290076335878,-0.4122137404580153,-0.469482421875,-0.00732421875,-0.133056640625,0.6154
0.6564885496183206,-0.6412213740458015,-0.4122137404580153,-0.464111328125,-0.000244140625,-0.128173828125,0.6171
0.8396946564885496,-0.5343511450381679,-0.3053435114503817,-0.46923828125,-0.0029296875,-0.12646484375,0.6188
0.8549618320610687,-0.4580152671755725,-0.2900763358778626,-0.466796875,-0.0068359375,-0.13232421875,0.6204999999999999
0.9465648854961832,-0.2595419847328244,-0.015267175572519083,-0.470703125,-0.00390625,-0.126220703125,0.6222
1.5572519083969465,-0.10687022900763359,-0.16793893129770993,-0.47509765625,-0.005615234375,-0.129638671875,0.6239
1.7557251908396947,0.21374045801526717,-0.12213740458015267,-0.467041015625,-0.006591796875,-0.132080078125,0.6255999999999999
2.0916030534351147,0.7022900763358778,-0.2900763358778626,-0.47216796875,-0.005859375,-0.1318359375,0.6273
2.564885496183206,0.9770992366412213,-0.2748091603053435,-0.47216796875,-0.00830078125,-0.131103515625,0.629
3.1603053435114505,1.3893129770992367,-0.4580152671755725,-0.465576171875,-0.009765625,-0.134765625,0.6306999999999999
3.4656488549618323,1.816793893129771,-0.4732824427480916,-0.466796875,-0.00439453125,-0.132568359375,0.6324
4.244274809160306,1.8015267175572518,-0.732824427480916,-0.46875,-0.0087890625,-0.134033203125,0.6341
4.961832061068702,1.9694656488549618,-0.8549618320610687,-0.470703125,-0.01171875,-0.131591796875,0.6357999999999999
5.038167938931298,2.213740458015267,-0.9770992366412213,-0.465576171875,-0.00537109375,-0.1328125,0.6375
5.251908396946565,2.4427480916030535,-1.0076335877862594,-0.470458984375,-0.008056640625,-0.133056640625,0.6392
5.465648854961832,2.4580152671755724,-1.282442748091603,-0.46875,-0.005859375,-0.13134765625,0.6408999999999999
5.770992366412214,2.4580152671755724,-1.5267175572519085,-0.467529296875,-0.008544921875,-0.1396484375,0.6426
5.709923664122138,2.366412213740458,-1.7404580152671756,-0.467041015625,-0.008544921875,-0.13525390625,0.6443
5.435114503816794,2.183206106870229,-1.5877862595419847,-0.466064453125,-0.009033203125,-0.14208984375,0.646
5.511450381679389,2.3206106870229006,-1.7709923664122138,-0.465087890625,-0.007568359375,-0.13525390625,0.6476999999999999
5.129770992366412,2.122137404580153,-1.7099236641221374,-0.466064453125,-0.01611328125,-0.135009765625,0.6494
4.442748091603053,1.83206106870229,-1.8931297709923665,-0.470458984375,-0.011474609375,-0.13330078125,0.6511
4.2748091603053435,1.9083969465648856,-1.9541984732824427,-0.464599609375,-0.014892578125,-0.130126953125,0.6527999999999999
3.7099236641221376,1.8015267175572518,-2.183206106870229,-0.460205078125,-0.015869140625,-0.131591796875,0.6545
3.1908396946564888,1.5419847328244274,-2.198473282442748,-0.46533203125,-0.011474609375,-0.12939453125,0.6562
2.7480916030534353,1.5419847328244274,-2.198473282442748,-0.466796875,-0.0166015625,-0.131591796875,0.6578999999999999
2.122137404580153,1.0381679389312977,-2.1374045801526718,-0.46533203125,-0.017578125,-0.1259765625,0.6596
1.8015267175572518,0.9618320610687023,-2.4732824427480917,-0.4638671875,-0.01806640625,-0.128173828125,0.6613
1.1450381679389312,0.916030534351145,-2.3969465648854964,-0.45947265625,-0.021728515625,-0.123779296875,0.6629999999999999
1.1755725190839694,0.7633587786259542,-2.3969465648854964,-0.4619140625,-0.01611328125,-0.13330078125,0.6647
0.5954198473282443,0.3511450381679389,-2.2290076335877864,-0.474365234375,-0.017333984375,-0.12744140625,0.6664
0.2748091603053435,0.366412213740458,-2.2748091603053435,-0.46484375,-0.017578125,-0.125244140625,0.6680999999999999
-0.0916030534351145,0.0,-2.3206106870229006,-0.46826171875,-0.016845703125,-0.119384765625,0.6698
-0.21374045801526717,0.1984732824427481,-2.4122137404580153,-0.459716796875,-0.018798828125,-0.123046875,0.6715
-0.6259541984732825,-0.061068702290076333,-2.33587786259542,-0.465576171875,-0.021240234375,-0.115966796875,0.6731999999999999
-0.6106870229007634,-0.2595419847328244,-2.427480916030534,-0.467529296875,-0.01904296875,-0.11865234375,0.6748999999999999
-0.7022900763358778,-0.10687022900763359,-2.2290076335877864,-0.46435546875,-0.021240234375,-0.1259765625,0.6766
-0.7633587786259542,-0.13740458015267176,-2.4122137404580153,-0.464599609375,-0.016845703125,-0.114990234375,0.6783
-1.0534351145038168,0.07633587786259542,-2.2900763358778624,-0.46484375,-0.016357421875,-0.116455078125,0.6799999999999999
-1.282442748091603,0.12213740458015267,-2.1526717557251906,-0.469482421875,-0.01904296875,-0.1220703125,0.6817
-0.9312977099236641,0.13740458015267176,-2.045801526717557,-0.467529296875,-0.01171875,-0.13232421875,0.6834
-0.7938931297709924,0.5038167938931297,-1.9083969465648856,-0.466064453125,-0.01171875,-0.128662109375,0.6850999999999999
-0.8091603053435115,0.6870229007633588,-1.633587786259542,-0.4716796875,-0.016845703125,-0.120849609375,0.6868
-0.5190839694656488,0.8396946564885496,-1.4809160305343512,-0.463623046875,-0.013916015625,-0.126220703125,0.6885
-0.44274809160305345,0.9770992366412213,-1.0229007633587786,-0.470703125,-0.013671875,-0.12548828125,0.6901999999999999
-0.13740458015267176,1.2213740458015268,-0.9007633587786259,-0.462890625,-0.0146484375,-0.13232421875,0.6919
0.33587786259541985,1.1755725190839694,-0.9923664122137404,-0.468017578125,-0.00830078125,-0.12890625,0.6936
0.5343511450381679,1.251908396946565,-0.6717557251908397,-0.468505859375,-0.005615234375,-0.1259765625,0.6952999999999999
0.9923664122137404,1.3740458015267176,-0.4732824427480916,-0.466552734375,-0.0068359375,-0.1328125,0.697
1.0229007633587786,1.465648854961832,-0.5038167938931297,-0.46337890625,-0.008056640625,-0.126220703125,0.6987
1.3129770992366412,1.4198473282442747,-0.42748091603053434,-0.47021484375,-0.008056640625,-0.126953125,0.7003999999999999
1.3282442748091603,1.6030534351145038,-0.6106870229007634,-0.46533203125,-0.013671875,-0.126953125,0.7021
1.8473282442748091,1.6946564885496183,-0.8244274809160306,-0.466796875,-0.010498046875,-0.127685546875,0.7038
2.1068702290076335,1.5267175572519085,-0.9618320610687023,-0.4658203125,-0.00830078125,-0.13330078125,0.7055
2.0,1.618320610687023,-0.7786259541984732,-0.466796875,-0.009765625,-0.127685546875,0.7071999999999999
2.015267175572519,1.7251908396946565,-1.1450381679389312,-0.4619140625,-0.00927734375,-0.140380859375,0.7089
2.3206106870229006,1.8931297709923665,-0.9923664122137404,-0.461669921875,-0.00830078125,-0.12890625,0.7106
2.3969465648854964,2.0,-1.282442748091603,-0.4677734375,-0.002197265625,-0.13818359375,0.7122999999999999
2.7938931297709924,1.8778625954198473,-1.3740458015267176,-0.46435546875,-0.00439453125,-0.13037109375,0.714
2.5343511450381677,1.6793893129770991,-1.5877862595419847,-0.46533203125,-0.006103515625,-0.133544921875,0.7157
2.717557251908397,1.816793893129771,-1.4198473282442747,-0.4677734375,0.0,-0.134033203125,0.7173999999999999
2.6564885496183206,1.7404580152671756,-1.4198473282442747,-0.46826171875,-0.00537109375,-0.139404296875,0.7191
2.717557251908397,1.8015267175572518,-1.2671755725190839,-0.47412109375,-0.0078125,-0.128173828125,0.7208
2.4885496183206106,1.786259541984733,-1.465648854961832,-0.468017578125,-0.004638671875,-0.134521484375,0.7224999999999999
2.549618320610687,1.7709923664122138,-1.5267175572519085,-0.46435546875,-0.007568359375,-0.13720703125,0.7242
2.50381679389313,1.8015267175572518,-1.4961832061068703,-0.462158203125,-0.00634765625,-0.140869140625,0.7259
2.3969465648854964,1.9083969465648856,-1.6793893129770991,-0.4677734375,-0.012451171875,-0.130859375,0.7275999999999999
2.4580152671755724,2.0,-1.633587786259542,-0.468017578125,-0.008056640625,-0.1337890625,0.7293
2.4885496183206106,1.8473282442748091,-1.618320610687023,-0.469482421875,-0.012451171875,-0.131591796875,0.731
2.3969465648854964,2.030534351145038,-1.7099236641221374,-0.469970703125,-0.009521484375,-0.122314453125,0.7326999999999999
2.2748091603053435,1.8473282442748091,-1.6641221374045803,-0.46875,-0.0107421875,-0.133544921875,0.7343999999999999
2.2595419847328246,2.1526717557251906,-1.6946564885496183,-0.467041015625,-0.01318359375,-0.131591796875,0.7361
2.2595419847328246,1.9694656488549618,-1.9083969465648856,-0.4677734375,-0.011474609375,-0.130615234375,0.7378
1.8625954198473282,2.0610687022900764,-1.8015267175572518,-0.46337890625,-0.00830078125,-0.133056640625,0.7394999999999999
1.618320610687023,2.1068702290076335,-1.8473282442748091,-0.460693359375,-0.0107421875,-0.134765625,0.7412
1.282442748091603,1.984732824427481,-2.030534351145038,-0.4638671875,-0.00927734375,-0.12109375,0.7429
1.3282442748091603,1.7099236641221374,-2.1068702290076335,-0.46484375,-0.01025390625,-0.128662109375,0.7445999999999999
1.0229007633587786,1.9389312977099236,-2.045801526717557,-0.464599609375,-0.0107421875,-0.123291015625,0.7463
0.549618320610687,1.8625954198473282,-1.984732824427481,-0.46728515625,-0.01953125,-0.11767578125,0.748
0.32061068702290074,1.5877862595419847,-1.9236641221374047,-0.464599609375,-0.010009765625,-0.122802734375,0.7496999999999999
0.16793893129770993,1.4961832061068703,-1.8931297709923665,-0.458740234375,-0.011474609375,-0.125244140625,0.7514
-0.3511450381679389,1.282442748091603,-2.015267175572519,-0.468505859375,-0.015380859375,-0.126953125,0.7531
-0.6259541984732825,1.4961832061068703,-1.8015267175572518,-0.4609375,-0.01708984375,-0.123779296875,0.7547999999999999
-0.7175572519083969,1.3435114503816794,-1.618320610687023,-0.4619140625,-0.01220703125,-0.121337890625,0.7565
-1.083969465648855,0.8396946564885496,-1.5572519083969465,-0.45703125,-0.010986328125,-0.1201171875,0.7582
-1.1297709923664123,0.9465648854961832,-1.6030534351145038,-0.45947265625,-0.0126953125,-0.121826171875,0.7598999999999999
-1.1755725190839694,0.7938931297709924,-1.2671755725190839,-0.461669921875,-0.01220703125,-0.12060546875,0.7615999999999999
-1.2366412213740459,0.8702290076335878,-1.3587786259541985,-0.46435546875,-0.01123046875,-0.12353515625,0.7633
-1.9236641221374047,0.6106870229007634,-1.099236641221374,-0.465087890625,-0.011962890625,-0.12255859375,0.7649999999999999
-1.8015267175572518,0.44274809160305345,-0.8091603053435115,-0.4619140625,-0.013671875,-0.115966796875,0.7666999999999999
-1.6030534351145038,0.32061068702290074,-0.5648854961832062,-0.460205078125,-0.012451171875,-0.111572265625,0.7684
-2.0,0.21374045801526717,-0.7786259541984732,-0.46484375,-0.00732421875,-0.118896484375,0.7701
-1.8778625954198473,0.12213740458015267,-0.42748091603053434,-0.46435546875,-0.009033203125,-0.114013671875,0.7717999999999999
-1.633587786259542,0.04580152671755725,-0.4122137404580153,-0.46240234375,-0.014892578125,-0.128173828125,0.7735
-1.8778625954198473,0.10687022900763359,-0.5190839694656488,-0.4609375,-0.00830078125,-0.130126953125,0.7752
-1.6488549618320612,-0.015267175572519083,-0.5343511450381679,-0.461181640625,-0.01123046875,-0.123779296875,0.7768999999999999
-1.6030534351145038,-0.2595419847328244,-0.48854961832061067,-0.462158203125,-0.011962890625,-0.125,0.7786
-1.282442748091603,-0.3053435114503817,-0.42748091603053434,-0.46728515625,-0.011474609375,-0.115966796875,0.7803
-1.1297709923664123,-0.3053435114503817,-0.4122137404580153,-0.46533203125,-0.005126953125,-0.126953125,0.7819999999999999
-0.8091603053435115,-0.21374045801526717,-0.3969465648854962,-0.463623046875,-0.01318359375,-0.12060546875,0.7837
-0.4122137404580153,-0.07633587786259542,-0.3511450381679389,-0.46923828125,-0.0126953125,-0.12548828125,0.7854
-0.4122137404580153,-0.10687022900763359,-0.3511450381679389,-0.4658203125,-0.01318359375,-0.121337890625,0.7870999999999999
0.0,0.0,-0.3969465648854962,-0.463623046875,-0.0078125,-0.13525390625,0.7888
0.6412213740458015,0.2748091603053435,-0.5954198473282443,-0.462890625,-0.008544921875,-0.134033203125,0.7905
1.1603053435114503,0.5038167938931297,-0.549618320610687,-0.46435546875,-0.008544921875,-0.120849609375,0.7921999999999999
1.4351145038167938,0.8702290076335878,-0.6717557251908397,-0.469482421875,-0.01025390625,-0.134033203125,0.7938999999999999
2.015267175572519,1.0687022900763359,-1.0229007633587786,-0.46875,-0.007568359375,-0.134521484375,0.7956
2.3969465648854964,1.0687022900763359,-1.1297709923664123,-0.468994140625,-0.005615234375,-0.138916015625,0.7973
2.6717557251908395,1.3435114503816794,-1.1450381679389312,-0.473388671875,-0.010986328125,-0.13818359375,0.7989999999999999
3.0229007633587788,1.4045801526717556,-1.099236641221374,-0.47216796875,-0.005859375,-0.136962890625,0.8007
3.2519083969465647,1.5114503816793894,-1.450381679389313,-0.473388671875,-0.010009765625,-0.1416015625,0.8024
3.404580152671756,1.7251908396946565,-1.5419847328244274,-0.46923828125,-0.008544921875,-0.13232421875,0.8040999999999999
3.3282442748091605,1.786259541984733,-1.786259541984733,-0.46728515625,-0.001953125,-0.138427734375,0.8058
3.618320610687023,2.0916030534351147,-1.6641221374045803,-0.47216796875,-0.0048828125,-0.13671875,0.8075
3.633587786259542,2.213740458015267,-1.816793893129771,-0.47021484375,-0.009765625,-0.12744140625,0.8091999999999999
3.7404580152671754,2.2442748091603053,-1.8473282442748091,-0.470703125,-0.006591796875,-0.139892578125,0.8109
3.816793893129771,2.1526717557251906,-2.045801526717557,-0.4716796875,-0.010009765625,-0.140380859375,0.8126
3.984732824427481,2.1526717557251906,-2.0,-0.47412109375,-0.0107421875,-0.14208984375,0.8142999999999999
3.7404580152671754,2.366412213740458,-2.0610687022900764,-0.46728515625,-0.013916015625,-0.13623046875,0.816
3.450381679389313,2.3969465648854964,-2.0610687022900764,-0.4716796875,-0.0107421875,-0.142578125,0.8177
3.053435114503817,2.2900763358778624,-2.33587786259542,-0.4716796875,-0.013671875,-0.138916015625,0.8193999999999999
2.900763358778626,2.045801526717557,-2.0916030534351147,-0.469970703125,-0.006591796875,-0.133056640625,0.8210999999999999
2.687022900763359,1.984732824427481,-2.4427480916030535,-0.4697265625,-0.006591796875,-0.133544921875,0.8228
2.4427480916030535,1.9236641221374047,-2.3969465648854964,-0.46875,-0.01025390625,-0.1318359375,0.8244999999999999
1.7709923664122138,1.7251908396946565,-2.2290076335877864,-0.468994140625,-0.007568359375,-0.136474609375,0.8261999999999999
1.3587786259541985,1.618320610687023,-2.122137404580153,-0.466796875,-0.013916015625,-0.135498046875,0.8279
1.0534351145038168,1.3740458015267176,-2.1526717557251906,-0.463623046875,-0.012939453125,-0.1328125,0.8296
0.7938931297709924,1.3587786259541985,-1.8625954198473282,-0.4658203125,-0.010498046875,-0.138916015625,0.8312999999999999
0.2595419847328244,1.3129770992366412,-1.8625954198473282,-0.469482421875,-0.0126953125,-0.130126953125,0.833
-0.22900763358778625,1.282442748091603,-1.450381679389313,-0.468994140625,-0.01513671875,-0.13232421875,0.8347
-0.4580152671755725,1.1145038167938932,-1.3740458015267176,-0.4677734375,-0.014892578125,-0.123779296875,0.8363999999999999
-0.7938931297709924,0.916030534351145,-1.3893129770992367,-0.47412109375,-0.018798828125,-0.13037109375,0.8381
-1.1908396946564885,1.1908396946564885,-1.5877862595419847,-0.47607421875,-0.01806640625,-0.130615234375,0.8398
-1.6488549618320612,1.3740458015267176,-1.2061068702290076,-0.4716796875,-0.0166015625,-0.132080078125,0.8414999999999999
-1.6030534351145038,1.2061068702290076,-1.0534351145038168,-0.46826171875,-0.021240234375,-0.129150390625,0.8432
-1.816793893129771,1.2061068702290076,-0.8549618320610687,-0.463134765625,-0.016357421875,-0.125,0.8449
-1.9541984732824427,1.465648854961832,-0.8244274809160306,-0.465087890625,-0.0126953125,-0.121337890625,0.8465999999999999
-2.3053435114503817,1.450381679389313,-0.8702290076335878,-0.466796875,-0.0146484375,-0.12353515625,0.8482999999999999
-2.1526717557251906,1.83206106870229,-0.9312977099236641,-0.474853515625,-0.012939453125,-0.133056640625,0.85
-1.9236641221374047,1.8015267175572518,-0.7938931297709924,-0.471923828125,-0.01708984375,-0.12890625,0.8516999999999999
-1.83206106870229,1.816793893129771,-0.6870229007633588,-0.4716796875,-0.020263671875,-0.130859375,0.8533999999999999
-1.8015267175572518,2.0,-0.3969465648854962,-0.46630859375,-0.0166015625,-0.13037109375,0.8551
-1.2671755725190839,2.2595419847328246,-0.3511450381679389,-0.46923828125,-0.0166015625,-0.123779296875,0.8568
-0.916030534351145,2.366412213740458,-0.42748091603053434,-0.466064453125,-0.01318359375,-0.12646484375,0.8584999999999999
-0.6106870229007634,2.366412213740458,-0.4122137404580153,-0.468994140625,-0.010009765625,-0.12548828125,0.8602
-0.4122137404580153,2.427480916030534,-0.12213740458015267,-0.470458984375,-0.015869140625,-0.119384765625,0.8619
-0.2900763358778626,2.7786259541984735,-0.44274809160305345,-0.4677734375,-0.011962890625,-0.133056640625,0.8635999999999999
-0.15267175572519084,2.7938931297709924,-0.4732824427480916,-0.4638671875,-0.0146484375,-0.12841796875,0.8653
-0.015267175572519083,3.1603053435114505,-0.7480916030534351,-0.467041015625,-0.012451171875,-0.1328125,0.867
0.22900763358778625,3.099236641221374,-0.6717557251908397,-0.46435546875,-0.0146484375,-0.128662109375,0.8686999999999999
0.32061068702290074,3.282442748091603,-0.7786259541984732,-0.466064453125,-0.015380859375,-0.132568359375,0.8704
0.44274809160305345,3.49618320610687,-0.7633587786259542,-0.46484375,-0.01171875,-0.13623046875,0.8721
0.44274809160305345,3.480916030534351,-1.083969465648855,-0.461669921875,-0.0087890625,-0.131591796875,0.8737999999999999
0.6259541984732825,3.648854961832061,-0.916030534351145,-0.456298828125,-0.008544921875,-0.13427734375,0.8755
0.4122137404580153,3.66412213740458,-1.2366412213740459,-0.462158203125,-0.00732421875,-0.133056640625,0.8772
0.5190839694656488,3.786259541984733,-1.1297709923664123,-0.46630859375,-0.008544921875,-0.124267578125,0.8788999999999999
0.0916030534351145,3.6793893129770994,-1.4809160305343512,-0.464111328125,-0.00927734375,-0.132080078125,0.8805999999999999
-0.07633587786259542,3.572519083969466,-1.5725190839694656,-0.462158203125,-0.003662109375,-0.133544921875,0.8823
-0.3053435114503817,3.5877862595419847,-1.7251908396946565,-0.4580078125,-0.013427734375,-0.135498046875,0.8839999999999999
-0.44274809160305345,3.801526717557252,-1.7557251908396947,-0.46240234375,-0.010498046875,-0.13671875,0.8856999999999999
-0.9007633587786259,3.618320610687023,-2.1526717557251906,-0.4658203125,-0.005859375,-0.138916015625,0.8874
-1.1145038167938932,3.572519083969466,-2.0610687022900764,-0.4677734375,-0.006591796875,-0.141357421875,0.8891
-1.5572519083969465,3.7557251908396947,-2.2748091603053435,-0.463623046875,-0.009033203125,-0.137451171875,0.8907999999999999
-1.7404580152671756,3.648854961832061,-2.4732824427480917,-0.469970703125,-0.0078125,-0.130859375,0.8925
-1.786259541984733,3.5114503816793894,-2.2900763358778624,-0.466796875,-0.01171875,-0.1376953125,0.8942
-2.213740458015267,3.5419847328244276,-2.2595419847328246,-0.464599609375,-0.005859375,-0.141845703125,0.8958999999999999
-2.381679389312977,3.404580152671756,-2.519083969465649,-0.463134765625,-0.00927734375,-0.135498046875,0.8976
-2.5801526717557253,3.480916030534351,-2.3206106870229006,-0.463134765625,-0.01220703125,-0.131103515625,0.8993
-2.6564885496183206,3.450381679389313,-2.5343511450381677,-0.470458984375,-0.0146484375,-0.124755859375,0.9009999999999999
-2.8702290076335877,3.3282442748091605,-2.0763358778625953,-0.46630859375,-0.010986328125,-0.11962890625,0.9027
-3.1908396946564888,3.404580152671756,-2.4885496183206106,-0.46826171875,-0.011962890625,-0.126708984375,0.9044
-3.49618320610687,3.1297709923664123,-2.33587786259542,-0.46875,-0.010498046875,-0.1298828125,0.9060999999999999
-3.450381679389313,3.1297709923664123,-2.213740458015267,-0.46435546875,-0.014404296875,-0.12255859375,0.9077999999999999
-3.633587786259542,3.1908396946564888,-2.030534351145038,-0.46337890625,-0.010986328125,-0.114501953125,0.9095
-3.9236641221374047,2.9923664122137406,-1.984732824427481,-0.460205078125,-0.009521484375,-0.13232421875,0.9111999999999999
-3.9236641221374047,2.8244274809160306,-1.633587786259542,-0.459716796875,-0.010009765625,-0.123291015625,0.9128999999999999
-3.9389312977099236,2.427480916030534,-1.6488549618320612,-0.467041015625,-0.009521484375,-0.11767578125,0.9146
-3.8473282442748094,2.3969465648854964,-1.1908396946564885,-0.4638671875,-0.01171875,-0.133056640625,0.9163
-3.5114503816793894,2.1068702290076335,-1.2366412213740459,-0.462890625,-0.008056640625,-0.122314453125,0.9179999999999999
-3.3587786259541983,2.198473282442748,-0.9770992366412213,-0.462158203125,-0.010498046875,-0.11865234375,0.9197
-3.3740458015267176,1.7557251908396947,-0.8549618320610687,-0.46337890625,-0.006103515625,-0.1220703125,0.9214
-3.267175572519084,1.5419847328244274,-0.22900763358778625,-0.4619140625,-0.0078125,-0.119140625,0.9230999999999999
-2.687022900763359,1.5877862595419847,-0.07633587786259542,-0.461181640625,-0.0048828125,-0.1171875,0.9248
-2.4580152671755724,1.282442748091603,0.10687022900763359,-0.45947265625,-0.0068359375,-0.114990234375,0.9265
-2.183206106870229,1.3129770992366412,-0.15267175572519084,-0.459716796875,-0.0068359375,-0.112060546875,0.9281999999999999
-1.5877862595419847,1.1908396946564885,-0.13740458015267176,-0.462158203125,-0.0048828125,-0.117919921875,0.9299
-1.3129770992366412,1.0687022900763359,-0.24427480916030533,-0.46435546875,-0.0068359375,-0.106689453125,0.9316
-0.8091603053435115,1.0381679389312977,-0.21374045801526717,-0.46240234375,-0.0068359375,-0.115966796875,0.9332999999999999
-0.32061068702290074,0.9770992366412213,-0.21374045801526717,-0.463623046875,-0.005859375,-0.12060546875,0.9349999999999999
-0.10687022900763359,0.7938931297709924,-0.33587786259541985,-0.458984375,-0.002197265625,-0.115478515625,0.9367
0.2900763358778626,0.732824427480916,-0.42748091603053434,-0.461181640625,0.0009765625,-0.1171875,0.9383999999999999
0.6717557251908397,0.6106870229007634,-0.44274809160305345,-0.46240234375,-0.004150390625,-0.12060546875,0.9400999999999999
0.916030534351145,0.6717557251908397,-0.21374045801526717,-0.462890625,0.000244140625,-0.11962890625,0.9418
1.4961832061068703,0.5648854961832062,-0.21374045801526717,-0.46533203125,0.0,-0.118896484375,0.9434999999999999
1.83206106870229,0.5648854961832062,-0.1984732824427481,-0.4638671875,0.0029296875,-0.120361328125,0.9451999999999999
2.0763358778625953,0.5343511450381679,-0.22900763358778625,-0.46044921875,0.0009765625,-0.123046875,0.9469
2.5801526717557253,0.7633587786259542,-0.2595419847328244,-0.46484375,0.00537109375,-0.1240234375,0.9486
2.885496183206107,0.7175572519083969,-0.12213740458015267,-0.464599609375,0.0009765625,-0.13134765625,0.9502999999999999
3.0381679389312977,0.6717557251908397,0.015267175572519083,-0.466552734375,0.000732421875,-0.120361328125,0.952
3.3282442748091605,0.8244274809160306,0.07633587786259542,-0.4638671875,-0.000244140625,-0.11962890625,0.9537
3.5114503816793894,0.7786259541984732,-0.1984732824427481,-0.463623046875,-0.0048828125,-0.123779296875,0.9553999999999999
3.6946564885496183,0.8091603053435115,0.061068702290076333,-0.468017578125,-0.006591796875,-0.129150390625,0.9571
3.83206106870229,0.8549618320610687,0.030534351145038167,-0.4716796875,0.001953125,-0.13232421875,0.9588
3.83206106870229,0.7175572519083969,-0.015267175572519083,-0.46826171875,0.002685546875,-0.137939453125,0.9604999999999999
3.816793893129771,0.8854961832061069,-0.2595419847328244,-0.46533203125,-0.006103515625,-0.133544921875,0.9621999999999999
3.5419847328244276,0.9923664122137404,-0.183206106870229,-0.46484375,-0.00830078125,-0.137939453125,0.9639
3.816793893129771,0.916030534351145,-0.32061068702290074,-0.463623046875,-0.00927734375,-0.140869140625,0.9655999999999999
3.5267175572519083,0.7633587786259542,-0.3816793893129771,-0.46484375,-0.004638671875,-0.133056640625,0.9672999999999999
3.2519083969465647,0.9007633587786259,-0.366412213740458,-0.472412109375,-0.0078125,-0.130126953125,0.969
3.0381679389312977,1.0381679389312977,-0.42748091603053434,-0.470703125,-0.00537109375,-0.126708984375,0.9706999999999999
2.9923664122137406,1.2366412213740459,-0.549618320610687,-0.4697265625,-0.005859375,-0.135498046875,0.9723999999999999
2.6259541984732824,1.4045801526717556,-0.6870229007633588,-0.470703125,-0.007080078125,-0.13720703125,0.9741
2.6412213740458017,1.4351145038167938,-0.8702290076335878,-0.4677734375,-0.011474609375,-0.140869140625,0.9758
2.6564885496183206,1.8015267175572518,-0.8396946564885496,-0.468017578125,-0.013427734375,-0.135986328125,0.9774999999999999
2.427480916030534,1.7709923664122138,-1.0381679389312977,-0.465576171875,-0.010009765625,-0.140869140625,0.9792
2.4885496183206106,1.9389312977099236,-1.0687022900763359,-0.46484375,-0.007568359375,-0.14501953125,0.9809
2.3969465648854964,1.9541984732824427,-1.2061068702290076,-0.470947265625,-0.007080078125,-0.140625,0.9825999999999999
2.5343511450381677,1.8931297709923665,-1.3129770992366412,-0.464111328125,-0.01025390625,-0.127685546875,0.9843
2.6412213740458017,2.0763358778625953,-1.1297709923664123,-0.462890625,-0.0146484375,-0.130126953125,0.986
2.687022900763359,2.1526717557251906,-1.2213740458015268,-0.46435546875,-0.020263671875,-0.125,0.9876999999999999
2.50381679389313,2.0763358778625953,-1.2213740458015268,-0.46533203125,-0.010986328125,-0.140380859375,0.9894
2.732824427480916,1.83206106870229,-1.3893129770992367,-0.464599609375,-0.01025390625,-0.13720703125,0.9911
2.6259541984732824,1.6641221374045803,-1.4198473282442747,-0.46484375,-0.01318359375,-0.133056640625,0.9927999999999999
2.854961832061069,1.633587786259542,-1.2671755725190839,-0.462646484375,-0.010986328125,-0.125,0.9944999999999999
2.564885496183206,1.633587786259542,-1.4961832061068703,-0.466064453125,-0.00830078125,-0.1298828125,0.9962
2.4427480916030535,1.282442748091603,-1.2671755725190839,-0.46142578125,-0.00732421875,-0.130859375,0.9978999999999999
2.122137404580153,1.0229007633587786,-1.5877862595419847,-0.4677734375,-0.01025390625,-0.13232421875,0.9995999999999999
1.6793893129770991,0.8854961832061069,-1.4961832061068703,-0.46875,-0.009521484375,-0.1240234375,1.0012999999999999
1.5419847328244274,0.7633587786259542,-1.5725190839694656,-0.4619140625,-0.015380859375,-0.125244140625,1.003
1.099236641221374,0.9312977099236641,-1.3435114503816794,-0.4619140625,-0.016845703125,-0.12548828125,1.0047
0.8702290076335878,0.8396946564885496,-1.297709923664122,-0.467041015625,-0.00830078125,-0.1259765625,1.0064
0.5648854961832062,0.5190839694656488,-1.3282442748091603,-0.46435546875,-0.01611328125,-0.125244140625,1.0081
0.32061068702290074,0.4122137404580153,-1.3129770992366412,-0.46484375,-0.008544921875,-0.12841796875,1.0098
0.015267175572519083,0.2900763358778626,-1.2213740458015268,-0.462890625,-0.011474609375,-0.125244140625,1.0114999999999998
-0.04580152671755725,0.33587786259541985,-0.9770992366412213,-0.46484375,-0.01123046875,-0.12646484375,1.0131999999999999
-0.16793893129770993,0.0916030534351145,-0.9770992366412213,-0.46533203125,-0.01171875,-0.1240234375,1.0149
-0.3053435114503817,0.015267175572519083,-0.9923664122137404,-0.460693359375,-0.01513671875,-0.13037109375,1.0166
-0.3969465648854962,0.22900763358778625,-1.0076335877862594,-0.46240234375,-0.010009765625,-0.1298828125,1.0183
-0.24427480916030533,0.366412213740458,-0.9770992366412213,-0.465087890625,-0.00927734375,-0.132080078125,1.02
-0.22900763358778625,0.15267175572519084,-1.0687022900763359,-0.464111328125,-0.00830078125,-0.12109375,1.0217
-0.07633587786259542,0.15267175572519084,-0.9007633587786259,-0.464599609375,-0.013427734375,-0.1259765625,1.0233999999999999
0.04580152671755725,0.015267175572519083,-0.6106870229007634,-0.46875,-0.0087890625,-0.1259765625,1.0251
0.2595419847328244,0.0,-0.7633587786259542,-0.46728515625,-0.012451171875,-0.12109375,1.0268
0.32061068702290074,0.183206106870229,-0.9923664122137404,-0.466064453125,-0.005859375,-0.131591796875,1.0285
0.5038167938931297,0.183206106870229,-0.6259541984732825,-0.463623046875,-0.005859375,-0.11865234375,1.0302
0.7938931297709924,0.22900763358778625,-0.6717557251908397,-0.4619140625,-0.00537109375,-0.120849609375,1.0319
0.7633587786259542,0.22900763358778625,-0.7175572519083969,-0.46533203125,-0.010498046875,-0.132080078125,1.0335999999999999
1.251908396946565,0.5343511450381679,-0.8091603053435115,-0.45947265625,-0.012939453125,-0.130615234375,1.0352999999999999
1.4045801526717556,0.32061068702290074,-0.4122137404580153,-0.4638671875,-0.012451171875,-0.13037109375,1.037
1.7709923664122138,0.44274809160305345,-0.3969465648854962,-0.46728515625,-0.0029296875,-0.12890625,1.0387
1.9694656488549618,0.7633587786259542,-0.3816793893129771,-0.4658203125,-0.009033203125,-0.12939453125,1.0404
1.984732824427481,0.9618320610687023,-0.5343511450381679,-0.469970703125,-0.00927734375,-0.13623046875,1.0421
2.2290076335877864,1.099236641221374,-0.5038167938931297,-0.466796875,-0.010986328125,-0.134033203125,1.0437999999999998
2.16793893129771,1.4809160305343512,-0.916030534351145,-0.46630859375,-0.014404296875,-0.134765625,1.0454999999999999
2.351145038167939,1.7251908396946565,-0.7022900763358778,-0.46923828125,-0.011474609375,-0.138671875,1.0472
2.6564885496183206,1.816793893129771,-0.9465648854961832,-0.4716796875,-0.013916015625,-0.139892578125,1.0489
3.0076335877862594,2.0,-1.0534351145038168,-0.47216796875,-0.0146484375,-0.139892578125,1.0506
3.3282442748091605,2.1068702290076335,-1.282442748091603,-0.468017578125,-0.00732421875,-0.136962890625,1.0523
3.114503816793893,2.3969465648854964,-1.2061068702290076,-0.466064453125,-0.0126953125,-0.133056640625,1.054
3.7557251908396947,2.50381679389313,-1.4198473282442747,-0.464599609375,-0.008544921875,-0.135009765625,1.0556999999999999
3.7709923664122136,2.6259541984732824,-1.2061068702290076,-0.46826171875,-0.010498046875,-0.139404296875,1.0574
3.9389312977099236,2.7480916030534353,-1.4961832061068703,-0.468017578125,-0.010009765625,-0.14404296875,1.0591
4.2748091603053435,2.7022900763358777,-1.6946564885496183,-0.47119140625,-0.015380859375,-0.138916015625,1.0608
4.106870229007634,2.8702290076335877,-1.9083969465648856,-0.46533203125,-0.012939453125,-0.145263671875,1.0625
4.534351145038168,2.8396946564885495,-1.6793893129770991,-0.463134765625,-0.009765625,-0.141845703125,1.0642
4.442748091603053,3.0076335877862594,-2.0916030534351147,-0.4638671875,-0.00927734375,-0.139404296875,1.0658999999999998
4.412213740458015,2.7938931297709924,-2.0,-0.4658203125,-0.00830078125,-0.13427734375,1.0675999999999999
4.106870229007634,2.4885496183206106,-2.0763358778625953,-0.464599609375,-0.00634765625,-0.130615234375,1.0693
4.0,2.5343511450381677,-2.0610687022900764,-0.46923828125,-0.009765625,-0.134033203125,1.071
3.66412213740458,2.2290076335877864,-1.9236641221374047,-0.4677734375,-0.0048828125,-0.138671875,1.0727
3.282442748091603,2.045801526717557,-1.8778625954198473,-0.466552734375,-0.009765625,-0.13623046875,1.0744
2.7786259541984735,1.633587786259542,-2.0610687022900764,-0.46484375,-0.005126953125,-0.13134765625,1.0760999999999998
2.381679389312977,1.450381679389313,-1.9694656488549618,-0.463134765625,-0.0087890625,-0.130859375,1.0777999999999999
1.7099236641221374,1.099236641221374,-1.9389312977099236,-0.460693359375,-0.01171875,-0.13330078125,1.0795
1.4045801526717556,0.8854961832061069,-1.5419847328244274,-0.463623046875,-0.010009765625,-0.128662109375,1.0812
0.916030534351145,0.732824427480916,-1.8015267175572518,-0.466552734375,-0.006103515625,-0.12646484375,1.0829
0.6412213740458015,0.42748091603053434,-1.633587786259542,-0.463134765625,-0.009033203125,-0.1201171875,1.0846
0.04580152671755725,0.1984732824427481,-1.618320610687023,-0.462890625,-0.011962890625,-0.1259765625,1.0863
-0.3511450381679389,0.2900763358778626,-1.3893129770992367,-0.464111328125,-0.0126953125,-0.123046875,1.0879999999999999
-0.6717557251908397,0.030534351145038167,-1.3282442748091603,-0.454833984375,-0.013916015625,-0.129150390625,1.0897
-0.7938931297709924,-0.44274809160305345,-1.297709923664122,-0.45947265625,-0.00927734375,-0.125244140625,1.0914
-0.7938931297709924,-0.15267175572519084,-1.633587786259542,-0.46337890625,-0.011962890625,-0.11669921875,1.0931
-1.0229007633587786,-0.2900763358778626,-1.282442748091603,-0.462890625,-0.016845703125,-0.121826171875,1.0948
-1.1603053435114503,-0.5038167938931297,-1.251908396946565,-0.46484375,-0.0185546875,-0.122314453125,1.0965
-1.2366412213740459,-0.6870229007633588,-1.1908396946564885,-0.462646484375,-0.01708984375,-0.123779296875,1.0981999999999998
-0.9923664122137404,-0.732824427480916,-1.3435114503816794,-0.46630859375,-0.010009765625,-0.1201171875,1.0998999999999999
-0.9618320610687023,-0.6717557251908397,-0.9923664122137404,-0.461181640625,-0.013916015625,-0.119873046875,1.1016
-0.9007633587786259,-0.5801526717557252,-1.2366412213740459,-0.467529296875,-0.011962890625,-0.115478515625,1.1033
-0.6870229007633588,-0.3053435114503817,-1.0229007633587786,-0.466064453125,-0.012939453125,-0.132080078125,1.105
-0.4580152671755725,-0.5343511450381679,-1.0076335877862594,-0.46630859375,-0.0126953125,-0.126953125,1.1067
-0.4122137404580153,-0.3969465648854962,-0.7786259541984732,-0.4716796875,-0.01513671875,-0.132568359375,1.1083999999999998
-0.1984732824427481,-0.24427480916030533,-0.6870229007633588,-0.47265625,-0.01611328125,-0.12646484375,1.1100999999999999
0.33587786259541985,-0.183206106870229,-0.44274809160305345,-0.4697265625,-0.010009765625,-0.127685546875,1.1118
0.8854961832061069,0.0916030534351145,-0.6870229007633588,-0.474365234375,-0.008544921875,-0.13623046875,1.1135
0.7938931297709924,0.3511450381679389,-0.3511450381679389,-0.470703125,-0.0087890625,-0.134033203125,1.1152
1.297709923664122,0.24427480916030533,-0.549618320610687,-0.466552734375,-0.0107421875,-0.138427734375,1.1169
1.6946564885496183,0.366412213740458,-0.549618320610687,-0.46875,-0.01318359375,-0.13330078125,1.1186
2.030534351145038,0.9007633587786259,-0.6564885496183206,-0.465087890625,-0.009765625,-0.135009765625,1.1202999999999999
2.50381679389313,1.1297709923664123,-0.7175572519083969,-0.4658203125,-0.00927734375,-0.127197265625,1.1219999999999999
2.854961832061069,1.1603053435114503,-0.6717557251908397,-0.47119140625,-0.008544921875,-0.1396484375,1.1237
3.2213740458015265,1.4045801526717556,-0.7786259541984732,-0.466064453125,-0.011474609375,-0.128662109375,1.1254
3.5114503816793894,1.5114503816793894,-1.099236641221374,-0.46484375,-0.009033203125,-0.13720703125,1.1271
3.618320610687023,1.7099236641221374,-0.9770992366412213,-0.467529296875,-0.008544921875,-0.1357421875,1.1288
3.7557251908396947,1.8473282442748091,-1.1145038167938932,-0.471435546875,-0.006591796875,-0.135009765625,1.1304999999999998
3.8473282442748094,1.984732824427481,-1.1450381679389312,-0.46826171875,-0.007080078125,-0.135986328125,1.1321999999999999
3.7099236641221376,1.9694656488549618,-1.1297709923664123,-0.464111328125,-0.0068359375,-0.133544921875,1.1339
3.6793893129770994,1.984732824427481,-0.9923664122137404,-0.4658203125,-0.010498046875,-0.134033203125,1.1356
3.572519083969466,1.8625954198473282,-1.3893129770992367,-0.462646484375,-0.00537109375,-0.134521484375,1.1373
3.3587786259541983,1.786259541984733,-1.3587786259541985,-0.466552734375,-0.009765625,-0.13427734375,1.139
3.2519083969465647,1.9389312977099236,-1.465648854961832,-0.46484375,-0.00927734375,-0.135986328125,1.1407
2.8396946564885495,1.8778625954198473,-1.633587786259542,-0.46533203125,-0.016357421875,-0.13671875,1.1423999999999999
2.763358778625954,2.1374045801526718,-1.8778625954198473,-0.458984375,-0.013916015625,-0.137939453125,1.1441
2.50381679389313,2.3206106870229006,-1.9236641221374047,-0.4609375,-0.01123046875,-0.139404296875,1.1458
2.4122137404580153,2.3969465648854964,-2.1374045801526718,-0.46875,-0.01416015625,-0.13671875,1.1475
2.0610687022900764,2.3969465648854964,-2.1374045801526718,-0.46484375,-0.01611328125,-0.131103515625,1.1492
1.8473282442748091,2.6717557251908395,-2.351145038167939,-0.468994140625,-0.012451171875,-0.136474609375,1.1509
1.8473282442748091,3.0076335877862594,-2.351145038167939,-0.466796875,-0.017333984375,-0.142578125,1.1525999999999998
1.5572519083969465,3.0076335877862594,-2.6106870229007635,-0.46435546875,-0.01513671875,-0.139404296875,1.1542999999999999
1.6030534351145038,2.763358778625954,-2.4732824427480917,-0.466552734375,-0.0146484375,-0.135498046875,1.156
1.6488549618320612,2.6717557251908395,-2.5343511450381677,-0.46533203125,-0.016357421875,-0.134033203125,1.1577
1.2366412213740459,2.6412213740458017,-2.549618320610687,-0.468017578125,-0.015380859375,-0.132080078125,1.1594
1.3587786259541985,2.427480916030534,-2.549618320610687,-0.46484375,-0.01171875,-0.135986328125,1.1611
1.1603053435114503,2.366412213740458,-2.427480916030534,-0.46630859375,-0.01708984375,-0.135498046875,1.1627999999999998
0.5954198473282443,2.122137404580153,-2.5801526717557253,-0.463134765625,-0.017333984375,-0.1220703125,1.1644999999999999
0.6412213740458015,2.030534351145038,-2.198473282442748,-0.467041015625,-0.01416015625,-0.126953125,1.1662
0.549618320610687,1.8778625954198473,-2.2290076335877864,-0.46337890625,-0.011962890625,-0.128173828125,1.1679
0.24427480916030533,1.4809160305343512,-2.122137404580153,-0.461669921875,-0.018798828125,-0.1201171875,1.1696
-0.030534351145038167,1.3893129770992367,-2.1068702290076335,-0.462158203125,-0.0146484375,-0.12939453125,1.1713
-0.2748091603053435,1.297709923664122,-2.045801526717557,-0.462158203125,-0.016845703125,-0.12255859375,1.173
-0.2595419847328244,0.9007633587786259,-2.213740458015267,-0.4638671875,-0.017578125,-0.13671875,1.1746999999999999
-0.5190839694656488,0.9007633587786259,-1.786259541984733,-0.466552734375,-0.015380859375,-0.1318359375,1.1764
-0.9007633587786259,0.8702290076335878,-1.83206106870229,-0.46240234375,-0.015380859375,-0.13232421875,1.1781
-0.9007633587786259,0.549618320610687,-1.83206106870229,-0.46240234375,-0.0126953125,-0.122802734375,1.1798
-1.099236641221374,0.366412213740458,-1.816793893129771,-0.460693359375,-0.012939453125,-0.12255859375,1.1815
-1.1145038167938932,0.04580152671755725,-1.5419847328244274,-0.46240234375,-0.010986328125,-0.123046875,1.1832
-1.1145038167938932,-0.16793893129770993,-1.3893129770992367,-0.460205078125,-0.01513671875,-0.125,1.1848999999999998
-1.2366412213740459,-0.0916030534351145,-1.1450381679389312,-0.45703125,-0.010986328125,-0.11767578125,1.1865999999999999
-1.1603053435114503,-0.2748091603053435,-1.1755725190839694,-0.460693359375,-0.009521484375,-0.12451171875,1.1883
-0.7175572519083969,-0.6564885496183206,-0.9618320610687023,-0.4658203125,-0.007568359375,-0.1240234375,1.19
-0.6564885496183206,-0.8702290076335878,-1.0381679389312977,-0.4609375,-0.01318359375,-0.120849609375,1.1917
-0.33587786259541985,-1.0076335877862594,-0.6106870229007634,-0.463134765625,-0.0087890625,-0.123291015625,1.1934
-0.2595419847328244,-1.099236641221374,-0.5954198473282443,-0.462890625,-0.005859375,-0.12255859375,1.1950999999999998
-0.0916030534351145,-1.083969465648855,-0.42748091603053434,-0.46142578125,-0.00634765625,-0.118896484375,1.1967999999999999
0.21374045801526717,-1.0076335877862594,-0.4580152671755725,-0.4638671875,-0.00634765625,-0.119384765625,1.1985
0.48854961832061067,-1.1755725190839694,-0.44274809160305345,-0.4638671875,-0.01220703125,-0.121826171875,1.2002
0.549618320610687,-1.297709923664122,-0.33587786259541985,-0.462158203125,-0.001220703125,-0.130859375,1.2019
0.732824427480916,-1.3740458015267176,-0.12213740458015267,-0.4658203125,-0.00390625,-0.11767578125,1.2036
1.3893129770992367,-1.282442748091603,-0.030534351145038167,-0.4677734375,-0.001953125,-0.127197265625,1.2053
1.282442748091603,-1.1908396946564885,0.061068702290076333,-0.46435546875,-0.0009765625,-0.119873046875,1.2069999999999999
1.3893129770992367,-1.3587786259541985,-0.030534351145038167,-0.462890625,-0.00146484375,-0.128173828125,1.2086999999999999
1.2671755725190839,-1.4198473282442747,-0.04580152671755725,-0.458740234375,-0.00048828125,-0.12646484375,1.2104
1.5877862595419847,-1.4351145038167938,0.015267175572519083,-0.464599609375,-0.004638671875,-0.134033203125,1.2121
1.5267175572519085,-1.4198473282442747,0.061068702290076333,-0.468017578125,0.003173828125,-0.121826171875,1.2138
1.5419847328244274,-1.4198473282442747,-0.1984732824427481,-0.46044921875,-0.001953125,-0.130126953125,1.2155
1.5419847328244274,-1.5572519083969465,-0.12213740458015267,-0.468017578125,0.0029296875,-0.12255859375,1.2171999999999998
1.7404580152671756,-1.2671755725190839,-0.07633587786259542,-0.469970703125,-0.0087890625,-0.1318359375,1.2188999999999999
2.0916030534351147,-1.251908396946565,-0.2900763358778626,-0.472412109375,-0.00048828125,-0.137451171875,1.2206
2.0,-1.297709923664122,-0.2748091603053435,-0.472412109375,-0.00048828125,-0.135009765625,1.2223
1.8473282442748091,-1.2366412213740459,-0.0916030534351145,-0.467529296875,-0.0078125,-0.141845703125,1.224
2.198473282442748,-0.7786259541984732,-0.4732824427480916,-0.46826171875,-0.008056640625,-0.1474609375,1.2257
2.2900763358778624,-0.42748091603053434,-0.366412213740458,-0.4697265625,-0.00341796875,-0.140625,1.2273999999999998
2.33587786259542,-0.366412213740458,-0.33587786259541985,-0.472412109375,-0.00634765625,-0.135498046875,1.2290999999999999
2.6717557251908395,0.0,-0.3511450381679389,-0.47314453125,-0.00927734375,-0.141845703125,1.2308
2.6259541984732824,0.21374045801526717,-0.6106870229007634,-0.4716796875,-0.005126953125,-0.137451171875,1.2325
2.6564885496183206,0.42748091603053434,-0.6564885496183206,-0.478271484375,-0.00439453125,-0.147705078125,1.2342
3.0839694656488548,0.6564885496183206,-0.6106870229007634,-0.474609375,-0.009765625,-0.14208984375,1.2359
3.3435114503816794,1.1603053435114503,-0.9770992366412213,-0.472412109375,-0.01171875,-0.146728515625,1.2376
3.2519083969465647,1.6030534351145038,-1.0229007633587786,-0.475830078125,-0.012939453125,-0.150390625,1.2392999999999998
3.618320610687023,1.816793893129771,-1.3435114503816794,-0.477783203125,-0.011962890625,-0.1435546875,1.2409999999999999
3.7099236641221376,2.183206106870229,-1.4809160305343512,-0.472412109375,-0.019287109375,-0.149169921875,1.2427
3.786259541984733,2.7022900763358777,-1.5572519083969465,-0.466552734375,-0.012939453125,-0.140625,1.2444
4.198473282442748,3.1603053435114505,-1.6946564885496183,-0.47119140625,-0.013671875,-0.142578125,1.2461
4.061068702290076,3.3740458015267176,-1.8931297709923665,-0.466552734375,-0.020263671875,-0.145263671875,1.2478
4.259541984732825,3.2977099236641223,-2.015267175572519,-0.470703125,-0.01611328125,-0.14453125,1.2494999999999998
4.152671755725191,3.66412213740458,-2.0916030534351147,-0.4716796875,-0.01806640625,-0.134765625,1.2511999999999999
4.3816793893129775,3.5572519083969465,-2.1526717557251906,-0.47314453125,-0.0185546875,-0.1494140625,1.2529
4.0458015267175576,3.3587786259541983,-2.213740458015267,-0.474609375,-0.01318359375,-0.139892578125,1.2546
3.7557251908396947,3.267175572519084,-2.0763358778625953,-0.462158203125,-0.01220703125,-0.13330078125,1.2563
3.5267175572519083,2.9618320610687023,-2.2442748091603053,-0.46630859375,-0.017333984375,-0.138916015625,1.258
2.900763358778626,2.854961832061069,-2.2595419847328246,-0.46533203125,-0.00927734375,-0.128662109375,1.2596999999999998
2.519083969465649,2.717557251908397,-2.0916030534351147,-0.460693359375,-0.011474609375,-0.135009765625,1.2613999999999999
2.045801526717557,2.50381679389313,-2.1526717557251906,-0.4599609375,-0.0126953125,-0.13671875,1.2631
1.3587786259541985,2.122137404580153,-2.122137404580153,-0.46240234375,-0.01416015625,-0.12646484375,1.2648
0.9618320610687023,1.8625954198473282,-2.16793893129771,-0.466064453125,-0.01220703125,-0.12939453125,1.2665
0.12213740458015267,1.618320610687023,-2.381679389312977,-0.46435546875,-0.011474609375,-0.128173828125,1.2682
-0.3969465648854962,1.450381679389313,-2.2290076335877864,-0.462158203125,-0.015625,-0.130615234375,1.2699
-0.9618320610687023,1.2671755725190839,-2.213740458015267,-0.459716796875,-0.017578125,-0.123046875,1.2715999999999998
-1.3893129770992367,1.083969465648855,-2.213740458015267,-0.463623046875,-0.009033203125,-0.130859375,1.2732999999999999
-1.83206106870229,0.7480916030534351,-2.2748091603053435,-0.458251953125,-0.01318359375,-0.12548828125,1.275
-1.8778625954198473,0.44274809160305345,-2.183206106870229,-0.463134765625,-0.0126953125,-0.1201171875,1.2767
-2.4122137404580153,0.42748091603053434,-2.2595419847328246,-0.45556640625,-0.014404296875,-0.123779296875,1.2784
-2.4122137404580153,0.2748091603053435,-2.0763358778625953,-0.460693359375,-0.01806640625,-0.11962890625,1.2801
-2.3206106870229006,0.04580152671755725,-1.984732824427481,-0.4599609375,-0.0185546875,-0.123046875,1.2817999999999998
-2.2748091603053435,-0.061068702290076333,-1.816793893129771,-0.461181640625,-0.015869140625,-0.122314453125,1.2834999999999999
-2.0916030534351147,-0.12213740458015267,-1.7099236641221374,-0.468017578125,-0.0126953125,-0.1201171875,1.2852
-1.984732824427481,-0.24427480916030533,-1.5114503816793894,-0.466064453125,-0.01318359375,-0.12451171875,1.2869
-1.6946564885496183,-0.32061068702290074,-1.5572519083969465,-0.4658203125,-0.012451171875,-0.12158203125,1.2886
-1.3587786259541985,-0.33587786259541985,-1.3435114503816794,-0.464111328125,-0.009765625,-0.12060546875,1.2903
-0.916030534351145,-0.1984732824427481,-1.2366412213740459,-0.4697265625,-0.013916015625,-0.121337890625,1.292
-0.5801526717557252,-0.12213740458015267,-1.1755725190839694,-0.468505859375,-0.01123046875,-0.11962890625,1.2936999999999999
-0.22900763358778625,-0.33587786259541985,-1.1450381679389312,-0.462890625,-0.00390625,-0.12646484375,1.2953999999999999
-0.183206106870229,-0.22900763358778625,-1.0534351145038168,-0.46728515625,-0.00537109375,-0.129638671875,1.2971
0.24427480916030533,-0.12213740458015267,-0.8244274809160306,-0.47265625,-0.00537109375,-0.127197265625,1.2988
0.3053435114503817,-0.2595419847328244,-0.7175572519083969,-0.47021484375,-0.010498046875,-0.125244140625,1.3005
0.8854961832061069,0.13740458015267176,-0.6717557251908397,-0.469482421875,-0.010498046875,-0.128662109375,1.3022
1.0534351145038168,-0.030534351145038167,-0.48854961832061067,-0.466552734375,-0.007080078125,-0.124755859375,1.3038999999999998
1.1908396946564885,0.24427480916030533,-0.5648854961832062,-0.466552734375,-0.00048828125,-0.12939453125,1.3055999999999999
1.3282442748091603,0.5954198473282443,-0.16793893129770993,-0.467041015625,-0.005615234375,-0.134765625,1.3073
1.7557251908396947,0.6106870229007634,-0.2748091603053435,-0.465087890625,-0.007080078125,-0.14306640625,1.309
1.7557251908396947,0.6259541984732825,-0.030534351145038167,-0.465087890625,-0.005859375,-0.137451171875,1.3107
2.1374045801526718,1.0229007633587786,-0.13740458015267176,-0.464111328125,0.0,-0.1318359375,1.3124
2.33587786259542,0.7786259541984732,-0.015267175572519083,-0.461181640625,-0.0009765625,-0.136962890625,1.3140999999999998
2.4732824427480917,0.9770992366412213,0.015267175572519083,-0.467041015625,-0.001220703125,-0.134033203125,1.3157999999999999
2.6717557251908395,1.1297709923664123,-0.12213740458015267,-0.463134765625,-0.00048828125,-0.142578125,1.3175
2.6259541984732824,1.2671755725190839,0.0,-0.46435546875,-0.00341796875,-0.13232421875,1.3192
2.7938931297709924,1.2671755725190839,0.0,-0.46435546875,-0.004150390625,-0.12939453125,1.3209
2.931297709923664,1.1908396946564885,-0.1984732824427481,-0.46484375,-0.0009765625,-0.137939453125,1.3226
3.1297709923664123,1.3435114503816794,0.12213740458015267,-0.467041015625,-0.00732421875,-0.13671875,1.3243
2.9618320610687023,1.4351145038167938,-0.04580152671755725,-0.464599609375,-0.00244140625,-0.128173828125,1.3259999999999998
2.9618320610687023,1.3893129770992367,-0.16793893129770993,-0.466064453125,-0.003662109375,-0.1279296875,1.3276999999999999
2.854961832061069,1.3435114503816794,-0.24427480916030533,-0.473388671875,-0.00048828125,-0.138916015625,1.3294
2.8244274809160306,1.4961832061068703,-0.4580152671755725,-0.467529296875,0.0,-0.128173828125,1.3311
2.549618320610687,1.5725190839694656,-0.6564885496183206,-0.46533203125,-0.004150390625,-0.135009765625,1.3328
2.6412213740458017,1.5114503816793894,-0.4122137404580153,-0.46435546875,-0.005615234375,-0.12939453125,1.3345
2.33587786259542,1.6641221374045803,-0.8091603053435115,-0.46630859375,-0.0068359375,-0.131591796875,1.3361999999999998
2.1374045801526718,1.6793893129770991,-0.6717557251908397,-0.4619140625,-0.009765625,-0.1318359375,1.3378999999999999
2.1068702290076335,1.4809160305343512,-0.9312977099236641,-0.4638671875,-0.0107421875,-0.135009765625,1.3396
1.7099236641221374,1.450381679389313,-1.0534351145038168,-0.461181640625,-0.007080078125,-0.128662109375,1.3413
1.618320610687023,1.450381679389313,-1.099236641221374,-0.465087890625,-0.015625,-0.134521484375,1.343
1.6641221374045803,1.3435114503816794,-0.8854961832061069,-0.47021484375,-0.01318359375,-0.13037109375,1.3447
1.3129770992366412,1.4351145038167938,-1.3893129770992367,-0.46484375,-0.00830078125,-0.137451171875,1.3463999999999998
1.3129770992366412,1.5419847328244274,-1.099236641221374,-0.469970703125,-0.016357421875,-0.12890625,1.3480999999999999
1.1755725190839694,1.4351145038167938,-1.2671755725190839,-0.4697265625,-0.0146484375,-0.1318359375,1.3497999999999999
1.1908396946564885,1.465648854961832,-1.4351145038167938,-0.46533203125,-0.010986328125,-0.135498046875,1.3515
1.3740458015267176,1.5114503816793894,-1.6030534351145038,-0.46826171875,-0.01318359375,-0.1181640625,1.3532
1.2213740458015268,1.5419847328244274,-1.3587786259541985,-0.4677734375,-0.011962890625,-0.126953125,1.3549
1.3129770992366412,1.816793893129771,-1.5877862595419847,-0.4697265625,-0.013427734375,-0.137939453125,1.3566
1.465648854961832,1.8625954198473282,-1.8778625954198473,-0.468017578125,-0.0107421875,-0.133056640625,1.3582999999999998
1.5419847328244274,1.9083969465648856,-1.6488549618320612,-0.46435546875,-0.01318359375,-0.134521484375,1.3599999999999999
1.4198473282442747,2.122137404580153,-1.9389312977099236,-0.464111328125,-0.0185546875,-0.1318359375,1.3617
2.015267175572519,1.9694656488549618,-2.2748091603053435,-0.463623046875,-0.012939453125,-0.134033203125,1.3634
1.9541984732824427,2.0916030534351147,-1.8931297709923665,-0.466064453125,-0.014404296875,-0.133544921875,1.3651
2.030534351145038,2.015267175572519,-1.9694656488549618,-0.468505859375,-0.014892578125,-0.12744140625,1.3668
2.030534351145038,2.015267175572519,-2.030534351145038,-0.463134765625,-0.011962890625,-0.12744140625,1.3684999999999998
1.8931297709923665,1.9236641221374047,-2.0763358778625953,-0.472900390625,-0.013427734375,-0.123291015625,1.3701999999999999
1.6030534351145038,1.8931297709923665,-1.6946564885496183,-0.46484375,-0.011474609375,-0.1201171875,1.3719
1.3740458015267176,1.83206106870229,-1.8931297709923665,-0.468505859375,-0.00732421875,-0.127197265625,1.3736
1.0687022900763359,1.6641221374045803,-1.8473282442748091,-0.46435546875,-0.01513671875,-0.129150390625,1.3753
0.6564885496183206,1.6946564885496183,-1.7709923664122138,-0.45849609375,-0.015625,-0.125244140625,1.377
0.7633587786259542,1.5419847328244274,-1.7099236641221374,-0.462890625,-0.011474609375,-0.129150390625,1.3786999999999998
0.2748091603053435,1.6793893129770991,-1.83206106870229,-0.466064453125,-0.007568359375,-0.13427734375,1.3803999999999998
0.061068702290076333,1.6488549618320612,-1.5725190839694656,-0.4658203125,-0.006591796875,-0.13037109375,1.3820999999999999
-0.2900763358778626,1.3282442748091603,-1.618320610687023,-0.46923828125,-0.00830078125,-0.1240234375,1.3838
-0.5648854961832062,1.1603053435114503,-1.5267175572519085,-0.459716796875,-0.00927734375,-0.12890625,1.3855
-0.8091603053435115,1.1145038167938932,-1.3129770992366412,-0.466552734375,-0.00732421875,-0.12255859375,1.3872
-0.6412213740458015,1.083969465648855,-1.2366412213740459,-0.46533203125,-0.00537109375,-0.119384765625,1.3889
-0.7480916030534351,0.916030534351145,-1.1450381679389312,-0.466064453125,-0.00244140625,-0.13134765625,1.3905999999999998
-0.6412213740458015,0.8244274809160306,-0.9618320610687023,-0.47216796875,-0.005859375,-0.124755859375,1.3922999999999999
-0.5648854961832062,0.8854961832061069,-1.1603053435114503,-0.468994140625,0.000244140625,-0.1259765625,1.394
-0.44274809160305345,1.1908396946564885,-0.916030534351145,-0.465576171875,-0.0048828125,-0.12451171875,1.3957
0.07633587786259542,0.9923664122137404,-1.1297709923664123,-0.46484375,-0.00341796875,-0.130859375,1.3974
0.183206106870229,0.8702290076335878,-1.0076335877862594,-0.4619140625,-0.010498046875,-0.1337890625,1.3991
0.1984732824427481,0.9007633587786259,-1.0687022900763359,-0.46044921875,-0.010009765625,-0.13623046875,1.4007999999999998
0.3053435114503817,0.916030534351145,-0.8396946564885496,-0.46630859375,-0.003662109375,-0.12890625,1.4024999999999999
0.8244274809160306,0.9770992366412213,-1.0534351145038168,-0.459228515625,-0.003173828125,-0.125244140625,1.4042
1.0229007633587786,0.9770992366412213,-0.8702290076335878,-0.457275390625,-0.00244140625,-0.127685546875,1.4059
1.3587786259541985,0.8702290076335878,-0.8702290076335878,-0.460693359375,-0.002685546875,-0.126953125,1.4076
1.6946564885496183,0.5954198473282443,-0.5954198473282443,-0.467041015625,-0.000244140625,-0.13427734375,1.4093
1.8625954198473282,0.7633587786259542,-0.7175572519083969,-0.467529296875,-0.003173828125,-0.12841796875,1.411
1.786259541984733,0.6412213740458015,-0.5954198473282443,-0.464599609375,-0.004638671875,-0.129638671875,1.4126999999999998
1.8778625954198473,0.44274809160305345,-0.6870229007633588,-0.466064453125,-0.00341796875,-0.11962890625,1.4143999999999999
2.045801526717557,0.33587786259541985,-0.7175572519083969,-0.46630859375,-0.00537109375,-0.13330078125,1.4161
1.8625954198473282,0.2595419847328244,-0.3511450381679389,-0.464599609375,0.00048828125,-0.12890625,1.4178
1.5725190839694656,0.3511450381679389,-0.5190839694656488,-0.465087890625,-0.010009765625,-0.125244140625,1.4195
1.633587786259542,0.1984732824427481,-0.2748091603053435,-0.467041015625,-0.00439453125,-0.12890625,1.4212
1.2671755725190839,0.2900763358778626,-0.3511450381679389,-0.468017578125,-0.009765625,-0.130859375,1.4228999999999998
1.1755725190839694,0.33587786259541985,-0.16793893129770993,-0.459716796875,-0.011474609375,-0.12353515625,1.4245999999999999
0.9465648854961832,0.24427480916030533,-0.2900763358778626,-0.46875,-0.009521484375,-0.13037109375,1.4263
0.8091603053435115,0.4580152671755725,-0.48854961832061067,-0.4658203125,-0.01416015625,-0.126220703125,1.428
0.5801526717557252,0.6412213740458015,-0.44274809160305345,-0.46923828125,-0.01025390625,-0.129150390625,1.4297
0.916030534351145,1.0534351145038168,-0.7480916030534351,-0.464599609375,-0.0126953125,-0.13525390625,1.4314
1.1603053435114503,1.3587786259541985,-0.6564885496183206,-0.4638671875,-0.012451171875,-0.13330078125,1.4330999999999998
1.3740458015267176,1.7709923664122138,-0.8091603053435115,-0.4619140625,-0.015869140625,-0.13232421875,1.4347999999999999
1.6641221374045803,2.0763358778625953,-1.083969465648855,-0.470703125,-0.018798828125,-0.1298828125,1.4364999999999999
1.9694656488549618,2.366412213740458,-1.1603053435114503,-0.464111328125,-0.01318359375,-0.129638671875,1.4382
2.519083969465649,2.5343511450381677,-1.0687022900763359,-0.46435546875,-0.012451171875,-0.140380859375,1.4399
2.8244274809160306,2.687022900763359,-1.297709923664122,-0.46630859375,-0.01513671875,-0.131591796875,1.4416
3.2977099236641223,2.9160305343511452,-1.3587786259541985,-0.468505859375,-0.012451171875,-0.130615234375,1.4433
3.2213740458015265,2.5801526717557253,-1.3282442748091603,-0.463623046875,-0.012451171875,-0.1279296875,1.4449999999999998
3.66412213740458,2.6106870229007635,-1.4809160305343512,-0.463623046875,-0.014404296875,-0.133056640625,1.4466999999999999
3.954198473282443,2.6564885496183206,-1.5114503816793894,-0.458984375,-0.011962890625,-0.130859375,1.4484
4.015267175572519,2.6717557251908395,-1.7404580152671756,-0.46435546875,-0.01611328125,-0.131103515625,1.4501
4.061068702290076,2.4885496183206106,-1.6030534351145038,-0.462890625,-0.015869140625,-0.12451171875,1.4518
3.8931297709923665,2.5343511450381677,-1.6793893129770991,-0.46484375,-0.0146484375,-0.128662109375,1.4535
3.5877862595419847,2.4580152671755724,-1.9236641221374047,-0.46240234375,-0.010009765625,-0.12744140625,1.4551999999999998
3.3435114503816794,2.2748091603053435,-2.0763358778625953,-0.460693359375,-0.01171875,-0.135009765625,1.4568999999999999
2.885496183206107,1.9389312977099236,-2.0916030534351147,-0.463623046875,-0.01123046875,-0.13232421875,1.4586
2.4885496183206106,1.7099236641221374,-2.16793893129771,-0.458251953125,-0.012939453125,-0.130859375,1.4603
2.0,1.4351145038167938,-2.0610687022900764,-0.461669921875,-0.008544921875,-0.1328125,1.462
1.7251908396946565,0.8854961832061069,-2.0916030534351147,-0.463623046875,-0.00439453125,-0.12890625,1.4637
1.3740458015267176,0.8244274809160306,-2.1526717557251906,-0.459716796875,-0.00537109375,-0.135498046875,1.4653999999999998
1.0381679389312977,0.5038167938931297,-2.015267175572519,-0.453369140625,-0.005859375,-0.128173828125,1.4670999999999998
0.5038167938931297,0.24427480916030533,-2.1374045801526718,-0.461181640625,-0.005615234375,-0.12890625,1.4687999999999999
0.21374045801526717,0.015267175572519083,-1.9236641221374047,-0.459228515625,-0.013916015625,-0.12109375,1.4705
-0.3053435114503817,0.0,-1.7251908396946565,-0.463623046875,-0.009765625,-0.12060546875,1.4722
-0.15267175572519084,-0.4732824427480916,-1.8931297709923665,-0.466064453125,-0.0107421875,-0.11962890625,1.4739
-0.7022900763358778,-0.5801526717557252,-1.8625954198473282,-0.46728515625,-0.005615234375,-0.121337890625,1.4756
-0.8396946564885496,-0.33587786259541985,-1.618320610687023,-0.467041015625,-0.0048828125,-0.11962890625,1.4772999999999998
-0.7480916030534351,-0.48854961832061067,-1.6488549618320612,-0.46435546875,-0.006591796875,-0.124755859375,1.4789999999999999
-0.8702290076335878,-0.5190839694656488,-1.786259541984733,-0.468505859375,-0.00341796875,-0.123291015625,1.4807
-0.6717557251908397,-0.3053435114503817,-1.4198473282442747,-0.468017578125,-0.009765625,-0.13037109375,1.4824
-0.21374045801526717,-0.24427480916030533,-1.465648854961832,-0.46826171875,-0.005615234375,-0.13134765625,1.4841
-0.13740458015267176,-0.22900763358778625,-1.450381679389313,-0.4658203125,-0.00927734375,-0.12744140625,1.4858
0.15267175572519084,-0.015267175572519083,-1.297709923664122,-0.46484375,-0.008056640625,-0.128173828125,1.4874999999999998
0.2900763358778626,0.22900763358778625,-1.2366412213740459,-0.464111328125,-0.008056640625,-0.126708984375,1.4891999999999999
0.7786259541984732,0.1984732824427481,-0.9312977099236641,-0.4697265625,-0.00830078125,-0.128173828125,1.4909
1.083969465648855,0.42748091603053434,-0.8396946564885496,-0.469482421875,-0.00439453125,-0.129638671875,1.4926
1.4351145038167938,0.3969465648854962,-0.8091603053435115,-0.47119140625,-0.00537109375,-0.1259765625,1.4943
1.8015267175572518,0.2595419847328244,-0.5954198473282443,-0.47119140625,-0.006103515625,-0.130859375,1.496
2.045801526717557,0.04580152671755725,-0.42748091603053434,-0.472900390625,-0.00341796875,-0.1240234375,1.4976999999999998
2.015267175572519,0.16793893129770993,-0.21374045801526717,-0.472412109375,-0.003662109375,-0.130126953125,1.4993999999999998
2.0610687022900764,0.07633587786259542,-0.3816793893129771,-0.4658203125,0.00048828125,-0.13134765625,1.5010999999999999
2.015267175572519,0.030534351145038167,-0.13740458015267176,-0.470947265625,-0.003662109375,-0.13525390625,1.5028
1.7099236641221374,-0.0916030534351145,0.030534351145038167,-0.47314453125,-0.001953125,-0.13818359375,1.5045
1.4809160305343512,-0.24427480916030533,0.2748091603053435,-0.46923828125,0.000732421875,-0.136962890625,1.5062
1.1755725190839694,-0.4122137404580153,0.4732824427480916,-0.471435546875,-0.008056640625,-0.1279296875,1.5079
1.083969465648855,-0.3969465648854962,0.5801526717557252,-0.47314453125,-0.00634765625,-0.134033203125,1.5095999999999998
0.732824427480916,-0.2900763358778626,0.7938931297709924,-0.4697265625,-0.007568359375,-0.12890625,1.5112999999999999
0.48854961832061067,-0.3969465648854962,0.6412213740458015,-0.4697265625,-0.007568359375,-0.137451171875,1.513
0.21374045801526717,-0.33587786259541985,0.8244274809160306,-0.473876953125,-0.007080078125,-0.141845703125,1.5147
0.12213740458015267,-0.12213740458015267,0.6259541984732825,-0.47119140625,-0.008056640625,-0.14208984375,1.5164
0.0916030534351145,0.4122137404580153,0.4732824427480916,-0.4736328125,-0.01025390625,-0.139892578125,1.5181
0.12213740458015267,0.8854961832061069,0.549618320610687,-0.472900390625,-0.01171875,-0.142822265625,1.5197999999999998
0.4122137404580153,1.2671755725190839,0.2595419847328244,-0.472412109375,-0.017333984375,-0.140380859375,1.5214999999999999
0.8091603053435115,1.7099236641221374,-0.21374045801526717,-0.47216796875,-0.0205078125,-0.14013671875,1.5231999999999999
1.2061068702290076,2.519083969465649,-0.549618320610687,-0.4716796875,-0.018798828125,-0.137451171875,1.5249
1.5572519083969465,2.946564885496183,-0.44274809160305345,-0.472412109375,-0.017822265625,-0.134033203125,1.5266
2.16793893129771,3.0381679389312977,-1.0229007633587786,-0.46826171875,-0.017333984375,-0.1298828125,1.5283
2.6259541984732824,3.5877862595419847,-1.4809160305343512,-0.474853515625,-0.01611328125,-0.1396484375,1.5299999999999998
3.053435114503817,3.6946564885496183,-1.9389312977099236,-0.467041015625,-0.01806640625,-0.136474609375,1.5316999999999998
3.49618320610687,3.954198473282443,-1.8625954198473282,-0.46826171875,-0.019287109375,-0.1259765625,1.5333999999999999
3.6946564885496183,3.954198473282443,-2.381679389312977,-0.4697265625,-0.01953125,-0.13427734375,1.5351
3.954198473282443,3.8931297709923665,-2.519083969465649,-0.46728515625,-0.019775390625,-0.132568359375,1.5368
4.091603053435114,4.122137404580153,-2.885496183206107,-0.464111328125,-0.01416015625,-0.12646484375,1.5385
4.244274809160306,4.137404580152672,-2.8091603053435112,-0.46630859375,-0.016357421875,-0.12939453125,1.5402
4.183206106870229,4.061068702290076,-2.885496183206107,-0.461669921875,-0.017578125,-0.131103515625,1.5418999999999998
4.030534351145038,3.816793893129771,-3.068702290076336,-0.46435546875,-0.01806640625,-0.1279296875,1.5435999999999999
3.5267175572519083,3.7251908396946565,-3.2061068702290076,-0.463623046875,-0.01904296875,-0.123046875,1.5453
3.572519083969466,3.5114503816793894,-3.2519083969465647,-0.462890625,-0.0185546875,-0.1328125,1.547
3.282442748091603,3.4198473282442747,-3.2977099236641223,-0.460693359375,-0.011474609375,-0.1259765625,1.5487
2.717557251908397,3.1908396946564888,-3.068702290076336,-0.462890625,-0.01025390625,-0.129150390625,1.5504
2.2748091603053435,3.0839694656488548,-3.3740458015267176,-0.46533203125,-0.015380859375,-0.13037109375,1.5520999999999998
1.8931297709923665,2.763358778625954,-2.9160305343511452,-0.464599609375,-0.009521484375,-0.121337890625,1.5537999999999998
1.2213740458015268,2.2442748091603053,-3.145038167938931,-0.456787109375,-0.014892578125,-0.12158203125,1.5554999999999999
0.7786259541984732,1.8625954198473282,-2.854961832061069,-0.45947265625,-0.008544921875,-0.119140625,1.5572
0.3053435114503817,1.6488549618320612,-2.885496183206107,-0.46044921875,-0.012939453125,-0.13525390625,1.5589
-0.1984732824427481,1.5267175572519085,-2.7480916030534353,-0.456787109375,-0.017578125,-0.121826171875,1.5606
-0.5038167938931297,1.1908396946564885,-3.0381679389312977,-0.4609375,-0.0185546875,-0.12646484375,1.5623
-0.7786259541984732,0.7786259541984732,-2.564885496183206,-0.462158203125,-0.010498046875,-0.12744140625,1.5639999999999998
-1.1908396946564885,0.6870229007633588,-2.564885496183206,-0.45849609375,-0.006591796875,-0.118408203125,1.5656999999999999
-1.465648854961832,0.21374045801526717,-2.4580152671755724,-0.458251953125,-0.005859375,-0.125732421875,1.5674
-1.465648854961832,0.015267175572519083,-2.3206106870229006,-0.460205078125,-0.009765625,-0.10986328125,1.5691
-1.5114503816793894,0.015267175572519083,-2.0,-0.4599609375,-0.005126953125,-0.12451171875,1.5708
-1.3740458015267176,-0.07633587786259542,-2.0610687022900764,-0.45556640625,0.0009765625,-0.11572265625,1.5725
-1.450381679389313,-0.3511450381679389,-1.6641221374045803,-0.45703125,-0.003173828125,-0.118896484375,1.5741999999999998
-0.8244274809160306,-0.3816793893129771,-1.4961832061068703,-0.460205078125,-0.004638671875,-0.12451171875,1.5758999999999999
-0.8091603053435115,-0.16793893129770993,-1.3435114503816794,-0.459716796875,-0.00439453125,-0.116943359375,1.5776
-0.16793893129770993,-0.32061068702290074,-1.1450381679389312,-0.45947265625,0.000244140625,-0.117919921875,1.5793
0.2900763358778626,-0.2595419847328244,-0.5801526717557252,-0.462158203125,0.001220703125,-0.123046875,1.581
0.6412213740458015,-0.33587786259541985,-0.6870229007633588,-0.46337890625,0.00146484375,-0.127197265625,1.5827
1.3129770992366412,-0.33587786259541985,-0.2900763358778626,-0.464111328125,0.004638671875,-0.118896484375,1.5843999999999998
1.8015267175572518,-0.10687022900763359,0.015267175572519083,-0.46484375,0.003173828125,-0.1220703125,1.5860999999999998
2.0,-0.21374045801526717,0.24427480916030533,-0.4638671875,0.001708984375,-0.115234375,1.5877999999999999
2.9770992366412212,-0.4122137404580153,0.5648854961832062,-0.46826171875,0.006103515625,-0.1142578125,1.5895
3.572519083969466,-0.44274809160305345,0.732824427480916,-0.461181640625,0.00390625,-0.1240234375,1.5912
3.877862595419847,-0.44274809160305345,0.6106870229007634,-0.461669921875,0.000732421875,-0.11865234375,1.5929
4.351145038167939,-0.6564885496183206,0.7480916030534351,-0.46337890625,0.00537109375,-0.1279296875,1.5946
4.778625954198473,-0.5801526717557252,0.8396946564885496,-0.463134765625,0.005615234375,-0.12255859375,1.5962999999999998
4.900763358778626,-0.6259541984732825,1.3129770992366412,-0.462158203125,0.00830078125,-0.130859375,1.5979999999999999
5.374045801526718,-0.9007633587786259,1.2061068702290076,-0.462646484375,0.00830078125,-0.129150390625,1.5997
5.4961832061068705,-0.9618320610687023,1.2671755725190839,-0.46142578125,0.006591796875,-0.12548828125,1.6014
5.419847328244275,-1.1145038167938932,1.1297709923664123,-0.4658203125,0.006591796875,-0.126220703125,1.6031
5.786259541984733,-1.3893129770992367,1.1450381679389312,-0.45947265625,0.00146484375,-0.1259765625,1.6048
5.694656488549619,-1.465648854961832,1.1603053435114503,-0.465576171875,0.004150390625,-0.128173828125,1.6064999999999998
5.465648854961832,-1.297709923664122,1.1755725190839694,-0.464111328125,-0.00146484375,-0.123046875,1.6081999999999999
5.282442748091603,-1.1297709923664123,1.0076335877862594,-0.469482421875,0.001953125,-0.134765625,1.6098999999999999
5.312977099236641,-1.2671755725190839,0.9465648854961832,-0.466552734375,-0.00537109375,-0.13720703125,1.6116
5.374045801526718,-0.9007633587786259,0.5648854961832062,-0.46728515625,-0.00830078125,-0.139404296875,1.6133
5.206106870229007,-0.9007633587786259,0.6259541984732825,-0.460693359375,-0.00439453125,-0.136962890625,1.615
4.961832061068702,-0.5801526717557252,0.13740458015267176,-0.466064453125,-0.005859375,-0.140380859375,1.6166999999999998
4.793893129770993,-0.2595419847328244,0.10687022900763359,-0.46533203125,-0.00634765625,-0.141845703125,1.6183999999999998
5.038167938931298,0.0916030534351145,-0.16793893129770993,-0.464599609375,-0.004638671875,-0.12841796875,1.6200999999999999
5.251908396946565,0.13740458015267176,-0.33587786259541985,-0.46728515625,-0.008056640625,-0.1328125,1.6218
4.854961832061068,0.32061068702290074,-0.5954198473282443,-0.468994140625,-0.01318359375,-0.131591796875,1.6235
4.8396946564885495,0.5801526717557252,-0.732824427480916,-0.46923828125,-0.010986328125,-0.13525390625,1.6252
4.885496183206107,0.5801526717557252,-1.0076335877862594,-0.463623046875,-0.00634765625,-0.138427734375,1.6269
4.870229007633588,0.5801526717557252,-1.2366412213740459,-0.460693359375,-0.014404296875,-0.133544921875,1.6285999999999998
4.687022900763359,0.7175572519083969,-1.6488549618320612,-0.46875,-0.015869140625,-0.14794921875,1.6302999999999999
4.488549618320611,0.7938931297709924,-1.8931297709923665,-0.46484375,-0.010498046875,-0.13916015625,1.632
4.198473282442748,1.0076335877862594,-2.030534351145038,-0.4716796875,-0.02294921875,-0.128662109375,1.6337
3.7251908396946565,0.7022900763358778,-2.1526717557251906,-0.46923828125,-0.024658203125,-0.13525390625,1.6354
3.480916030534351,1.0229007633587786,-2.6717557251908395,-0.47216796875,-0.0244140625,-0.138916015625,1.6371
3.2519083969465647,0.9770992366412213,-2.6259541984732824,-0.473876953125,-0.024658203125,-0.139892578125,1.6387999999999998
2.763358778625954,1.083969465648855,-2.9618320610687023,-0.477783203125,-0.02001953125,-0.134765625,1.6404999999999998
2.50381679389313,1.1908396946564885,-3.435114503816794,-0.47021484375,-0.026123046875,-0.14794921875,1.6421999999999999
2.0763358778625953,1.2366412213740459,-3.2213740458015265,-0.468017578125,-0.01953125,-0.13720703125,1.6439
1.7251908396946565,1.5725190839694656,-3.3740458015267176,-0.470703125,-0.0224609375,-0.13671875,1.6456
1.6793893129770991,1.7557251908396947,-3.435114503816794,-0.472412109375,-0.021484375,-0.142333984375,1.6473
1.3129770992366412,1.816793893129771,-3.3435114503816794,-0.470703125,-0.02734375,-0.13818359375,1.6489999999999998
1.282442748091603,2.015267175572519,-3.7099236641221376,-0.4736328125,-0.026611328125,-0.1435546875,1.6506999999999998
1.1755725190839694,2.213740458015267,-3.3587786259541983,-0.47216796875,-0.02685546875,-0.13720703125,1.6523999999999999
1.2061068702290076,2.3053435114503817,-3.6030534351145036,-0.469970703125,-0.02685546875,-0.137939453125,1.6541
1.0076335877862594,2.732824427480916,-3.4656488549618323,-0.470947265625,-0.02783203125,-0.129150390625,1.6558
1.251908396946565,2.6564885496183206,-3.5572519083969465,-0.469970703125,-0.020263671875,-0.126708984375,1.6575
0.8549618320610687,2.900763358778626,-3.267175572519084,-0.470458984375,-0.02880859375,-0.128662109375,1.6592
0.7022900763358778,2.7938931297709924,-3.4198473282442747,-0.473388671875,-0.02099609375,-0.1357421875,1.6608999999999998
1.0534351145038168,2.9923664122137406,-3.3435114503816794,-0.472412109375,-0.02197265625,-0.138916015625,1.6625999999999999
0.9923664122137404,2.946564885496183,-3.1297709923664123,-0.4697265625,-0.01904296875,-0.13037109375,1.6643
0.7175572519083969,2.931297709923664,-2.885496183206107,-0.471435546875,-0.020263671875,-0.13720703125,1.666
0.48854961832061067,2.946564885496183,-2.8702290076335877,-0.463623046875,-0.0185546875,-0.1328125,1.6677
0.5648854961832062,2.900763358778626,-2.8091603053435112,-0.467529296875,-0.01806640625,-0.13037109375,1.6694
0.42748091603053434,2.9923664122137406,-2.6412213740458017,-0.464599609375,-0.013916015625,-0.12939453125,1.6710999999999998
0.2748091603053435,2.8396946564885495,-2.2748091603053435,-0.466064453125,-0.009033203125,-0.137939453125,1.6727999999999998
0.0916030534351145,2.732824427480916,-2.2595419847328246,-0.468505859375,-0.01318359375,-0.132080078125,1.6744999999999999
-0.030534351145038167,2.50381679389313,-2.045801526717557,-0.463623046875,-0.01025390625,-0.136474609375,1.6762
-0.2748091603053435,2.366412213740458,-2.0763358778625953,-0.4638671875,-0.012451171875,-0.135009765625,1.6779
-0.2900763358778626,1.9541984732824427,-1.6946564885496183,-0.4677734375,-0.014892578125,-0.132080078125,1.6796
-0.6564885496183206,1.8931297709923665,-1.6030534351145038,-0.46630859375,-0.0087890625,-0.12646484375,1.6813
-0.7633587786259542,1.6946564885496183,-1.2366412213740459,-0.46240234375,-0.0087890625,-0.133056640625,1.6829999999999998
-0.8244274809160306,1.5725190839694656,-1.099236641221374,-0.46484375,-0.011474609375,-0.12744140625,1.6846999999999999
-0.9618320610687023,1.2671755725190839,-0.9007633587786259,-0.4580078125,-0.005615234375,-0.13037109375,1.6864
-1.0381679389312977,1.1603053435114503,-0.5343511450381679,-0.462158203125,-0.005859375,-0.130615234375,1.6881
-0.9465648854961832,0.7938931297709924,-0.8702290076335878,-0.463134765625,-0.0068359375,-0.125244140625,1.6898
-0.7633587786259542,0.7938931297709924,-0.9923664122137404,-0.465087890625,-0.00390625,-0.129638671875,1.6915
-0.7022900763358778,0.7480916030534351,-0.732824427480916,-0.4619140625,-0.0029296875,-0.1298828125,1.6931999999999998
-0.6564885496183206,0.6106870229007634,-0.8091603053435115,-0.4658203125,-0.001953125,-0.13232421875,1.6948999999999999
-0.48854961832061067,0.5954198473282443,-0.8702290076335878,-0.462158203125,-0.005859375,-0.133544921875,1.6965999999999999
-0.366412213740458,0.5648854961832062,-0.6106870229007634,-0.461181640625,-0.00341796875,-0.12451171875,1.6983
-0.1984732824427481,0.3511450381679389,-0.7175572519083969,-0.464111328125,-0.004638671875,-0.121337890625,1.7
0.10687022900763359,0.5038167938931297,-0.8702290076335878,-0.467529296875,-0.00146484375,-0.127197265625,1.7017
0.3816793893129771,0.48854961832061067,-0.9312977099236641,-0.4609375,0.000732421875,-0.12353515625,1.7033999999999998
0.7175572519083969,0.16793893129770993,-0.8702290076335878,-0.459228515625,0.003173828125,-0.134521484375,1.7050999999999998
1.1297709923664123,0.5648854961832062,-0.9770992366412213,-0.46240234375,0.00146484375,-0.124267578125,1.7067999999999999
1.618320610687023,0.3969465648854962,-1.083969465648855,-0.4638671875,-0.00048828125,-0.125732421875,1.7085
1.8778625954198473,0.5648854961832062,-1.3435114503816794,-0.461181640625,0.0009765625,-0.12255859375,1.7102
2.198473282442748,0.732824427480916,-1.3893129770992367,-0.46533203125,0.0009765625,-0.1298828125,1.7119
2.717557251908397,0.6870229007633588,-1.5572519083969465,-0.462158203125,0.00048828125,-0.13330078125,1.7136
3.267175572519084,0.8854961832061069,-1.618320610687023,-0.466064453125,-0.009765625,-0.12158203125,1.7152999999999998
3.2977099236641223,1.0076335877862594,-1.5267175572519085,-0.465087890625,-0.0009765625,-0.1259765625,1.7169999999999999
3.618320610687023,1.0534351145038168,-1.6793893129770991,-0.466552734375,-0.006591796875,-0.133056640625,1.7187
3.969465648854962,0.9770992366412213,-1.7709923664122138,-0.462646484375,-0.004638671875,-0.11865234375,1.7204
3.8473282442748094,1.0229007633587786,-1.5877862595419847,-0.466064453125,-0.00341796875,-0.123779296875,1.7221
3.7404580152671754,1.2671755725190839,-1.6030534351145038,-0.466064453125,-0.005859375,-0.12890625,1.7238
3.83206106870229,1.0534351145038168,-1.83206106870229,-0.466552734375,-0.008056640625,-0.1240234375,1.7254999999999998
3.66412213740458,0.9770992366412213,-2.0916030534351147,-0.465576171875,-0.00634765625,-0.13134765625,1.7271999999999998
3.480916030534351,1.1450381679389312,-2.122137404580153,-0.465087890625,-0.00830078125,-0.138916015625,1.7288999999999999
3.099236641221374,1.1755725190839694,-2.2595419847328246,-0.468505859375,-0.01513671875,-0.13623046875,1.7306
2.687022900763359,1.4351145038167938,-2.3206106870229006,-0.46435546875,-0.01611328125,-0.13525390625,1.7323
2.2442748091603053,1.3893129770992367,-2.5801526717557253,-0.468505859375,-0.012939453125,-0.14013671875,1.734
1.8473282442748091,1.4198473282442747,-2.7938931297709924,-0.463623046875,-0.01611328125,-0.137451171875,1.7356999999999998
1.4809160305343512,1.3893129770992367,-2.900763358778626,-0.46826171875,-0.014892578125,-0.12890625,1.7373999999999998
1.0534351145038168,1.3435114503816794,-2.8396946564885495,-0.466796875,-0.013671875,-0.13525390625,1.7390999999999999
0.7786259541984732,1.5419847328244274,-3.1297709923664123,-0.46826171875,-0.014892578125,-0.13720703125,1.7408
0.5343511450381679,1.5267175572519085,-2.854961832061069,-0.46630859375,-0.013671875,-0.12890625,1.7425
0.16793893129770993,1.3587786259541985,-3.099236641221374,-0.46826171875,-0.020263671875,-0.13671875,1.7442
0.1984732824427481,1.251908396946565,-3.3435114503816794,-0.46630859375,-0.01611328125,-0.140380859375,1.7459
-0.015267175572519083,1.2061068702290076,-3.3435114503816794,-0.46875,-0.020751953125,-0.134521484375,1.7475999999999998
-0.366412213740458,1.2366412213740459,-3.1603053435114505,-0.470703125,-0.0205078125,-0.130859375,1.7492999999999999
-0.2748091603053435,1.251908396946565,-3.2977099236641223,-0.47021484375,-0.0234375,-0.133056640625,1.751
-0.04580152671755725,1.1603053435114503,-3.282442748091603,-0.46826171875,-0.020263671875,-0.140625,1.7527
-0.24427480916030533,1.1603053435114503,-3.1908396946564888,-0.470703125,-0.020751953125,-0.146240234375,1.7544
-0.3053435114503817,1.3893129770992367,-3.3435114503816794,-0.47021484375,-0.015625,-0.138671875,1.7561
-0.030534351145038167,1.4198473282442747,-3.2061068702290076,-0.470458984375,-0.017333984375,-0.13671875,1.7577999999999998
-0.183206106870229,1.5572519083969465,-3.2213740458015265,-0.468505859375,-0.019775390625,-0.137451171875,1.7594999999999998
0.22900763358778625,1.297709923664122,-3.1755725190839694,-0.468505859375,-0.019775390625,-0.1318359375,1.7611999999999999
0.13740458015267176,1.3893129770992367,-3.1603053435114505,-0.4638671875,-0.017822265625,-0.130615234375,1.7629
-0.13740458015267176,1.4961832061068703,-3.236641221374046,-0.463623046875,-0.01953125,-0.134521484375,1.7646
-0.07633587786259542,1.4045801526717556,-3.1603053435114505,-0.46826171875,-0.0146484375,-0.1396484375,1.7663
-0.16793893129770993,1.3435114503816794,-2.946564885496183,-0.46484375,-0.010986328125,-0.1376953125,1.7679999999999998
-0.3053435114503817,1.5267175572519085,-2.732824427480916,-0.469970703125,-0.014404296875,-0.13232421875,1.7696999999999998
-0.48854961832061067,1.3282442748091603,-2.717557251908397,-0.47216796875,-0.017578125,-0.136962890625,1.7713999999999999
-0.7175572519083969,1.2671755725190839,-2.366412213740458,-0.464111328125,-0.010986328125,-0.13623046875,1.7731
-1.282442748091603,1.0534351145038168,-2.2748091603053435,-0.466796875,-0.009521484375,-0.139404296875,1.7748
-1.6793893129770991,1.1450381679389312,-2.015267175572519,-0.468505859375,-0.0107421875,-0.12060546875,1.7765
-1.6946564885496183,1.3282442748091603,-2.0,-0.463623046875,-0.01025390625,-0.12939453125,1.7782
-2.122137404580153,1.2366412213740459,-1.9083969465648856,-0.4658203125,-0.011474609375,-0.132080078125,1.7798999999999998
-2.595419847328244,1.1450381679389312,-1.786259541984733,-0.45947265625,-0.006591796875,-0.129638671875,1.7815999999999999
-2.3969465648854964,1.1755725190839694,-1.6793893129770991,-0.465576171875,-0.01416015625,-0.13037109375,1.7832999999999999
-2.6564885496183206,1.2366412213740459,-1.8778625954198473,-0.46142578125,-0.0126953125,-0.128662109375,1.785
-2.519083969465649,1.1908396946564885,-1.7709923664122138,-0.464111328125,-0.013671875,-0.121826171875,1.7867
-2.763358778625954,1.0534351145038168,-1.633587786259542,-0.464599609375,-0.00830078125,-0.118408203125,1.7884
