gyrox1,gyroy1,gyroz1,accelx1,accely1,accelz1,Time
2.198473282442748,0.916030534351145,-0.42748091603053434,-0.071533203125,-0.089111328125,-0.5947265625,0.0
2.427480916030534,0.9770992366412213,-0.3816793893129771,-0.07177734375,-0.090576171875,-0.596435546875,0.0017
2.50381679389313,0.9923664122137404,-0.2900763358778626,-0.074951171875,-0.090087890625,-0.591552734375,0.0034
2.3053435114503817,1.0534351145038168,-0.4732824427480916,-0.076904296875,-0.09130859375,-0.595458984375,0.0050999999999999995
2.4427480916030535,1.1297709923664123,-0.4580152671755725,-0.076904296875,-0.087890625,-0.597412109375,0.0068
2.351145038167939,1.1908396946564885,-0.44274809160305345,-0.077392578125,-0.087890625,-0.59619140625,0.008499999999999999
2.2595419847328246,1.1145038167938932,-0.5954198473282443,-0.080322265625,-0.0947265625,-0.5986328125,0.010199999999999999
2.198473282442748,1.282442748091603,-0.3816793893129771,-0.079833984375,-0.09619140625,-0.6005859375,0.011899999999999999
2.122137404580153,1.297709923664122,-0.183206106870229,-0.075927734375,-0.09326171875,-0.59619140625,0.0136
2.3053435114503817,1.3587786259541985,-0.33587786259541985,-0.076416015625,-0.0888671875,-0.59912109375,0.0153
2.1526717557251906,1.251908396946565,-0.32061068702290074,-0.076904296875,-0.09521484375,-0.604248046875,0.016999999999999998
1.816793893129771,1.1297709923664123,-0.4122137404580153,-0.0751953125,-0.092041015625,-0.595703125,0.018699999999999998
1.9236641221374047,1.1755725190839694,-0.2900763358778626,-0.078857421875,-0.093994140625,-0.599365234375,0.020399999999999998
2.0,1.1603053435114503,-0.3969465648854962,-0.080078125,-0.09423828125,-0.595703125,0.022099999999999998
1.7709923664122138,1.0534351145038168,-0.44274809160305345,-0.075439453125,-0.096435546875,-0.599853515625,0.023799999999999998
1.7251908396946565,1.0229007633587786,-0.32061068702290074,-0.07568359375,-0.10205078125,-0.5966796875,0.0255
1.6641221374045803,0.8549618320610687,-0.3511450381679389,-0.0791015625,-0.104736328125,-0.59326171875,0.0272
1.8015267175572518,0.9007633587786259,-0.5954198473282443,-0.0791015625,-0.09326171875,-0.59912109375,0.0289
2.0763358778625953,0.8091603053435115,-0.5038167938931297,-0.077392578125,-0.094970703125,-0.602783203125,0.0306
1.7557251908396947,0.9312977099236641,-0.8244274809160306,-0.078125,-0.099853515625,-0.5947265625,0.032299999999999995
1.7709923664122138,1.0076335877862594,-0.7633587786259542,-0.074462890625,-0.09716796875,-0.59814453125,0.033999999999999996
1.9694656488549618,0.8396946564885496,-0.7633587786259542,-0.076416015625,-0.097900390625,-0.596435546875,0.035699999999999996
2.1068702290076335,0.8396946564885496,-0.6870229007633588,-0.0732421875,-0.09716796875,-0.601318359375,0.037399999999999996
1.8015267175572518,0.9007633587786259,-0.8702290076335878,-0.076416015625,-0.100341796875,-0.59765625,0.039099999999999996
1.7709923664122138,0.7480916030534351,-1.0381679389312977,-0.07763671875,-0.096923828125,-0.600830078125,0.040799999999999996
1.6946564885496183,0.6717557251908397,-0.8396946564885496,-0.07958984375,-0.098876953125,-0.597900390625,0.042499999999999996
1.7404580152671756,0.6259541984732825,-0.7633587786259542,-0.078857421875,-0.101318359375,-0.593505859375,0.044199999999999996
1.5877862595419847,0.549618320610687,-1.0687022900763359,-0.073486328125,-0.1015625,-0.59521484375,0.045899999999999996
1.450381679389313,0.6564885496183206,-1.1145038167938932,-0.07568359375,-0.098876953125,-0.592529296875,0.047599999999999996
1.2671755725190839,0.8244274809160306,-0.7786259541984732,-0.079345703125,-0.1015625,-0.59375,0.0493
1.282442748091603,0.8396946564885496,-1.0229007633587786,-0.07861328125,-0.0966796875,-0.590087890625,0.051
1.4045801526717556,0.9465648854961832,-1.251908396946565,-0.079833984375,-0.10107421875,-0.588623046875,0.0527
1.4351145038167938,0.9007633587786259,-0.9770992366412213,-0.072265625,-0.10009765625,-0.592529296875,0.0544
1.0381679389312977,0.916030534351145,-1.0229007633587786,-0.076904296875,-0.098876953125,-0.600830078125,0.0561
0.6564885496183206,0.7480916030534351,-1.0534351145038168,-0.076416015625,-0.0986328125,-0.598388671875,0.0578
0.6717557251908397,0.7786259541984732,-0.9465648854961832,-0.0791015625,-0.09765625,-0.602783203125,0.0595
0.5038167938931297,0.8396946564885496,-0.8549618320610687,-0.0771484375,-0.095947265625,-0.60107421875,0.0612
0.32061068702290074,0.8244274809160306,-0.8091603053435115,-0.0751953125,-0.093505859375,-0.5947265625,0.0629
0.2748091603053435,0.7175572519083969,-0.9312977099236641,-0.0771484375,-0.091552734375,-0.595703125,0.06459999999999999
0.366412213740458,0.7022900763358778,-0.7938931297709924,-0.074462890625,-0.0908203125,-0.592041015625,0.0663
0.2748091603053435,0.732824427480916,-1.083969465648855,-0.0732421875,-0.0908203125,-0.604736328125,0.06799999999999999
0.2748091603053435,0.6717557251908397,-0.9465648854961832,-0.07421875,-0.095703125,-0.60595703125,0.0697
0.6259541984732825,0.6412213740458015,-0.8549618320610687,-0.07470703125,-0.08837890625,-0.58984375,0.07139999999999999
0.7938931297709924,0.6717557251908397,-0.916030534351145,-0.07421875,-0.095947265625,-0.6005859375,0.0731
0.8091603053435115,0.6259541984732825,-1.0229007633587786,-0.075439453125,-0.091552734375,-0.597412109375,0.07479999999999999
1.1603053435114503,0.5343511450381679,-1.1145038167938932,-0.080322265625,-0.08837890625,-0.599853515625,0.0765
1.251908396946565,0.5190839694656488,-1.2366412213740459,-0.0751953125,-0.09033203125,-0.59423828125,0.07819999999999999
1.5572519083969465,0.48854961832061067,-0.9465648854961832,-0.0712890625,-0.087890625,-0.59716796875,0.0799
1.6030534351145038,0.6564885496183206,-1.1908396946564885,-0.07568359375,-0.088623046875,-0.60205078125,0.08159999999999999
1.4961832061068703,0.5190839694656488,-1.3282442748091603,-0.075439453125,-0.0888671875,-0.5927734375,0.0833
1.786259541984733,0.42748091603053434,-1.3893129770992367,-0.07275390625,-0.08837890625,-0.59716796875,0.08499999999999999
1.984732824427481,0.6412213740458015,-1.099236641221374,-0.074951171875,-0.089111328125,-0.6015625,0.0867
1.9236641221374047,0.48854961832061067,-1.4351145038167938,-0.077392578125,-0.094482421875,-0.603271484375,0.08839999999999999
1.984732824427481,0.44274809160305345,-1.297709923664122,-0.079345703125,-0.088134765625,-0.599609375,0.0901
2.015267175572519,0.4580152671755725,-1.282442748091603,-0.0791015625,-0.0888671875,-0.602783203125,0.09179999999999999
2.0763358778625953,0.6106870229007634,-1.0229007633587786,-0.077392578125,-0.08837890625,-0.600341796875,0.0935
1.9389312977099236,0.3816793893129771,-1.282442748091603,-0.07666015625,-0.08935546875,-0.603515625,0.09519999999999999
2.122137404580153,0.4732824427480916,-1.2671755725190839,-0.07666015625,-0.095947265625,-0.596923828125,0.0969
2.0763358778625953,0.6106870229007634,-1.3893129770992367,-0.07763671875,-0.094482421875,-0.6015625,0.0986
2.0916030534351147,0.4732824427480916,-1.0534351145038168,-0.07421875,-0.08984375,-0.605224609375,0.1003
2.1068702290076335,0.5801526717557252,-1.1297709923664123,-0.080322265625,-0.09130859375,-0.5986328125,0.102
2.3053435114503817,0.48854961832061067,-1.1755725190839694,-0.0771484375,-0.08935546875,-0.59912109375,0.1037
1.9541984732824427,0.3969465648854962,-1.465648854961832,-0.076171875,-0.095703125,-0.60205078125,0.1054
2.015267175572519,0.5648854961832062,-1.2061068702290076,-0.08251953125,-0.09423828125,-0.60205078125,0.1071
2.015267175572519,0.44274809160305345,-1.3740458015267176,-0.078857421875,-0.09423828125,-0.598388671875,0.1088
2.0763358778625953,0.3511450381679389,-1.2366412213740459,-0.0771484375,-0.0888671875,-0.593017578125,0.11049999999999999
2.0916030534351147,0.44274809160305345,-1.3893129770992367,-0.081787109375,-0.096435546875,-0.596923828125,0.1122
1.8931297709923665,0.33587786259541985,-1.2671755725190839,-0.07763671875,-0.09716796875,-0.596923828125,0.11389999999999999
1.9694656488549618,0.549618320610687,-1.2061068702290076,-0.07568359375,-0.10009765625,-0.598388671875,0.1156
1.8778625954198473,0.6564885496183206,-1.251908396946565,-0.08056640625,-0.093994140625,-0.60205078125,0.11729999999999999
1.816793893129771,0.42748091603053434,-1.251908396946565,-0.072998046875,-0.09619140625,-0.59912109375,0.119
1.6946564885496183,0.5343511450381679,-1.1755725190839694,-0.078857421875,-0.094482421875,-0.59423828125,0.12069999999999999
1.786259541984733,0.3816793893129771,-1.282442748091603,-0.077880859375,-0.093505859375,-0.59521484375,0.1224
1.618320610687023,0.5190839694656488,-1.3129770992366412,-0.0771484375,-0.09130859375,-0.5947265625,0.12409999999999999
1.4809160305343512,0.7786259541984732,-1.282442748091603,-0.07470703125,-0.093505859375,-0.59033203125,0.1258
1.4961832061068703,0.6870229007633588,-1.3587786259541985,-0.082275390625,-0.09619140625,-0.599853515625,0.1275
1.7709923664122138,0.8396946564885496,-1.4809160305343512,-0.079833984375,-0.095703125,-0.59814453125,0.12919999999999998
1.7709923664122138,0.7786259541984732,-1.1755725190839694,-0.08056640625,-0.0966796875,-0.599609375,0.1309
1.5419847328244274,0.9770992366412213,-1.282442748091603,-0.081787109375,-0.095947265625,-0.599365234375,0.1326
1.2671755725190839,0.916030534351145,-1.1908396946564885,-0.081787109375,-0.09228515625,-0.601318359375,0.1343
1.282442748091603,0.8396946564885496,-1.465648854961832,-0.082763671875,-0.09326171875,-0.60498046875,0.13599999999999998
1.282442748091603,1.0534351145038168,-1.251908396946565,-0.079833984375,-0.093994140625,-0.597412109375,0.1377
0.8549618320610687,0.9007633587786259,-1.297709923664122,-0.078369140625,-0.094970703125,-0.603271484375,0.1394
0.9923664122137404,0.9312977099236641,-1.099236641221374,-0.077880859375,-0.093017578125,-0.603271484375,0.1411
0.6106870229007634,1.1145038167938932,-1.0687022900763359,-0.07470703125,-0.09716796875,-0.594482421875,0.14279999999999998
0.6870229007633588,0.9312977099236641,-1.1145038167938932,-0.080078125,-0.093505859375,-0.601806640625,0.1445
0.5190839694656488,0.9923664122137404,-1.3740458015267176,-0.07958984375,-0.095947265625,-0.597412109375,0.1462
0.4580152671755725,0.9923664122137404,-1.0534351145038168,-0.07861328125,-0.093017578125,-0.60400390625,0.1479
0.3969465648854962,1.0534351145038168,-1.2061068702290076,-0.080078125,-0.0947265625,-0.594482421875,0.14959999999999998
0.32061068702290074,1.0534351145038168,-1.2061068702290076,-0.074951171875,-0.094482421875,-0.596435546875,0.1513
0.5954198473282443,1.2061068702290076,-1.2366412213740459,-0.07666015625,-0.08984375,-0.5927734375,0.153
0.5038167938931297,1.1755725190839694,-1.1755725190839694,-0.07861328125,-0.08984375,-0.593994140625,0.1547
0.48854961832061067,1.1450381679389312,-1.3587786259541985,-0.075927734375,-0.09033203125,-0.598388671875,0.15639999999999998
0.12213740458015267,0.9465648854961832,-1.1755725190839694,-0.077392578125,-0.08740234375,-0.595703125,0.1581
0.15267175572519084,1.2213740458015268,-1.3282442748091603,-0.08056640625,-0.087646484375,-0.605224609375,0.1598
0.3816793893129771,0.9923664122137404,-1.2366412213740459,-0.07666015625,-0.0908203125,-0.598876953125,0.1615
0.32061068702290074,1.083969465648855,-1.3893129770992367,-0.080322265625,-0.097900390625,-0.595947265625,0.16319999999999998
0.3511450381679389,1.0534351145038168,-1.3435114503816794,-0.079833984375,-0.090087890625,-0.59912109375,0.1649
0.6412213740458015,1.1297709923664123,-1.6488549618320612,-0.08203125,-0.088134765625,-0.598388671875,0.1666
0.7633587786259542,0.8702290076335878,-1.450381679389313,-0.079833984375,-0.0908203125,-0.590576171875,0.16829999999999998
0.4732824427480916,1.0687022900763359,-1.4351145038167938,-0.076416015625,-0.0927734375,-0.590576171875,0.16999999999999998
0.6564885496183206,0.9618320610687023,-1.4198473282442747,-0.080322265625,-0.08935546875,-0.601318359375,0.1717
0.7633587786259542,0.9465648854961832,-1.4809160305343512,-0.076904296875,-0.091064453125,-0.597900390625,0.1734
0.916030534351145,0.9770992366412213,-1.4351145038167938,-0.081787109375,-0.089111328125,-0.596923828125,0.17509999999999998
1.099236641221374,0.8244274809160306,-1.5877862595419847,-0.07861328125,-0.087646484375,-0.59912109375,0.17679999999999998
0.8702290076335878,1.1297709923664123,-1.4045801526717556,-0.078125,-0.0927734375,-0.60107421875,0.1785
1.1145038167938932,0.9465648854961832,-1.4809160305343512,-0.075927734375,-0.088623046875,-0.605224609375,0.1802
1.2061068702290076,1.099236641221374,-1.5419847328244274,-0.07373046875,-0.0888671875,-0.60107421875,0.18189999999999998
1.0076335877862594,1.2671755725190839,-1.4961832061068703,-0.08203125,-0.089599609375,-0.602783203125,0.18359999999999999
1.083969465648855,1.297709923664122,-1.5419847328244274,-0.0771484375,-0.0908203125,-0.611328125,0.1853
1.1145038167938932,1.251908396946565,-1.5572519083969465,-0.0771484375,-0.090087890625,-0.60791015625,0.187
1.0687022900763359,1.3282442748091603,-1.465648854961832,-0.07958984375,-0.09130859375,-0.60205078125,0.18869999999999998
1.1755725190839694,1.3282442748091603,-1.618320610687023,-0.08642578125,-0.094970703125,-0.601806640625,0.19039999999999999
1.2061068702290076,1.2366412213740459,-1.4198473282442747,-0.077392578125,-0.094970703125,-0.591552734375,0.1921
1.0229007633587786,1.2366412213740459,-1.3435114503816794,-0.079345703125,-0.0927734375,-0.59521484375,0.1938
0.8549618320610687,1.1450381679389312,-1.3435114503816794,-0.08837890625,-0.093994140625,-0.604248046875,0.19549999999999998
0.916030534351145,1.450381679389313,-1.4198473282442747,-0.084228515625,-0.0849609375,-0.60009765625,0.1972
0.8702290076335878,1.6488549618320612,-1.2061068702290076,-0.075439453125,-0.090576171875,-0.6025390625,0.1989
1.0076335877862594,1.5419847328244274,-1.3282442748091603,-0.078369140625,-0.093505859375,-0.6015625,0.2006
0.9618320610687023,1.5725190839694656,-1.1450381679389312,-0.080322265625,-0.09765625,-0.601318359375,0.20229999999999998
0.8244274809160306,1.618320610687023,-1.099236641221374,-0.0751953125,-0.092529296875,-0.60205078125,0.204
0.7480916030534351,1.5267175572519085,-0.9923664122137404,-0.080322265625,-0.0966796875,-0.592041015625,0.2057
0.9770992366412213,1.5419847328244274,-1.083969465648855,-0.079833984375,-0.09033203125,-0.601318359375,0.2074
0.9312977099236641,1.4045801526717556,-0.7633587786259542,-0.07666015625,-0.096435546875,-0.595458984375,0.20909999999999998
1.0381679389312977,1.5267175572519085,-0.8702290076335878,-0.0771484375,-0.09619140625,-0.597900390625,0.2108
1.2366412213740459,1.465648854961832,-0.9770992366412213,-0.076904296875,-0.093505859375,-0.599853515625,0.2125
0.9770992366412213,1.465648854961832,-0.9618320610687023,-0.075439453125,-0.09375,-0.6005859375,0.2142
0.916030534351145,1.4198473282442747,-0.8244274809160306,-0.078857421875,-0.095458984375,-0.596435546875,0.21589999999999998
1.099236641221374,1.5725190839694656,-0.8091603053435115,-0.07666015625,-0.094970703125,-0.597900390625,0.2176
0.7786259541984732,1.7404580152671756,-0.7633587786259542,-0.076904296875,-0.099365234375,-0.6005859375,0.2193
0.916030534351145,1.4198473282442747,-0.7633587786259542,-0.077880859375,-0.092041015625,-0.605712890625,0.22099999999999997
0.9312977099236641,1.4961832061068703,-0.5954198473282443,-0.077880859375,-0.094482421875,-0.599609375,0.22269999999999998
0.7786259541984732,1.6946564885496183,-0.6564885496183206,-0.08203125,-0.099365234375,-0.6025390625,0.2244
0.6564885496183206,1.7404580152671756,-0.6412213740458015,-0.0791015625,-0.100830078125,-0.602783203125,0.2261
0.6259541984732825,1.9541984732824427,-0.5954198473282443,-0.079345703125,-0.09716796875,-0.603759765625,0.22779999999999997
0.5954198473282443,1.9083969465648856,-0.44274809160305345,-0.078369140625,-0.096435546875,-0.60595703125,0.22949999999999998
0.3053435114503817,1.8778625954198473,-0.5648854961832062,-0.078125,-0.093994140625,-0.60009765625,0.2312
0.21374045801526717,1.8931297709923665,-0.366412213740458,-0.08251953125,-0.09521484375,-0.603271484375,0.2329
0.3053435114503817,1.9389312977099236,-0.3053435114503817,-0.078369140625,-0.090576171875,-0.600341796875,0.23459999999999998
-0.061068702290076333,2.015267175572519,-0.42748091603053434,-0.087158203125,-0.090576171875,-0.596923828125,0.23629999999999998
-0.13740458015267176,2.1526717557251906,-0.44274809160305345,-0.08154296875,-0.093017578125,-0.6005859375,0.238
-0.3053435114503817,1.984732824427481,-0.2748091603053435,-0.082763671875,-0.0908203125,-0.594970703125,0.2397
-0.0916030534351145,1.9694656488549618,-0.3511450381679389,-0.076904296875,-0.09130859375,-0.604248046875,0.24139999999999998
-0.2900763358778626,2.045801526717557,-0.366412213740458,-0.071533203125,-0.08984375,-0.604736328125,0.24309999999999998
-0.3816793893129771,1.984732824427481,-0.5038167938931297,-0.07470703125,-0.08447265625,-0.607177734375,0.2448
-0.3816793893129771,2.0,-0.3816793893129771,-0.08056640625,-0.08837890625,-0.612060546875,0.2465
-0.44274809160305345,2.030534351145038,-0.6412213740458015,-0.078857421875,-0.088134765625,-0.60302734375,0.24819999999999998
-0.21374045801526717,1.8778625954198473,-0.48854961832061067,-0.076416015625,-0.0869140625,-0.6015625,0.24989999999999998
-0.3053435114503817,1.9541984732824427,-0.22900763358778625,-0.080078125,-0.092041015625,-0.597900390625,0.2516
-0.15267175572519084,2.0916030534351147,-0.3816793893129771,-0.08349609375,-0.083740234375,-0.601806640625,0.25329999999999997
0.04580152671755725,1.9694656488549618,-0.366412213740458,-0.0810546875,-0.084228515625,-0.605712890625,0.255
-0.015267175572519083,1.6793893129770991,-0.2748091603053435,-0.077880859375,-0.088134765625,-0.6005859375,0.2567
0.07633587786259542,1.8778625954198473,-0.33587786259541985,-0.07861328125,-0.09033203125,-0.594482421875,0.25839999999999996
0.366412213740458,1.7404580152671756,-0.48854961832061067,-0.080078125,-0.086669921875,-0.591552734375,0.2601
0.44274809160305345,1.7557251908396947,-0.5954198473282443,-0.078369140625,-0.0927734375,-0.60498046875,0.2618
0.5038167938931297,1.5572519083969465,-0.3511450381679389,-0.07958984375,-0.085205078125,-0.597412109375,0.2635
0.6717557251908397,1.6488549618320612,-0.44274809160305345,-0.07568359375,-0.087646484375,-0.60107421875,0.2652
0.7938931297709924,1.7709923664122138,-0.5038167938931297,-0.07373046875,-0.0927734375,-0.60791015625,0.26689999999999997
1.1450381679389312,1.4961832061068703,-0.3816793893129771,-0.0830078125,-0.09130859375,-0.6005859375,0.2686
0.9465648854961832,1.5572519083969465,-0.4122137404580153,-0.07470703125,-0.091064453125,-0.59619140625,0.2703
1.0687022900763359,1.5419847328244274,-0.5801526717557252,-0.076171875,-0.0869140625,-0.593994140625,0.27199999999999996
0.9312977099236641,1.4198473282442747,-0.4122137404580153,-0.080078125,-0.0927734375,-0.596923828125,0.2737
1.0229007633587786,1.3740458015267176,-0.3053435114503817,-0.0771484375,-0.08984375,-0.59521484375,0.2754
1.1450381679389312,1.5267175572519085,-0.3816793893129771,-0.0810546875,-0.09130859375,-0.595703125,0.27709999999999996
1.0534351145038168,1.633587786259542,-0.21374045801526717,-0.079345703125,-0.09375,-0.596923828125,0.2788
0.7175572519083969,1.465648854961832,-0.33587786259541985,-0.078125,-0.09033203125,-0.596923828125,0.28049999999999997
1.083969465648855,1.6488549618320612,-0.21374045801526717,-0.07568359375,-0.093994140625,-0.599365234375,0.2822
1.099236641221374,1.4809160305343512,-0.2748091603053435,-0.07861328125,-0.094970703125,-0.60009765625,0.2839
0.8244274809160306,1.2671755725190839,-0.1984732824427481,-0.08251953125,-0.094482421875,-0.592529296875,0.28559999999999997
0.6870229007633588,1.3740458015267176,-0.04580152671755725,-0.080322265625,-0.092529296875,-0.599853515625,0.2873
0.7786259541984732,1.251908396946565,-0.2900763358778626,-0.080322265625,-0.09228515625,-0.60009765625,0.289
0.8244274809160306,1.3282442748091603,-0.21374045801526717,-0.076171875,-0.09814453125,-0.592529296875,0.29069999999999996
0.8396946564885496,1.4198473282442747,-0.061068702290076333,-0.0810546875,-0.0966796875,-0.599365234375,0.2924
0.5648854961832062,1.3587786259541985,-0.13740458015267176,-0.082275390625,-0.09423828125,-0.59375,0.2941
0.6259541984732825,1.2366412213740459,-0.10687022900763359,-0.08349609375,-0.0947265625,-0.59423828125,0.2958
0.8244274809160306,1.1450381679389312,-0.13740458015267176,-0.0810546875,-0.0986328125,-0.59765625,0.2975
0.4732824427480916,1.3740458015267176,-0.13740458015267176,-0.084228515625,-0.09912109375,-0.59619140625,0.29919999999999997
0.33587786259541985,1.5267175572519085,-0.2748091603053435,-0.083740234375,-0.098876953125,-0.592041015625,0.3009
0.3969465648854962,1.4809160305343512,-0.13740458015267176,-0.08056640625,-0.093994140625,-0.597900390625,0.3026
0.366412213740458,1.3282442748091603,-0.32061068702290074,-0.0830078125,-0.09521484375,-0.595703125,0.30429999999999996
0.015267175572519083,1.4809160305343512,-0.33587786259541985,-0.080322265625,-0.094482421875,-0.599365234375,0.306
0.030534351145038167,1.5877862595419847,-0.24427480916030533,-0.075927734375,-0.097412109375,-0.6015625,0.3077
-0.015267175572519083,1.5877862595419847,-0.21374045801526717,-0.083251953125,-0.096435546875,-0.597900390625,0.3094
-0.10687022900763359,1.633587786259542,-0.12213740458015267,-0.082763671875,-0.093017578125,-0.602783203125,0.3111
-0.3511450381679389,1.8625954198473282,-0.061068702290076333,-0.077880859375,-0.090576171875,-0.603271484375,0.31279999999999997
-0.6717557251908397,1.6793893129770991,-0.15267175572519084,-0.08154296875,-0.093994140625,-0.586181640625,0.3145
-0.6717557251908397,1.618320610687023,-0.32061068702290074,-0.077880859375,-0.09326171875,-0.599853515625,0.3162
-0.7022900763358778,1.786259541984733,-0.3511450381679389,-0.078857421875,-0.09521484375,-0.59814453125,0.31789999999999996
-0.8702290076335878,1.7099236641221374,-0.16793893129770993,-0.081298828125,-0.09228515625,-0.597900390625,0.3196
-1.0381679389312977,1.7557251908396947,-0.183206106870229,-0.079345703125,-0.093994140625,-0.60107421875,0.3213
-1.0076335877862594,1.6946564885496183,-0.3816793893129771,-0.077392578125,-0.0986328125,-0.60107421875,0.323
-1.1755725190839694,1.4809160305343512,-0.10687022900763359,-0.079833984375,-0.094970703125,-0.60302734375,0.3247
-1.2671755725190839,1.5725190839694656,-0.04580152671755725,-0.080322265625,-0.0927734375,-0.604248046875,0.32639999999999997
-1.3129770992366412,1.5114503816793894,-0.366412213740458,-0.079345703125,-0.0888671875,-0.598876953125,0.3281
-1.297709923664122,1.4351145038167938,-0.183206106870229,-0.08203125,-0.091552734375,-0.5966796875,0.3298
-1.251908396946565,1.4961832061068703,-0.21374045801526717,-0.07568359375,-0.09423828125,-0.594970703125,0.33149999999999996
-1.297709923664122,1.282442748091603,-0.1984732824427481,-0.077392578125,-0.09130859375,-0.602294921875,0.3332
-1.3740458015267176,1.2671755725190839,-0.24427480916030533,-0.071044921875,-0.08740234375,-0.599365234375,0.3349
-1.1297709923664123,1.251908396946565,-0.32061068702290074,-0.0771484375,-0.09130859375,-0.60498046875,0.33659999999999995
-1.282442748091603,1.4351145038167938,-0.33587786259541985,-0.0751953125,-0.093505859375,-0.605712890625,0.3383
-1.1755725190839694,1.083969465648855,-0.3053435114503817,-0.083740234375,-0.0849609375,-0.588134765625,0.33999999999999997
-0.9923664122137404,1.2061068702290076,-0.33587786259541985,-0.0771484375,-0.0888671875,-0.594970703125,0.3417
-1.2671755725190839,1.251908396946565,-0.2900763358778626,-0.078369140625,-0.08349609375,-0.5927734375,0.3434
-1.297709923664122,1.3282442748091603,-0.4580152671755725,-0.074951171875,-0.091796875,-0.602783203125,0.34509999999999996
-1.0229007633587786,1.1603053435114503,-0.183206106870229,-0.08056640625,-0.08984375,-0.606689453125,0.3468
-0.9770992366412213,1.251908396946565,-0.32061068702290074,-0.080810546875,-0.08447265625,-0.59521484375,0.3485
-0.9312977099236641,1.297709923664122,-0.061068702290076333,-0.079833984375,-0.0859375,-0.599365234375,0.35019999999999996
-0.5954198473282443,1.083969465648855,-0.2748091603053435,-0.07763671875,-0.089599609375,-0.59912109375,0.3519
-0.6106870229007634,1.1908396946564885,-0.13740458015267176,-0.0791015625,-0.094970703125,-0.603515625,0.35359999999999997
-0.5648854961832062,1.0534351145038168,-0.04580152671755725,-0.079833984375,-0.08935546875,-0.599609375,0.3553
-0.13740458015267176,0.9465648854961832,-0.07633587786259542,-0.084716796875,-0.092041015625,-0.603515625,0.357
-0.061068702290076333,1.0687022900763359,-0.07633587786259542,-0.08251953125,-0.090576171875,-0.592041015625,0.35869999999999996
0.04580152671755725,0.8702290076335878,0.061068702290076333,-0.08349609375,-0.0908203125,-0.596923828125,0.3604
0.2900763358778626,1.1755725190839694,0.0916030534351145,-0.080322265625,-0.088134765625,-0.59228515625,0.3621
0.33587786259541985,1.1908396946564885,0.3816793893129771,-0.083251953125,-0.08740234375,-0.593017578125,0.36379999999999996
0.183206106870229,1.0687022900763359,0.2900763358778626,-0.087158203125,-0.0859375,-0.60107421875,0.3655
0.24427480916030533,0.9618320610687023,0.2748091603053435,-0.0791015625,-0.0888671875,-0.59765625,0.36719999999999997
0.32061068702290074,1.251908396946565,0.16793893129770993,-0.080322265625,-0.086669921875,-0.600341796875,0.3689
0.4122137404580153,1.3129770992366412,0.10687022900763359,-0.0888671875,-0.091064453125,-0.598876953125,0.3706
0.1984732824427481,1.3740458015267176,0.44274809160305345,-0.0859375,-0.08837890625,-0.5986328125,0.37229999999999996
0.3053435114503817,1.297709923664122,0.5343511450381679,-0.078369140625,-0.087646484375,-0.59814453125,0.374
0.3053435114503817,1.2671755725190839,0.366412213740458,-0.083251953125,-0.0908203125,-0.6025390625,0.3757
0.4732824427480916,1.3282442748091603,0.3816793893129771,-0.084716796875,-0.087158203125,-0.603271484375,0.37739999999999996
0.48854961832061067,1.251908396946565,0.366412213740458,-0.081298828125,-0.090576171875,-0.59619140625,0.3791
0.6870229007633588,1.1297709923664123,0.42748091603053434,-0.08349609375,-0.094970703125,-0.6015625,0.38079999999999997
0.42748091603053434,1.1755725190839694,0.183206106870229,-0.089111328125,-0.093994140625,-0.59619140625,0.38249999999999995
0.4122137404580153,1.0229007633587786,0.4122137404580153,-0.08349609375,-0.095703125,-0.59130859375,0.3842
0.5648854961832062,1.0381679389312977,0.366412213740458,-0.08251953125,-0.098388671875,-0.600341796875,0.38589999999999997
0.2595419847328244,1.1297709923664123,0.04580152671755725,-0.085693359375,-0.097900390625,-0.6015625,0.3876
0.21374045801526717,1.1908396946564885,0.12213740458015267,-0.080078125,-0.0927734375,-0.59716796875,0.3893
0.3053435114503817,1.3282442748091603,0.3511450381679389,-0.08154296875,-0.097900390625,-0.605224609375,0.39099999999999996
0.3511450381679389,1.282442748091603,0.015267175572519083,-0.08154296875,-0.092041015625,-0.60595703125,0.3927
0.1984732824427481,1.3740458015267176,0.0916030534351145,-0.080810546875,-0.09228515625,-0.607421875,0.3944
0.0916030534351145,1.5267175572519085,-0.0916030534351145,-0.08642578125,-0.09716796875,-0.602783203125,0.39609999999999995
0.21374045801526717,1.5572519083969465,-0.030534351145038167,-0.086181640625,-0.098388671875,-0.602783203125,0.3978
0.15267175572519084,1.3435114503816794,-0.030534351145038167,-0.080810546875,-0.09765625,-0.6015625,0.39949999999999997
0.183206106870229,1.5572519083969465,-0.04580152671755725,-0.073974609375,-0.094482421875,-0.593017578125,0.4012
0.2748091603053435,1.5572519083969465,-0.24427480916030533,-0.082763671875,-0.08740234375,-0.60009765625,0.4029
0.16793893129770993,1.7557251908396947,-0.13740458015267176,-0.08251953125,-0.0927734375,-0.59716796875,0.40459999999999996
0.0916030534351145,1.5877862595419847,-0.183206106870229,-0.08251953125,-0.087890625,-0.599853515625,0.4063
0.16793893129770993,1.5114503816793894,-0.1984732824427481,-0.078125,-0.093505859375,-0.602783203125,0.408
0.2748091603053435,1.5114503816793894,-0.22900763358778625,-0.07177734375,-0.09521484375,-0.6083984375,0.40969999999999995
0.04580152671755725,1.5419847328244274,-0.21374045801526717,-0.081298828125,-0.093017578125,-0.603271484375,0.4114
0.2900763358778626,1.5419847328244274,-0.1984732824427481,-0.0830078125,-0.091552734375,-0.590576171875,0.41309999999999997
0.061068702290076333,1.786259541984733,-0.366412213740458,-0.077880859375,-0.092529296875,-0.5947265625,0.4148
-0.1984732824427481,1.633587786259542,-0.42748091603053434,-0.0791015625,-0.09375,-0.6025390625,0.4165
0.030534351145038167,1.4809160305343512,-0.1984732824427481,-0.079345703125,-0.09130859375,-0.604248046875,0.41819999999999996
-0.061068702290076333,1.5572519083969465,-0.6106870229007634,-0.078125,-0.0888671875,-0.593505859375,0.4199
-0.15267175572519084,1.6488549618320612,-0.2748091603053435,-0.07421875,-0.08984375,-0.597412109375,0.4216
-0.061068702290076333,1.5114503816793894,-0.5648854961832062,-0.0751953125,-0.092041015625,-0.6005859375,0.42329999999999995
-0.16793893129770993,1.5725190839694656,-0.48854961832061067,-0.08203125,-0.09521484375,-0.600830078125,0.425
-0.2748091603053435,1.3893129770992367,-0.7786259541984732,-0.0791015625,-0.09423828125,-0.600830078125,0.42669999999999997
-0.0916030534351145,1.3129770992366412,-0.5954198473282443,-0.07763671875,-0.0927734375,-0.602783203125,0.4284
-0.15267175572519084,1.4961832061068703,-0.7480916030534351,-0.074951171875,-0.0927734375,-0.599365234375,0.4301
-0.3053435114503817,1.7404580152671756,-0.8854961832061069,-0.07568359375,-0.093994140625,-0.594482421875,0.43179999999999996
0.015267175572519083,1.5572519083969465,-0.9007633587786259,-0.077392578125,-0.0947265625,-0.595947265625,0.4335
-0.04580152671755725,1.3282442748091603,-0.7786259541984732,-0.075439453125,-0.091552734375,-0.591796875,0.4352
0.10687022900763359,1.465648854961832,-0.9770992366412213,-0.073974609375,-0.086181640625,-0.5986328125,0.43689999999999996
0.33587786259541985,1.5572519083969465,-0.8244274809160306,-0.077880859375,-0.08837890625,-0.598388671875,0.4386
0.0,1.5114503816793894,-1.1145038167938932,-0.080078125,-0.091552734375,-0.5966796875,0.44029999999999997
-0.07633587786259542,1.5114503816793894,-1.0229007633587786,-0.080078125,-0.092041015625,-0.600830078125,0.44199999999999995
0.2900763358778626,1.3587786259541985,-0.9465648854961832,-0.07666015625,-0.09228515625,-0.596435546875,0.4437
0.5190839694656488,1.4045801526717556,-1.099236641221374,-0.07958984375,-0.091552734375,-0.598876953125,0.44539999999999996
0.4732824427480916,1.297709923664122,-1.1908396946564885,-0.07763671875,-0.09033203125,-0.600341796875,0.4471
0.5190839694656488,1.3435114503816794,-0.916030534351145,-0.077880859375,-0.08984375,-0.595947265625,0.4488
0.2900763358778626,1.5419847328244274,-1.1755725190839694,-0.077880859375,-0.09375,-0.595703125,0.45049999999999996
0.366412213740458,1.297709923664122,-1.099236641221374,-0.07666015625,-0.092529296875,-0.59375,0.4522
0.732824427480916,1.251908396946565,-1.083969465648855,-0.074462890625,-0.0908203125,-0.599609375,0.45389999999999997
0.6106870229007634,1.4351145038167938,-1.0229007633587786,-0.07470703125,-0.087890625,-0.599853515625,0.45559999999999995
0.4732824427480916,1.282442748091603,-1.2671755725190839,-0.081298828125,-0.09326171875,-0.591552734375,0.4573
0.3053435114503817,1.297709923664122,-1.083969465648855,-0.085693359375,-0.0927734375,-0.607421875,0.45899999999999996
0.2595419847328244,1.5419847328244274,-1.083969465648855,-0.084716796875,-0.093994140625,-0.599609375,0.4607
-0.061068702290076333,1.4198473282442747,-1.0381679389312977,-0.078857421875,-0.08642578125,-0.601318359375,0.4624
-0.030534351145038167,1.4961832061068703,-0.9618320610687023,-0.07763671875,-0.084716796875,-0.59716796875,0.46409999999999996
-0.04580152671755725,1.6030534351145038,-0.9312977099236641,-0.078125,-0.088623046875,-0.58935546875,0.4658
-0.3511450381679389,1.297709923664122,-1.282442748091603,-0.077392578125,-0.09326171875,-0.6005859375,0.46749999999999997
-0.32061068702290074,1.3893129770992367,-1.0229007633587786,-0.08154296875,-0.097412109375,-0.59375,0.46919999999999995
-0.5954198473282443,1.4809160305343512,-1.0076335877862594,-0.084228515625,-0.09228515625,-0.5986328125,0.4709
-0.8396946564885496,1.297709923664122,-0.8549618320610687,-0.0810546875,-0.089111328125,-0.599365234375,0.47259999999999996
-0.6259541984732825,1.1603053435114503,-0.9312977099236641,-0.08056640625,-0.087646484375,-0.6015625,0.4743
-0.6259541984732825,1.3435114503816794,-1.0381679389312977,-0.07666015625,-0.092041015625,-0.592041015625,0.476
-0.8854961832061069,1.2366412213740459,-1.0687022900763359,-0.078125,-0.091796875,-0.6015625,0.47769999999999996
-0.48854961832061067,1.1297709923664123,-0.9923664122137404,-0.079345703125,-0.093994140625,-0.5927734375,0.4794
-0.5190839694656488,1.083969465648855,-0.9007633587786259,-0.080078125,-0.0888671875,-0.5966796875,0.48109999999999997
-0.48854961832061067,1.2061068702290076,-0.7938931297709924,-0.082275390625,-0.0869140625,-0.59375,0.48279999999999995
-0.32061068702290074,1.099236641221374,-0.9465648854961832,-0.075439453125,-0.093017578125,-0.597900390625,0.4845
-0.4122137404580153,1.1145038167938932,-0.6870229007633588,-0.07861328125,-0.08740234375,-0.60009765625,0.48619999999999997
-0.030534351145038167,0.9618320610687023,-0.9618320610687023,-0.08203125,-0.09375,-0.604248046875,0.4879
0.183206106870229,1.0076335877862594,-0.8396946564885496,-0.078857421875,-0.09130859375,-0.5986328125,0.4896
0.21374045801526717,1.251908396946565,-0.7633587786259542,-0.0849609375,-0.08251953125,-0.59619140625,0.49129999999999996
0.2900763358778626,1.3282442748091603,-0.7786259541984732,-0.076416015625,-0.091064453125,-0.600341796875,0.493
0.32061068702290074,1.0534351145038168,-0.7633587786259542,-0.081298828125,-0.0908203125,-0.592529296875,0.4947
0.3511450381679389,1.282442748091603,-0.6870229007633588,-0.082275390625,-0.092041015625,-0.595947265625,0.49639999999999995
0.2748091603053435,1.4351145038167938,-1.0076335877862594,-0.078369140625,-0.08935546875,-0.592041015625,0.4981
0.33587786259541985,1.0687022900763359,-0.7175572519083969,-0.08203125,-0.0859375,-0.593994140625,0.49979999999999997
0.3969465648854962,1.2061068702290076,-0.916030534351145,-0.0791015625,-0.090087890625,-0.603271484375,0.5015
0.2748091603053435,1.297709923664122,-0.8854961832061069,-0.077392578125,-0.090576171875,-0.59130859375,0.5032
0.5954198473282443,1.2366412213740459,-0.8549618320610687,-0.07666015625,-0.088134765625,-0.59912109375,0.5049
0.5801526717557252,1.1603053435114503,-1.083969465648855,-0.082275390625,-0.091064453125,-0.602783203125,0.5065999999999999
0.2595419847328244,1.083969465648855,-0.8244274809160306,-0.0751953125,-0.086181640625,-0.603515625,0.5083
0.2748091603053435,1.0381679389312977,-0.9007633587786259,-0.076171875,-0.0888671875,-0.59619140625,0.51
0.5801526717557252,1.1450381679389312,-1.1603053435114503,-0.080078125,-0.087158203125,-0.596923828125,0.5116999999999999
0.2900763358778626,1.1755725190839694,-1.099236641221374,-0.0712890625,-0.091796875,-0.60009765625,0.5134
0.5648854961832062,1.1603053435114503,-1.099236641221374,-0.0791015625,-0.09228515625,-0.602783203125,0.5151
0.5190839694656488,0.9618320610687023,-0.916030534351145,-0.07861328125,-0.093505859375,-0.604248046875,0.5167999999999999
0.7786259541984732,1.0687022900763359,-0.7938931297709924,-0.0771484375,-0.09033203125,-0.591064453125,0.5185
0.9312977099236641,1.1603053435114503,-0.9770992366412213,-0.07666015625,-0.091796875,-0.60107421875,0.5202
0.8702290076335878,1.2366412213740459,-1.099236641221374,-0.073486328125,-0.091552734375,-0.59814453125,0.5218999999999999
1.1450381679389312,1.0229007633587786,-0.916030534351145,-0.078857421875,-0.088134765625,-0.604248046875,0.5236
1.0687022900763359,0.8702290076335878,-1.1145038167938932,-0.076171875,-0.08984375,-0.596923828125,0.5253
0.9618320610687023,1.1145038167938932,-1.1603053435114503,-0.08251953125,-0.0888671875,-0.597412109375,0.527
1.0381679389312977,1.0076335877862594,-1.0534351145038168,-0.075439453125,-0.087890625,-0.597412109375,0.5287
1.1908396946564885,0.9312977099236641,-1.1908396946564885,-0.07470703125,-0.087890625,-0.596435546875,0.5304
1.2671755725190839,0.9923664122137404,-1.1297709923664123,-0.080078125,-0.08984375,-0.593994140625,0.5321
1.2213740458015268,1.0229007633587786,-1.251908396946565,-0.078857421875,-0.0869140625,-0.600830078125,0.5337999999999999
1.1755725190839694,1.0229007633587786,-1.0687022900763359,-0.078125,-0.09326171875,-0.599609375,0.5355
1.0687022900763359,0.9312977099236641,-1.1755725190839694,-0.077392578125,-0.087646484375,-0.59033203125,0.5372
0.9007633587786259,1.1908396946564885,-1.297709923664122,-0.07568359375,-0.083740234375,-0.59814453125,0.5388999999999999
0.7022900763358778,0.9312977099236641,-1.083969465648855,-0.082275390625,-0.08740234375,-0.598388671875,0.5406
0.9465648854961832,0.9007633587786259,-1.1450381679389312,-0.07958984375,-0.087890625,-0.597900390625,0.5423
0.8854961832061069,0.9465648854961832,-1.0076335877862594,-0.077392578125,-0.089111328125,-0.59423828125,0.5439999999999999
0.9923664122137404,0.916030534351145,-1.099236641221374,-0.076171875,-0.093994140625,-0.5888671875,0.5457
0.7022900763358778,0.9923664122137404,-0.9770992366412213,-0.07470703125,-0.088623046875,-0.59716796875,0.5474
0.8549618320610687,0.8854961832061069,-1.0076335877862594,-0.0732421875,-0.0888671875,-0.59765625,0.5490999999999999
0.732824427480916,0.8854961832061069,-1.0687022900763359,-0.07373046875,-0.08984375,-0.598876953125,0.5508
0.6717557251908397,1.1450381679389312,-1.2061068702290076,-0.07568359375,-0.095703125,-0.597900390625,0.5525
0.9312977099236641,0.9923664122137404,-1.083969465648855,-0.081298828125,-0.0888671875,-0.596923828125,0.5541999999999999
0.8549618320610687,0.9618320610687023,-1.1297709923664123,-0.077392578125,-0.09228515625,-0.5947265625,0.5559
0.7938931297709924,1.0687022900763359,-0.9312977099236641,-0.082275390625,-0.083251953125,-0.594970703125,0.5576
0.916030534351145,1.083969465648855,-1.0534351145038168,-0.076416015625,-0.08837890625,-0.590576171875,0.5593
0.916030534351145,1.0076335877862594,-0.8091603053435115,-0.07861328125,-0.084228515625,-0.59228515625,0.5609999999999999
0.9923664122137404,0.9923664122137404,-0.8702290076335878,-0.080810546875,-0.086181640625,-0.5966796875,0.5627
1.0076335877862594,0.9007633587786259,-1.0229007633587786,-0.074462890625,-0.090087890625,-0.588623046875,0.5644
1.0687022900763359,1.0534351145038168,-0.7175572519083969,-0.072509765625,-0.087158203125,-0.596923828125,0.5660999999999999
1.0381679389312977,0.9770992366412213,-0.7480916030534351,-0.0732421875,-0.0908203125,-0.59619140625,0.5678
0.916030534351145,1.1450381679389312,-0.8702290076335878,-0.072509765625,-0.092529296875,-0.596435546875,0.5695
0.7633587786259542,1.1297709923664123,-0.7175572519083969,-0.075927734375,-0.0869140625,-0.592041015625,0.5711999999999999
0.9618320610687023,0.9923664122137404,-0.7480916030534351,-0.0791015625,-0.088134765625,-0.58740234375,0.5729
1.083969465648855,1.0687022900763359,-0.6717557251908397,-0.077392578125,-0.0849609375,-0.598876953125,0.5746
0.9007633587786259,1.0076335877862594,-0.916030534351145,-0.074951171875,-0.091552734375,-0.59326171875,0.5762999999999999
0.9465648854961832,0.9770992366412213,-0.9465648854961832,-0.069580078125,-0.0869140625,-0.59814453125,0.578
1.0229007633587786,1.0534351145038168,-0.7633587786259542,-0.073486328125,-0.087890625,-0.598876953125,0.5797
1.1450381679389312,1.1145038167938932,-0.9007633587786259,-0.074951171875,-0.08984375,-0.59716796875,0.5813999999999999
1.083969465648855,0.9007633587786259,-0.9618320610687023,-0.078857421875,-0.086669921875,-0.593505859375,0.5831
1.0076335877862594,1.083969465648855,-0.8396946564885496,-0.076171875,-0.08740234375,-0.59375,0.5848
1.1908396946564885,0.9312977099236641,-0.9923664122137404,-0.076416015625,-0.0888671875,-0.593994140625,0.5865
1.083969465648855,0.9465648854961832,-0.9770992366412213,-0.07470703125,-0.08740234375,-0.60107421875,0.5882
1.1450381679389312,0.8854961832061069,-0.9923664122137404,-0.077392578125,-0.088623046875,-0.59912109375,0.5899
1.4045801526717556,1.0229007633587786,-1.0229007633587786,-0.07373046875,-0.087646484375,-0.598388671875,0.5916
1.4045801526717556,0.916030534351145,-0.916030534351145,-0.07666015625,-0.082763671875,-0.593994140625,0.5932999999999999
1.1297709923664123,0.9618320610687023,-0.9923664122137404,-0.075439453125,-0.0849609375,-0.5927734375,0.595
1.450381679389313,1.099236641221374,-0.9465648854961832,-0.076171875,-0.093017578125,-0.59619140625,0.5967
1.4351145038167938,0.9770992366412213,-1.1145038167938932,-0.078857421875,-0.08837890625,-0.59716796875,0.5983999999999999
1.3435114503816794,0.9923664122137404,-1.1603053435114503,-0.078857421875,-0.0869140625,-0.594482421875,0.6001
1.5725190839694656,0.9618320610687023,-1.0229007633587786,-0.076904296875,-0.083984375,-0.5830078125,0.6018
1.4351145038167938,1.1603053435114503,-1.1145038167938932,-0.07421875,-0.08935546875,-0.603515625,0.6034999999999999
1.5267175572519085,1.099236641221374,-1.1908396946564885,-0.074462890625,-0.086181640625,-0.5966796875,0.6052
1.6030534351145038,0.7938931297709924,-1.1908396946564885,-0.06982421875,-0.085693359375,-0.59521484375,0.6069
1.7404580152671756,1.0381679389312977,-1.2671755725190839,-0.07666015625,-0.083984375,-0.587890625,0.6085999999999999
1.9083969465648856,1.1450381679389312,-1.083969465648855,-0.076171875,-0.091552734375,-0.59521484375,0.6103
1.9083969465648856,0.9770992366412213,-1.297709923664122,-0.075439453125,-0.0888671875,-0.59423828125,0.612
1.8625954198473282,0.9465648854961832,-0.9770992366412213,-0.076904296875,-0.090576171875,-0.59765625,0.6136999999999999
2.015267175572519,1.0076335877862594,-1.1297709923664123,-0.078369140625,-0.085205078125,-0.595703125,0.6154
1.816793893129771,1.1297709923664123,-1.099236641221374,-0.076904296875,-0.086181640625,-0.59375,0.6171
1.8473282442748091,1.0229007633587786,-1.2213740458015268,-0.076904296875,-0.089599609375,-0.60205078125,0.6188
1.7251908396946565,1.1603053435114503,-1.099236641221374,-0.07421875,-0.08984375,-0.6083984375,0.6204999999999999
1.5267175572519085,1.0381679389312977,-1.1908396946564885,-0.07568359375,-0.0927734375,-0.5947265625,0.6222
1.6030534351145038,1.2366412213740459,-1.0687022900763359,-0.07666015625,-0.091064453125,-0.594970703125,0.6239
1.633587786259542,1.1450381679389312,-1.1145038167938932,-0.07568359375,-0.088623046875,-0.589599609375,0.6255999999999999
1.3740458015267176,1.0534351145038168,-1.1603053435114503,-0.074462890625,-0.0908203125,-0.593994140625,0.6273
1.3435114503816794,1.0381679389312977,-1.2671755725190839,-0.075927734375,-0.087890625,-0.5888671875,0.629
1.282442748091603,1.083969465648855,-1.1755725190839694,-0.075927734375,-0.091064453125,-0.59912109375,0.6306999999999999
1.1908396946564885,1.2061068702290076,-1.297709923664122,-0.075439453125,-0.09228515625,-0.5966796875,0.6324
1.2671755725190839,1.297709923664122,-1.083969465648855,-0.072998046875,-0.088134765625,-0.598876953125,0.6341
1.099236641221374,1.1908396946564885,-1.282442748091603,-0.0732421875,-0.092041015625,-0.59375,0.6357999999999999
1.0076335877862594,1.1908396946564885,-1.1755725190839694,-0.0791015625,-0.097412109375,-0.60009765625,0.6375
1.1908396946564885,1.1297709923664123,-1.1297709923664123,-0.077880859375,-0.09765625,-0.59912109375,0.6392
1.1603053435114503,1.0381679389312977,-1.0534351145038168,-0.072509765625,-0.093017578125,-0.604736328125,0.6408999999999999
0.916030534351145,1.1450381679389312,-1.4045801526717556,-0.0791015625,-0.09130859375,-0.595703125,0.6426
1.0381679389312977,1.0687022900763359,-1.3435114503816794,-0.0771484375,-0.092529296875,-0.6025390625,0.6443
1.0534351145038168,1.0687022900763359,-1.3129770992366412,-0.076904296875,-0.095947265625,-0.59814453125,0.646
0.8396946564885496,1.1908396946564885,-1.3129770992366412,-0.075927734375,-0.0927734375,-0.60498046875,0.6476999999999999
0.6564885496183206,1.0076335877862594,-1.4198473282442747,-0.077880859375,-0.09228515625,-0.59521484375,0.6494
0.9007633587786259,1.099236641221374,-1.3129770992366412,-0.082763671875,-0.086669921875,-0.6015625,0.6511
0.9770992366412213,1.099236641221374,-1.3129770992366412,-0.08154296875,-0.08837890625,-0.59765625,0.6527999999999999
0.8396946564885496,1.0076335877862594,-1.297709923664122,-0.078857421875,-0.08837890625,-0.602783203125,0.6545
0.9770992366412213,0.8854961832061069,-1.4809160305343512,-0.074462890625,-0.093017578125,-0.59814453125,0.6562
1.0687022900763359,0.9312977099236641,-1.5114503816793894,-0.07177734375,-0.08740234375,-0.60107421875,0.6578999999999999
0.8244274809160306,1.0381679389312977,-1.6488549618320612,-0.072265625,-0.0849609375,-0.601318359375,0.6596
1.1145038167938932,0.8244274809160306,-1.5419847328244274,-0.080078125,-0.08837890625,-0.59765625,0.6613
1.099236641221374,0.7480916030534351,-1.6793893129770991,-0.0751953125,-0.0927734375,-0.6005859375,0.6629999999999999
0.9465648854961832,0.7480916030534351,-1.6793893129770991,-0.0791015625,-0.093017578125,-0.591552734375,0.6647
0.9618320610687023,0.916030534351145,-1.7557251908396947,-0.0830078125,-0.090576171875,-0.59033203125,0.6664
1.1450381679389312,0.9007633587786259,-1.8931297709923665,-0.072021484375,-0.08642578125,-0.59423828125,0.6680999999999999
1.0687022900763359,0.7938931297709924,-1.786259541984733,-0.08056640625,-0.0888671875,-0.593994140625,0.6698
1.1908396946564885,0.8244274809160306,-1.7099236641221374,-0.08203125,-0.088623046875,-0.59765625,0.6715
1.2366412213740459,1.083969465648855,-2.030534351145038,-0.080810546875,-0.08740234375,-0.598388671875,0.6731999999999999
1.2061068702290076,0.9923664122137404,-1.7099236641221374,-0.082763671875,-0.085693359375,-0.597900390625,0.6748999999999999
1.251908396946565,0.9618320610687023,-1.8778625954198473,-0.079833984375,-0.089599609375,-0.599609375,0.6766
1.2366412213740459,0.7938931297709924,-1.8015267175572518,-0.079833984375,-0.091064453125,-0.599853515625,0.6783
1.282442748091603,0.9007633587786259,-2.030534351145038,-0.0791015625,-0.09130859375,-0.597412109375,0.6799999999999999
1.1450381679389312,1.0381679389312977,-2.0,-0.076416015625,-0.08837890625,-0.601806640625,0.6817
1.4351145038167938,0.916030534351145,-2.0610687022900764,-0.07421875,-0.092041015625,-0.59326171875,0.6834
1.3893129770992367,0.8854961832061069,-2.0,-0.078369140625,-0.091064453125,-0.601318359375,0.6850999999999999
1.5114503816793894,1.0076335877862594,-2.183206106870229,-0.080322265625,-0.092529296875,-0.597900390625,0.6868
1.282442748091603,0.916030534351145,-2.2290076335877864,-0.076171875,-0.09130859375,-0.598388671875,0.6885
1.4198473282442747,0.7938931297709924,-2.0763358778625953,-0.07275390625,-0.091064453125,-0.593505859375,0.6901999999999999
1.4351145038167938,0.8396946564885496,-2.122137404580153,-0.0751953125,-0.08984375,-0.597900390625,0.6919
1.6793893129770991,0.9007633587786259,-2.2900763358778624,-0.076416015625,-0.091552734375,-0.59619140625,0.6936
1.5419847328244274,0.8396946564885496,-2.2748091603053435,-0.076904296875,-0.0927734375,-0.5947265625,0.6952999999999999
1.6641221374045803,0.9312977099236641,-2.33587786259542,-0.075439453125,-0.088134765625,-0.59423828125,0.697
1.6030534351145038,1.0381679389312977,-2.2900763358778624,-0.072998046875,-0.092529296875,-0.590087890625,0.6987
1.7709923664122138,0.9312977099236641,-2.427480916030534,-0.077392578125,-0.094482421875,-0.596923828125,0.7003999999999999
1.8473282442748091,0.9618320610687023,-2.351145038167939,-0.0751953125,-0.089599609375,-0.59375,0.7021
1.8015267175572518,0.9312977099236641,-2.4122137404580153,-0.075439453125,-0.09326171875,-0.597900390625,0.7038
1.8778625954198473,1.0381679389312977,-2.4122137404580153,-0.080810546875,-0.09423828125,-0.593017578125,0.7055
1.5725190839694656,1.0381679389312977,-2.5801526717557253,-0.076904296875,-0.089599609375,-0.595458984375,0.7071999999999999
1.6946564885496183,1.0076335877862594,-2.3206106870229006,-0.080322265625,-0.092041015625,-0.600830078125,0.7089
1.7099236641221374,1.1297709923664123,-2.4580152671755724,-0.077392578125,-0.09326171875,-0.598388671875,0.7106
1.8015267175572518,1.297709923664122,-2.519083969465649,-0.0810546875,-0.099853515625,-0.595703125,0.7122999999999999
1.6030534351145038,1.2366412213740459,-2.4122137404580153,-0.075439453125,-0.091552734375,-0.593505859375,0.714
1.5114503816793894,1.3282442748091603,-2.366412213740458,-0.075927734375,-0.093505859375,-0.5927734375,0.7157
1.5725190839694656,1.4198473282442747,-2.549618320610687,-0.076416015625,-0.099853515625,-0.597412109375,0.7173999999999999
1.6641221374045803,1.5114503816793894,-2.4580152671755724,-0.076904296875,-0.091796875,-0.604248046875,0.7191
1.251908396946565,1.5877862595419847,-2.5343511450381677,-0.0810546875,-0.095947265625,-0.593994140625,0.7208
1.282442748091603,1.5267175572519085,-2.366412213740458,-0.07958984375,-0.094482421875,-0.59765625,0.7224999999999999
1.0076335877862594,1.465648854961832,-2.50381679389313,-0.0791015625,-0.0986328125,-0.595703125,0.7242
1.0687022900763359,1.6030534351145038,-2.3053435114503817,-0.07275390625,-0.089599609375,-0.593994140625,0.7259
0.8702290076335878,1.633587786259542,-2.6717557251908395,-0.07861328125,-0.091796875,-0.59619140625,0.7275999999999999
0.6412213740458015,1.6641221374045803,-2.595419847328244,-0.073974609375,-0.090087890625,-0.59423828125,0.7293
0.6259541984732825,1.618320610687023,-2.6564885496183206,-0.077392578125,-0.088134765625,-0.594970703125,0.731
0.8244274809160306,1.6030534351145038,-2.4732824427480917,-0.07958984375,-0.0888671875,-0.594482421875,0.7326999999999999
0.6259541984732825,1.6641221374045803,-2.519083969465649,-0.076416015625,-0.087890625,-0.59619140625,0.7343999999999999
0.6106870229007634,1.7251908396946565,-2.3969465648854964,-0.078857421875,-0.08837890625,-0.603271484375,0.7361
0.732824427480916,1.6030534351145038,-2.5801526717557253,-0.075439453125,-0.09375,-0.600341796875,0.7378
0.7786259541984732,1.5419847328244274,-2.549618320610687,-0.076904296875,-0.09130859375,-0.599365234375,0.7394999999999999
0.9923664122137404,1.450381679389313,-2.549618320610687,-0.07861328125,-0.091552734375,-0.60205078125,0.7412
0.7022900763358778,1.4198473282442747,-2.2442748091603053,-0.072509765625,-0.093994140625,-0.593017578125,0.7429
0.916030534351145,1.5114503816793894,-2.6412213740458017,-0.078125,-0.0869140625,-0.6044921875,0.7445999999999999
1.1450381679389312,1.618320610687023,-2.381679389312977,-0.07666015625,-0.08935546875,-0.599365234375,0.7463
1.0229007633587786,1.3740458015267176,-2.549618320610687,-0.08154296875,-0.08984375,-0.591552734375,0.748
1.3587786259541985,1.4045801526717556,-2.4732824427480917,-0.07861328125,-0.09130859375,-0.599609375,0.7496999999999999
1.3740458015267176,1.465648854961832,-2.6106870229007635,-0.078857421875,-0.088623046875,-0.60498046875,0.7514
1.3435114503816794,1.3435114503816794,-2.5801526717557253,-0.07958984375,-0.0849609375,-0.5986328125,0.7531
1.5877862595419847,1.5114503816793894,-2.6717557251908395,-0.07958984375,-0.090087890625,-0.5947265625,0.7547999999999999
1.6793893129770991,1.465648854961832,-2.564885496183206,-0.081298828125,-0.086669921875,-0.59765625,0.7565
1.3129770992366412,1.5725190839694656,-2.6259541984732824,-0.078125,-0.087158203125,-0.595947265625,0.7582
1.5419847328244274,1.5725190839694656,-2.4885496183206106,-0.07373046875,-0.092529296875,-0.60107421875,0.7598999999999999
1.6793893129770991,1.6946564885496183,-2.564885496183206,-0.078857421875,-0.088134765625,-0.599609375,0.7615999999999999
1.2671755725190839,1.450381679389313,-2.5343511450381677,-0.0771484375,-0.091064453125,-0.59130859375,0.7633
1.465648854961832,1.5114503816793894,-2.519083969465649,-0.080810546875,-0.090087890625,-0.603271484375,0.7649999999999999
1.7251908396946565,1.5114503816793894,-2.549618320610687,-0.0791015625,-0.08740234375,-0.592041015625,0.7666999999999999
1.4198473282442747,1.4198473282442747,-2.6259541984732824,-0.0830078125,-0.090087890625,-0.598388671875,0.7684
1.4045801526717556,1.633587786259542,-2.427480916030534,-0.072998046875,-0.086669921875,-0.597900390625,0.7701
1.450381679389313,1.633587786259542,-2.50381679389313,-0.080322265625,-0.084228515625,-0.592529296875,0.7717999999999999
1.3587786259541985,1.5725190839694656,-2.50381679389313,-0.0791015625,-0.089111328125,-0.60205078125,0.7735
1.2671755725190839,1.633587786259542,-2.4732824427480917,-0.077880859375,-0.086669921875,-0.60009765625,0.7752
1.1603053435114503,1.4961832061068703,-2.4122137404580153,-0.08154296875,-0.08642578125,-0.603515625,0.7768999999999999
1.1145038167938932,1.465648854961832,-2.5343511450381677,-0.080322265625,-0.092041015625,-0.603515625,0.7786
1.297709923664122,1.4351145038167938,-2.381679389312977,-0.07958984375,-0.092041015625,-0.603271484375,0.7803
1.099236641221374,1.5267175572519085,-2.564885496183206,-0.0732421875,-0.09326171875,-0.603759765625,0.7819999999999999
0.9465648854961832,1.5267175572519085,-2.4580152671755724,-0.07568359375,-0.0859375,-0.607177734375,0.7837
0.6717557251908397,1.3893129770992367,-2.381679389312977,-0.077392578125,-0.089111328125,-0.597412109375,0.7854
0.4580152671755725,1.4045801526717556,-2.4122137404580153,-0.07861328125,-0.09130859375,-0.595703125,0.7870999999999999
0.44274809160305345,1.450381679389313,-2.381679389312977,-0.073974609375,-0.08984375,-0.600341796875,0.7888
0.5343511450381679,1.4045801526717556,-2.16793893129771,-0.077392578125,-0.093017578125,-0.599609375,0.7905
0.2900763358778626,1.3740458015267176,-2.4427480916030535,-0.08154296875,-0.093017578125,-0.595947265625,0.7921999999999999
0.33587786259541985,1.2366412213740459,-2.2900763358778624,-0.077880859375,-0.093505859375,-0.60107421875,0.7938999999999999
0.5343511450381679,1.1603053435114503,-2.2748091603053435,-0.078125,-0.089111328125,-0.605224609375,0.7956
0.5648854961832062,1.0534351145038168,-2.122137404580153,-0.078125,-0.091796875,-0.60205078125,0.7973
0.44274809160305345,0.9465648854961832,-2.213740458015267,-0.078857421875,-0.0966796875,-0.597900390625,0.7989999999999999
0.4122137404580153,0.8244274809160306,-2.183206106870229,-0.071533203125,-0.090576171875,-0.595947265625,0.8007
0.5648854961832062,0.7938931297709924,-2.2595419847328246,-0.077392578125,-0.088134765625,-0.59912109375,0.8024
0.5954198473282443,0.7175572519083969,-2.198473282442748,-0.07861328125,-0.08984375,-0.60107421875,0.8040999999999999
0.32061068702290074,0.4732824427480916,-2.015267175572519,-0.07666015625,-0.092529296875,-0.5908203125,0.8058
0.44274809160305345,0.48854961832061067,-2.030534351145038,-0.080322265625,-0.08935546875,-0.60791015625,0.8075
0.4580152671755725,0.549618320610687,-2.198473282442748,-0.08056640625,-0.09228515625,-0.60546875,0.8091999999999999
0.6564885496183206,0.24427480916030533,-2.122137404580153,-0.08203125,-0.08447265625,-0.605224609375,0.8109
0.732824427480916,0.48854961832061067,-2.015267175572519,-0.07958984375,-0.085693359375,-0.603271484375,0.8126
0.6717557251908397,0.3511450381679389,-2.045801526717557,-0.07958984375,-0.088134765625,-0.60498046875,0.8142999999999999
0.7480916030534351,0.5038167938931297,-2.1068702290076335,-0.079345703125,-0.089111328125,-0.602783203125,0.816
0.9770992366412213,0.5190839694656488,-1.9236641221374047,-0.083251953125,-0.087646484375,-0.588134765625,0.8177
1.0534351145038168,0.6717557251908397,-2.16793893129771,-0.084716796875,-0.0908203125,-0.59765625,0.8193999999999999
0.9465648854961832,0.5801526717557252,-2.030534351145038,-0.083984375,-0.0927734375,-0.603271484375,0.8210999999999999
1.1603053435114503,0.7480916030534351,-2.122137404580153,-0.08154296875,-0.087646484375,-0.59912109375,0.8228
1.251908396946565,0.7938931297709924,-2.015267175572519,-0.077392578125,-0.083251953125,-0.595703125,0.8244999999999999
0.9770992366412213,0.7786259541984732,-1.8778625954198473,-0.08056640625,-0.083740234375,-0.598388671875,0.8261999999999999
1.0076335877862594,0.916030534351145,-1.9389312977099236,-0.075927734375,-0.08984375,-0.61328125,0.8279
1.1297709923664123,1.0229007633587786,-2.015267175572519,-0.080322265625,-0.087890625,-0.6005859375,0.8296
1.0687022900763359,0.916030534351145,-2.0,-0.08447265625,-0.089111328125,-0.603759765625,0.8312999999999999
0.8091603053435115,0.8091603053435115,-1.9541984732824427,-0.083251953125,-0.095458984375,-0.594970703125,0.833
0.9312977099236641,0.8244274809160306,-2.0763358778625953,-0.087158203125,-0.087646484375,-0.595947265625,0.8347
0.9923664122137404,0.916030534351145,-2.045801526717557,-0.084228515625,-0.087158203125,-0.59716796875,0.8363999999999999
0.8702290076335878,0.8702290076335878,-2.0,-0.082275390625,-0.093017578125,-0.595947265625,0.8381
0.8091603053435115,0.8549618320610687,-2.0916030534351147,-0.08447265625,-0.093017578125,-0.60009765625,0.8398
0.7633587786259542,0.8244274809160306,-2.1068702290076335,-0.08349609375,-0.09326171875,-0.603515625,0.8414999999999999
0.9465648854961832,0.8854961832061069,-1.9236641221374047,-0.07763671875,-0.0888671875,-0.5947265625,0.8432
0.8091603053435115,0.8091603053435115,-2.030534351145038,-0.080810546875,-0.084716796875,-0.603515625,0.8449
0.6870229007633588,0.7022900763358778,-1.9694656488549618,-0.07861328125,-0.091552734375,-0.604736328125,0.8465999999999999
0.6412213740458015,0.9007633587786259,-1.8473282442748091,-0.080078125,-0.091064453125,-0.6025390625,0.8482999999999999
0.48854961832061067,0.7480916030534351,-1.8473282442748091,-0.08056640625,-0.08740234375,-0.59619140625,0.85
0.2595419847328244,0.6564885496183206,-1.9083969465648856,-0.07763671875,-0.087890625,-0.597412109375,0.8516999999999999
0.42748091603053434,0.7480916030534351,-1.984732824427481,-0.08056640625,-0.09228515625,-0.6015625,0.8533999999999999
0.3969465648854962,0.9007633587786259,-1.816793893129771,-0.0771484375,-0.090087890625,-0.598388671875,0.8551
0.2748091603053435,0.7786259541984732,-1.7709923664122138,-0.08154296875,-0.0908203125,-0.6015625,0.8568
0.3511450381679389,0.6870229007633588,-1.8625954198473282,-0.0810546875,-0.09326171875,-0.598876953125,0.8584999999999999
0.04580152671755725,0.6717557251908397,-1.7251908396946565,-0.08154296875,-0.096435546875,-0.59375,0.8602
0.061068702290076333,0.6564885496183206,-1.8015267175572518,-0.081787109375,-0.08984375,-0.6044921875,0.8619
0.4580152671755725,0.8091603053435115,-1.6641221374045803,-0.080810546875,-0.08837890625,-0.60302734375,0.8635999999999999
0.16793893129770993,0.8396946564885496,-1.618320610687023,-0.08203125,-0.08740234375,-0.608642578125,0.8653
0.183206106870229,0.6106870229007634,-1.7099236641221374,-0.08349609375,-0.086181640625,-0.596435546875,0.867
0.04580152671755725,0.6564885496183206,-1.6488549618320612,-0.084228515625,-0.089599609375,-0.5947265625,0.8686999999999999
0.04580152671755725,0.8244274809160306,-1.5419847328244274,-0.077392578125,-0.08740234375,-0.602783203125,0.8704
-0.07633587786259542,0.8396946564885496,-1.465648854961832,-0.081298828125,-0.08935546875,-0.599609375,0.8721
0.12213740458015267,0.8244274809160306,-1.4809160305343512,-0.082763671875,-0.087158203125,-0.604248046875,0.8737999999999999
-0.2748091603053435,0.8702290076335878,-1.465648854961832,-0.081298828125,-0.08837890625,-0.602783203125,0.8755
-0.2748091603053435,0.9618320610687023,-1.465648854961832,-0.08349609375,-0.086669921875,-0.59716796875,0.8772
-0.2748091603053435,0.7938931297709924,-1.618320610687023,-0.080078125,-0.0908203125,-0.599609375,0.8788999999999999
-0.32061068702290074,0.9007633587786259,-1.5114503816793894,-0.082275390625,-0.087646484375,-0.594970703125,0.8805999999999999
-0.1984732824427481,1.0076335877862594,-1.4961832061068703,-0.077392578125,-0.086181640625,-0.59326171875,0.8823
-0.12213740458015267,0.916030534351145,-1.297709923664122,-0.07763671875,-0.082763671875,-0.599609375,0.8839999999999999
-0.2748091603053435,1.0687022900763359,-1.3129770992366412,-0.08203125,-0.087158203125,-0.604736328125,0.8856999999999999
0.21374045801526717,0.9618320610687023,-1.297709923664122,-0.0830078125,-0.087890625,-0.598876953125,0.8874
0.13740458015267176,0.9312977099236641,-1.3587786259541985,-0.080810546875,-0.087158203125,-0.59326171875,0.8891
0.07633587786259542,1.1297709923664123,-1.297709923664122,-0.08056640625,-0.083740234375,-0.596923828125,0.8907999999999999
0.22900763358778625,1.0534351145038168,-1.251908396946565,-0.081787109375,-0.08349609375,-0.5966796875,0.8925
0.16793893129770993,1.1450381679389312,-1.251908396946565,-0.078857421875,-0.08837890625,-0.593505859375,0.8942
0.44274809160305345,1.0534351145038168,-1.2366412213740459,-0.083984375,-0.089111328125,-0.59326171875,0.8958999999999999
0.6412213740458015,0.9618320610687023,-0.9923664122137404,-0.080322265625,-0.085693359375,-0.58935546875,0.8976
0.5801526717557252,0.9923664122137404,-0.9007633587786259,-0.07568359375,-0.090087890625,-0.598388671875,0.8993
0.5954198473282443,1.0076335877862594,-0.7480916030534351,-0.07568359375,-0.08837890625,-0.58984375,0.9009999999999999
0.7175572519083969,1.1908396946564885,-0.8702290076335878,-0.07861328125,-0.088134765625,-0.5888671875,0.9027
0.8244274809160306,1.1145038167938932,-0.7480916030534351,-0.0791015625,-0.088134765625,-0.597900390625,0.9044
0.9618320610687023,1.0229007633587786,-0.6412213740458015,-0.075439453125,-0.087890625,-0.597412109375,0.9060999999999999
0.8702290076335878,1.297709923664122,-0.549618320610687,-0.074462890625,-0.090087890625,-0.596435546875,0.9077999999999999
0.6564885496183206,1.099236641221374,-0.7022900763358778,-0.07763671875,-0.089599609375,-0.5947265625,0.9095
0.7633587786259542,1.0381679389312977,-0.4580152671755725,-0.076904296875,-0.091064453125,-0.603759765625,0.9111999999999999
0.7938931297709924,1.1145038167938932,-0.549618320610687,-0.076904296875,-0.086669921875,-0.603515625,0.9128999999999999
0.8702290076335878,0.9618320610687023,-0.4580152671755725,-0.07666015625,-0.093017578125,-0.60107421875,0.9146
0.7022900763358778,1.2366412213740459,-0.366412213740458,-0.0771484375,-0.08837890625,-0.59912109375,0.9163
0.7480916030534351,1.1908396946564885,-0.12213740458015267,-0.07763671875,-0.08935546875,-0.59326171875,0.9179999999999999
0.6412213740458015,1.297709923664122,-0.3053435114503817,-0.076416015625,-0.091796875,-0.6005859375,0.9197
0.4580152671755725,1.1603053435114503,-0.1984732824427481,-0.07861328125,-0.090087890625,-0.60302734375,0.9214
0.3053435114503817,1.1908396946564885,-0.04580152671755725,-0.084716796875,-0.088623046875,-0.598388671875,0.9230999999999999
0.183206106870229,1.3587786259541985,-0.061068702290076333,-0.079833984375,-0.083740234375,-0.59912109375,0.9248
0.1984732824427481,1.1297709923664123,0.030534351145038167,-0.07373046875,-0.092041015625,-0.60302734375,0.9265
0.15267175572519084,1.2671755725190839,0.07633587786259542,-0.07763671875,-0.0927734375,-0.60595703125,0.9281999999999999
0.2900763358778626,1.099236641221374,-0.04580152671755725,-0.07861328125,-0.087890625,-0.594970703125,0.9299
-0.030534351145038167,1.1297709923664123,0.061068702290076333,-0.080322265625,-0.09619140625,-0.599609375,0.9316
0.3053435114503817,1.0687022900763359,0.12213740458015267,-0.078125,-0.08642578125,-0.604736328125,0.9332999999999999
0.21374045801526717,1.0687022900763359,0.030534351145038167,-0.0810546875,-0.091796875,-0.597412109375,0.9349999999999999
0.16793893129770993,1.1450381679389312,-0.1984732824427481,-0.078857421875,-0.0888671875,-0.58984375,0.9367
0.3969465648854962,1.0229007633587786,0.015267175572519083,-0.08154296875,-0.083251953125,-0.603759765625,0.9383999999999999
0.183206106870229,0.9770992366412213,-0.015267175572519083,-0.07861328125,-0.087646484375,-0.5966796875,0.9400999999999999
0.48854961832061067,1.1297709923664123,0.061068702290076333,-0.0791015625,-0.0849609375,-0.595703125,0.9418
0.5801526717557252,1.0229007633587786,-0.22900763358778625,-0.083251953125,-0.087646484375,-0.5966796875,0.9434999999999999
0.4732824427480916,0.9770992366412213,0.015267175572519083,-0.083251953125,-0.087646484375,-0.591064453125,0.9451999999999999
0.732824427480916,1.099236641221374,-0.21374045801526717,-0.077392578125,-0.086181640625,-0.590087890625,0.9469
0.7480916030534351,0.8244274809160306,-0.22900763358778625,-0.08251953125,-0.083984375,-0.597900390625,0.9486
0.7633587786259542,0.7022900763358778,-0.21374045801526717,-0.08203125,-0.087158203125,-0.593017578125,0.9502999999999999
0.9923664122137404,0.6870229007633588,-0.16793893129770993,-0.077880859375,-0.08154296875,-0.595458984375,0.952
1.0687022900763359,0.48854961832061067,-0.13740458015267176,-0.080322265625,-0.087158203125,-0.591064453125,0.9537
0.9923664122137404,0.8091603053435115,0.0,-0.086669921875,-0.08447265625,-0.595703125,0.9553999999999999
1.1145038167938932,0.7633587786259542,-0.2595419847328244,-0.082275390625,-0.09130859375,-0.597900390625,0.9571
1.3435114503816794,0.732824427480916,-0.22900763358778625,-0.07763671875,-0.08984375,-0.598388671875,0.9588
1.633587786259542,1.0076335877862594,-0.2748091603053435,-0.08447265625,-0.086669921875,-0.595703125,0.9604999999999999
1.8625954198473282,1.083969465648855,-0.3511450381679389,-0.083984375,-0.091552734375,-0.590087890625,0.9621999999999999
1.8015267175572518,1.0229007633587786,-0.366412213740458,-0.08203125,-0.087890625,-0.60107421875,0.9639
1.618320610687023,1.0381679389312977,-0.04580152671755725,-0.07373046875,-0.08984375,-0.59716796875,0.9655999999999999
1.5419847328244274,1.1755725190839694,-0.15267175572519084,-0.076416015625,-0.0849609375,-0.60205078125,0.9672999999999999
1.3587786259541985,0.9312977099236641,0.10687022900763359,-0.07958984375,-0.083984375,-0.595703125,0.969
1.282442748091603,0.8244274809160306,-0.22900763358778625,-0.0771484375,-0.090576171875,-0.6044921875,0.9706999999999999
1.251908396946565,0.9312977099236641,0.030534351145038167,-0.08447265625,-0.082275390625,-0.603271484375,0.9723999999999999
1.1297709923664123,1.083969465648855,0.0916030534351145,-0.0771484375,-0.091552734375,-0.593017578125,0.9741
1.0534351145038168,1.083969465648855,0.16793893129770993,-0.07958984375,-0.086181640625,-0.587890625,0.9758
1.2213740458015268,0.9923664122137404,-0.04580152671755725,-0.084228515625,-0.08984375,-0.58251953125,0.9774999999999999
1.251908396946565,1.0076335877862594,0.0,-0.083740234375,-0.08984375,-0.60400390625,0.9792
1.3282442748091603,0.9923664122137404,0.04580152671755725,-0.081298828125,-0.090087890625,-0.599365234375,0.9809
1.4198473282442747,1.1755725190839694,0.1984732824427481,-0.080322265625,-0.094970703125,-0.599365234375,0.9825999999999999
1.3435114503816794,1.2671755725190839,0.015267175572519083,-0.078369140625,-0.093505859375,-0.594482421875,0.9843
1.3587786259541985,1.099236641221374,0.15267175572519084,-0.080322265625,-0.08984375,-0.601318359375,0.986
1.2671755725190839,1.0687022900763359,0.12213740458015267,-0.0791015625,-0.090576171875,-0.601806640625,0.9876999999999999
1.0381679389312977,0.9618320610687023,0.16793893129770993,-0.08203125,-0.0927734375,-0.608154296875,0.9894
1.1297709923664123,0.9618320610687023,0.015267175572519083,-0.07958984375,-0.093017578125,-0.602294921875,0.9911
1.0076335877862594,0.9312977099236641,0.0,-0.07666015625,-0.093017578125,-0.60107421875,0.9927999999999999
0.9770992366412213,0.9618320610687023,0.0,-0.072509765625,-0.09228515625,-0.591064453125,0.9944999999999999
1.0229007633587786,1.0534351145038168,0.0916030534351145,-0.077392578125,-0.093994140625,-0.595947265625,0.9962
0.8702290076335878,0.9618320610687023,0.07633587786259542,-0.078369140625,-0.089599609375,-0.60009765625,0.9978999999999999
0.8854961832061069,1.0534351145038168,0.0916030534351145,-0.0751953125,-0.09375,-0.595703125,0.9995999999999999
0.9007633587786259,0.916030534351145,-0.04580152671755725,-0.074951171875,-0.093505859375,-0.589599609375,1.0012999999999999
0.7786259541984732,0.7938931297709924,0.030534351145038167,-0.072509765625,-0.09375,-0.600341796875,1.003
0.5801526717557252,1.0076335877862594,-0.07633587786259542,-0.075927734375,-0.08544921875,-0.60107421875,1.0047
0.6412213740458015,1.0534351145038168,0.0,-0.07568359375,-0.08740234375,-0.602294921875,1.0064
0.6106870229007634,1.0687022900763359,-0.030534351145038167,-0.076904296875,-0.087890625,-0.60400390625,1.0081
0.8244274809160306,1.1297709923664123,-0.16793893129770993,-0.07958984375,-0.08056640625,-0.602783203125,1.0098
0.8091603053435115,1.1450381679389312,-0.3816793893129771,-0.07958984375,-0.08984375,-0.609619140625,1.0114999999999998
0.8091603053435115,1.1755725190839694,-0.07633587786259542,-0.08349609375,-0.090576171875,-0.605712890625,1.0131999999999999
0.9007633587786259,0.916030534351145,-0.32061068702290074,-0.077880859375,-0.087158203125,-0.6015625,1.0149
0.5648854961832062,0.9770992366412213,-0.3969465648854962,-0.0732421875,-0.081298828125,-0.603759765625,1.0166
0.8702290076335878,1.083969465648855,-0.5343511450381679,-0.072509765625,-0.087646484375,-0.601806640625,1.0183
0.8702290076335878,1.2061068702290076,-0.3816793893129771,-0.070068359375,-0.08935546875,-0.598388671875,1.02
0.6717557251908397,1.099236641221374,-0.42748091603053434,-0.075927734375,-0.086181640625,-0.59423828125,1.0217
0.9770992366412213,1.2366412213740459,-0.48854961832061067,-0.077880859375,-0.081298828125,-0.6005859375,1.0233999999999999
0.8244274809160306,1.1603053435114503,-0.5801526717557252,-0.080322265625,-0.0810546875,-0.607421875,1.0251
0.916030534351145,1.3740458015267176,-0.5038167938931297,-0.076416015625,-0.079345703125,-0.603271484375,1.0268
0.8854961832061069,1.297709923664122,-0.7786259541984732,-0.08056640625,-0.087890625,-0.59814453125,1.0285
0.7786259541984732,1.4961832061068703,-0.6717557251908397,-0.071044921875,-0.086181640625,-0.593994140625,1.0302
0.6717557251908397,1.3740458015267176,-0.7480916030534351,-0.076904296875,-0.08203125,-0.60302734375,1.0319
0.4122137404580153,1.3893129770992367,-0.8091603053435115,-0.080810546875,-0.083984375,-0.60107421875,1.0335999999999999
0.4580152671755725,1.5877862595419847,-0.9312977099236641,-0.0751953125,-0.08740234375,-0.6044921875,1.0352999999999999
0.16793893129770993,1.5267175572519085,-0.7786259541984732,-0.077392578125,-0.08984375,-0.608154296875,1.037
0.13740458015267176,1.5114503816793894,-1.0534351145038168,-0.072998046875,-0.091552734375,-0.606689453125,1.0387
0.10687022900763359,1.6030534351145038,-1.1145038167938932,-0.078125,-0.090576171875,-0.604736328125,1.0404
0.04580152671755725,1.5572519083969465,-1.1145038167938932,-0.077392578125,-0.08935546875,-0.594970703125,1.0421
-0.13740458015267176,1.5267175572519085,-0.916030534351145,-0.0751953125,-0.084228515625,-0.607666015625,1.0437999999999998
-0.4122137404580153,1.5267175572519085,-1.1297709923664123,-0.078369140625,-0.093017578125,-0.59912109375,1.0454999999999999
-0.2900763358778626,1.4045801526717556,-1.251908396946565,-0.078125,-0.091552734375,-0.605712890625,1.0472
-0.16793893129770993,1.4198473282442747,-1.2366412213740459,-0.074951171875,-0.089111328125,-0.603271484375,1.0489
-0.10687022900763359,1.3740458015267176,-1.3740458015267176,-0.071533203125,-0.087890625,-0.598388671875,1.0506
-0.2595419847328244,1.3282442748091603,-1.4198473282442747,-0.075927734375,-0.091064453125,-0.607666015625,1.0523
-0.1984732824427481,1.450381679389313,-1.618320610687023,-0.080322265625,-0.09228515625,-0.604248046875,1.054
-0.4732824427480916,1.282442748091603,-1.618320610687023,-0.072509765625,-0.09375,-0.6044921875,1.0556999999999999
-0.5190839694656488,1.3129770992366412,-1.5725190839694656,-0.079345703125,-0.092041015625,-0.611328125,1.0574
-0.6259541984732825,1.3435114503816794,-1.7404580152671756,-0.07568359375,-0.08544921875,-0.601318359375,1.0591
-0.6259541984732825,1.618320610687023,-1.5114503816793894,-0.074462890625,-0.08740234375,-0.603271484375,1.0608
-0.8549618320610687,1.4809160305343512,-1.6030534351145038,-0.0771484375,-0.089111328125,-0.6103515625,1.0625
-1.0229007633587786,1.6030534351145038,-1.7557251908396947,-0.07861328125,-0.0849609375,-0.608154296875,1.0642
-1.0229007633587786,1.8015267175572518,-1.7404580152671756,-0.076171875,-0.094970703125,-0.6083984375,1.0658999999999998
-1.4198473282442747,1.5419847328244274,-1.6946564885496183,-0.075439453125,-0.090087890625,-0.60791015625,1.0675999999999999
-1.4961832061068703,1.7251908396946565,-1.5877862595419847,-0.076904296875,-0.090576171875,-0.60107421875,1.0693
-1.4961832061068703,1.6793893129770991,-1.6641221374045803,-0.07470703125,-0.08935546875,-0.609619140625,1.071
-1.7557251908396947,1.7251908396946565,-1.8625954198473282,-0.076416015625,-0.0869140625,-0.60302734375,1.0727
-1.9083969465648856,1.8015267175572518,-1.83206106870229,-0.0771484375,-0.0859375,-0.60107421875,1.0744
-1.83206106870229,1.8015267175572518,-1.7709923664122138,-0.076904296875,-0.086181640625,-0.60302734375,1.0760999999999998
-1.9541984732824427,1.5419847328244274,-1.8015267175572518,-0.072998046875,-0.08837890625,-0.60498046875,1.0777999999999999
-2.0610687022900764,1.5877862595419847,-1.7557251908396947,-0.07275390625,-0.087646484375,-0.608642578125,1.0795
-2.0763358778625953,1.5725190839694656,-1.6793893129770991,-0.076416015625,-0.084716796875,-0.616943359375,1.0812
-1.984732824427481,1.3435114503816794,-1.7709923664122138,-0.07861328125,-0.083984375,-0.601806640625,1.0829
-1.9083969465648856,1.4809160305343512,-1.7099236641221374,-0.0703125,-0.081298828125,-0.5947265625,1.0846
-1.9389312977099236,1.450381679389313,-1.7709923664122138,-0.073974609375,-0.082275390625,-0.603271484375,1.0863
-1.6793893129770991,1.297709923664122,-1.7251908396946565,-0.079833984375,-0.08984375,-0.599365234375,1.0879999999999999
-1.5419847328244274,1.465648854961832,-1.8015267175572518,-0.072509765625,-0.087158203125,-0.60107421875,1.0897
-1.5114503816793894,1.5419847328244274,-1.633587786259542,-0.074462890625,-0.085205078125,-0.609130859375,1.0914
-1.4809160305343512,1.282442748091603,-1.83206106870229,-0.075439453125,-0.087890625,-0.601806640625,1.0931
-1.2671755725190839,1.3587786259541985,-1.786259541984733,-0.075439453125,-0.0810546875,-0.602294921875,1.0948
-1.083969465648855,1.4045801526717556,-1.7251908396946565,-0.076416015625,-0.08642578125,-0.603271484375,1.0965
-1.083969465648855,1.5572519083969465,-1.6641221374045803,-0.074951171875,-0.08837890625,-0.607177734375,1.0981999999999998
-0.8396946564885496,1.5267175572519085,-1.7404580152671756,-0.075439453125,-0.087646484375,-0.6025390625,1.0998999999999999
-0.7633587786259542,1.4961832061068703,-1.8625954198473282,-0.071533203125,-0.08544921875,-0.60205078125,1.1016
-0.5190839694656488,1.5114503816793894,-1.7251908396946565,-0.072021484375,-0.087158203125,-0.603271484375,1.1033
-0.549618320610687,1.6488549618320612,-1.6488549618320612,-0.07470703125,-0.0888671875,-0.600341796875,1.105
-0.33587786259541985,1.6030534351145038,-1.5114503816793894,-0.075927734375,-0.08544921875,-0.599609375,1.1067
-0.3053435114503817,1.5877862595419847,-1.5725190839694656,-0.07666015625,-0.084716796875,-0.60546875,1.1083999999999998
-0.21374045801526717,1.6641221374045803,-1.7251908396946565,-0.078857421875,-0.08447265625,-0.601806640625,1.1100999999999999
-0.2595419847328244,1.6030534351145038,-1.633587786259542,-0.07568359375,-0.0888671875,-0.60693359375,1.1118
-0.4580152671755725,1.7099236641221374,-1.4961832061068703,-0.08349609375,-0.091064453125,-0.600341796875,1.1135
-0.2748091603053435,1.8778625954198473,-1.7099236641221374,-0.080810546875,-0.089599609375,-0.6025390625,1.1152
0.061068702290076333,1.786259541984733,-1.6488549618320612,-0.076171875,-0.08642578125,-0.5888671875,1.1169
-0.2595419847328244,1.83206106870229,-1.6030534351145038,-0.075927734375,-0.085205078125,-0.604248046875,1.1186
-0.16793893129770993,1.984732824427481,-1.5572519083969465,-0.077880859375,-0.09130859375,-0.59765625,1.1202999999999999
-0.3816793893129771,1.984732824427481,-1.3435114503816794,-0.080810546875,-0.086669921875,-0.599609375,1.1219999999999999
-0.15267175572519084,1.8931297709923665,-1.5267175572519085,-0.07568359375,-0.084716796875,-0.597412109375,1.1237
-0.061068702290076333,1.9389312977099236,-1.5114503816793894,-0.079345703125,-0.08251953125,-0.599853515625,1.1254
0.061068702290076333,2.0610687022900764,-1.5419847328244274,-0.080078125,-0.086181640625,-0.600830078125,1.1271
-0.13740458015267176,2.198473282442748,-1.3893129770992367,-0.076416015625,-0.08349609375,-0.594482421875,1.1288
-0.030534351145038167,2.213740458015267,-1.4351145038167938,-0.078857421875,-0.088134765625,-0.5986328125,1.1304999999999998
-0.32061068702290074,2.015267175572519,-1.4961832061068703,-0.074462890625,-0.0849609375,-0.594482421875,1.1321999999999999
-0.5954198473282443,2.1374045801526718,-1.5114503816793894,-0.0732421875,-0.0859375,-0.601806640625,1.1339
-0.3053435114503817,2.2595419847328246,-1.450381679389313,-0.078369140625,-0.0849609375,-0.60791015625,1.1356
-0.5954198473282443,2.2595419847328246,-1.2213740458015268,-0.0791015625,-0.08642578125,-0.601806640625,1.1373
-0.7022900763358778,2.1374045801526718,-1.282442748091603,-0.07666015625,-0.0810546875,-0.597900390625,1.139
-0.8396946564885496,2.3969465648854964,-1.5267175572519085,-0.080810546875,-0.081298828125,-0.6005859375,1.1407
-1.099236641221374,2.427480916030534,-1.5114503816793894,-0.08203125,-0.081787109375,-0.60302734375,1.1423999999999999
-1.2061068702290076,2.366412213740458,-1.5267175572519085,-0.0732421875,-0.080322265625,-0.59228515625,1.1441
-1.0534351145038168,2.2900763358778624,-1.4809160305343512,-0.081298828125,-0.083251953125,-0.601806640625,1.1458
-1.1297709923664123,2.3206106870229006,-1.6641221374045803,-0.075439453125,-0.083251953125,-0.603759765625,1.1475
-1.083969465648855,2.427480916030534,-1.5725190839694656,-0.075439453125,-0.0830078125,-0.606201171875,1.1492
-1.1297709923664123,2.3969465648854964,-1.4809160305343512,-0.0791015625,-0.0859375,-0.607666015625,1.1509
-1.099236641221374,2.2442748091603053,-1.5877862595419847,-0.072509765625,-0.087158203125,-0.6005859375,1.1525999999999998
-0.8702290076335878,2.3053435114503817,-1.465648854961832,-0.076171875,-0.082275390625,-0.599365234375,1.1542999999999999
-0.8091603053435115,2.198473282442748,-1.7404580152671756,-0.07470703125,-0.0830078125,-0.597412109375,1.156
-0.7480916030534351,2.16793893129771,-1.5572519083969465,-0.07666015625,-0.085205078125,-0.59375,1.1577
-0.7175572519083969,2.2900763358778624,-1.4961832061068703,-0.07470703125,-0.084228515625,-0.5966796875,1.1594
-0.6717557251908397,2.2442748091603053,-1.5725190839694656,-0.07470703125,-0.086181640625,-0.604736328125,1.1611
-0.42748091603053434,2.1374045801526718,-1.7099236641221374,-0.077880859375,-0.08642578125,-0.599853515625,1.1627999999999998
-0.183206106870229,2.2442748091603053,-1.8015267175572518,-0.0791015625,-0.086669921875,-0.596923828125,1.1644999999999999
-0.13740458015267176,2.3969465648854964,-1.8778625954198473,-0.075927734375,-0.088134765625,-0.598388671875,1.1662
-0.33587786259541985,2.564885496183206,-1.5572519083969465,-0.07861328125,-0.092041015625,-0.59912109375,1.1679
0.13740458015267176,2.5343511450381677,-1.5725190839694656,-0.072998046875,-0.08740234375,-0.598876953125,1.1696
0.2595419847328244,2.50381679389313,-1.3893129770992367,-0.074951171875,-0.0888671875,-0.60009765625,1.1713
-0.015267175572519083,2.2900763358778624,-1.618320610687023,-0.073486328125,-0.08837890625,-0.60107421875,1.173
0.015267175572519083,2.4427480916030535,-1.465648854961832,-0.074951171875,-0.089599609375,-0.597412109375,1.1746999999999999
0.12213740458015267,2.4427480916030535,-1.4198473282442747,-0.073974609375,-0.088134765625,-0.599365234375,1.1764
0.030534351145038167,2.4427480916030535,-1.4961832061068703,-0.077880859375,-0.08203125,-0.5947265625,1.1781
-0.21374045801526717,2.6106870229007635,-1.5267175572519085,-0.078857421875,-0.086669921875,-0.60107421875,1.1798
-0.42748091603053434,2.7022900763358777,-1.3129770992366412,-0.074462890625,-0.0869140625,-0.600341796875,1.1815
-0.44274809160305345,2.564885496183206,-1.2213740458015268,-0.073486328125,-0.091064453125,-0.597900390625,1.1832
-0.22900763358778625,2.4427480916030535,-1.2366412213740459,-0.076171875,-0.08935546875,-0.59619140625,1.1848999999999998
-0.5343511450381679,2.50381679389313,-1.297709923664122,-0.078369140625,-0.09375,-0.59912109375,1.1865999999999999
-0.6564885496183206,2.519083969465649,-1.1297709923664123,-0.07763671875,-0.087646484375,-0.599853515625,1.1883
-0.6106870229007634,2.381679389312977,-1.2366412213740459,-0.07421875,-0.091552734375,-0.594482421875,1.19
-0.5190839694656488,2.564885496183206,-1.2213740458015268,-0.0791015625,-0.08740234375,-0.594970703125,1.1917
-0.48854961832061067,2.33587786259542,-1.1755725190839694,-0.078125,-0.092529296875,-0.598876953125,1.1934
-0.5190839694656488,2.366412213740458,-1.0381679389312977,-0.075439453125,-0.085693359375,-0.58447265625,1.1950999999999998
-0.5954198473282443,2.3969465648854964,-1.1297709923664123,-0.07470703125,-0.0888671875,-0.59619140625,1.1967999999999999
-0.7633587786259542,2.381679389312977,-1.083969465648855,-0.080078125,-0.091064453125,-0.597900390625,1.1985
-0.5954198473282443,2.213740458015267,-1.1450381679389312,-0.080810546875,-0.092529296875,-0.604248046875,1.2002
-0.7022900763358778,2.2290076335877864,-1.1755725190839694,-0.08154296875,-0.094482421875,-0.59130859375,1.2019
-0.5801526717557252,2.3206106870229006,-0.9923664122137404,-0.078369140625,-0.091064453125,-0.58984375,1.2036
-0.2748091603053435,2.2442748091603053,-1.0381679389312977,-0.07275390625,-0.090576171875,-0.594970703125,1.2053
-0.4580152671755725,2.2595419847328246,-1.2213740458015268,-0.078369140625,-0.0908203125,-0.5888671875,1.2069999999999999
-0.48854961832061067,2.2442748091603053,-1.1908396946564885,-0.07373046875,-0.083984375,-0.59814453125,1.2086999999999999
-0.2748091603053435,2.1374045801526718,-1.3587786259541985,-0.07373046875,-0.08251953125,-0.60205078125,1.2104
-0.13740458015267176,2.122137404580153,-1.2213740458015268,-0.0810546875,-0.08740234375,-0.599365234375,1.2121
-0.366412213740458,2.198473282442748,-1.465648854961832,-0.07861328125,-0.086669921875,-0.59912109375,1.2138
0.07633587786259542,2.2595419847328246,-1.4351145038167938,-0.07958984375,-0.086181640625,-0.60205078125,1.2155
0.04580152671755725,2.1068702290076335,-1.4809160305343512,-0.079833984375,-0.08154296875,-0.5908203125,1.2171999999999998
-0.12213740458015267,2.16793893129771,-1.3587786259541985,-0.080322265625,-0.0830078125,-0.60009765625,1.2188999999999999
-0.030534351145038167,2.213740458015267,-1.465648854961832,-0.076904296875,-0.081787109375,-0.5966796875,1.2206
0.061068702290076333,2.1526717557251906,-1.6030534351145038,-0.077392578125,-0.083740234375,-0.59814453125,1.2223
0.24427480916030533,2.1068702290076335,-1.5877862595419847,-0.082275390625,-0.083740234375,-0.595703125,1.224
0.183206106870229,2.198473282442748,-1.4809160305343512,-0.080322265625,-0.08837890625,-0.597412109375,1.2257
0.061068702290076333,2.2290076335877864,-1.5572519083969465,-0.081787109375,-0.08154296875,-0.59912109375,1.2273999999999998
0.2900763358778626,2.213740458015267,-1.5877862595419847,-0.078125,-0.079833984375,-0.593994140625,1.2290999999999999
0.22900763358778625,2.2748091603053435,-1.633587786259542,-0.080322265625,-0.086181640625,-0.591064453125,1.2308
0.32061068702290074,2.2290076335877864,-1.5725190839694656,-0.078369140625,-0.083251953125,-0.5927734375,1.2325
0.5038167938931297,2.2595419847328246,-1.786259541984733,-0.076171875,-0.0849609375,-0.601318359375,1.2342
0.5648854961832062,2.122137404580153,-1.5572519083969465,-0.076171875,-0.084228515625,-0.59716796875,1.2359
0.5038167938931297,2.2900763358778624,-1.6641221374045803,-0.07373046875,-0.0859375,-0.59375,1.2376
0.6870229007633588,2.2748091603053435,-1.4961832061068703,-0.077392578125,-0.08349609375,-0.60009765625,1.2392999999999998
0.7786259541984732,2.0763358778625953,-1.7251908396946565,-0.078857421875,-0.085693359375,-0.59912109375,1.2409999999999999
0.8244274809160306,2.3053435114503817,-1.5572519083969465,-0.07861328125,-0.0849609375,-0.595703125,1.2427
0.9465648854961832,2.2595419847328246,-1.5114503816793894,-0.077880859375,-0.086181640625,-0.605224609375,1.2444
0.9618320610687023,2.2748091603053435,-1.4351145038167938,-0.081298828125,-0.089111328125,-0.591796875,1.2461
0.9923664122137404,2.0,-1.450381679389313,-0.0732421875,-0.092529296875,-0.59375,1.2478
1.1145038167938932,2.0916030534351147,-1.5114503816793894,-0.0791015625,-0.086669921875,-0.591064453125,1.2494999999999998
1.2213740458015268,2.0,-1.5419847328244274,-0.07861328125,-0.088623046875,-0.594482421875,1.2511999999999999
1.5572519083969465,2.0,-1.2366412213740459,-0.078857421875,-0.083984375,-0.591064453125,1.2529
1.3740458015267176,1.9083969465648856,-1.4045801526717556,-0.076171875,-0.086669921875,-0.58642578125,1.2546
1.3282442748091603,2.0916030534351147,-1.465648854961832,-0.0771484375,-0.082763671875,-0.59619140625,1.2563
1.1908396946564885,2.122137404580153,-1.4809160305343512,-0.078125,-0.0859375,-0.60009765625,1.258
1.2366412213740459,2.2748091603053435,-1.3740458015267176,-0.076904296875,-0.0869140625,-0.597900390625,1.2596999999999998
1.0229007633587786,2.0,-1.3893129770992367,-0.0751953125,-0.086181640625,-0.6025390625,1.2613999999999999
0.6870229007633588,2.122137404580153,-1.1450381679389312,-0.07861328125,-0.082763671875,-0.5927734375,1.2631
0.6412213740458015,2.1068702290076335,-1.3282442748091603,-0.07470703125,-0.084228515625,-0.59716796875,1.2648
0.4580152671755725,1.8931297709923665,-1.2213740458015268,-0.07080078125,-0.08349609375,-0.5947265625,1.2665
0.3816793893129771,2.0,-1.3282442748091603,-0.083984375,-0.08642578125,-0.58935546875,1.2682
0.4732824427480916,2.122137404580153,-1.1450381679389312,-0.076904296875,-0.08056640625,-0.5947265625,1.2699
0.2748091603053435,1.9389312977099236,-1.083969465648855,-0.0732421875,-0.081298828125,-0.595703125,1.2715999999999998
0.33587786259541985,2.122137404580153,-0.9770992366412213,-0.076171875,-0.08203125,-0.595703125,1.2732999999999999
0.48854961832061067,1.8778625954198473,-1.083969465648855,-0.0771484375,-0.08447265625,-0.60107421875,1.275
0.6259541984732825,1.9389312977099236,-1.0381679389312977,-0.0771484375,-0.085693359375,-0.601806640625,1.2767
0.6870229007633588,1.9083969465648856,-1.0381679389312977,-0.077392578125,-0.088134765625,-0.591552734375,1.2784
0.6106870229007634,2.045801526717557,-0.9923664122137404,-0.07763671875,-0.088623046875,-0.593017578125,1.2801
0.6259541984732825,2.0916030534351147,-1.0534351145038168,-0.0791015625,-0.084716796875,-0.593994140625,1.2817999999999998
0.732824427480916,1.9541984732824427,-0.9312977099236641,-0.076904296875,-0.091796875,-0.591552734375,1.2834999999999999
0.5954198473282443,2.0763358778625953,-0.9465648854961832,-0.082275390625,-0.08447265625,-0.599853515625,1.2852
0.6564885496183206,2.2442748091603053,-0.9312977099236641,-0.084228515625,-0.08740234375,-0.59716796875,1.2869
0.5954198473282443,2.519083969465649,-1.1145038167938932,-0.080078125,-0.087646484375,-0.597900390625,1.2886
0.5648854961832062,2.3969465648854964,-0.7786259541984732,-0.08349609375,-0.085205078125,-0.590087890625,1.2903
0.2900763358778626,2.4885496183206106,-0.9312977099236641,-0.078125,-0.08251953125,-0.5927734375,1.292
0.5038167938931297,2.7480916030534353,-0.8702290076335878,-0.078369140625,-0.083984375,-0.585205078125,1.2936999999999999
0.5801526717557252,2.9160305343511452,-0.7938931297709924,-0.078369140625,-0.083740234375,-0.593505859375,1.2953999999999999
0.3053435114503817,2.7480916030534353,-0.5954198473282443,-0.077392578125,-0.083984375,-0.5986328125,1.2971
0.030534351145038167,2.6564885496183206,-0.549618320610687,-0.075927734375,-0.08642578125,-0.598876953125,1.2988
-0.13740458015267176,2.6717557251908395,-0.32061068702290074,-0.074951171875,-0.085205078125,-0.6044921875,1.3005
-0.1984732824427481,2.732824427480916,-0.5343511450381679,-0.078857421875,-0.090576171875,-0.59765625,1.3022
-0.5038167938931297,3.0076335877862594,-0.2900763358778626,-0.076416015625,-0.084228515625,-0.59375,1.3038999999999998
-0.7175572519083969,2.931297709923664,-0.5190839694656488,-0.08203125,-0.0859375,-0.593505859375,1.3055999999999999
-0.5801526717557252,2.9923664122137406,-0.3969465648854962,-0.07763671875,-0.0859375,-0.6015625,1.3073
-0.7938931297709924,2.885496183206107,-0.3816793893129771,-0.07763671875,-0.0849609375,-0.59814453125,1.309
-1.0076335877862594,3.2977099236641223,-0.33587786259541985,-0.079833984375,-0.08837890625,-0.596923828125,1.3107
-0.9618320610687023,3.1603053435114505,-0.2748091603053435,-0.08154296875,-0.0859375,-0.603271484375,1.3124
-1.2213740458015268,2.946564885496183,-0.13740458015267176,-0.080078125,-0.082275390625,-0.59521484375,1.3140999999999998
-1.297709923664122,3.068702290076336,-0.15267175572519084,-0.08251953125,-0.0859375,-0.607421875,1.3157999999999999
-1.1145038167938932,3.3282442748091605,-0.12213740458015267,-0.075439453125,-0.084228515625,-0.59228515625,1.3175
-1.3129770992366412,3.267175572519084,-0.07633587786259542,-0.07568359375,-0.087158203125,-0.597412109375,1.3192
-1.1908396946564885,3.053435114503817,-0.24427480916030533,-0.0791015625,-0.088134765625,-0.5888671875,1.3209
-1.1908396946564885,3.0076335877862594,-0.2748091603053435,-0.07568359375,-0.08447265625,-0.591552734375,1.3226
-0.9770992366412213,3.0381679389312977,-0.21374045801526717,-0.07861328125,-0.080322265625,-0.599853515625,1.3243
-0.6870229007633588,3.1755725190839694,-0.32061068702290074,-0.07666015625,-0.090087890625,-0.60205078125,1.3259999999999998
-0.48854961832061067,2.9618320610687023,-0.24427480916030533,-0.078125,-0.0869140625,-0.60009765625,1.3276999999999999
-0.4732824427480916,2.946564885496183,-0.22900763358778625,-0.073974609375,-0.085693359375,-0.5966796875,1.3294
-0.4732824427480916,3.0381679389312977,-0.183206106870229,-0.07666015625,-0.08447265625,-0.605712890625,1.3311
-0.2595419847328244,2.9923664122137406,0.15267175572519084,-0.07958984375,-0.082275390625,-0.602294921875,1.3328
-0.3511450381679389,3.068702290076336,0.030534351145038167,-0.07666015625,-0.084228515625,-0.60888671875,1.3345
-0.4732824427480916,2.900763358778626,0.1984732824427481,-0.07421875,-0.0771484375,-0.60107421875,1.3361999999999998
-0.6106870229007634,3.068702290076336,0.4732824427480916,-0.074462890625,-0.077392578125,-0.599609375,1.3378999999999999
-0.5801526717557252,3.0229007633587788,0.5954198473282443,-0.07373046875,-0.082275390625,-0.59814453125,1.3396
-0.6564885496183206,3.0076335877862594,0.7786259541984732,-0.07275390625,-0.079345703125,-0.595703125,1.3413
-0.6106870229007634,3.053435114503817,0.7480916030534351,-0.071044921875,-0.07470703125,-0.604248046875,1.343
-0.4580152671755725,3.3893129770992365,0.732824427480916,-0.075439453125,-0.08056640625,-0.6005859375,1.3447
-0.48854961832061067,3.236641221374046,1.0076335877862594,-0.072265625,-0.074951171875,-0.6025390625,1.3463999999999998
-0.6717557251908397,3.450381679389313,1.2671755725190839,-0.079833984375,-0.074951171875,-0.608642578125,1.3480999999999999
-0.44274809160305345,3.633587786259542,1.0687022900763359,-0.07470703125,-0.080078125,-0.607177734375,1.3497999999999999
-0.6412213740458015,3.5877862595419847,1.5267175572519085,-0.083251953125,-0.0830078125,-0.600341796875,1.3515
-0.5801526717557252,3.83206106870229,1.4809160305343512,-0.078369140625,-0.081787109375,-0.594482421875,1.3532
-0.42748091603053434,3.9389312977099236,1.6946564885496183,-0.0771484375,-0.08154296875,-0.592041015625,1.3549
-0.3511450381679389,3.7404580152671754,1.7709923664122138,-0.0771484375,-0.080078125,-0.6064453125,1.3566
-0.5343511450381679,3.786259541984733,1.9541984732824427,-0.077880859375,-0.07861328125,-0.602783203125,1.3582999999999998
-0.6259541984732825,3.7709923664122136,1.7404580152671756,-0.078857421875,-0.083984375,-0.601318359375,1.3599999999999999
-0.33587786259541985,3.6793893129770994,1.8473282442748091,-0.075927734375,-0.082275390625,-0.598388671875,1.3617
-0.015267175572519083,3.572519083969466,2.030534351145038,-0.074951171875,-0.078857421875,-0.60400390625,1.3634
0.21374045801526717,3.4656488549618323,2.1068702290076335,-0.078125,-0.0810546875,-0.6015625,1.3651
0.2595419847328244,3.3435114503816794,2.183206106870229,-0.076904296875,-0.0810546875,-0.595458984375,1.3668
0.42748091603053434,3.267175572519084,2.381679389312977,-0.07763671875,-0.082763671875,-0.601806640625,1.3684999999999998
0.3969465648854962,3.145038167938931,2.2748091603053435,-0.077392578125,-0.0791015625,-0.601318359375,1.3701999999999999
0.7938931297709924,3.099236641221374,2.366412213740458,-0.07861328125,-0.07568359375,-0.599609375,1.3719
0.8549618320610687,3.099236641221374,2.351145038167939,-0.075439453125,-0.080810546875,-0.60400390625,1.3736
0.7938931297709924,2.9618320610687023,2.4885496183206106,-0.075439453125,-0.082763671875,-0.599853515625,1.3753
0.9465648854961832,3.0229007633587788,2.50381679389313,-0.07421875,-0.077880859375,-0.6025390625,1.377
0.9007633587786259,2.9770992366412212,2.5343511450381677,-0.07763671875,-0.076904296875,-0.602783203125,1.3786999999999998
1.2061068702290076,3.068702290076336,2.687022900763359,-0.074951171875,-0.076171875,-0.60107421875,1.3803999999999998
1.1297709923664123,3.1755725190839694,2.8244274809160306,-0.07470703125,-0.079833984375,-0.60888671875,1.3820999999999999
0.9312977099236641,3.1908396946564888,2.8244274809160306,-0.07421875,-0.073486328125,-0.618408203125,1.3838
0.9770992366412213,3.099236641221374,2.8702290076335877,-0.077392578125,-0.074462890625,-0.604736328125,1.3855
1.083969465648855,3.282442748091603,2.8702290076335877,-0.077880859375,-0.0791015625,-0.596923828125,1.3872
1.083969465648855,3.236641221374046,3.114503816793893,-0.0771484375,-0.07666015625,-0.603271484375,1.3889
1.3282442748091603,3.4198473282442747,2.9770992366412212,-0.08203125,-0.07666015625,-0.609375,1.3905999999999998
1.099236641221374,3.6946564885496183,3.053435114503817,-0.081298828125,-0.073974609375,-0.61083984375,1.3922999999999999
1.1297709923664123,3.618320610687023,3.0229007633587788,-0.07958984375,-0.077880859375,-0.612060546875,1.394
1.251908396946565,3.572519083969466,3.0839694656488548,-0.078857421875,-0.073974609375,-0.605712890625,1.3957
0.916030534351145,3.49618320610687,3.3587786259541983,-0.0771484375,-0.08203125,-0.605712890625,1.3974
1.0381679389312977,3.6030534351145036,3.267175572519084,-0.0771484375,-0.08056640625,-0.6083984375,1.3991
1.2366412213740459,3.648854961832061,3.2519083969465647,-0.077392578125,-0.076904296875,-0.606201171875,1.4007999999999998
1.465648854961832,3.648854961832061,3.3435114503816794,-0.079345703125,-0.078125,-0.608154296875,1.4024999999999999
1.3893129770992367,3.83206106870229,3.3282442748091605,-0.072265625,-0.074951171875,-0.60107421875,1.4042
1.5114503816793894,3.786259541984733,3.435114503816794,-0.0771484375,-0.079345703125,-0.60107421875,1.4059
1.8778625954198473,3.9236641221374047,3.3435114503816794,-0.07421875,-0.078857421875,-0.5986328125,1.4076
2.045801526717557,3.801526717557252,3.633587786259542,-0.072998046875,-0.081298828125,-0.607421875,1.4093
1.7709923664122138,4.0,3.49618320610687,-0.075439453125,-0.080810546875,-0.60498046875,1.411
2.0,4.030534351145038,3.572519083969466,-0.072998046875,-0.07861328125,-0.59912109375,1.4126999999999998
1.9694656488549618,3.9236641221374047,3.7251908396946565,-0.07080078125,-0.082275390625,-0.604248046875,1.4143999999999999
1.5725190839694656,3.984732824427481,3.618320610687023,-0.07568359375,-0.08056640625,-0.610595703125,1.4161
1.7251908396946565,4.137404580152672,3.8625954198473282,-0.078125,-0.0810546875,-0.603271484375,1.4178
1.6488549618320612,4.076335877862595,3.8473282442748094,-0.077392578125,-0.086669921875,-0.595703125,1.4195
1.7709923664122138,4.106870229007634,3.83206106870229,-0.079345703125,-0.07861328125,-0.603759765625,1.4212
1.5877862595419847,4.030534351145038,3.7557251908396947,-0.07568359375,-0.076416015625,-0.60400390625,1.4228999999999998
1.4961832061068703,4.183206106870229,4.061068702290076,-0.077880859375,-0.086669921875,-0.597412109375,1.4245999999999999
1.3740458015267176,4.198473282442748,3.969465648854962,-0.072998046875,-0.083984375,-0.598388671875,1.4263
1.2366412213740459,4.1679389312977095,4.213740458015267,-0.07080078125,-0.08203125,-0.603759765625,1.428
1.3587786259541985,4.106870229007634,4.366412213740458,-0.072998046875,-0.08447265625,-0.605224609375,1.4297
1.1908396946564885,4.137404580152672,4.229007633587786,-0.073974609375,-0.08544921875,-0.60107421875,1.4314
0.7938931297709924,4.290076335877862,4.259541984732825,-0.077392578125,-0.086181640625,-0.60107421875,1.4330999999999998
0.916030534351145,3.969465648854962,4.5038167938931295,-0.073486328125,-0.081787109375,-0.60595703125,1.4347999999999999
0.9770992366412213,4.0,4.6106870229007635,-0.078857421875,-0.086181640625,-0.604736328125,1.4364999999999999
0.6870229007633588,4.030534351145038,4.5038167938931295,-0.075927734375,-0.083251953125,-0.6044921875,1.4382
0.4580152671755725,4.030534351145038,4.5038167938931295,-0.071044921875,-0.087158203125,-0.604248046875,1.4399
0.48854961832061067,4.015267175572519,4.6106870229007635,-0.076904296875,-0.082275390625,-0.59716796875,1.4416
0.4732824427480916,4.137404580152672,4.6106870229007635,-0.076416015625,-0.08642578125,-0.605224609375,1.4433
0.1984732824427481,3.9236641221374047,4.625954198473282,-0.081298828125,-0.0810546875,-0.607177734375,1.4449999999999998
0.21374045801526717,3.7709923664122136,4.656488549618321,-0.075439453125,-0.080078125,-0.6083984375,1.4466999999999999
0.183206106870229,4.091603053435114,4.702290076335878,-0.07177734375,-0.08056640625,-0.60595703125,1.4484
0.15267175572519084,4.061068702290076,4.564885496183206,-0.075927734375,-0.07763671875,-0.604736328125,1.4501
0.10687022900763359,4.1679389312977095,4.458015267175573,-0.07373046875,-0.08837890625,-0.60986328125,1.4518
0.1984732824427481,4.183206106870229,4.641221374045801,-0.07275390625,-0.0791015625,-0.60888671875,1.4535
0.12213740458015267,4.076335877862595,4.641221374045801,-0.0703125,-0.083740234375,-0.606689453125,1.4551999999999998
0.15267175572519084,3.984732824427481,4.473282442748092,-0.072265625,-0.0859375,-0.59619140625,1.4568999999999999
0.4122137404580153,3.9083969465648853,4.656488549618321,-0.0791015625,-0.081298828125,-0.59423828125,1.4586
0.22900763358778625,3.816793893129771,4.549618320610687,-0.07470703125,-0.0859375,-0.60302734375,1.4603
0.2595419847328244,3.66412213740458,4.549618320610687,-0.076171875,-0.079833984375,-0.604248046875,1.462
0.549618320610687,3.6946564885496183,4.442748091603053,-0.073486328125,-0.08056640625,-0.59912109375,1.4637
0.44274809160305345,3.7404580152671754,4.763358778625954,-0.0703125,-0.08154296875,-0.59326171875,1.4653999999999998
0.5648854961832062,3.7557251908396947,4.412213740458015,-0.0732421875,-0.083251953125,-0.602294921875,1.4670999999999998
0.5038167938931297,3.8473282442748094,4.427480916030534,-0.07666015625,-0.082763671875,-0.6015625,1.4687999999999999
0.4580152671755725,3.7251908396946565,4.305343511450381,-0.0751953125,-0.0830078125,-0.612060546875,1.4705
0.3969465648854962,3.816793893129771,4.198473282442748,-0.071044921875,-0.085205078125,-0.6025390625,1.4722
0.6106870229007634,3.816793893129771,4.259541984732825,-0.07568359375,-0.08642578125,-0.6025390625,1.4739
0.6870229007633588,3.7099236641221376,4.229007633587786,-0.076904296875,-0.0810546875,-0.599365234375,1.4756
0.6717557251908397,3.83206106870229,4.1679389312977095,-0.07275390625,-0.087158203125,-0.609619140625,1.4772999999999998
0.4732824427480916,3.7251908396946565,4.030534351145038,-0.074951171875,-0.08251953125,-0.6005859375,1.4789999999999999
0.5954198473282443,3.7251908396946565,3.8625954198473282,-0.07421875,-0.086669921875,-0.603515625,1.4807
0.6564885496183206,3.9236641221374047,3.8931297709923665,-0.0732421875,-0.0830078125,-0.600830078125,1.4824
0.3816793893129771,3.969465648854962,3.786259541984733,-0.074951171875,-0.085693359375,-0.602783203125,1.4841
0.5190839694656488,3.9236641221374047,3.83206106870229,-0.073486328125,-0.082275390625,-0.59765625,1.4858
0.42748091603053434,3.969465648854962,3.6030534351145036,-0.07177734375,-0.0859375,-0.614013671875,1.4874999999999998
0.5954198473282443,4.122137404580153,3.5419847328244276,-0.07275390625,-0.090576171875,-0.611572265625,1.4891999999999999
0.7633587786259542,4.015267175572519,3.2977099236641223,-0.079833984375,-0.084716796875,-0.60400390625,1.4909
0.366412213740458,4.1679389312977095,3.3587786259541983,-0.073974609375,-0.083984375,-0.593017578125,1.4926
0.4122137404580153,4.2748091603053435,3.0076335877862594,-0.073486328125,-0.089111328125,-0.601806640625,1.4943
0.366412213740458,4.305343511450381,2.8702290076335877,-0.075927734375,-0.0869140625,-0.60107421875,1.496
0.15267175572519084,4.106870229007634,2.854961832061069,-0.07373046875,-0.080810546875,-0.6044921875,1.4976999999999998
0.0,4.183206106870229,2.7480916030534353,-0.074462890625,-0.085205078125,-0.597900390625,1.4993999999999998
-0.13740458015267176,4.183206106870229,2.6412213740458017,-0.0751953125,-0.0869140625,-0.60107421875,1.5010999999999999
-0.366412213740458,4.122137404580153,2.519083969465649,-0.075439453125,-0.089111328125,-0.611328125,1.5028
-0.366412213740458,4.106870229007634,2.2442748091603053,-0.0693359375,-0.082275390625,-0.597412109375,1.5045
-0.2900763358778626,3.969465648854962,2.381679389312977,-0.072998046875,-0.085693359375,-0.603759765625,1.5062
-0.366412213740458,4.0,2.183206106870229,-0.07470703125,-0.08544921875,-0.60595703125,1.5079
-0.6106870229007634,3.83206106870229,2.0,-0.069580078125,-0.090576171875,-0.6015625,1.5095999999999998
-0.6412213740458015,3.877862595419847,1.8473282442748091,-0.073486328125,-0.090576171875,-0.59423828125,1.5112999999999999
-0.5801526717557252,3.83206106870229,1.9694656488549618,-0.0703125,-0.083251953125,-0.597900390625,1.513
-0.3511450381679389,3.9236641221374047,1.8625954198473282,-0.07421875,-0.08642578125,-0.6005859375,1.5147
-0.6106870229007634,3.7099236641221376,1.6488549618320612,-0.07177734375,-0.09033203125,-0.607421875,1.5164
-0.6870229007633588,3.816793893129771,1.465648854961832,-0.0771484375,-0.08837890625,-0.60205078125,1.5181
-0.6259541984732825,3.816793893129771,1.6641221374045803,-0.073486328125,-0.087646484375,-0.59912109375,1.5197999999999998
-0.7022900763358778,3.7251908396946565,1.5725190839694656,-0.07275390625,-0.07958984375,-0.597412109375,1.5214999999999999
-0.8244274809160306,3.6793893129770994,1.465648854961832,-0.0732421875,-0.086669921875,-0.59814453125,1.5231999999999999
-0.732824427480916,3.6793893129770994,1.4351145038167938,-0.07275390625,-0.08544921875,-0.602294921875,1.5249
-0.7175572519083969,3.6793893129770994,1.4351145038167938,-0.067138671875,-0.0859375,-0.6064453125,1.5266
-0.8091603053435115,3.7099236641221376,1.1908396946564885,-0.068603515625,-0.08154296875,-0.59375,1.5283
-0.9465648854961832,3.618320610687023,1.2366412213740459,-0.074462890625,-0.0830078125,-0.5947265625,1.5299999999999998
-0.9007633587786259,3.5419847328244276,0.9465648854961832,-0.071533203125,-0.085205078125,-0.59375,1.5316999999999998
-1.0381679389312977,3.3587786259541983,1.0229007633587786,-0.068115234375,-0.0830078125,-0.597412109375,1.5333999999999999
-1.3587786259541985,3.5572519083969465,0.9618320610687023,-0.071533203125,-0.08837890625,-0.603515625,1.5351
-1.2213740458015268,3.5114503816793894,0.9770992366412213,-0.070068359375,-0.085205078125,-0.604736328125,1.5368
-1.2366412213740459,3.3587786259541983,0.5801526717557252,-0.0712890625,-0.083984375,-0.60595703125,1.5385
-1.3740458015267176,3.404580152671756,0.9007633587786259,-0.06982421875,-0.085693359375,-0.604736328125,1.5402
-1.4351145038167938,3.404580152671756,0.7633587786259542,-0.0703125,-0.088134765625,-0.60009765625,1.5418999999999998
-1.4198473282442747,3.480916030534351,0.6259541984732825,-0.071044921875,-0.083984375,-0.596923828125,1.5435999999999999
-1.5877862595419847,3.5267175572519083,0.5190839694656488,-0.072998046875,-0.081298828125,-0.604736328125,1.5453
-1.8015267175572518,3.49618320610687,0.3816793893129771,-0.0712890625,-0.084228515625,-0.59716796875,1.547
-1.5725190839694656,3.3587786259541983,0.42748091603053434,-0.072998046875,-0.08544921875,-0.5966796875,1.5487
-1.6488549618320612,3.5267175572519083,0.15267175572519084,-0.06884765625,-0.08447265625,-0.603515625,1.5504
-1.7709923664122138,3.5572519083969465,0.030534351145038167,-0.07177734375,-0.090087890625,-0.603271484375,1.5520999999999998
-1.9541984732824427,3.3282442748091605,0.07633587786259542,-0.070556640625,-0.08544921875,-0.603759765625,1.5537999999999998
-1.7251908396946565,3.1297709923664123,-0.07633587786259542,-0.067138671875,-0.08984375,-0.603759765625,1.5554999999999999
-1.8778625954198473,3.2977099236641223,-0.16793893129770993,-0.06787109375,-0.083984375,-0.59619140625,1.5572
-1.9541984732824427,3.2519083969465647,-0.549618320610687,-0.068359375,-0.083740234375,-0.60009765625,1.5589
-1.8778625954198473,3.1908396946564888,-0.4122137404580153,-0.0712890625,-0.08544921875,-0.602783203125,1.5606
-1.9236641221374047,3.267175572519084,-0.6717557251908397,-0.06494140625,-0.08447265625,-0.60205078125,1.5623
-1.9694656488549618,3.1755725190839694,-0.8091603053435115,-0.072265625,-0.0908203125,-0.600830078125,1.5639999999999998
-1.9236641221374047,3.114503816793893,-0.9618320610687023,-0.0673828125,-0.08544921875,-0.600341796875,1.5656999999999999
-2.16793893129771,3.1603053435114505,-0.9007633587786259,-0.0673828125,-0.0888671875,-0.596435546875,1.5674
-2.2290076335877864,3.3587786259541983,-1.1297709923664123,-0.07373046875,-0.085693359375,-0.602294921875,1.5691
-2.3206106870229006,3.3435114503816794,-1.099236641221374,-0.0693359375,-0.0869140625,-0.597412109375,1.5708
-2.3053435114503817,3.1908396946564888,-1.3129770992366412,-0.0703125,-0.08740234375,-0.603759765625,1.5725
-2.3969465648854964,3.2519083969465647,-1.3893129770992367,-0.0673828125,-0.085205078125,-0.605224609375,1.5741999999999998
-2.33587786259542,3.267175572519084,-1.6793893129770991,-0.070068359375,-0.080322265625,-0.60400390625,1.5758999999999999
-2.6412213740458017,3.2519083969465647,-1.5114503816793894,-0.06787109375,-0.080810546875,-0.59619140625,1.5776
-2.595419847328244,3.1755725190839694,-1.6641221374045803,-0.06884765625,-0.080078125,-0.60498046875,1.5793
-2.7480916030534353,3.1603053435114505,-1.4961832061068703,-0.06787109375,-0.08544921875,-0.61181640625,1.581
-2.717557251908397,3.068702290076336,-1.8015267175572518,-0.06787109375,-0.074951171875,-0.60400390625,1.5827
-2.8091603053435112,3.114503816793893,-1.83206106870229,-0.0693359375,-0.080078125,-0.60302734375,1.5843999999999998
-3.0076335877862594,2.9618320610687023,-1.9389312977099236,-0.0654296875,-0.08056640625,-0.599365234375,1.5860999999999998
-3.1908396946564888,3.114503816793893,-1.9694656488549618,-0.07177734375,-0.078369140625,-0.59521484375,1.5877999999999999
-3.0839694656488548,2.946564885496183,-1.9694656488549618,-0.06884765625,-0.07373046875,-0.59521484375,1.5895
-3.3587786259541983,2.7786259541984735,-1.9083969465648856,-0.0654296875,-0.0849609375,-0.60498046875,1.5912
-3.1297709923664123,2.931297709923664,-2.16793893129771,-0.064208984375,-0.0849609375,-0.603271484375,1.5929
-3.2977099236641223,2.8244274809160306,-1.984732824427481,-0.067138671875,-0.084716796875,-0.6015625,1.5946
-3.1755725190839694,2.8091603053435112,-2.030534351145038,-0.072265625,-0.085205078125,-0.603271484375,1.5962999999999998
-3.1908396946564888,2.549618320610687,-2.16793893129771,-0.071044921875,-0.083251953125,-0.60302734375,1.5979999999999999
-3.2213740458015265,2.564885496183206,-2.0916030534351147,-0.0673828125,-0.080078125,-0.60302734375,1.5997
-3.2519083969465647,2.6564885496183206,-2.0610687022900764,-0.068359375,-0.0810546875,-0.6015625,1.6014
-2.9160305343511452,2.5343511450381677,-1.9389312977099236,-0.0693359375,-0.075439453125,-0.596923828125,1.6031
-3.099236641221374,2.4427480916030535,-2.030534351145038,-0.0693359375,-0.07958984375,-0.60546875,1.6048
-2.9923664122137406,2.519083969465649,-2.045801526717557,-0.064453125,-0.08056640625,-0.6064453125,1.6064999999999998
-2.931297709923664,2.3969465648854964,-1.9694656488549618,-0.070556640625,-0.085693359375,-0.599365234375,1.6081999999999999
-2.6564885496183206,2.16793893129771,-1.8778625954198473,-0.06494140625,-0.07861328125,-0.597900390625,1.6098999999999999
-2.3206106870229006,2.366412213740458,-1.6641221374045803,-0.070556640625,-0.0791015625,-0.5986328125,1.6116
-2.2595419847328246,2.2442748091603053,-1.9236641221374047,-0.0693359375,-0.086181640625,-0.604736328125,1.6133
-2.351145038167939,2.2900763358778624,-1.6793893129770991,-0.067626953125,-0.081787109375,-0.594970703125,1.615
-1.9389312977099236,2.4427480916030535,-1.6946564885496183,-0.0693359375,-0.082763671875,-0.596435546875,1.6166999999999998
-1.6488549618320612,2.33587786259542,-1.6946564885496183,-0.0673828125,-0.08349609375,-0.607421875,1.6183999999999998
-1.8015267175572518,2.351145038167939,-1.6793893129770991,-0.06787109375,-0.080810546875,-0.599853515625,1.6200999999999999
-1.465648854961832,2.4580152671755724,-1.5267175572519085,-0.067626953125,-0.084716796875,-0.592529296875,1.6218
-1.6030534351145038,2.4580152671755724,-1.6946564885496183,-0.07080078125,-0.0849609375,-0.608642578125,1.6235
-1.7251908396946565,2.5801526717557253,-1.4809160305343512,-0.07421875,-0.08251953125,-0.595703125,1.6252
-1.4045801526717556,2.763358778625954,-1.3893129770992367,-0.072021484375,-0.0810546875,-0.60302734375,1.6269
-1.6641221374045803,2.7786259541984735,-1.1450381679389312,-0.06640625,-0.07861328125,-0.611083984375,1.6285999999999998
-1.5267175572519085,2.900763358778626,-1.1297709923664123,-0.0732421875,-0.0888671875,-0.591796875,1.6302999999999999
-1.6946564885496183,2.9923664122137406,-1.1450381679389312,-0.074951171875,-0.078125,-0.599853515625,1.632
-1.7404580152671756,3.1297709923664123,-1.1145038167938932,-0.06982421875,-0.08203125,-0.599853515625,1.6337
-1.6488549618320612,3.2213740458015265,-1.1603053435114503,-0.071533203125,-0.076171875,-0.59375,1.6354
-1.5114503816793894,3.1755725190839694,-1.1755725190839694,-0.075439453125,-0.080078125,-0.599853515625,1.6371
-1.4961832061068703,3.236641221374046,-1.1755725190839694,-0.073974609375,-0.080078125,-0.607177734375,1.6387999999999998
-1.7251908396946565,3.1908396946564888,-1.3129770992366412,-0.07177734375,-0.072509765625,-0.602783203125,1.6404999999999998
-1.8931297709923665,3.1297709923664123,-1.251908396946565,-0.0712890625,-0.078125,-0.6005859375,1.6421999999999999
-1.7557251908396947,3.2977099236641223,-1.4809160305343512,-0.068115234375,-0.073974609375,-0.597900390625,1.6439
-1.8778625954198473,3.236641221374046,-1.465648854961832,-0.0732421875,-0.074462890625,-0.6083984375,1.6456
-1.7557251908396947,3.1297709923664123,-1.3893129770992367,-0.070556640625,-0.074462890625,-0.602783203125,1.6473
-1.633587786259542,3.404580152671756,-1.3893129770992367,-0.073486328125,-0.075439453125,-0.603515625,1.6489999999999998
-1.3435114503816794,3.312977099236641,-1.5572519083969465,-0.071533203125,-0.076416015625,-0.6015625,1.6506999999999998
-1.3740458015267176,3.053435114503817,-1.633587786259542,-0.0654296875,-0.0751953125,-0.600830078125,1.6523999999999999
-1.5572519083969465,3.1755725190839694,-1.6641221374045803,-0.068359375,-0.077392578125,-0.60302734375,1.6541
-1.282442748091603,3.2519083969465647,-1.8625954198473282,-0.071044921875,-0.071044921875,-0.6015625,1.6558
-1.2671755725190839,3.3740458015267176,-1.786259541984733,-0.073974609375,-0.075439453125,-0.601318359375,1.6575
-1.1755725190839694,3.435114503816794,-1.6793893129770991,-0.06787109375,-0.073486328125,-0.60205078125,1.6592
-1.099236641221374,3.2061068702290076,-2.045801526717557,-0.0712890625,-0.073974609375,-0.600341796875,1.6608999999999998
-0.9465648854961832,3.2061068702290076,-1.9083969465648856,-0.0712890625,-0.077880859375,-0.595458984375,1.6625999999999999
-0.8396946564885496,2.9923664122137406,-2.1068702290076335,-0.06787109375,-0.0771484375,-0.600830078125,1.6643
-0.6412213740458015,3.0076335877862594,-2.213740458015267,-0.068359375,-0.075439453125,-0.598388671875,1.666
-0.4122137404580153,3.114503816793893,-2.2748091603053435,-0.070556640625,-0.075927734375,-0.59814453125,1.6677
-0.2900763358778626,3.068702290076336,-2.4732824427480917,-0.074951171875,-0.074951171875,-0.601806640625,1.6694
0.04580152671755725,3.1755725190839694,-2.3206106870229006,-0.070556640625,-0.07470703125,-0.5966796875,1.6710999999999998
-0.061068702290076333,3.114503816793893,-2.0916030534351147,-0.071044921875,-0.078369140625,-0.60595703125,1.6727999999999998
-0.061068702290076333,2.946564885496183,-2.366412213740458,-0.066650390625,-0.079833984375,-0.597412109375,1.6744999999999999
0.15267175572519084,2.931297709923664,-2.33587786259542,-0.07080078125,-0.07275390625,-0.597412109375,1.6762
0.366412213740458,2.9923664122137406,-2.2442748091603053,-0.069580078125,-0.075439453125,-0.60400390625,1.6779
0.6259541984732825,3.145038167938931,-2.33587786259542,-0.073974609375,-0.079345703125,-0.60009765625,1.6796
0.6106870229007634,3.1297709923664123,-2.4122137404580153,-0.06884765625,-0.08056640625,-0.6005859375,1.6813
0.6259541984732825,3.236641221374046,-2.5801526717557253,-0.069580078125,-0.076904296875,-0.602783203125,1.6829999999999998
0.4732824427480916,3.282442748091603,-2.6564885496183206,-0.07373046875,-0.07275390625,-0.6044921875,1.6846999999999999
0.7633587786259542,3.435114503816794,-2.6717557251908395,-0.072998046875,-0.077880859375,-0.6015625,1.6864
0.4580152671755725,3.572519083969466,-2.4427480916030535,-0.067626953125,-0.078125,-0.610107421875,1.6881
0.3053435114503817,3.5419847328244276,-2.4427480916030535,-0.072021484375,-0.082763671875,-0.604736328125,1.6898
-0.015267175572519083,3.7404580152671754,-2.427480916030534,-0.07470703125,-0.074462890625,-0.5986328125,1.6915
-0.12213740458015267,3.7251908396946565,-2.4580152671755724,-0.073486328125,-0.081298828125,-0.60205078125,1.6931999999999998
-0.33587786259541985,3.7099236641221376,-2.4122137404580153,-0.07421875,-0.077880859375,-0.600341796875,1.6948999999999999
-0.6259541984732825,3.83206106870229,-2.4732824427480917,-0.0712890625,-0.081298828125,-0.591796875,1.6965999999999999
-0.7480916030534351,3.816793893129771,-2.4580152671755724,-0.075927734375,-0.075927734375,-0.60107421875,1.6983
-0.8854961832061069,3.7709923664122136,-2.50381679389313,-0.07373046875,-0.0751953125,-0.59814453125,1.7
-1.0229007633587786,3.6946564885496183,-2.381679389312977,-0.07275390625,-0.080322265625,-0.5947265625,1.7017
-1.3893129770992367,3.572519083969466,-2.2290076335877864,-0.072265625,-0.0791015625,-0.6005859375,1.7033999999999998
-1.4351145038167938,3.480916030534351,-2.4427480916030535,-0.0673828125,-0.080078125,-0.60009765625,1.7050999999999998
-1.4198473282442747,3.3587786259541983,-2.351145038167939,-0.068359375,-0.078369140625,-0.59814453125,1.7067999999999999
-1.4351145038167938,3.236641221374046,-2.33587786259542,-0.0693359375,-0.076416015625,-0.586181640625,1.7085
-1.4045801526717556,3.236641221374046,-2.519083969465649,-0.071044921875,-0.07666015625,-0.60107421875,1.7102
-1.5267175572519085,2.931297709923664,-2.4580152671755724,-0.06982421875,-0.077880859375,-0.602783203125,1.7119
-1.2061068702290076,2.519083969465649,-2.4427480916030535,-0.07177734375,-0.0771484375,-0.593017578125,1.7136
-0.9618320610687023,2.732824427480916,-2.5343511450381677,-0.07470703125,-0.07470703125,-0.59716796875,1.7152999999999998
-0.916030534351145,2.5343511450381677,-2.564885496183206,-0.07080078125,-0.082275390625,-0.59326171875,1.7169999999999999
-0.7786259541984732,2.351145038167939,-2.50381679389313,-0.072998046875,-0.07958984375,-0.597900390625,1.7187
-0.4580152671755725,2.2900763358778624,-2.4427480916030535,-0.06689453125,-0.07861328125,-0.59765625,1.7204
-0.2900763358778626,2.3969465648854964,-2.5801526717557253,-0.075927734375,-0.082763671875,-0.601806640625,1.7221
-0.15267175572519084,2.366412213740458,-2.8091603053435112,-0.071533203125,-0.07470703125,-0.60009765625,1.7238
0.13740458015267176,2.2595419847328246,-2.6717557251908395,-0.065673828125,-0.078857421875,-0.59521484375,1.7254999999999998
0.2900763358778626,2.366412213740458,-2.7480916030534353,-0.0751953125,-0.074462890625,-0.5986328125,1.7271999999999998
0.42748091603053434,2.2290076335877864,-2.6412213740458017,-0.072998046875,-0.075439453125,-0.597900390625,1.7288999999999999
0.3511450381679389,2.16793893129771,-2.6412213740458017,-0.072265625,-0.077392578125,-0.591064453125,1.7306
0.6717557251908397,2.381679389312977,-2.595419847328244,-0.074462890625,-0.0791015625,-0.59765625,1.7323
0.5954198473282443,2.4427480916030535,-2.5801526717557253,-0.0703125,-0.075927734375,-0.5947265625,1.734
0.6106870229007634,2.3206106870229006,-2.33587786259542,-0.0732421875,-0.06884765625,-0.593505859375,1.7356999999999998
0.7022900763358778,2.50381679389313,-2.519083969465649,-0.07177734375,-0.074951171875,-0.603271484375,1.7373999999999998
0.5648854961832062,2.50381679389313,-2.4122137404580153,-0.071044921875,-0.076171875,-0.609619140625,1.7390999999999999
0.6106870229007634,2.4427480916030535,-2.3969465648854964,-0.07470703125,-0.08203125,-0.59521484375,1.7408
0.5190839694656488,2.4427480916030535,-2.4122137404580153,-0.0732421875,-0.07763671875,-0.596923828125,1.7425
0.6259541984732825,2.4732824427480917,-2.366412213740458,-0.072509765625,-0.07666015625,-0.598876953125,1.7442
0.8702290076335878,2.6564885496183206,-2.2900763358778624,-0.074462890625,-0.083251953125,-0.596923828125,1.7459
0.549618320610687,2.4885496183206106,-2.4580152671755724,-0.070556640625,-0.083740234375,-0.59765625,1.7475999999999998
0.8549618320610687,2.351145038167939,-2.3969465648854964,-0.070556640625,-0.08154296875,-0.60546875,1.7492999999999999
0.916030534351145,2.366412213740458,-2.5343511450381677,-0.069580078125,-0.080810546875,-0.600341796875,1.751
0.9312977099236641,2.3969465648854964,-2.366412213740458,-0.06787109375,-0.080078125,-0.600341796875,1.7527
0.7175572519083969,2.3969465648854964,-2.6412213740458017,-0.073974609375,-0.0849609375,-0.599365234375,1.7544
0.7786259541984732,2.198473282442748,-2.6106870229007635,-0.070068359375,-0.079833984375,-0.592529296875,1.7561
1.0534351145038168,2.122137404580153,-2.8091603053435112,-0.070068359375,-0.077880859375,-0.600341796875,1.7577999999999998
0.9770992366412213,2.0,-2.717557251908397,-0.07080078125,-0.0830078125,-0.596923828125,1.7594999999999998
0.8702290076335878,2.1068702290076335,-2.7938931297709924,-0.0712890625,-0.082763671875,-0.592529296875,1.7611999999999999
1.1450381679389312,1.9694656488549618,-2.854961832061069,-0.072509765625,-0.08056640625,-0.59521484375,1.7629
1.251908396946565,1.6488549618320612,-3.053435114503817,-0.0732421875,-0.08447265625,-0.59814453125,1.7646
1.1145038167938932,1.7404580152671756,-2.8244274809160306,-0.069091796875,-0.0830078125,-0.59521484375,1.7663
1.0381679389312977,1.633587786259542,-3.0381679389312977,-0.073974609375,-0.087646484375,-0.597900390625,1.7679999999999998
1.0534351145038168,1.6946564885496183,-3.099236641221374,-0.072998046875,-0.087158203125,-0.59375,1.7696999999999998
0.9618320610687023,1.5419847328244274,-3.1908396946564888,-0.07177734375,-0.082763671875,-0.60009765625,1.7713999999999999
0.9770992366412213,1.465648854961832,-2.946564885496183,-0.073486328125,-0.07861328125,-0.59716796875,1.7731
1.083969465648855,1.3893129770992367,-3.267175572519084,-0.07470703125,-0.0830078125,-0.6025390625,1.7748
1.2671755725190839,1.251908396946565,-3.267175572519084,-0.06884765625,-0.077392578125,-0.60107421875,1.7765
0.916030534351145,1.3129770992366412,-3.1755725190839694,-0.068603515625,-0.082763671875,-0.59619140625,1.7782
0.8549618320610687,1.3587786259541985,-3.145038167938931,-0.07080078125,-0.077880859375,-0.597412109375,1.7798999999999998
0.7938931297709924,1.450381679389313,-2.931297709923664,-0.07373046875,-0.07666015625,-0.593994140625,1.7815999999999999
0.5801526717557252,1.3282442748091603,-3.114503816793893,-0.07421875,-0.0810546875,-0.599853515625,1.7832999999999999
0.5954198473282443,1.3282442748091603,-3.145038167938931,-0.070556640625,-0.077880859375,-0.592529296875,1.785
0.33587786259541985,1.1908396946564885,-2.854961832061069,-0.07373046875,-0.081787109375,-0.600830078125,1.7867
