gyrox1,gyroy1,gyroz1,accelx1,accely1,accelz1,Time
1.7404580152671756,1.8931297709923665,-1.6641221374045803,-0.33203125,0.1220703125,-0.431640625,0.0
1.816793893129771,1.8473282442748091,-1.5267175572519085,-0.33740234375,0.122802734375,-0.42529296875,0.0017
1.7404580152671756,1.816793893129771,-1.6946564885496183,-0.341552734375,0.1201171875,-0.424560546875,0.0034
1.8931297709923665,1.9694656488549618,-1.618320610687023,-0.34375,0.12060546875,-0.412109375,0.0050999999999999995
1.7557251908396947,1.8778625954198473,-1.4351145038167938,-0.3427734375,0.1201171875,-0.422607421875,0.0068
1.5572519083969465,2.015267175572519,-1.4809160305343512,-0.343505859375,0.123046875,-0.41650390625,0.008499999999999999
1.6488549618320612,1.9389312977099236,-1.7251908396946565,-0.341064453125,0.1220703125,-0.42041015625,0.010199999999999999
1.4809160305343512,2.0,-1.4961832061068703,-0.34033203125,0.124267578125,-0.42578125,0.011899999999999999
1.5725190839694656,1.9083969465648856,-1.4045801526717556,-0.336669921875,0.123291015625,-0.417724609375,0.0136
1.5419847328244274,1.9083969465648856,-1.450381679389313,-0.337646484375,0.12255859375,-0.4189453125,0.0153
1.5419847328244274,1.8015267175572518,-1.5725190839694656,-0.33740234375,0.11865234375,-0.416259765625,0.016999999999999998
1.7404580152671756,1.816793893129771,-1.6030534351145038,-0.3359375,0.12158203125,-0.42529296875,0.018699999999999998
1.5572519083969465,1.83206106870229,-1.3893129770992367,-0.337890625,0.121826171875,-0.424560546875,0.020399999999999998
1.6946564885496183,1.9236641221374047,-1.450381679389313,-0.341796875,0.122314453125,-0.429931640625,0.022099999999999998
1.6641221374045803,2.0916030534351147,-1.6488549618320612,-0.3388671875,0.121826171875,-0.421142578125,0.023799999999999998
1.83206106870229,1.9236641221374047,-1.450381679389313,-0.335205078125,0.120361328125,-0.422119140625,0.0255
2.015267175572519,1.83206106870229,-1.5877862595419847,-0.33740234375,0.121337890625,-0.4228515625,0.0272
1.7557251908396947,1.8931297709923665,-1.5114503816793894,-0.333251953125,0.123291015625,-0.41064453125,0.0289
1.7404580152671756,1.9541984732824427,-1.7251908396946565,-0.333251953125,0.1220703125,-0.421142578125,0.0306
1.9541984732824427,1.984732824427481,-1.7557251908396947,-0.33642578125,0.119384765625,-0.423583984375,0.032299999999999995
1.9541984732824427,1.8778625954198473,-1.6641221374045803,-0.3330078125,0.12158203125,-0.425537109375,0.033999999999999996
2.2748091603053435,1.9083969465648856,-1.7404580152671756,-0.3349609375,0.128662109375,-0.426513671875,0.035699999999999996
1.9389312977099236,1.7557251908396947,-1.4809160305343512,-0.337158203125,0.121826171875,-0.425048828125,0.037399999999999996
2.0610687022900764,1.7709923664122138,-1.6030534351145038,-0.329345703125,0.124267578125,-0.421875,0.039099999999999996
1.9389312977099236,1.8473282442748091,-1.7709923664122138,-0.32861328125,0.125732421875,-0.418701171875,0.040799999999999996
1.9083969465648856,1.7709923664122138,-1.3740458015267176,-0.340087890625,0.12548828125,-0.420654296875,0.042499999999999996
2.1068702290076335,1.633587786259542,-1.5572519083969465,-0.33935546875,0.118896484375,-0.418701171875,0.044199999999999996
2.0,1.633587786259542,-1.6030534351145038,-0.333984375,0.11865234375,-0.421142578125,0.045899999999999996
1.9236641221374047,1.618320610687023,-1.4809160305343512,-0.333984375,0.120361328125,-0.419189453125,0.047599999999999996
1.5419847328244274,1.6030534351145038,-1.5267175572519085,-0.340576171875,0.123046875,-0.431640625,0.0493
1.6946564885496183,1.450381679389313,-1.5877862595419847,-0.3388671875,0.11669921875,-0.42578125,0.051
1.7709923664122138,1.7251908396946565,-1.282442748091603,-0.3349609375,0.1171875,-0.423583984375,0.0527
1.5267175572519085,1.633587786259542,-1.282442748091603,-0.34326171875,0.11962890625,-0.419921875,0.0544
1.465648854961832,1.786259541984733,-1.3587786259541985,-0.3359375,0.11865234375,-0.419189453125,0.0561
1.3435114503816794,1.786259541984733,-1.4809160305343512,-0.336181640625,0.114990234375,-0.424072265625,0.0578
1.3129770992366412,1.7251908396946565,-1.282442748091603,-0.333740234375,0.12255859375,-0.421142578125,0.0595
1.450381679389313,1.83206106870229,-1.4198473282442747,-0.328857421875,0.12255859375,-0.427734375,0.0612
1.4809160305343512,1.7709923664122138,-1.3129770992366412,-0.33642578125,0.118408203125,-0.420654296875,0.0629
1.2213740458015268,1.7404580152671756,-1.2061068702290076,-0.33447265625,0.118408203125,-0.427001953125,0.06459999999999999
1.2061068702290076,1.9083969465648856,-1.282442748091603,-0.3349609375,0.11865234375,-0.427001953125,0.0663
1.2671755725190839,1.83206106870229,-1.3435114503816794,-0.334228515625,0.118896484375,-0.423095703125,0.06799999999999999
1.1145038167938932,1.83206106870229,-1.1755725190839694,-0.333740234375,0.123046875,-0.42236328125,0.0697
1.0687022900763359,1.7557251908396947,-1.1603053435114503,-0.33984375,0.12255859375,-0.419677734375,0.07139999999999999
1.0076335877862594,1.83206106870229,-1.0534351145038168,-0.33154296875,0.125732421875,-0.426513671875,0.0731
1.0381679389312977,1.9694656488549618,-1.0381679389312977,-0.336669921875,0.118896484375,-0.419677734375,0.07479999999999999
0.916030534351145,1.9236641221374047,-1.1145038167938932,-0.333251953125,0.12060546875,-0.414306640625,0.0765
1.0229007633587786,1.9236641221374047,-1.1145038167938932,-0.336181640625,0.11962890625,-0.4267578125,0.07819999999999999
0.8396946564885496,1.9541984732824427,-0.916030534351145,-0.339111328125,0.12255859375,-0.42333984375,0.0799
0.732824427480916,2.122137404580153,-1.1297709923664123,-0.33984375,0.12451171875,-0.417724609375,0.08159999999999999
1.0076335877862594,2.2442748091603053,-1.251908396946565,-0.33544921875,0.123779296875,-0.4248046875,0.0833
1.1755725190839694,2.2900763358778624,-1.2671755725190839,-0.333984375,0.1220703125,-0.4150390625,0.08499999999999999
1.1145038167938932,2.183206106870229,-1.251908396946565,-0.330078125,0.119873046875,-0.419921875,0.0867
1.3435114503816794,2.0916030534351147,-1.4809160305343512,-0.32568359375,0.12109375,-0.416748046875,0.08839999999999999
1.6030534351145038,1.9236641221374047,-1.3893129770992367,-0.3349609375,0.127197265625,-0.43603515625,0.0901
1.5877862595419847,2.0916030534351147,-1.6030534351145038,-0.338623046875,0.1298828125,-0.42822265625,0.09179999999999999
2.0610687022900764,2.183206106870229,-1.7557251908396947,-0.3349609375,0.129638671875,-0.415771484375,0.0935
2.0763358778625953,2.122137404580153,-1.5725190839694656,-0.336669921875,0.1201171875,-0.420654296875,0.09519999999999999
1.9083969465648856,1.83206106870229,-1.465648854961832,-0.331787109375,0.126953125,-0.415283203125,0.0969
1.9389312977099236,1.8931297709923665,-1.5725190839694656,-0.33544921875,0.123779296875,-0.418701171875,0.0986
2.122137404580153,1.7709923664122138,-1.3893129770992367,-0.3349609375,0.11572265625,-0.419189453125,0.1003
2.1068702290076335,1.6641221374045803,-1.3587786259541985,-0.33056640625,0.116943359375,-0.4189453125,0.102
2.015267175572519,1.5725190839694656,-1.4198473282442747,-0.33251953125,0.1201171875,-0.41845703125,0.1037
2.0763358778625953,1.83206106870229,-1.4351145038167938,-0.327880859375,0.119873046875,-0.412353515625,0.1054
2.0916030534351147,1.633587786259542,-1.297709923664122,-0.334716796875,0.120849609375,-0.42138671875,0.1071
2.015267175572519,1.4045801526717556,-1.3587786259541985,-0.335693359375,0.113525390625,-0.42041015625,0.1088
1.9694656488549618,1.4809160305343512,-1.2213740458015268,-0.335205078125,0.11669921875,-0.425537109375,0.11049999999999999
2.0610687022900764,1.5877862595419847,-1.251908396946565,-0.333984375,0.11279296875,-0.419677734375,0.1122
1.9541984732824427,1.6641221374045803,-1.2366412213740459,-0.335693359375,0.122802734375,-0.422607421875,0.11389999999999999
2.0610687022900764,1.8473282442748091,-1.450381679389313,-0.3330078125,0.12451171875,-0.425537109375,0.1156
2.015267175572519,1.6946564885496183,-1.4961832061068703,-0.333251953125,0.125244140625,-0.427001953125,0.11729999999999999
1.9236641221374047,1.7099236641221374,-1.450381679389313,-0.33544921875,0.12255859375,-0.427978515625,0.119
1.9236641221374047,1.9083969465648856,-1.1450381679389312,-0.339111328125,0.11865234375,-0.429443359375,0.12069999999999999
1.8931297709923665,1.8931297709923665,-1.1908396946564885,-0.3349609375,0.124267578125,-0.42626953125,0.1224
1.6030534351145038,1.7709923664122138,-1.2213740458015268,-0.335693359375,0.123779296875,-0.42578125,0.12409999999999999
2.0,1.7099236641221374,-1.450381679389313,-0.337646484375,0.126220703125,-0.418212890625,0.1258
1.7709923664122138,1.633587786259542,-1.2061068702290076,-0.340087890625,0.12060546875,-0.4140625,0.1275
1.9541984732824427,1.83206106870229,-1.282442748091603,-0.333984375,0.12158203125,-0.428466796875,0.12919999999999998
1.6488549618320612,1.8473282442748091,-1.2213740458015268,-0.3310546875,0.12255859375,-0.423583984375,0.1309
1.6946564885496183,1.6946564885496183,-1.1755725190839694,-0.335693359375,0.119384765625,-0.41552734375,0.1326
2.045801526717557,1.7099236641221374,-1.2671755725190839,-0.33544921875,0.117431640625,-0.416259765625,0.1343
1.816793893129771,1.5572519083969465,-1.1145038167938932,-0.334716796875,0.1142578125,-0.4169921875,0.13599999999999998
1.633587786259542,1.4809160305343512,-1.251908396946565,-0.331787109375,0.1162109375,-0.4150390625,0.1377
1.5725190839694656,1.4809160305343512,-1.1145038167938932,-0.33203125,0.1171875,-0.42724609375,0.1394
1.618320610687023,1.465648854961832,-0.9923664122137404,-0.337646484375,0.117919921875,-0.4150390625,0.1411
1.6793893129770991,1.465648854961832,-1.0076335877862594,-0.335693359375,0.1201171875,-0.42431640625,0.14279999999999998
1.5267175572519085,1.4045801526717556,-1.083969465648855,-0.33251953125,0.11767578125,-0.424072265625,0.1445
1.465648854961832,1.297709923664122,-0.9923664122137404,-0.332275390625,0.119140625,-0.422607421875,0.1462
1.3893129770992367,1.282442748091603,-0.9770992366412213,-0.33154296875,0.117919921875,-0.420166015625,0.1479
1.3282442748091603,1.083969465648855,-0.9923664122137404,-0.3330078125,0.118896484375,-0.41845703125,0.14959999999999998
1.251908396946565,1.2366412213740459,-0.9465648854961832,-0.331298828125,0.1181640625,-0.41943359375,0.1513
1.1755725190839694,1.0381679389312977,-0.9312977099236641,-0.333984375,0.117919921875,-0.431640625,0.153
1.2213740458015268,0.8854961832061069,-0.7633587786259542,-0.336669921875,0.11767578125,-0.41943359375,0.1547
1.3282442748091603,0.9312977099236641,-0.916030534351145,-0.333251953125,0.12353515625,-0.42041015625,0.15639999999999998
1.282442748091603,0.8702290076335878,-0.9007633587786259,-0.330810546875,0.120849609375,-0.417236328125,0.1581
1.3893129770992367,1.0687022900763359,-0.6106870229007634,-0.334228515625,0.119384765625,-0.4228515625,0.1598
1.3129770992366412,1.0076335877862594,-1.1450381679389312,-0.33251953125,0.124267578125,-0.422607421875,0.1615
1.2061068702290076,1.099236641221374,-1.0381679389312977,-0.331787109375,0.119384765625,-0.425048828125,0.16319999999999998
1.3893129770992367,0.9465648854961832,-0.8702290076335878,-0.336181640625,0.120849609375,-0.426025390625,0.1649
1.4809160305343512,0.8091603053435115,-0.9923664122137404,-0.337890625,0.11572265625,-0.428955078125,0.1666
1.2213740458015268,0.9007633587786259,-1.0687022900763359,-0.333251953125,0.124755859375,-0.424560546875,0.16829999999999998
1.4961832061068703,0.9923664122137404,-1.0076335877862594,-0.333740234375,0.119873046875,-0.417236328125,0.16999999999999998
1.5419847328244274,0.7786259541984732,-1.1145038167938932,-0.3349609375,0.123779296875,-0.4208984375,0.1717
1.465648854961832,0.8396946564885496,-1.2213740458015268,-0.3330078125,0.11962890625,-0.427490234375,0.1734
1.4351145038167938,0.7938931297709924,-1.0229007633587786,-0.332763671875,0.12548828125,-0.426513671875,0.17509999999999998
1.282442748091603,0.8091603053435115,-1.099236641221374,-0.335205078125,0.118896484375,-0.43017578125,0.17679999999999998
1.3435114503816794,0.6870229007633588,-1.297709923664122,-0.3369140625,0.12109375,-0.424072265625,0.1785
1.251908396946565,0.4580152671755725,-1.2061068702290076,-0.337158203125,0.1201171875,-0.42333984375,0.1802
1.4351145038167938,0.5648854961832062,-1.251908396946565,-0.334228515625,0.12060546875,-0.419677734375,0.18189999999999998
1.4198473282442747,0.7938931297709924,-1.2213740458015268,-0.336181640625,0.1171875,-0.424560546875,0.18359999999999999
1.2366412213740459,0.6412213740458015,-1.2366412213740459,-0.3349609375,0.124267578125,-0.417724609375,0.1853
1.450381679389313,0.6259541984732825,-1.1755725190839694,-0.329833984375,0.118408203125,-0.4208984375,0.187
1.4198473282442747,0.5343511450381679,-1.3435114503816794,-0.333740234375,0.116943359375,-0.42333984375,0.18869999999999998
1.3282442748091603,0.6106870229007634,-1.3282442748091603,-0.338134765625,0.1220703125,-0.422607421875,0.19039999999999999
1.083969465648855,0.5190839694656488,-1.4198473282442747,-0.3330078125,0.119384765625,-0.422607421875,0.1921
1.251908396946565,0.549618320610687,-1.1603053435114503,-0.33740234375,0.11962890625,-0.422119140625,0.1938
1.450381679389313,0.5343511450381679,-1.2061068702290076,-0.336669921875,0.119873046875,-0.4228515625,0.19549999999999998
1.4045801526717556,0.5038167938931297,-1.4198473282442747,-0.337646484375,0.1181640625,-0.4208984375,0.1972
1.0229007633587786,0.5038167938931297,-1.2671755725190839,-0.334716796875,0.120849609375,-0.42578125,0.1989
1.297709923664122,0.5038167938931297,-1.251908396946565,-0.337158203125,0.12451171875,-0.423828125,0.2006
1.3740458015267176,0.366412213740458,-1.4351145038167938,-0.331787109375,0.119873046875,-0.418701171875,0.20229999999999998
1.3740458015267176,0.3969465648854962,-1.3129770992366412,-0.336669921875,0.118408203125,-0.42626953125,0.204
1.2061068702290076,0.44274809160305345,-1.5877862595419847,-0.33740234375,0.1171875,-0.420166015625,0.2057
1.099236641221374,0.4732824427480916,-1.4045801526717556,-0.335693359375,0.12109375,-0.414794921875,0.2074
1.3740458015267176,0.5954198473282443,-1.5267175572519085,-0.33349609375,0.119873046875,-0.427978515625,0.20909999999999998
1.282442748091603,0.5954198473282443,-1.5725190839694656,-0.3330078125,0.12109375,-0.420166015625,0.2108
1.1450381679389312,0.48854961832061067,-1.5572519083969465,-0.328857421875,0.12255859375,-0.42236328125,0.2125
1.1145038167938932,0.366412213740458,-1.618320610687023,-0.33740234375,0.11962890625,-0.427490234375,0.2142
1.1297709923664123,0.6870229007633588,-1.6641221374045803,-0.337646484375,0.1220703125,-0.430908203125,0.21589999999999998
1.083969465648855,0.6717557251908397,-1.450381679389313,-0.3369140625,0.119873046875,-0.415283203125,0.2176
1.083969465648855,0.6106870229007634,-1.4809160305343512,-0.33447265625,0.119873046875,-0.4248046875,0.2193
0.7480916030534351,0.5648854961832062,-1.6641221374045803,-0.33740234375,0.12255859375,-0.429443359375,0.22099999999999997
0.8396946564885496,0.4732824427480916,-1.7251908396946565,-0.33837890625,0.125244140625,-0.424560546875,0.22269999999999998
1.0381679389312977,0.48854961832061067,-1.4961832061068703,-0.3359375,0.119384765625,-0.417236328125,0.2244
1.0076335877862594,0.6870229007633588,-1.633587786259542,-0.33642578125,0.11572265625,-0.421630859375,0.2261
1.0229007633587786,0.44274809160305345,-1.6488549618320612,-0.33251953125,0.123291015625,-0.43017578125,0.22779999999999997
0.8702290076335878,0.6259541984732825,-1.7557251908396947,-0.333251953125,0.118896484375,-0.432861328125,0.22949999999999998
0.9618320610687023,0.4122137404580153,-1.5572519083969465,-0.336181640625,0.11962890625,-0.426025390625,0.2312
0.8702290076335878,0.549618320610687,-1.6793893129770991,-0.335693359375,0.11669921875,-0.418212890625,0.2329
0.7786259541984732,0.6412213740458015,-1.633587786259542,-0.33349609375,0.122802734375,-0.411865234375,0.23459999999999998
1.0534351145038168,0.5343511450381679,-1.9236641221374047,-0.337646484375,0.1201171875,-0.42431640625,0.23629999999999998
0.6564885496183206,0.5343511450381679,-1.5114503816793894,-0.33251953125,0.118896484375,-0.412109375,0.238
0.7938931297709924,0.6106870229007634,-1.786259541984733,-0.33837890625,0.121826171875,-0.4169921875,0.2397
0.9618320610687023,0.6412213740458015,-1.8015267175572518,-0.334716796875,0.12548828125,-0.42919921875,0.24139999999999998
0.8549618320610687,0.549618320610687,-1.816793893129771,-0.33349609375,0.119140625,-0.425048828125,0.24309999999999998
0.8396946564885496,0.6259541984732825,-1.7404580152671756,-0.34130859375,0.120361328125,-0.414306640625,0.2448
0.8549618320610687,0.6564885496183206,-1.7404580152671756,-0.3349609375,0.11962890625,-0.417724609375,0.2465
0.7786259541984732,0.6106870229007634,-1.7557251908396947,-0.336181640625,0.125,-0.42529296875,0.24819999999999998
0.9465648854961832,0.6412213740458015,-1.7709923664122138,-0.33740234375,0.120849609375,-0.41455078125,0.24989999999999998
1.0381679389312977,0.5190839694656488,-1.83206106870229,-0.3369140625,0.123046875,-0.419189453125,0.2516
0.916030534351145,0.5954198473282443,-2.122137404580153,-0.3359375,0.121826171875,-0.4228515625,0.25329999999999997
0.9007633587786259,0.7022900763358778,-1.9541984732824427,-0.337158203125,0.124267578125,-0.425048828125,0.255
0.5954198473282443,0.6717557251908397,-1.7709923664122138,-0.333251953125,0.124267578125,-0.424560546875,0.2567
1.0534351145038168,0.7786259541984732,-1.7099236641221374,-0.3369140625,0.12158203125,-0.41943359375,0.25839999999999996
1.1297709923664123,0.7938931297709924,-1.7709923664122138,-0.33984375,0.120361328125,-0.422119140625,0.2601
0.9312977099236641,0.6106870229007634,-1.786259541984733,-0.338623046875,0.12158203125,-0.42431640625,0.2618
0.7633587786259542,0.5038167938931297,-1.9236641221374047,-0.338623046875,0.121826171875,-0.416015625,0.2635
1.0076335877862594,0.7480916030534351,-1.8015267175572518,-0.337158203125,0.123046875,-0.421142578125,0.2652
1.1603053435114503,0.7938931297709924,-1.9389312977099236,-0.33349609375,0.1240234375,-0.422119140625,0.26689999999999997
0.7786259541984732,0.5648854961832062,-2.045801526717557,-0.33740234375,0.12158203125,-0.42578125,0.2686
0.916030534351145,0.5801526717557252,-1.8015267175572518,-0.337646484375,0.123046875,-0.419921875,0.2703
0.916030534351145,0.5801526717557252,-1.633587786259542,-0.339111328125,0.125,-0.425537109375,0.27199999999999996
1.1603053435114503,0.5343511450381679,-1.9389312977099236,-0.34033203125,0.123291015625,-0.423095703125,0.2737
1.2061068702290076,0.5190839694656488,-1.8931297709923665,-0.338623046875,0.125244140625,-0.4169921875,0.2754
1.0687022900763359,0.549618320610687,-1.816793893129771,-0.33935546875,0.121337890625,-0.420654296875,0.27709999999999996
1.2213740458015268,0.2900763358778626,-1.83206106870229,-0.336669921875,0.12548828125,-0.426025390625,0.2788
1.083969465648855,0.44274809160305345,-1.7557251908396947,-0.340087890625,0.12109375,-0.42578125,0.28049999999999997
0.9465648854961832,0.4732824427480916,-1.5114503816793894,-0.343017578125,0.118896484375,-0.423828125,0.2822
1.282442748091603,0.6412213740458015,-1.7251908396946565,-0.33837890625,0.118408203125,-0.429931640625,0.2839
1.1145038167938932,0.6106870229007634,-1.83206106870229,-0.33984375,0.119384765625,-0.43310546875,0.28559999999999997
1.2671755725190839,0.44274809160305345,-1.8015267175572518,-0.33740234375,0.12646484375,-0.42041015625,0.2873
1.099236641221374,0.5648854961832062,-1.5725190839694656,-0.338134765625,0.126953125,-0.41943359375,0.289
1.3893129770992367,0.4580152671755725,-1.5267175572519085,-0.337890625,0.124267578125,-0.419921875,0.29069999999999996
1.251908396946565,0.4580152671755725,-1.4961832061068703,-0.339599609375,0.1201171875,-0.431640625,0.2924
1.1908396946564885,0.5954198473282443,-1.5877862595419847,-0.337890625,0.126953125,-0.41259765625,0.2941
1.3129770992366412,0.5038167938931297,-1.3129770992366412,-0.33349609375,0.12451171875,-0.42431640625,0.2958
1.3893129770992367,0.366412213740458,-1.450381679389313,-0.3349609375,0.117919921875,-0.41943359375,0.2975
1.3282442748091603,0.5038167938931297,-1.5725190839694656,-0.335693359375,0.115234375,-0.426025390625,0.29919999999999997
1.3129770992366412,0.3816793893129771,-1.4351145038167938,-0.339599609375,0.11572265625,-0.430908203125,0.3009
1.2061068702290076,0.44274809160305345,-1.3435114503816794,-0.3369140625,0.119140625,-0.42919921875,0.3026
1.4045801526717556,0.42748091603053434,-1.3435114503816794,-0.337158203125,0.120849609375,-0.42578125,0.30429999999999996
1.3129770992366412,0.549618320610687,-1.251908396946565,-0.33447265625,0.120849609375,-0.418701171875,0.306
1.2213740458015268,0.5343511450381679,-1.5267175572519085,-0.334228515625,0.123779296875,-0.417724609375,0.3077
1.1450381679389312,0.32061068702290074,-1.251908396946565,-0.339599609375,0.120849609375,-0.41943359375,0.3094
1.2366412213740459,0.3053435114503817,-1.1755725190839694,-0.337158203125,0.122314453125,-0.422119140625,0.3111
1.4961832061068703,0.3053435114503817,-1.450381679389313,-0.336669921875,0.120849609375,-0.41943359375,0.31279999999999997
1.450381679389313,0.5038167938931297,-1.5114503816793894,-0.3330078125,0.120361328125,-0.42431640625,0.3145
1.1908396946564885,0.3511450381679389,-1.465648854961832,-0.339111328125,0.115234375,-0.42138671875,0.3162
1.450381679389313,0.3053435114503817,-1.2671755725190839,-0.33447265625,0.119873046875,-0.41845703125,0.31789999999999996
1.3740458015267176,0.3511450381679389,-1.1755725190839694,-0.3369140625,0.120849609375,-0.422607421875,0.3196
1.3740458015267176,0.3816793893129771,-1.3893129770992367,-0.3388671875,0.12353515625,-0.417236328125,0.3213
1.2213740458015268,0.21374045801526717,-1.3435114503816794,-0.33837890625,0.123291015625,-0.41552734375,0.323
1.4351145038167938,0.3053435114503817,-1.282442748091603,-0.337158203125,0.12109375,-0.41650390625,0.3247
1.2671755725190839,0.10687022900763359,-1.3893129770992367,-0.342529296875,0.125244140625,-0.418701171875,0.32639999999999997
1.5572519083969465,0.4122137404580153,-0.9770992366412213,-0.33935546875,0.125,-0.423583984375,0.3281
1.5572519083969465,0.48854961832061067,-1.1908396946564885,-0.335693359375,0.12255859375,-0.419921875,0.3298
1.3740458015267176,0.33587786259541985,-1.2213740458015268,-0.341796875,0.1181640625,-0.424072265625,0.33149999999999996
1.2366412213740459,0.3816793893129771,-1.1297709923664123,-0.34033203125,0.118408203125,-0.427978515625,0.3332
1.450381679389313,0.4580152671755725,-1.251908396946565,-0.33740234375,0.121337890625,-0.417724609375,0.3349
1.786259541984733,0.44274809160305345,-1.3129770992366412,-0.338134765625,0.1181640625,-0.42529296875,0.33659999999999995
1.1908396946564885,0.549618320610687,-1.3129770992366412,-0.341552734375,0.12353515625,-0.419677734375,0.3383
1.2671755725190839,0.5190839694656488,-1.2213740458015268,-0.339599609375,0.123779296875,-0.41259765625,0.33999999999999997
1.5267175572519085,0.6106870229007634,-1.0687022900763359,-0.33740234375,0.119140625,-0.41845703125,0.3417
1.3282442748091603,0.6106870229007634,-1.099236641221374,-0.3388671875,0.116455078125,-0.419921875,0.3434
1.4351145038167938,0.5648854961832062,-1.083969465648855,-0.3388671875,0.12109375,-0.425048828125,0.34509999999999996
1.450381679389313,0.5954198473282443,-1.3129770992366412,-0.338134765625,0.1201171875,-0.42041015625,0.3468
1.5725190839694656,0.3969465648854962,-1.1450381679389312,-0.340087890625,0.11669921875,-0.427490234375,0.3485
1.3587786259541985,0.7175572519083969,-1.251908396946565,-0.34375,0.123779296875,-0.413330078125,0.35019999999999996
1.1603053435114503,0.6106870229007634,-1.3129770992366412,-0.340087890625,0.119873046875,-0.4228515625,0.3519
1.4809160305343512,0.5343511450381679,-1.450381679389313,-0.3388671875,0.119140625,-0.41943359375,0.35359999999999997
1.6030534351145038,0.5648854961832062,-1.083969465648855,-0.341552734375,0.123291015625,-0.422607421875,0.3553
1.282442748091603,0.5648854961832062,-1.1908396946564885,-0.341552734375,0.122802734375,-0.423095703125,0.357
1.282442748091603,0.6717557251908397,-1.1755725190839694,-0.333984375,0.1259765625,-0.416259765625,0.35869999999999996
1.2213740458015268,0.6717557251908397,-1.5267175572519085,-0.33837890625,0.1220703125,-0.419921875,0.3604
1.3435114503816794,0.6870229007633588,-1.465648854961832,-0.338134765625,0.119873046875,-0.411865234375,0.3621
1.282442748091603,0.9770992366412213,-1.2061068702290076,-0.338623046875,0.123291015625,-0.42138671875,0.36379999999999996
1.2061068702290076,0.9312977099236641,-1.1603053435114503,-0.336669921875,0.1181640625,-0.42138671875,0.3655
1.0687022900763359,0.8702290076335878,-1.3282442748091603,-0.3349609375,0.122314453125,-0.417724609375,0.36719999999999997
1.2213740458015268,0.9618320610687023,-1.282442748091603,-0.3388671875,0.11767578125,-0.416259765625,0.3689
1.1297709923664123,0.9007633587786259,-1.2366412213740459,-0.34130859375,0.120849609375,-0.426025390625,0.3706
1.1603053435114503,0.7633587786259542,-1.282442748091603,-0.3408203125,0.120849609375,-0.421630859375,0.37229999999999996
1.1297709923664123,0.8091603053435115,-1.465648854961832,-0.340087890625,0.120361328125,-0.41796875,0.374
1.0076335877862594,1.0076335877862594,-1.1297709923664123,-0.341796875,0.1181640625,-0.413330078125,0.3757
1.1755725190839694,0.7633587786259542,-1.3740458015267176,-0.338134765625,0.12548828125,-0.423095703125,0.37739999999999996
1.2366412213740459,0.8549618320610687,-1.2061068702290076,-0.33984375,0.1220703125,-0.41943359375,0.3791
1.3740458015267176,0.9923664122137404,-1.3740458015267176,-0.338134765625,0.122314453125,-0.429443359375,0.38079999999999997
1.1603053435114503,0.9312977099236641,-1.618320610687023,-0.339599609375,0.119873046875,-0.42529296875,0.38249999999999995
0.9007633587786259,0.8396946564885496,-1.6030534351145038,-0.3388671875,0.12158203125,-0.420654296875,0.3842
1.083969465648855,0.9312977099236641,-1.4961832061068703,-0.337646484375,0.119873046875,-0.417236328125,0.38589999999999997
0.9465648854961832,0.8244274809160306,-1.4809160305343512,-0.33642578125,0.12158203125,-0.42529296875,0.3876
0.8549618320610687,0.8549618320610687,-1.465648854961832,-0.3408203125,0.12451171875,-0.423095703125,0.3893
1.1145038167938932,0.9312977099236641,-1.6641221374045803,-0.340576171875,0.121826171875,-0.42724609375,0.39099999999999996
0.9312977099236641,0.9312977099236641,-1.7404580152671756,-0.33544921875,0.122314453125,-0.419189453125,0.3927
0.9770992366412213,0.916030534351145,-1.5267175572519085,-0.341552734375,0.119873046875,-0.416015625,0.3944
0.8244274809160306,0.8549618320610687,-1.5267175572519085,-0.340576171875,0.12841796875,-0.416015625,0.39609999999999995
0.916030534351145,0.7786259541984732,-1.633587786259542,-0.340576171875,0.1220703125,-0.421142578125,0.3978
1.0534351145038168,0.8244274809160306,-1.4045801526717556,-0.340087890625,0.1240234375,-0.41455078125,0.39949999999999997
0.8396946564885496,0.8702290076335878,-1.6641221374045803,-0.33935546875,0.120361328125,-0.421630859375,0.4012
1.2366412213740459,0.9923664122137404,-1.6793893129770991,-0.337158203125,0.1240234375,-0.421875,0.4029
1.0229007633587786,1.1450381679389312,-1.5419847328244274,-0.341064453125,0.12548828125,-0.416748046875,0.40459999999999996
1.2366412213740459,1.0687022900763359,-1.5725190839694656,-0.337890625,0.11962890625,-0.41943359375,0.4063
1.0687022900763359,1.0076335877862594,-1.6641221374045803,-0.3359375,0.118896484375,-0.42578125,0.408
0.8244274809160306,1.0229007633587786,-1.7251908396946565,-0.334716796875,0.12451171875,-0.41552734375,0.40969999999999995
0.7786259541984732,0.8244274809160306,-1.83206106870229,-0.3349609375,0.116943359375,-0.417724609375,0.4114
1.083969465648855,1.0076335877862594,-1.6641221374045803,-0.336181640625,0.115966796875,-0.4189453125,0.41309999999999997
0.9923664122137404,1.1755725190839694,-1.83206106870229,-0.33837890625,0.119384765625,-0.417724609375,0.4148
0.9770992366412213,1.1297709923664123,-1.6488549618320612,-0.338134765625,0.120849609375,-0.414306640625,0.4165
0.8854961832061069,1.2671755725190839,-1.8931297709923665,-0.333251953125,0.12353515625,-0.4267578125,0.41819999999999996
0.9465648854961832,1.0076335877862594,-1.633587786259542,-0.3388671875,0.11865234375,-0.41748046875,0.4199
0.7633587786259542,0.9465648854961832,-1.8473282442748091,-0.3388671875,0.116943359375,-0.42041015625,0.4216
0.9007633587786259,1.1603053435114503,-1.8931297709923665,-0.333740234375,0.119873046875,-0.40966796875,0.42329999999999995
1.1603053435114503,1.1297709923664123,-1.8778625954198473,-0.340576171875,0.122314453125,-0.41796875,0.425
1.2213740458015268,1.3282442748091603,-1.83206106870229,-0.33935546875,0.123779296875,-0.426025390625,0.42669999999999997
1.0687022900763359,1.0229007633587786,-1.984732824427481,-0.3349609375,0.121337890625,-0.419677734375,0.4284
1.0076335877862594,1.083969465648855,-1.9236641221374047,-0.335693359375,0.123779296875,-0.421630859375,0.4301
1.0076335877862594,1.2061068702290076,-1.8931297709923665,-0.34228515625,0.120849609375,-0.421142578125,0.43179999999999996
0.9007633587786259,1.2366412213740459,-1.8473282442748091,-0.337890625,0.11767578125,-0.41650390625,0.4335
0.9007633587786259,1.1297709923664123,-1.8473282442748091,-0.3359375,0.12060546875,-0.420654296875,0.4352
1.2671755725190839,1.282442748091603,-1.786259541984733,-0.337646484375,0.118408203125,-0.425537109375,0.43689999999999996
1.0076335877862594,1.282442748091603,-1.9083969465648856,-0.335693359375,0.123291015625,-0.420166015625,0.4386
1.0229007633587786,1.297709923664122,-1.6488549618320612,-0.342529296875,0.123779296875,-0.42919921875,0.44029999999999997
1.3129770992366412,1.3435114503816794,-1.8778625954198473,-0.340087890625,0.12060546875,-0.424560546875,0.44199999999999995
1.1145038167938932,1.297709923664122,-1.9541984732824427,-0.33740234375,0.1259765625,-0.427001953125,0.4437
0.8091603053435115,1.3893129770992367,-1.6488549618320612,-0.341796875,0.1220703125,-0.41796875,0.44539999999999996
1.2366412213740459,1.1603053435114503,-1.8473282442748091,-0.34130859375,0.120849609375,-0.421630859375,0.4471
1.3740458015267176,1.297709923664122,-1.6793893129770991,-0.345947265625,0.119873046875,-0.41748046875,0.4488
1.1908396946564885,1.2061068702290076,-1.7404580152671756,-0.340087890625,0.12060546875,-0.42041015625,0.45049999999999996
1.4045801526717556,1.2671755725190839,-1.6946564885496183,-0.335205078125,0.1201171875,-0.427001953125,0.4522
1.083969465648855,1.251908396946565,-1.618320610687023,-0.33447265625,0.12353515625,-0.424560546875,0.45389999999999997
1.4809160305343512,1.0687022900763359,-1.6641221374045803,-0.33642578125,0.121337890625,-0.417724609375,0.45559999999999995
1.4045801526717556,1.0687022900763359,-1.7099236641221374,-0.33935546875,0.12255859375,-0.41943359375,0.4573
1.3740458015267176,1.3740458015267176,-1.7404580152671756,-0.338134765625,0.12255859375,-0.424560546875,0.45899999999999996
1.297709923664122,0.9923664122137404,-1.5725190839694656,-0.337890625,0.116455078125,-0.41796875,0.4607
1.297709923664122,1.083969465648855,-1.6030534351145038,-0.339111328125,0.12548828125,-0.42138671875,0.4624
1.4045801526717556,1.2061068702290076,-1.6488549618320612,-0.340087890625,0.12548828125,-0.417236328125,0.46409999999999996
1.4045801526717556,1.2213740458015268,-1.7709923664122138,-0.332763671875,0.122802734375,-0.42138671875,0.4658
1.5725190839694656,1.282442748091603,-1.5114503816793894,-0.3349609375,0.126953125,-0.42236328125,0.46749999999999997
1.3435114503816794,1.1450381679389312,-1.618320610687023,-0.341552734375,0.13134765625,-0.42333984375,0.46919999999999995
1.4809160305343512,1.1755725190839694,-1.6641221374045803,-0.3388671875,0.120849609375,-0.415283203125,0.4709
1.6641221374045803,1.1755725190839694,-1.5114503816793894,-0.335693359375,0.120849609375,-0.41748046875,0.47259999999999996
1.3282442748091603,1.0381679389312977,-1.5572519083969465,-0.333740234375,0.11865234375,-0.42138671875,0.4743
1.4198473282442747,1.083969465648855,-1.3282442748091603,-0.341064453125,0.1220703125,-0.420654296875,0.476
1.618320610687023,1.0534351145038168,-1.3282442748091603,-0.337158203125,0.12109375,-0.418701171875,0.47769999999999996
1.7099236641221374,1.0381679389312977,-1.6488549618320612,-0.336669921875,0.12158203125,-0.4228515625,0.4794
1.3893129770992367,1.297709923664122,-1.4198473282442747,-0.33056640625,0.123291015625,-0.428955078125,0.48109999999999997
1.5114503816793894,1.1450381679389312,-1.3129770992366412,-0.337890625,0.117919921875,-0.422607421875,0.48279999999999995
1.5419847328244274,1.083969465648855,-1.3282442748091603,-0.340087890625,0.1181640625,-0.42724609375,0.4845
1.4809160305343512,1.2061068702290076,-1.3282442748091603,-0.3408203125,0.115966796875,-0.422607421875,0.48619999999999997
1.5877862595419847,1.1297709923664123,-1.1145038167938932,-0.3369140625,0.119873046875,-0.428955078125,0.4879
1.4809160305343512,1.099236641221374,-1.1450381679389312,-0.337890625,0.11962890625,-0.4208984375,0.4896
1.3740458015267176,1.0534351145038168,-1.3587786259541985,-0.335205078125,0.121826171875,-0.417724609375,0.49129999999999996
1.3893129770992367,1.0229007633587786,-1.2213740458015268,-0.338623046875,0.1201171875,-0.418212890625,0.493
1.450381679389313,1.2061068702290076,-1.1755725190839694,-0.33740234375,0.122314453125,-0.42333984375,0.4947
1.3282442748091603,1.2366412213740459,-1.2213740458015268,-0.33447265625,0.119873046875,-0.42236328125,0.49639999999999995
1.282442748091603,1.282442748091603,-0.916030534351145,-0.339599609375,0.123291015625,-0.419921875,0.4981
1.4351145038167938,1.099236641221374,-0.8854961832061069,-0.3408203125,0.11767578125,-0.428466796875,0.49979999999999997
1.450381679389313,1.1603053435114503,-1.0381679389312977,-0.33984375,0.123779296875,-0.423583984375,0.5015
1.6030534351145038,1.099236641221374,-1.083969465648855,-0.33984375,0.120361328125,-0.423095703125,0.5032
1.5267175572519085,1.282442748091603,-1.1297709923664123,-0.339111328125,0.12646484375,-0.4208984375,0.5049
1.633587786259542,1.1908396946564885,-0.9923664122137404,-0.33642578125,0.11865234375,-0.4228515625,0.5065999999999999
1.4961832061068703,1.2061068702290076,-1.0076335877862594,-0.3330078125,0.117431640625,-0.4189453125,0.5083
1.3740458015267176,1.083969465648855,-0.9007633587786259,-0.33740234375,0.11962890625,-0.420166015625,0.51
1.5419847328244274,1.0381679389312977,-1.2061068702290076,-0.3349609375,0.1201171875,-0.423828125,0.5116999999999999
1.618320610687023,1.3129770992366412,-1.1450381679389312,-0.336669921875,0.114990234375,-0.42041015625,0.5134
1.7251908396946565,1.1145038167938932,-1.1603053435114503,-0.33984375,0.114501953125,-0.41552734375,0.5151
1.6793893129770991,0.9770992366412213,-0.9770992366412213,-0.33349609375,0.114013671875,-0.4169921875,0.5167999999999999
1.8625954198473282,1.0687022900763359,-1.099236641221374,-0.338134765625,0.1123046875,-0.4169921875,0.5185
1.7709923664122138,1.099236641221374,-1.1297709923664123,-0.343994140625,0.12109375,-0.423828125,0.5202
1.618320610687023,1.0381679389312977,-1.282442748091603,-0.343505859375,0.115478515625,-0.423583984375,0.5218999999999999
1.9083969465648856,0.8854961832061069,-1.099236641221374,-0.338134765625,0.121826171875,-0.4189453125,0.5236
1.6793893129770991,1.0229007633587786,-1.1450381679389312,-0.336669921875,0.11669921875,-0.4150390625,0.5253
1.4961832061068703,0.8244274809160306,-0.9923664122137404,-0.333251953125,0.11962890625,-0.417236328125,0.527
1.5419847328244274,1.0229007633587786,-0.9465648854961832,-0.334228515625,0.118896484375,-0.42041015625,0.5287
1.5114503816793894,1.0534351145038168,-0.7938931297709924,-0.33740234375,0.11474609375,-0.421875,0.5304
1.3587786259541985,1.3587786259541985,-1.0229007633587786,-0.33740234375,0.11669921875,-0.4169921875,0.5321
1.1603053435114503,1.251908396946565,-0.9312977099236641,-0.343505859375,0.119384765625,-0.418212890625,0.5337999999999999
1.2061068702290076,1.083969465648855,-1.0687022900763359,-0.3408203125,0.11572265625,-0.419921875,0.5355
1.3435114503816794,1.099236641221374,-0.8549618320610687,-0.33642578125,0.116943359375,-0.423828125,0.5372
0.9923664122137404,1.297709923664122,-0.8091603053435115,-0.33837890625,0.116455078125,-0.411865234375,0.5388999999999999
0.8244274809160306,1.4809160305343512,-0.6870229007633588,-0.336181640625,0.119384765625,-0.419921875,0.5406
0.9923664122137404,1.3893129770992367,-1.099236641221374,-0.3359375,0.11767578125,-0.417236328125,0.5423
0.916030534351145,1.4198473282442747,-0.7938931297709924,-0.333984375,0.1142578125,-0.4140625,0.5439999999999999
0.5648854961832062,1.5725190839694656,-0.8702290076335878,-0.33935546875,0.11376953125,-0.4267578125,0.5457
0.8091603053435115,1.297709923664122,-1.099236641221374,-0.33740234375,0.119873046875,-0.423095703125,0.5474
0.549618320610687,1.4351145038167938,-1.0076335877862594,-0.333984375,0.117431640625,-0.41552734375,0.5490999999999999
0.5343511450381679,1.1908396946564885,-0.7480916030534351,-0.33935546875,0.11376953125,-0.42578125,0.5508
0.5343511450381679,1.251908396946565,-0.8702290076335878,-0.34326171875,0.115234375,-0.423583984375,0.5525
0.42748091603053434,1.3435114503816794,-0.8549618320610687,-0.33740234375,0.120849609375,-0.422607421875,0.5541999999999999
0.12213740458015267,1.251908396946565,-1.0381679389312977,-0.33740234375,0.111572265625,-0.42041015625,0.5559
0.44274809160305345,1.1603053435114503,-1.083969465648855,-0.33642578125,0.11962890625,-0.41796875,0.5576
0.3816793893129771,1.1450381679389312,-1.0076335877862594,-0.335693359375,0.123291015625,-0.423828125,0.5593
0.2595419847328244,1.297709923664122,-0.916030534351145,-0.34130859375,0.1220703125,-0.42529296875,0.5609999999999999
0.1984732824427481,1.297709923664122,-1.1450381679389312,-0.338623046875,0.118896484375,-0.41455078125,0.5627
0.1984732824427481,1.4351145038167938,-0.8091603053435115,-0.33935546875,0.12353515625,-0.422119140625,0.5644
0.33587786259541985,1.4809160305343512,-1.1450381679389312,-0.34130859375,0.1279296875,-0.4150390625,0.5660999999999999
0.2748091603053435,1.5419847328244274,-1.083969465648855,-0.340576171875,0.114501953125,-0.421875,0.5678
0.1984732824427481,1.5114503816793894,-0.9465648854961832,-0.336669921875,0.119140625,-0.421875,0.5695
0.16793893129770993,1.6488549618320612,-1.0381679389312977,-0.336669921875,0.120849609375,-0.4189453125,0.5711999999999999
0.13740458015267176,1.6641221374045803,-1.2366412213740459,-0.333740234375,0.12109375,-0.415771484375,0.5729
0.3053435114503817,1.7251908396946565,-1.1145038167938932,-0.338134765625,0.11962890625,-0.4189453125,0.5746
0.15267175572519084,1.7404580152671756,-1.2671755725190839,-0.336669921875,0.12158203125,-0.423828125,0.5762999999999999
0.1984732824427481,1.7557251908396947,-1.0076335877862594,-0.335693359375,0.121337890625,-0.4267578125,0.578
0.10687022900763359,1.816793893129771,-1.3435114503816794,-0.33740234375,0.118408203125,-0.4150390625,0.5797
-0.12213740458015267,1.6030534351145038,-1.251908396946565,-0.33544921875,0.11767578125,-0.42138671875,0.5813999999999999
-0.12213740458015267,1.6946564885496183,-1.0534351145038168,-0.33447265625,0.11962890625,-0.41943359375,0.5831
-0.10687022900763359,1.9083969465648856,-1.0381679389312977,-0.33544921875,0.12158203125,-0.420166015625,0.5848
-0.030534351145038167,1.786259541984733,-1.450381679389313,-0.33984375,0.1318359375,-0.422119140625,0.5865
-0.10687022900763359,1.6641221374045803,-1.4351145038167938,-0.339111328125,0.118408203125,-0.42431640625,0.5882
0.10687022900763359,1.9541984732824427,-1.465648854961832,-0.34228515625,0.12451171875,-0.423828125,0.5899
0.183206106870229,2.122137404580153,-1.5267175572519085,-0.33984375,0.124267578125,-0.422607421875,0.5916
0.16793893129770993,2.015267175572519,-1.4809160305343512,-0.33740234375,0.127685546875,-0.425537109375,0.5932999999999999
0.4122137404580153,2.16793893129771,-1.465648854961832,-0.335693359375,0.129638671875,-0.4208984375,0.595
0.3969465648854962,2.213740458015267,-1.8473282442748091,-0.336669921875,0.1279296875,-0.422119140625,0.5967
0.3969465648854962,2.1526717557251906,-1.5114503816793894,-0.3388671875,0.129150390625,-0.417724609375,0.5983999999999999
0.42748091603053434,2.2290076335877864,-1.8015267175572518,-0.33984375,0.128173828125,-0.420654296875,0.6001
0.7480916030534351,1.984732824427481,-1.7709923664122138,-0.3349609375,0.128173828125,-0.41845703125,0.6018
0.7938931297709924,2.0,-1.83206106870229,-0.332275390625,0.125732421875,-0.423583984375,0.6034999999999999
1.0076335877862594,1.8778625954198473,-1.6793893129770991,-0.332275390625,0.12646484375,-0.4267578125,0.6052
0.9618320610687023,1.786259541984733,-1.8931297709923665,-0.33837890625,0.126220703125,-0.416259765625,0.6069
0.8702290076335878,1.5114503816793894,-1.9541984732824427,-0.33251953125,0.12255859375,-0.4189453125,0.6085999999999999
1.2671755725190839,1.4961832061068703,-2.0610687022900764,-0.3369140625,0.12158203125,-0.425048828125,0.6103
1.2061068702290076,1.2671755725190839,-2.0,-0.33642578125,0.12255859375,-0.421142578125,0.612
1.2671755725190839,1.4045801526717556,-2.030534351145038,-0.333984375,0.12548828125,-0.426025390625,0.6136999999999999
1.0076335877862594,1.0687022900763359,-1.9236641221374047,-0.335693359375,0.12158203125,-0.426513671875,0.6154
1.3587786259541985,1.0229007633587786,-1.9541984732824427,-0.339599609375,0.124755859375,-0.421875,0.6171
1.1755725190839694,0.9923664122137404,-1.9083969465648856,-0.33251953125,0.121826171875,-0.4248046875,0.6188
1.465648854961832,0.9312977099236641,-1.7557251908396947,-0.33056640625,0.1220703125,-0.42236328125,0.6204999999999999
1.2061068702290076,1.099236641221374,-1.6793893129770991,-0.33642578125,0.125244140625,-0.418212890625,0.6222
1.0229007633587786,1.0229007633587786,-2.030534351145038,-0.33837890625,0.11669921875,-0.422119140625,0.6239
1.1603053435114503,1.0076335877862594,-1.7404580152671756,-0.33837890625,0.119140625,-0.422119140625,0.6255999999999999
1.1450381679389312,0.7633587786259542,-1.786259541984733,-0.337158203125,0.1220703125,-0.42626953125,0.6273
0.9465648854961832,0.8244274809160306,-1.6946564885496183,-0.33544921875,0.118896484375,-0.42138671875,0.629
0.9007633587786259,0.8244274809160306,-2.0,-0.334716796875,0.11865234375,-0.42333984375,0.6306999999999999
0.8244274809160306,0.6870229007633588,-1.786259541984733,-0.33154296875,0.123291015625,-0.42578125,0.6324
1.1297709923664123,0.5038167938931297,-1.7099236641221374,-0.338134765625,0.117919921875,-0.42138671875,0.6341
0.8244274809160306,0.6259541984732825,-1.5572519083969465,-0.334716796875,0.11669921875,-0.422607421875,0.6357999999999999
0.5343511450381679,0.4122137404580153,-1.786259541984733,-0.33447265625,0.12109375,-0.429443359375,0.6375
0.4732824427480916,0.4732824427480916,-1.6488549618320612,-0.333251953125,0.122802734375,-0.416748046875,0.6392
0.6106870229007634,0.5190839694656488,-1.5572519083969465,-0.33349609375,0.122314453125,-0.41845703125,0.6408999999999999
0.8244274809160306,0.3816793893129771,-1.6030534351145038,-0.3359375,0.11962890625,-0.4189453125,0.6426
0.549618320610687,0.42748091603053434,-1.7404580152671756,-0.3330078125,0.125,-0.420654296875,0.6443
0.5648854961832062,0.5648854961832062,-1.7099236641221374,-0.33349609375,0.1259765625,-0.418212890625,0.646
0.5801526717557252,0.1984732824427481,-1.3740458015267176,-0.33544921875,0.124755859375,-0.42041015625,0.6476999999999999
0.5954198473282443,0.4122137404580153,-1.4351145038167938,-0.341064453125,0.124267578125,-0.422119140625,0.6494
0.5190839694656488,0.44274809160305345,-1.4961832061068703,-0.3359375,0.12255859375,-0.41748046875,0.6511
0.7633587786259542,0.12213740458015267,-1.5114503816793894,-0.33349609375,0.12158203125,-0.422119140625,0.6527999999999999
0.5343511450381679,0.1984732824427481,-1.3282442748091603,-0.33642578125,0.1162109375,-0.422119140625,0.6545
0.6106870229007634,0.183206106870229,-1.4198473282442747,-0.3359375,0.124267578125,-0.418701171875,0.6562
0.6717557251908397,0.183206106870229,-1.5267175572519085,-0.336181640625,0.12451171875,-0.421875,0.6578999999999999
0.6870229007633588,-0.04580152671755725,-1.3893129770992367,-0.3408203125,0.1171875,-0.418212890625,0.6596
0.7175572519083969,0.183206106870229,-1.3282442748091603,-0.3349609375,0.121826171875,-0.423583984375,0.6613
0.8549618320610687,0.16793893129770993,-1.6030534351145038,-0.3330078125,0.1240234375,-0.42333984375,0.6629999999999999
0.6564885496183206,0.13740458015267176,-1.282442748091603,-0.334716796875,0.1240234375,-0.421630859375,0.6647
0.6412213740458015,-0.015267175572519083,-1.297709923664122,-0.335693359375,0.12255859375,-0.4267578125,0.6664
0.9312977099236641,0.0916030534351145,-1.3740458015267176,-0.334228515625,0.12548828125,-0.41748046875,0.6680999999999999
1.0381679389312977,-0.030534351145038167,-1.5267175572519085,-0.33984375,0.126708984375,-0.422119140625,0.6698
0.8244274809160306,0.13740458015267176,-1.4198473282442747,-0.337890625,0.121826171875,-0.418212890625,0.6715
0.9618320610687023,-0.061068702290076333,-1.4045801526717556,-0.33740234375,0.12548828125,-0.422607421875,0.6731999999999999
0.9923664122137404,-0.10687022900763359,-1.3740458015267176,-0.339111328125,0.119140625,-0.42236328125,0.6748999999999999
1.099236641221374,0.16793893129770993,-1.3740458015267176,-0.33740234375,0.119384765625,-0.427734375,0.6766
1.1603053435114503,0.2595419847328244,-1.3740458015267176,-0.34375,0.126220703125,-0.42138671875,0.6783
0.9923664122137404,-0.0916030534351145,-1.465648854961832,-0.3330078125,0.118896484375,-0.4267578125,0.6799999999999999
1.251908396946565,0.030534351145038167,-1.5114503816793894,-0.33447265625,0.12255859375,-0.42724609375,0.6817
1.4198473282442747,-0.183206106870229,-1.6488549618320612,-0.33642578125,0.121337890625,-0.41796875,0.6834
1.4045801526717556,-0.10687022900763359,-1.282442748091603,-0.33642578125,0.118896484375,-0.4140625,0.6850999999999999
1.3435114503816794,-0.16793893129770993,-1.4198473282442747,-0.337890625,0.12109375,-0.416259765625,0.6868
1.2671755725190839,-0.061068702290076333,-1.4961832061068703,-0.335693359375,0.119873046875,-0.4208984375,0.6885
1.282442748091603,0.15267175572519084,-1.6793893129770991,-0.337158203125,0.123779296875,-0.42236328125,0.6901999999999999
1.3893129770992367,0.061068702290076333,-1.5419847328244274,-0.336669921875,0.122314453125,-0.419189453125,0.6919
1.2366412213740459,0.12213740458015267,-1.633587786259542,-0.344482421875,0.128173828125,-0.420654296875,0.6936
1.6641221374045803,0.24427480916030533,-1.6946564885496183,-0.338134765625,0.119384765625,-0.420654296875,0.6952999999999999
1.5114503816793894,0.2595419847328244,-1.7404580152671756,-0.341064453125,0.122314453125,-0.422607421875,0.697
1.2061068702290076,0.030534351145038167,-1.6030534351145038,-0.337158203125,0.12158203125,-0.417236328125,0.6987
1.4045801526717556,0.22900763358778625,-1.465648854961832,-0.34033203125,0.125,-0.420166015625,0.7003999999999999
1.3435114503816794,0.32061068702290074,-1.5267175572519085,-0.33740234375,0.118896484375,-0.4267578125,0.7021
1.3435114503816794,0.366412213740458,-1.8473282442748091,-0.3369140625,0.12060546875,-0.418701171875,0.7038
1.4045801526717556,0.24427480916030533,-1.5114503816793894,-0.339111328125,0.122802734375,-0.41552734375,0.7055
1.3282442748091603,0.32061068702290074,-1.6946564885496183,-0.34033203125,0.12109375,-0.413818359375,0.7071999999999999
1.1603053435114503,0.5190839694656488,-1.5725190839694656,-0.343017578125,0.122802734375,-0.422119140625,0.7089
1.1908396946564885,0.7022900763358778,-1.8931297709923665,-0.341796875,0.118896484375,-0.416748046875,0.7106
1.251908396946565,0.6870229007633588,-1.6030534351145038,-0.341796875,0.125244140625,-0.41455078125,0.7122999999999999
1.251908396946565,0.8702290076335878,-1.6946564885496183,-0.341796875,0.125244140625,-0.42236328125,0.714
1.1145038167938932,0.8702290076335878,-1.7557251908396947,-0.341552734375,0.1171875,-0.420166015625,0.7157
1.1908396946564885,1.0534351145038168,-1.6641221374045803,-0.338134765625,0.119384765625,-0.410888671875,0.7173999999999999
1.1603053435114503,1.0381679389312977,-1.4351145038167938,-0.341552734375,0.123779296875,-0.4208984375,0.7191
1.297709923664122,1.1297709923664123,-1.6030534351145038,-0.3427734375,0.11865234375,-0.417236328125,0.7208
1.0534351145038168,1.282442748091603,-1.6793893129770991,-0.338134765625,0.116943359375,-0.41455078125,0.7224999999999999
0.8854961832061069,1.5419847328244274,-1.5877862595419847,-0.33447265625,0.1171875,-0.421875,0.7242
1.0534351145038168,1.6946564885496183,-1.7709923664122138,-0.33837890625,0.124267578125,-0.42333984375,0.7259
1.0076335877862594,1.4198473282442747,-1.8625954198473282,-0.339111328125,0.11962890625,-0.419921875,0.7275999999999999
1.0076335877862594,1.2671755725190839,-1.6946564885496183,-0.338134765625,0.1162109375,-0.42041015625,0.7293
1.1450381679389312,1.1755725190839694,-1.8931297709923665,-0.33642578125,0.119873046875,-0.413818359375,0.731
0.732824427480916,1.4961832061068703,-1.7709923664122138,-0.339111328125,0.123046875,-0.417724609375,0.7326999999999999
0.7786259541984732,1.282442748091603,-1.6793893129770991,-0.33740234375,0.11767578125,-0.4150390625,0.7343999999999999
1.099236641221374,1.1450381679389312,-1.7557251908396947,-0.33740234375,0.119384765625,-0.415283203125,0.7361
1.0534351145038168,1.1450381679389312,-1.6946564885496183,-0.339599609375,0.123779296875,-0.41845703125,0.7378
0.916030534351145,1.1450381679389312,-1.6641221374045803,-0.33837890625,0.121826171875,-0.4189453125,0.7394999999999999
0.8396946564885496,1.2061068702290076,-1.7557251908396947,-0.34033203125,0.115966796875,-0.416748046875,0.7412
0.9770992366412213,1.4809160305343512,-1.5572519083969465,-0.33935546875,0.11669921875,-0.42431640625,0.7429
1.1603053435114503,1.4351145038167938,-1.816793893129771,-0.337890625,0.118896484375,-0.42431640625,0.7445999999999999
0.8549618320610687,1.5725190839694656,-1.5725190839694656,-0.337646484375,0.11962890625,-0.422607421875,0.7463
0.8854961832061069,1.5572519083969465,-1.6030534351145038,-0.33984375,0.116455078125,-0.42041015625,0.748
0.8549618320610687,1.6641221374045803,-1.786259541984733,-0.336669921875,0.119384765625,-0.42578125,0.7496999999999999
0.8091603053435115,1.4961832061068703,-1.7709923664122138,-0.3408203125,0.120849609375,-0.422607421875,0.7514
0.7480916030534351,1.5725190839694656,-1.618320610687023,-0.334716796875,0.11669921875,-0.4228515625,0.7531
0.8091603053435115,1.5572519083969465,-1.83206106870229,-0.337890625,0.121337890625,-0.420654296875,0.7547999999999999
0.7786259541984732,1.6030534351145038,-1.7404580152671756,-0.341796875,0.1201171875,-0.41552734375,0.7565
0.8854961832061069,1.6641221374045803,-2.045801526717557,-0.333251953125,0.121826171875,-0.42578125,0.7582
0.6870229007633588,1.7404580152671756,-1.7099236641221374,-0.3369140625,0.12109375,-0.417236328125,0.7598999999999999
0.9618320610687023,1.7557251908396947,-1.7404580152671756,-0.3369140625,0.1181640625,-0.416259765625,0.7615999999999999
0.9007633587786259,1.816793893129771,-1.7404580152671756,-0.3369140625,0.119140625,-0.4189453125,0.7633
0.6412213740458015,1.7709923664122138,-1.6946564885496183,-0.3330078125,0.11767578125,-0.41943359375,0.7649999999999999
0.6717557251908397,1.6641221374045803,-1.4809160305343512,-0.337890625,0.118896484375,-0.419677734375,0.7666999999999999
0.48854961832061067,1.4809160305343512,-1.6641221374045803,-0.33837890625,0.12109375,-0.420654296875,0.7684
0.7480916030534351,1.6946564885496183,-1.633587786259542,-0.33642578125,0.12353515625,-0.419189453125,0.7701
0.8244274809160306,1.7709923664122138,-1.7557251908396947,-0.33349609375,0.12548828125,-0.420654296875,0.7717999999999999
0.8244274809160306,1.6488549618320612,-1.4809160305343512,-0.3369140625,0.11865234375,-0.422119140625,0.7735
0.8091603053435115,1.633587786259542,-1.6946564885496183,-0.34326171875,0.1201171875,-0.427978515625,0.7752
0.6412213740458015,1.6793893129770991,-1.633587786259542,-0.341064453125,0.11767578125,-0.421142578125,0.7768999999999999
0.7480916030534351,1.7557251908396947,-1.6030534351145038,-0.33984375,0.122802734375,-0.4267578125,0.7786
0.7633587786259542,1.618320610687023,-1.4961832061068703,-0.33447265625,0.124267578125,-0.423095703125,0.7803
0.9007633587786259,1.633587786259542,-1.5114503816793894,-0.3369140625,0.12646484375,-0.415283203125,0.7819999999999999
1.0076335877862594,1.6488549618320612,-1.4961832061068703,-0.337646484375,0.128173828125,-0.42333984375,0.7837
0.732824427480916,1.5267175572519085,-1.465648854961832,-0.333740234375,0.125244140625,-0.427978515625,0.7854
0.8396946564885496,1.450381679389313,-1.4045801526717556,-0.3359375,0.124755859375,-0.418212890625,0.7870999999999999
0.9007633587786259,1.3587786259541985,-1.6030534351145038,-0.339111328125,0.12646484375,-0.42138671875,0.7888
0.6106870229007634,1.786259541984733,-1.4961832061068703,-0.33203125,0.116943359375,-0.4287109375,0.7905
1.0229007633587786,1.3740458015267176,-1.5114503816793894,-0.338134765625,0.1171875,-0.423095703125,0.7921999999999999
1.4351145038167938,1.450381679389313,-1.4351145038167938,-0.33642578125,0.12646484375,-0.428955078125,0.7938999999999999
1.2213740458015268,1.3587786259541985,-1.4809160305343512,-0.337158203125,0.123779296875,-0.427001953125,0.7956
1.0381679389312977,1.2061068702290076,-1.618320610687023,-0.339599609375,0.12451171875,-0.4326171875,0.7973
1.099236641221374,1.251908396946565,-1.5267175572519085,-0.33642578125,0.12158203125,-0.42578125,0.7989999999999999
1.1603053435114503,1.3587786259541985,-1.5267175572519085,-0.338134765625,0.122802734375,-0.428955078125,0.8007
1.0687022900763359,1.4351145038167938,-1.8931297709923665,-0.33837890625,0.124267578125,-0.427001953125,0.8024
0.9465648854961832,1.5114503816793894,-1.83206106870229,-0.339111328125,0.120849609375,-0.426513671875,0.8040999999999999
1.0229007633587786,1.465648854961832,-1.9236641221374047,-0.340576171875,0.124267578125,-0.419677734375,0.8058
1.1908396946564885,1.5114503816793894,-1.9694656488549618,-0.339599609375,0.119873046875,-0.4287109375,0.8075
1.2061068702290076,1.5725190839694656,-2.1068702290076335,-0.332275390625,0.125,-0.423095703125,0.8091999999999999
1.2366412213740459,1.633587786259542,-1.9694656488549618,-0.336181640625,0.129638671875,-0.421142578125,0.8109
1.297709923664122,1.5267175572519085,-1.8473282442748091,-0.332763671875,0.12451171875,-0.42236328125,0.8126
1.3435114503816794,1.7709923664122138,-2.1374045801526718,-0.339111328125,0.1171875,-0.424072265625,0.8142999999999999
1.3435114503816794,1.786259541984733,-2.030534351145038,-0.340087890625,0.122802734375,-0.427978515625,0.816
1.251908396946565,1.5725190839694656,-1.7099236641221374,-0.335205078125,0.11962890625,-0.41552734375,0.8177
1.099236641221374,1.5572519083969465,-2.0,-0.336181640625,0.116943359375,-0.419189453125,0.8193999999999999
1.0229007633587786,1.4351145038167938,-1.9541984732824427,-0.33349609375,0.117431640625,-0.420654296875,0.8210999999999999
1.2061068702290076,1.3435114503816794,-1.7709923664122138,-0.3330078125,0.12109375,-0.418701171875,0.8228
0.9618320610687023,1.2671755725190839,-1.9083969465648856,-0.33740234375,0.119873046875,-0.4248046875,0.8244999999999999
0.8396946564885496,1.099236641221374,-1.8015267175572518,-0.337646484375,0.1181640625,-0.4208984375,0.8261999999999999
1.1755725190839694,1.099236641221374,-1.9541984732824427,-0.336669921875,0.1220703125,-0.42236328125,0.8279
0.916030534351145,0.9465648854961832,-1.7557251908396947,-0.333984375,0.121337890625,-0.42626953125,0.8296
1.0229007633587786,1.0534351145038168,-1.816793893129771,-0.33447265625,0.121337890625,-0.428466796875,0.8312999999999999
0.9618320610687023,0.9465648854961832,-1.5267175572519085,-0.331787109375,0.11572265625,-0.421142578125,0.833
1.1450381679389312,0.7022900763358778,-1.6793893129770991,-0.339111328125,0.116455078125,-0.424072265625,0.8347
0.9618320610687023,0.9465648854961832,-1.6793893129770991,-0.3349609375,0.12109375,-0.416748046875,0.8363999999999999
0.5801526717557252,1.0076335877862594,-1.8015267175572518,-0.3408203125,0.123046875,-0.41552734375,0.8381
0.5801526717557252,1.0229007633587786,-1.618320610687023,-0.33935546875,0.1201171875,-0.42138671875,0.8398
0.5801526717557252,1.1145038167938932,-1.465648854961832,-0.3369140625,0.12109375,-0.42578125,0.8414999999999999
0.6564885496183206,1.2671755725190839,-1.4351145038167938,-0.334716796875,0.121826171875,-0.42626953125,0.8432
0.44274809160305345,1.1755725190839694,-1.6793893129770991,-0.338134765625,0.113037109375,-0.427490234375,0.8449
0.3969465648854962,1.1908396946564885,-1.4045801526717556,-0.337646484375,0.122802734375,-0.428466796875,0.8465999999999999
0.3511450381679389,1.618320610687023,-1.4351145038167938,-0.338623046875,0.118896484375,-0.427490234375,0.8482999999999999
0.44274809160305345,1.3740458015267176,-1.6030534351145038,-0.3388671875,0.12353515625,-0.420166015625,0.85
0.2900763358778626,1.3435114503816794,-1.5725190839694656,-0.333740234375,0.124267578125,-0.425537109375,0.8516999999999999
0.3511450381679389,1.3893129770992367,-1.297709923664122,-0.33740234375,0.120849609375,-0.4169921875,0.8533999999999999
0.5343511450381679,1.5877862595419847,-1.5267175572519085,-0.3369140625,0.1220703125,-0.4091796875,0.8551
0.8091603053435115,1.3893129770992367,-1.6030534351145038,-0.33056640625,0.12646484375,-0.415283203125,0.8568
0.7938931297709924,1.5267175572519085,-1.4809160305343512,-0.339599609375,0.129150390625,-0.420654296875,0.8584999999999999
0.7633587786259542,1.5877862595419847,-1.5877862595419847,-0.33544921875,0.126220703125,-0.420166015625,0.8602
1.0381679389312977,1.465648854961832,-1.8625954198473282,-0.334228515625,0.124267578125,-0.425048828125,0.8619
1.1908396946564885,1.3129770992366412,-1.7251908396946565,-0.333740234375,0.123046875,-0.423095703125,0.8635999999999999
1.3435114503816794,1.3435114503816794,-1.8778625954198473,-0.3330078125,0.11865234375,-0.41943359375,0.8653
1.4351145038167938,1.1908396946564885,-1.5572519083969465,-0.3349609375,0.118408203125,-0.418212890625,0.867
1.465648854961832,1.251908396946565,-1.83206106870229,-0.33544921875,0.124755859375,-0.425048828125,0.8686999999999999
1.4809160305343512,0.9618320610687023,-1.8015267175572518,-0.333251953125,0.129150390625,-0.422119140625,0.8704
1.4198473282442747,0.7938931297709924,-1.7404580152671756,-0.32861328125,0.123779296875,-0.423828125,0.8721
1.7709923664122138,0.6717557251908397,-1.6488549618320612,-0.332275390625,0.12060546875,-0.417724609375,0.8737999999999999
1.6946564885496183,0.7633587786259542,-1.7404580152671756,-0.33935546875,0.121826171875,-0.420166015625,0.8755
1.9083969465648856,0.7938931297709924,-1.7404580152671756,-0.33642578125,0.125,-0.427001953125,0.8772
2.030534351145038,0.5038167938931297,-1.7404580152671756,-0.3359375,0.119140625,-0.41259765625,0.8788999999999999
1.9083969465648856,0.5801526717557252,-1.5877862595419847,-0.33837890625,0.11669921875,-0.41650390625,0.8805999999999999
1.6030534351145038,0.6870229007633588,-1.7404580152671756,-0.335693359375,0.123291015625,-0.417724609375,0.8823
1.8473282442748091,0.8091603053435115,-1.633587786259542,-0.336669921875,0.123291015625,-0.41015625,0.8839999999999999
1.9541984732824427,0.8244274809160306,-1.5877862595419847,-0.336669921875,0.126220703125,-0.428955078125,0.8856999999999999
1.984732824427481,0.6717557251908397,-1.4198473282442747,-0.339111328125,0.127197265625,-0.42041015625,0.8874
1.9389312977099236,0.8854961832061069,-1.7404580152671756,-0.3359375,0.12548828125,-0.42236328125,0.8891
1.9541984732824427,0.9465648854961832,-1.5114503816793894,-0.332275390625,0.121826171875,-0.42333984375,0.8907999999999999
1.9541984732824427,0.9465648854961832,-1.618320610687023,-0.336181640625,0.126708984375,-0.429931640625,0.8925
1.9389312977099236,0.9923664122137404,-1.5725190839694656,-0.3369140625,0.12158203125,-0.425537109375,0.8942
2.0,0.9465648854961832,-1.618320610687023,-0.337646484375,0.122802734375,-0.416748046875,0.8958999999999999
1.9389312977099236,1.0076335877862594,-1.5725190839694656,-0.337890625,0.12353515625,-0.413818359375,0.8976
1.9236641221374047,0.8702290076335878,-1.5877862595419847,-0.33544921875,0.119140625,-0.4140625,0.8993
1.816793893129771,1.1297709923664123,-1.5419847328244274,-0.334716796875,0.120361328125,-0.420654296875,0.9009999999999999
1.9694656488549618,1.3129770992366412,-1.5572519083969465,-0.336181640625,0.12255859375,-0.428955078125,0.9027
2.1068702290076335,0.9770992366412213,-1.4809160305343512,-0.3369140625,0.119873046875,-0.41650390625,0.9044
1.9694656488549618,1.0381679389312977,-1.4045801526717556,-0.338134765625,0.120361328125,-0.419189453125,0.9060999999999999
2.045801526717557,1.0229007633587786,-1.3740458015267176,-0.333251953125,0.12255859375,-0.4287109375,0.9077999999999999
2.0763358778625953,1.083969465648855,-1.3587786259541985,-0.337646484375,0.122314453125,-0.423095703125,0.9095
1.9389312977099236,1.1603053435114503,-1.3129770992366412,-0.3388671875,0.1171875,-0.418701171875,0.9111999999999999
1.786259541984733,0.9923664122137404,-1.3587786259541985,-0.33837890625,0.114990234375,-0.41455078125,0.9128999999999999
2.045801526717557,0.9465648854961832,-1.251908396946565,-0.33740234375,0.117919921875,-0.423095703125,0.9146
1.8015267175572518,0.9770992366412213,-1.3740458015267176,-0.33837890625,0.11962890625,-0.419189453125,0.9163
1.5725190839694656,1.1450381679389312,-1.0381679389312977,-0.3349609375,0.12255859375,-0.4189453125,0.9179999999999999
1.6946564885496183,0.8854961832061069,-1.4045801526717556,-0.334716796875,0.1201171875,-0.421630859375,0.9197
1.6946564885496183,1.0076335877862594,-1.2061068702290076,-0.3369140625,0.116455078125,-0.422119140625,0.9214
1.7709923664122138,0.9923664122137404,-1.1908396946564885,-0.3388671875,0.11962890625,-0.41552734375,0.9230999999999999
1.7404580152671756,0.9770992366412213,-1.1145038167938932,-0.33544921875,0.119140625,-0.424560546875,0.9248
1.4045801526717556,1.0534351145038168,-1.1297709923664123,-0.332275390625,0.12548828125,-0.4228515625,0.9265
1.618320610687023,0.8396946564885496,-1.083969465648855,-0.334716796875,0.125,-0.4140625,0.9281999999999999
1.5572519083969465,0.5343511450381679,-1.083969465648855,-0.3359375,0.12255859375,-0.41943359375,0.9299
1.7709923664122138,0.9465648854961832,-1.083969465648855,-0.337890625,0.119873046875,-0.414794921875,0.9316
1.633587786259542,0.6870229007633588,-0.916030534351145,-0.337890625,0.119140625,-0.409423828125,0.9332999999999999
1.6030534351145038,0.48854961832061067,-1.0076335877862594,-0.337646484375,0.121826171875,-0.425048828125,0.9349999999999999
1.816793893129771,0.7480916030534351,-1.1908396946564885,-0.333984375,0.118896484375,-0.432861328125,0.9367
1.5419847328244274,0.6259541984732825,-1.099236641221374,-0.3349609375,0.118896484375,-0.419189453125,0.9383999999999999
1.7251908396946565,0.44274809160305345,-0.9923664122137404,-0.334228515625,0.117919921875,-0.4140625,0.9400999999999999
1.5877862595419847,0.48854961832061067,-1.1145038167938932,-0.3388671875,0.1240234375,-0.41748046875,0.9418
1.4961832061068703,0.5648854961832062,-1.2671755725190839,-0.337646484375,0.123291015625,-0.419189453125,0.9434999999999999
1.9236641221374047,0.5801526717557252,-1.0076335877862594,-0.33935546875,0.1171875,-0.4208984375,0.9451999999999999
1.7557251908396947,0.6106870229007634,-1.0229007633587786,-0.337646484375,0.120849609375,-0.4130859375,0.9469
1.7251908396946565,0.6259541984732825,-1.0229007633587786,-0.335205078125,0.1259765625,-0.4150390625,0.9486
1.633587786259542,0.5801526717557252,-1.1297709923664123,-0.340576171875,0.12451171875,-0.413818359375,0.9502999999999999
1.7099236641221374,0.5954198473282443,-1.0229007633587786,-0.33642578125,0.122314453125,-0.411865234375,0.952
1.8625954198473282,0.6717557251908397,-1.1755725190839694,-0.343017578125,0.119140625,-0.419189453125,0.9537
1.816793893129771,0.6106870229007634,-1.0229007633587786,-0.341796875,0.12060546875,-0.42041015625,0.9553999999999999
1.6641221374045803,0.4732824427480916,-0.9923664122137404,-0.34326171875,0.120361328125,-0.420166015625,0.9571
1.7557251908396947,0.5038167938931297,-1.1145038167938932,-0.334716796875,0.124755859375,-0.422119140625,0.9588
1.8625954198473282,0.6412213740458015,-1.0229007633587786,-0.33740234375,0.13134765625,-0.418212890625,0.9604999999999999
1.9694656488549618,0.7175572519083969,-1.1145038167938932,-0.3359375,0.124755859375,-0.42431640625,0.9621999999999999
1.8778625954198473,0.6870229007633588,-0.9465648854961832,-0.33642578125,0.122314453125,-0.4169921875,0.9639
1.6030534351145038,0.6412213740458015,-1.2366412213740459,-0.337890625,0.1181640625,-0.4140625,0.9655999999999999
1.9694656488549618,0.7175572519083969,-1.1297709923664123,-0.3369140625,0.12060546875,-0.42138671875,0.9672999999999999
2.0,0.7022900763358778,-1.1755725190839694,-0.33837890625,0.12255859375,-0.42626953125,0.969
1.7404580152671756,0.6412213740458015,-1.1145038167938932,-0.3359375,0.1240234375,-0.425537109375,0.9706999999999999
1.9083969465648856,0.44274809160305345,-1.0687022900763359,-0.33984375,0.124755859375,-0.425537109375,0.9723999999999999
2.015267175572519,0.7633587786259542,-1.2671755725190839,-0.338623046875,0.124267578125,-0.4208984375,0.9741
1.5877862595419847,0.8244274809160306,-1.2366412213740459,-0.33447265625,0.12109375,-0.41796875,0.9758
1.8778625954198473,0.6106870229007634,-1.0687022900763359,-0.33642578125,0.120849609375,-0.4130859375,0.9774999999999999
1.8778625954198473,0.6259541984732825,-1.1908396946564885,-0.338623046875,0.115478515625,-0.425048828125,0.9792
2.0763358778625953,0.8549618320610687,-1.1145038167938932,-0.33642578125,0.122802734375,-0.428466796875,0.9809
1.8778625954198473,0.6717557251908397,-0.9770992366412213,-0.338134765625,0.1181640625,-0.42822265625,0.9825999999999999
1.7709923664122138,0.6870229007633588,-1.251908396946565,-0.3369140625,0.118408203125,-0.42333984375,0.9843
1.8625954198473282,0.549618320610687,-1.3587786259541985,-0.3388671875,0.119873046875,-0.424072265625,0.986
1.83206106870229,0.5954198473282443,-1.1450381679389312,-0.338134765625,0.118896484375,-0.417724609375,0.9876999999999999
2.0763358778625953,0.6564885496183206,-1.0687022900763359,-0.3359375,0.122802734375,-0.4189453125,0.9894
1.7404580152671756,0.7022900763358778,-1.099236641221374,-0.335693359375,0.115966796875,-0.423583984375,0.9911
1.7099236641221374,0.6412213740458015,-1.1450381679389312,-0.33056640625,0.118408203125,-0.415283203125,0.9927999999999999
1.8931297709923665,0.7175572519083969,-1.251908396946565,-0.33984375,0.12158203125,-0.423095703125,0.9944999999999999
1.8931297709923665,0.5343511450381679,-1.5267175572519085,-0.3369140625,0.1220703125,-0.42138671875,0.9962
1.6030534351145038,0.6259541984732825,-1.2366412213740459,-0.335205078125,0.119384765625,-0.424560546875,0.9978999999999999
1.618320610687023,0.6870229007633588,-1.3587786259541985,-0.33642578125,0.118896484375,-0.416015625,0.9995999999999999
1.8625954198473282,0.5801526717557252,-1.3435114503816794,-0.334716796875,0.125,-0.41845703125,1.0012999999999999
1.6946564885496183,0.6259541984732825,-1.3435114503816794,-0.336669921875,0.12158203125,-0.425048828125,1.003
1.6641221374045803,0.6259541984732825,-1.3893129770992367,-0.336669921875,0.122314453125,-0.421875,1.0047
1.6793893129770991,0.5190839694656488,-1.4351145038167938,-0.33935546875,0.11962890625,-0.410400390625,1.0064
1.816793893129771,0.5038167938931297,-1.3435114503816794,-0.330810546875,0.126708984375,-0.422607421875,1.0081
1.7099236641221374,0.4732824427480916,-1.3435114503816794,-0.3359375,0.1171875,-0.423583984375,1.0098
1.5114503816793894,0.48854961832061067,-1.465648854961832,-0.336669921875,0.12109375,-0.422607421875,1.0114999999999998
1.5725190839694656,0.5190839694656488,-1.465648854961832,-0.33447265625,0.12158203125,-0.416748046875,1.0131999999999999
1.7404580152671756,0.6412213740458015,-1.3435114503816794,-0.334228515625,0.1171875,-0.423828125,1.0149
1.5267175572519085,0.44274809160305345,-1.4809160305343512,-0.33544921875,0.1201171875,-0.423095703125,1.0166
1.3435114503816794,0.5190839694656488,-1.4961832061068703,-0.332275390625,0.120361328125,-0.42578125,1.0183
1.450381679389313,0.5038167938931297,-1.5114503816793894,-0.341552734375,0.11767578125,-0.416259765625,1.02
1.5877862595419847,0.48854961832061067,-1.618320610687023,-0.335205078125,0.115478515625,-0.418701171875,1.0217
1.5877862595419847,0.366412213740458,-1.9541984732824427,-0.3349609375,0.12109375,-0.427978515625,1.0233999999999999
1.6030534351145038,0.33587786259541985,-1.5725190839694656,-0.33935546875,0.11669921875,-0.419189453125,1.0251
1.4198473282442747,0.366412213740458,-1.7099236641221374,-0.336669921875,0.12158203125,-0.419677734375,1.0268
1.3893129770992367,0.4122137404580153,-1.7404580152671756,-0.3427734375,0.121337890625,-0.42333984375,1.0285
1.5267175572519085,0.1984732824427481,-1.7557251908396947,-0.330810546875,0.11962890625,-0.42529296875,1.0302
1.4809160305343512,0.5038167938931297,-1.8015267175572518,-0.335205078125,0.118896484375,-0.42041015625,1.0319
1.2671755725190839,0.4122137404580153,-1.786259541984733,-0.33837890625,0.118408203125,-0.41796875,1.0335999999999999
1.3282442748091603,0.22900763358778625,-1.7557251908396947,-0.33837890625,0.113525390625,-0.424072265625,1.0352999999999999
1.2213740458015268,0.5343511450381679,-1.8625954198473282,-0.337158203125,0.124267578125,-0.41552734375,1.037
1.3587786259541985,0.4732824427480916,-1.8625954198473282,-0.33642578125,0.123046875,-0.420654296875,1.0387
1.3740458015267176,0.3969465648854962,-1.9083969465648856,-0.33740234375,0.1220703125,-0.42431640625,1.0404
1.297709923664122,0.24427480916030533,-1.9389312977099236,-0.341064453125,0.120361328125,-0.426025390625,1.0421
1.282442748091603,0.3511450381679389,-1.9694656488549618,-0.340576171875,0.1220703125,-0.426025390625,1.0437999999999998
1.251908396946565,0.4122137404580153,-1.8931297709923665,-0.336669921875,0.118408203125,-0.4150390625,1.0454999999999999
1.3129770992366412,0.16793893129770993,-2.0610687022900764,-0.33935546875,0.120849609375,-0.418212890625,1.0472
1.3435114503816794,0.061068702290076333,-1.8015267175572518,-0.3408203125,0.123779296875,-0.414794921875,1.0489
1.3282442748091603,0.22900763358778625,-2.045801526717557,-0.34033203125,0.12060546875,-0.4248046875,1.0506
1.4045801526717556,0.10687022900763359,-1.9541984732824427,-0.3359375,0.118408203125,-0.421875,1.0523
1.3129770992366412,0.04580152671755725,-1.8625954198473282,-0.34130859375,0.12255859375,-0.421142578125,1.054
1.2671755725190839,-0.061068702290076333,-1.9694656488549618,-0.34326171875,0.117431640625,-0.4111328125,1.0556999999999999
1.4045801526717556,-0.15267175572519084,-2.1526717557251906,-0.331787109375,0.114990234375,-0.420166015625,1.0574
1.1755725190839694,-0.183206106870229,-1.9083969465648856,-0.336181640625,0.123779296875,-0.42333984375,1.0591
1.251908396946565,0.061068702290076333,-1.9389312977099236,-0.339111328125,0.118408203125,-0.4228515625,1.0608
1.251908396946565,0.12213740458015267,-1.9389312977099236,-0.342529296875,0.1181640625,-0.420654296875,1.0625
1.5114503816793894,-0.015267175572519083,-1.8931297709923665,-0.34033203125,0.11865234375,-0.427490234375,1.0642
1.5267175572519085,-0.22900763358778625,-1.8625954198473282,-0.338134765625,0.1171875,-0.42578125,1.0658999999999998
1.3587786259541985,0.061068702290076333,-1.8473282442748091,-0.33740234375,0.119140625,-0.41650390625,1.0675999999999999
1.4961832061068703,0.15267175572519084,-1.8931297709923665,-0.343505859375,0.12158203125,-0.420654296875,1.0693
1.3587786259541985,0.0916030534351145,-1.9083969465648856,-0.340576171875,0.1162109375,-0.41796875,1.071
1.3129770992366412,0.22900763358778625,-1.7709923664122138,-0.341796875,0.11328125,-0.414306640625,1.0727
1.251908396946565,0.2748091603053435,-1.9389312977099236,-0.339111328125,0.11962890625,-0.4248046875,1.0744
1.1603053435114503,0.2900763358778626,-1.9236641221374047,-0.338134765625,0.11865234375,-0.4248046875,1.0760999999999998
1.3435114503816794,0.6412213740458015,-1.9389312977099236,-0.342529296875,0.116943359375,-0.422607421875,1.0777999999999999
1.5419847328244274,0.366412213740458,-1.786259541984733,-0.33837890625,0.1220703125,-0.41943359375,1.0795
1.2671755725190839,0.2900763358778626,-1.8015267175572518,-0.341552734375,0.121826171875,-0.41455078125,1.0812
1.099236641221374,0.366412213740458,-1.8473282442748091,-0.3408203125,0.12158203125,-0.414794921875,1.0829
1.1603053435114503,0.33587786259541985,-1.5572519083969465,-0.335205078125,0.126953125,-0.4189453125,1.0846
1.4351145038167938,0.24427480916030533,-1.5725190839694656,-0.337646484375,0.12158203125,-0.41943359375,1.0863
1.3129770992366412,0.33587786259541985,-1.5877862595419847,-0.3388671875,0.11767578125,-0.422607421875,1.0879999999999999
1.3129770992366412,0.1984732824427481,-1.4961832061068703,-0.3427734375,0.119140625,-0.419921875,1.0897
1.251908396946565,0.21374045801526717,-1.618320610687023,-0.342529296875,0.117919921875,-0.423095703125,1.0914
1.1145038167938932,0.15267175572519084,-1.5419847328244274,-0.341796875,0.119140625,-0.412841796875,1.0931
1.0229007633587786,0.2900763358778626,-1.4809160305343512,-0.337646484375,0.12109375,-0.41845703125,1.0948
1.2061068702290076,0.22900763358778625,-1.4045801526717556,-0.341552734375,0.123291015625,-0.421142578125,1.0965
1.2366412213740459,0.4122137404580153,-1.4045801526717556,-0.342529296875,0.1220703125,-0.417724609375,1.0981999999999998
1.3129770992366412,0.3511450381679389,-1.4198473282442747,-0.342041015625,0.1181640625,-0.415283203125,1.0998999999999999
1.1297709923664123,0.3816793893129771,-1.4961832061068703,-0.341064453125,0.124755859375,-0.421142578125,1.1016
1.2366412213740459,0.6717557251908397,-1.1755725190839694,-0.338134765625,0.11669921875,-0.427734375,1.1033
1.5725190839694656,0.732824427480916,-1.251908396946565,-0.341064453125,0.118408203125,-0.422119140625,1.105
1.3587786259541985,0.8549618320610687,-1.1297709923664123,-0.34619140625,0.119384765625,-0.419189453125,1.1067
1.0229007633587786,0.916030534351145,-1.2213740458015268,-0.343505859375,0.116455078125,-0.411376953125,1.1083999999999998
1.3893129770992367,0.7938931297709924,-1.1145038167938932,-0.342041015625,0.119140625,-0.425048828125,1.1100999999999999
1.2671755725190839,0.9312977099236641,-1.1145038167938932,-0.341796875,0.1201171875,-0.42041015625,1.1118
1.2366412213740459,0.9770992366412213,-1.0687022900763359,-0.338623046875,0.115234375,-0.422607421875,1.1135
1.2366412213740459,1.0534351145038168,-1.1755725190839694,-0.34130859375,0.119140625,-0.412841796875,1.1152
1.3893129770992367,0.9007633587786259,-0.9923664122137404,-0.33837890625,0.12060546875,-0.423095703125,1.1169
1.297709923664122,1.083969465648855,-0.9465648854961832,-0.346923828125,0.122314453125,-0.42529296875,1.1186
1.1297709923664123,0.8854961832061069,-0.9007633587786259,-0.34228515625,0.115966796875,-0.42041015625,1.1202999999999999
1.2213740458015268,0.9312977099236641,-1.0534351145038168,-0.339111328125,0.11572265625,-0.41552734375,1.1219999999999999
1.1450381679389312,0.6412213740458015,-0.8244274809160306,-0.340087890625,0.12109375,-0.42138671875,1.1237
1.1908396946564885,0.7633587786259542,-0.7022900763358778,-0.3447265625,0.12109375,-0.42236328125,1.1254
1.2213740458015268,0.8549618320610687,-0.7938931297709924,-0.343994140625,0.120361328125,-0.420166015625,1.1271
1.4045801526717556,0.8396946564885496,-0.5648854961832062,-0.34033203125,0.118896484375,-0.418701171875,1.1288
1.1908396946564885,0.8396946564885496,-0.42748091603053434,-0.34814453125,0.11865234375,-0.41259765625,1.1304999999999998
1.099236641221374,0.8091603053435115,-0.4580152671755725,-0.33642578125,0.115966796875,-0.428955078125,1.1321999999999999
1.2213740458015268,0.9770992366412213,-0.6106870229007634,-0.342529296875,0.118408203125,-0.4248046875,1.1339
1.0229007633587786,1.0229007633587786,-0.6870229007633588,-0.343505859375,0.11767578125,-0.41650390625,1.1356
1.0687022900763359,0.9465648854961832,-0.7022900763358778,-0.3369140625,0.116943359375,-0.4248046875,1.1373
1.0687022900763359,1.0076335877862594,-0.3969465648854962,-0.341796875,0.119384765625,-0.423095703125,1.139
0.9618320610687023,1.083969465648855,-0.5801526717557252,-0.3349609375,0.12158203125,-0.41943359375,1.1407
1.1297709923664123,0.8702290076335878,-0.3816793893129771,-0.339111328125,0.119873046875,-0.417724609375,1.1423999999999999
0.916030534351145,1.0229007633587786,-0.4122137404580153,-0.338623046875,0.115478515625,-0.42236328125,1.1441
0.8244274809160306,1.282442748091603,-0.3969465648854962,-0.339599609375,0.122802734375,-0.425048828125,1.1458
0.6717557251908397,1.099236641221374,-0.2748091603053435,-0.337158203125,0.116943359375,-0.420654296875,1.1475
1.0534351145038168,1.0076335877862594,-0.21374045801526717,-0.337646484375,0.11669921875,-0.42041015625,1.1492
1.0381679389312977,1.099236641221374,-0.22900763358778625,-0.334716796875,0.118408203125,-0.418212890625,1.1509
0.6564885496183206,1.0229007633587786,-0.32061068702290074,-0.33642578125,0.1142578125,-0.416748046875,1.1525999999999998
0.6259541984732825,0.9770992366412213,-0.42748091603053434,-0.342041015625,0.12255859375,-0.417724609375,1.1542999999999999
1.0076335877862594,1.083969465648855,-0.4580152671755725,-0.33984375,0.1201171875,-0.419677734375,1.156
0.9312977099236641,1.099236641221374,-0.1984732824427481,-0.33642578125,0.119873046875,-0.426025390625,1.1577
0.732824427480916,1.1450381679389312,-0.33587786259541985,-0.340087890625,0.12060546875,-0.43212890625,1.1594
0.6870229007633588,1.1908396946564885,-0.32061068702290074,-0.34228515625,0.124267578125,-0.427734375,1.1611
0.8396946564885496,1.099236641221374,-0.2595419847328244,-0.334228515625,0.1171875,-0.416748046875,1.1627999999999998
0.7633587786259542,1.0534351145038168,-0.44274809160305345,-0.340576171875,0.1162109375,-0.42041015625,1.1644999999999999
0.6259541984732825,1.0687022900763359,-0.1984732824427481,-0.336669921875,0.120849609375,-0.41064453125,1.1662
0.7786259541984732,1.1755725190839694,-0.44274809160305345,-0.336669921875,0.123779296875,-0.41357421875,1.1679
0.9007633587786259,1.1908396946564885,-0.3816793893129771,-0.342041015625,0.126953125,-0.418212890625,1.1696
0.5954198473282443,0.9312977099236641,-0.24427480916030533,-0.335205078125,0.11962890625,-0.416259765625,1.1713
0.6564885496183206,1.0076335877862594,-0.3816793893129771,-0.338134765625,0.121337890625,-0.41650390625,1.173
0.549618320610687,1.1450381679389312,-0.5343511450381679,-0.334716796875,0.120849609375,-0.4150390625,1.1746999999999999
0.7175572519083969,0.9312977099236641,-0.4732824427480916,-0.338623046875,0.123779296875,-0.416015625,1.1764
0.6106870229007634,1.1145038167938932,-0.6259541984732825,-0.340576171875,0.1259765625,-0.423583984375,1.1781
0.4732824427480916,1.2671755725190839,-0.3816793893129771,-0.341064453125,0.12451171875,-0.42578125,1.1798
0.5801526717557252,1.1603053435114503,-0.6259541984732825,-0.339111328125,0.1259765625,-0.419921875,1.1815
0.5038167938931297,1.2213740458015268,-0.3969465648854962,-0.337646484375,0.125244140625,-0.421875,1.1832
0.48854961832061067,1.1297709923664123,-0.6259541984732825,-0.34228515625,0.119384765625,-0.421142578125,1.1848999999999998
0.5343511450381679,1.0076335877862594,-0.6870229007633588,-0.33349609375,0.124755859375,-0.4208984375,1.1865999999999999
0.48854961832061067,1.1297709923664123,-0.8702290076335878,-0.3359375,0.12353515625,-0.4150390625,1.1883
0.549618320610687,1.1450381679389312,-0.8244274809160306,-0.336669921875,0.12353515625,-0.416015625,1.19
0.6259541984732825,1.297709923664122,-1.083969465648855,-0.339599609375,0.1279296875,-0.417236328125,1.1917
0.5801526717557252,1.0687022900763359,-0.916030534351145,-0.334716796875,0.12548828125,-0.419677734375,1.1934
0.6412213740458015,0.9923664122137404,-1.099236641221374,-0.335205078125,0.12353515625,-0.416748046875,1.1950999999999998
0.7633587786259542,1.1450381679389312,-1.2061068702290076,-0.341064453125,0.12158203125,-0.423095703125,1.1967999999999999
0.732824427480916,0.9618320610687023,-1.3587786259541985,-0.336669921875,0.12353515625,-0.41455078125,1.1985
0.7633587786259542,1.1603053435114503,-1.1755725190839694,-0.33740234375,0.128173828125,-0.42236328125,1.2002
0.9465648854961832,0.9923664122137404,-1.1908396946564885,-0.33642578125,0.121826171875,-0.417236328125,1.2019
0.8702290076335878,0.9465648854961832,-1.251908396946565,-0.332763671875,0.13134765625,-0.4267578125,1.2036
0.916030534351145,1.083969465648855,-1.4809160305343512,-0.336669921875,0.123046875,-0.4130859375,1.2053
1.0381679389312977,0.9923664122137404,-1.251908396946565,-0.3369140625,0.123779296875,-0.4189453125,1.2069999999999999
0.9618320610687023,1.0076335877862594,-1.5725190839694656,-0.337646484375,0.12451171875,-0.41796875,1.2086999999999999
0.9770992366412213,0.916030534351145,-1.3282442748091603,-0.3369140625,0.12646484375,-0.4267578125,1.2104
1.0229007633587786,0.8244274809160306,-1.450381679389313,-0.335693359375,0.124755859375,-0.419189453125,1.2121
1.2061068702290076,0.732824427480916,-1.4961832061068703,-0.33740234375,0.125244140625,-0.4130859375,1.2138
1.1603053435114503,0.7786259541984732,-1.7709923664122138,-0.33740234375,0.122314453125,-0.423583984375,1.2155
1.1450381679389312,0.7786259541984732,-1.6488549618320612,-0.342041015625,0.115966796875,-0.418212890625,1.2171999999999998
1.1755725190839694,0.7938931297709924,-1.8015267175572518,-0.33837890625,0.124267578125,-0.412353515625,1.2188999999999999
1.3435114503816794,0.732824427480916,-1.83206106870229,-0.3369140625,0.122314453125,-0.424560546875,1.2206
1.251908396946565,0.8702290076335878,-1.9236641221374047,-0.3359375,0.12255859375,-0.431396484375,1.2223
1.251908396946565,0.7633587786259542,-1.816793893129771,-0.34033203125,0.123046875,-0.420166015625,1.224
1.4351145038167938,0.916030534351145,-1.9083969465648856,-0.3369140625,0.123046875,-0.41259765625,1.2257
1.3435114503816794,0.8854961832061069,-1.8473282442748091,-0.33642578125,0.12158203125,-0.41943359375,1.2273999999999998
1.3893129770992367,0.7938931297709924,-2.045801526717557,-0.335205078125,0.122802734375,-0.416748046875,1.2290999999999999
1.3587786259541985,0.7786259541984732,-2.030534351145038,-0.342041015625,0.12060546875,-0.42431640625,1.2308
1.5877862595419847,0.8091603053435115,-2.0,-0.3330078125,0.125244140625,-0.423095703125,1.2325
1.4961832061068703,0.549618320610687,-1.9389312977099236,-0.331787109375,0.122314453125,-0.42041015625,1.2342
1.4809160305343512,0.4732824427480916,-2.030534351145038,-0.338623046875,0.123779296875,-0.4150390625,1.2359
1.5419847328244274,0.5648854961832062,-1.7557251908396947,-0.333984375,0.12548828125,-0.41650390625,1.2376
1.5572519083969465,0.5343511450381679,-1.9236641221374047,-0.3369140625,0.119384765625,-0.41943359375,1.2392999999999998
1.5419847328244274,0.8244274809160306,-1.9541984732824427,-0.3369140625,0.12158203125,-0.427001953125,1.2409999999999999
1.6793893129770991,0.5343511450381679,-1.7709923664122138,-0.3359375,0.121826171875,-0.4208984375,1.2427
1.4351145038167938,0.5343511450381679,-1.8931297709923665,-0.33837890625,0.123291015625,-0.421142578125,1.2444
1.7251908396946565,0.5343511450381679,-2.015267175572519,-0.337646484375,0.126953125,-0.41943359375,1.2461
1.6946564885496183,0.5190839694656488,-1.8015267175572518,-0.333740234375,0.12548828125,-0.421142578125,1.2478
1.4045801526717556,0.7175572519083969,-1.9541984732824427,-0.333740234375,0.125,-0.42333984375,1.2494999999999998
1.2366412213740459,0.3969465648854962,-1.786259541984733,-0.33447265625,0.122802734375,-0.41943359375,1.2511999999999999
1.6641221374045803,0.42748091603053434,-1.9083969465648856,-0.3359375,0.123291015625,-0.42236328125,1.2529
1.465648854961832,0.44274809160305345,-1.7709923664122138,-0.33740234375,0.125,-0.418212890625,1.2546
1.5419847328244274,0.44274809160305345,-1.8625954198473282,-0.338623046875,0.129638671875,-0.417236328125,1.2563
1.8625954198473282,0.42748091603053434,-1.8625954198473282,-0.33154296875,0.121337890625,-0.419189453125,1.258
1.633587786259542,0.48854961832061067,-1.984732824427481,-0.334228515625,0.1171875,-0.418701171875,1.2596999999999998
1.6488549618320612,0.6717557251908397,-1.9389312977099236,-0.335205078125,0.122802734375,-0.420166015625,1.2613999999999999
1.3893129770992367,0.3816793893129771,-1.816793893129771,-0.33837890625,0.120361328125,-0.421630859375,1.2631
1.3740458015267176,0.366412213740458,-1.8625954198473282,-0.337646484375,0.1201171875,-0.422607421875,1.2648
1.7557251908396947,0.3969465648854962,-1.6946564885496183,-0.3359375,0.1220703125,-0.412353515625,1.2665
1.6030534351145038,0.42748091603053434,-1.6488549618320612,-0.336181640625,0.125,-0.417236328125,1.2682
1.5114503816793894,0.4732824427480916,-1.7557251908396947,-0.33984375,0.123779296875,-0.424560546875,1.2699
1.4351145038167938,0.2900763358778626,-1.5114503816793894,-0.3359375,0.12109375,-0.410888671875,1.2715999999999998
1.450381679389313,0.32061068702290074,-1.7099236641221374,-0.336669921875,0.124755859375,-0.42041015625,1.2732999999999999
1.6488549618320612,0.24427480916030533,-1.5114503816793894,-0.340087890625,0.128662109375,-0.416259765625,1.275
1.4198473282442747,0.3816793893129771,-1.7404580152671756,-0.33837890625,0.125244140625,-0.41455078125,1.2767
1.5419847328244274,0.48854961832061067,-1.6488549618320612,-0.33349609375,0.1240234375,-0.4228515625,1.2784
1.3435114503816794,0.2900763358778626,-1.5725190839694656,-0.337646484375,0.124755859375,-0.409423828125,1.2801
1.5572519083969465,0.24427480916030533,-1.3129770992366412,-0.344482421875,0.119384765625,-0.417724609375,1.2817999999999998
1.6946564885496183,0.10687022900763359,-1.3435114503816794,-0.338134765625,0.119384765625,-0.420654296875,1.2834999999999999
1.5877862595419847,0.3816793893129771,-1.3893129770992367,-0.3369140625,0.12109375,-0.427490234375,1.2852
1.4809160305343512,0.4122137404580153,-1.1297709923664123,-0.342529296875,0.125244140625,-0.412353515625,1.2869
1.5419847328244274,0.4122137404580153,-1.3282442748091603,-0.33935546875,0.12060546875,-0.41552734375,1.2886
1.6030534351145038,0.366412213740458,-1.282442748091603,-0.342529296875,0.120361328125,-0.420654296875,1.2903
1.633587786259542,0.6259541984732825,-1.1603053435114503,-0.33544921875,0.1171875,-0.4140625,1.292
1.4809160305343512,0.549618320610687,-1.2671755725190839,-0.34423828125,0.118408203125,-0.42626953125,1.2936999999999999
1.5572519083969465,0.7022900763358778,-1.2671755725190839,-0.346923828125,0.126708984375,-0.423095703125,1.2953999999999999
1.4045801526717556,0.44274809160305345,-1.3129770992366412,-0.333251953125,0.123779296875,-0.419677734375,1.2971
1.6030534351145038,0.5343511450381679,-1.2671755725190839,-0.3388671875,0.123046875,-0.41748046875,1.2988
1.6641221374045803,0.6259541984732825,-1.251908396946565,-0.34228515625,0.1220703125,-0.414306640625,1.3005
1.83206106870229,0.4580152671755725,-1.0381679389312977,-0.338134765625,0.12158203125,-0.422119140625,1.3022
1.633587786259542,0.33587786259541985,-1.083969465648855,-0.338623046875,0.124267578125,-0.41650390625,1.3038999999999998
1.6793893129770991,0.5648854961832062,-1.5267175572519085,-0.33935546875,0.1240234375,-0.425048828125,1.3055999999999999
1.8473282442748091,0.732824427480916,-1.4045801526717556,-0.337646484375,0.121826171875,-0.420654296875,1.3073
2.015267175572519,0.5038167938931297,-1.251908396946565,-0.338623046875,0.123779296875,-0.422119140625,1.309
1.8625954198473282,0.48854961832061067,-1.0381679389312977,-0.3349609375,0.123779296875,-0.421142578125,1.3107
1.8931297709923665,0.549618320610687,-1.3282442748091603,-0.33251953125,0.129150390625,-0.4189453125,1.3124
2.0610687022900764,0.4732824427480916,-1.1908396946564885,-0.33447265625,0.124755859375,-0.42138671875,1.3140999999999998
1.8778625954198473,0.24427480916030533,-1.1755725190839694,-0.333251953125,0.12060546875,-0.422119140625,1.3157999999999999
1.9541984732824427,0.24427480916030533,-1.1145038167938932,-0.34228515625,0.119384765625,-0.4189453125,1.3175
2.122137404580153,0.5343511450381679,-1.2671755725190839,-0.3388671875,0.12158203125,-0.4208984375,1.3192
1.8015267175572518,0.5343511450381679,-1.251908396946565,-0.336669921875,0.12109375,-0.420166015625,1.3209
1.8473282442748091,0.7480916030534351,-1.3282442748091603,-0.336669921875,0.12060546875,-0.416015625,1.3226
1.984732824427481,0.7938931297709924,-1.0687022900763359,-0.34228515625,0.1201171875,-0.42041015625,1.3243
1.7251908396946565,0.5038167938931297,-1.2213740458015268,-0.340087890625,0.1171875,-0.41748046875,1.3259999999999998
1.8473282442748091,0.7022900763358778,-1.2061068702290076,-0.339599609375,0.119873046875,-0.412109375,1.3276999999999999
1.8473282442748091,0.8549618320610687,-1.1450381679389312,-0.33984375,0.12255859375,-0.4189453125,1.3294
1.5725190839694656,0.8244274809160306,-1.1908396946564885,-0.340087890625,0.119873046875,-0.413818359375,1.3311
1.6793893129770991,0.9465648854961832,-1.099236641221374,-0.3388671875,0.115966796875,-0.418212890625,1.3328
1.6030534351145038,1.0076335877862594,-1.099236641221374,-0.33984375,0.1201171875,-0.41357421875,1.3345
1.450381679389313,0.9923664122137404,-1.0687022900763359,-0.33642578125,0.11865234375,-0.41162109375,1.3361999999999998
1.3587786259541985,1.099236641221374,-1.3129770992366412,-0.33447265625,0.12158203125,-0.42333984375,1.3378999999999999
1.6793893129770991,1.0076335877862594,-1.3282442748091603,-0.33740234375,0.117431640625,-0.4169921875,1.3396
1.3893129770992367,0.9618320610687023,-1.1603053435114503,-0.340576171875,0.118408203125,-0.419189453125,1.3413
1.1908396946564885,0.8854961832061069,-1.2671755725190839,-0.33935546875,0.120849609375,-0.423583984375,1.343
1.1297709923664123,0.7633587786259542,-1.251908396946565,-0.333251953125,0.1171875,-0.42578125,1.3447
1.282442748091603,0.732824427480916,-1.4198473282442747,-0.33154296875,0.115478515625,-0.42529296875,1.3463999999999998
1.1450381679389312,0.7786259541984732,-1.0381679389312977,-0.33837890625,0.11767578125,-0.417724609375,1.3480999999999999
1.282442748091603,0.9312977099236641,-1.3129770992366412,-0.338134765625,0.1201171875,-0.418212890625,1.3497999999999999
1.0687022900763359,0.8702290076335878,-1.3129770992366412,-0.34228515625,0.11865234375,-0.421875,1.3515
1.1755725190839694,0.732824427480916,-1.3129770992366412,-0.338134765625,0.123291015625,-0.422119140625,1.3532
0.9465648854961832,0.8702290076335878,-1.2366412213740459,-0.33984375,0.12255859375,-0.420654296875,1.3549
0.6870229007633588,1.0229007633587786,-1.251908396946565,-0.3388671875,0.124267578125,-0.4267578125,1.3566
0.7633587786259542,1.1145038167938932,-1.1297709923664123,-0.33984375,0.114990234375,-0.41943359375,1.3582999999999998
0.8244274809160306,1.1603053435114503,-1.5267175572519085,-0.340087890625,0.12109375,-0.42041015625,1.3599999999999999
0.732824427480916,1.0534351145038168,-1.5114503816793894,-0.33642578125,0.119873046875,-0.42138671875,1.3617
0.5801526717557252,1.0534351145038168,-1.5114503816793894,-0.33837890625,0.115478515625,-0.42626953125,1.3634
0.7786259541984732,1.1450381679389312,-1.3435114503816794,-0.340087890625,0.119873046875,-0.423095703125,1.3651
0.5190839694656488,1.282442748091603,-1.450381679389313,-0.336669921875,0.123779296875,-0.41748046875,1.3668
0.6106870229007634,1.297709923664122,-1.3740458015267176,-0.33740234375,0.120849609375,-0.41552734375,1.3684999999999998
0.6412213740458015,1.2671755725190839,-1.618320610687023,-0.340576171875,0.120849609375,-0.42041015625,1.3701999999999999
0.549618320610687,1.3587786259541985,-1.3893129770992367,-0.340576171875,0.120849609375,-0.41845703125,1.3719
0.6717557251908397,1.4351145038167938,-1.5114503816793894,-0.34326171875,0.12158203125,-0.421142578125,1.3736
0.6717557251908397,1.4351145038167938,-1.5572519083969465,-0.337890625,0.119873046875,-0.41796875,1.3753
0.6564885496183206,1.450381679389313,-1.8625954198473282,-0.341796875,0.1220703125,-0.42333984375,1.377
0.6564885496183206,1.5267175572519085,-1.9694656488549618,-0.341064453125,0.124755859375,-0.41943359375,1.3786999999999998
0.8396946564885496,1.618320610687023,-1.8473282442748091,-0.33935546875,0.1259765625,-0.427490234375,1.3803999999999998
0.6412213740458015,1.5267175572519085,-1.8778625954198473,-0.34130859375,0.12841796875,-0.421142578125,1.3820999999999999
0.9618320610687023,1.7709923664122138,-2.030534351145038,-0.33935546875,0.1240234375,-0.419189453125,1.3838
1.0076335877862594,1.8473282442748091,-2.015267175572519,-0.341552734375,0.123291015625,-0.420654296875,1.3855
1.1755725190839694,1.8625954198473282,-2.122137404580153,-0.337890625,0.1298828125,-0.42724609375,1.3872
1.4198473282442747,1.7251908396946565,-2.183206106870229,-0.3408203125,0.125244140625,-0.41552734375,1.3889
1.3587786259541985,1.83206106870229,-2.595419847328244,-0.341064453125,0.123779296875,-0.4208984375,1.3905999999999998
1.1603053435114503,1.8015267175572518,-2.4122137404580153,-0.335693359375,0.125244140625,-0.418701171875,1.3922999999999999
1.5267175572519085,1.618320610687023,-2.4732824427480917,-0.34130859375,0.12744140625,-0.420166015625,1.394
1.5114503816793894,1.465648854961832,-2.2442748091603053,-0.339599609375,0.120361328125,-0.4189453125,1.3957
1.6030534351145038,1.3435114503816794,-2.33587786259542,-0.337890625,0.123779296875,-0.41552734375,1.3974
1.8625954198473282,1.1755725190839694,-2.564885496183206,-0.33984375,0.12841796875,-0.41748046875,1.3991
1.7557251908396947,1.251908396946565,-2.687022900763359,-0.33984375,0.127685546875,-0.408935546875,1.4007999999999998
1.786259541984733,1.3129770992366412,-2.6412213740458017,-0.338134765625,0.127685546875,-0.414306640625,1.4024999999999999
1.9541984732824427,1.0381679389312977,-2.687022900763359,-0.341796875,0.127685546875,-0.419921875,1.4042
2.1068702290076335,1.1145038167938932,-2.549618320610687,-0.337890625,0.121337890625,-0.42138671875,1.4059
2.1068702290076335,1.1145038167938932,-2.4427480916030535,-0.335693359375,0.1220703125,-0.423095703125,1.4076
2.0,1.2061068702290076,-2.564885496183206,-0.335693359375,0.123779296875,-0.42236328125,1.4093
2.2290076335877864,1.0229007633587786,-2.4885496183206106,-0.338134765625,0.12158203125,-0.417236328125,1.411
2.030534351145038,0.9465648854961832,-2.50381679389313,-0.341796875,0.122314453125,-0.418701171875,1.4126999999999998
2.015267175572519,0.8702290076335878,-2.687022900763359,-0.3408203125,0.120849609375,-0.4169921875,1.4143999999999999
2.3053435114503817,0.9770992366412213,-2.427480916030534,-0.335693359375,0.126708984375,-0.42138671875,1.4161
2.213740458015267,0.8396946564885496,-2.717557251908397,-0.33984375,0.121826171875,-0.41943359375,1.4178
2.16793893129771,0.8702290076335878,-2.5801526717557253,-0.33935546875,0.117919921875,-0.418701171875,1.4195
2.0610687022900764,0.9770992366412213,-2.2595419847328246,-0.33837890625,0.1220703125,-0.426025390625,1.4212
2.2595419847328246,1.1145038167938932,-2.2595419847328246,-0.341552734375,0.120361328125,-0.418701171875,1.4228999999999998
2.0916030534351147,0.8244274809160306,-2.3053435114503817,-0.3349609375,0.115478515625,-0.4267578125,1.4245999999999999
2.213740458015267,0.8396946564885496,-2.3206106870229006,-0.3369140625,0.119873046875,-0.416015625,1.4263
2.2290076335877864,0.7633587786259542,-2.2748091603053435,-0.334228515625,0.116455078125,-0.4169921875,1.428
1.9236641221374047,0.8244274809160306,-2.183206106870229,-0.3359375,0.12255859375,-0.41796875,1.4297
2.0763358778625953,0.8396946564885496,-1.984732824427481,-0.3359375,0.12060546875,-0.420654296875,1.4314
2.1526717557251906,0.8244274809160306,-1.9236641221374047,-0.338623046875,0.116455078125,-0.419189453125,1.4330999999999998
2.183206106870229,0.5954198473282443,-2.0916030534351147,-0.336669921875,0.118408203125,-0.420654296875,1.4347999999999999
1.9389312977099236,0.7938931297709924,-1.83206106870229,-0.332763671875,0.119873046875,-0.420654296875,1.4364999999999999
1.9694656488549618,0.5343511450381679,-1.8015267175572518,-0.33642578125,0.112548828125,-0.427978515625,1.4382
2.0610687022900764,0.4122137404580153,-1.816793893129771,-0.338623046875,0.121826171875,-0.423583984375,1.4399
1.8015267175572518,0.6259541984732825,-1.5877862595419847,-0.333251953125,0.11474609375,-0.4248046875,1.4416
1.7709923664122138,0.2748091603053435,-1.4961832061068703,-0.33837890625,0.119873046875,-0.4169921875,1.4433
2.122137404580153,0.42748091603053434,-1.5267175572519085,-0.336669921875,0.119140625,-0.42431640625,1.4449999999999998
1.9236641221374047,0.48854961832061067,-1.5572519083969465,-0.337890625,0.11767578125,-0.4208984375,1.4466999999999999
1.83206106870229,0.15267175572519084,-1.3740458015267176,-0.336669921875,0.117431640625,-0.416259765625,1.4484
2.015267175572519,0.3053435114503817,-1.4045801526717556,-0.340087890625,0.1201171875,-0.42529296875,1.4501
1.8778625954198473,0.12213740458015267,-1.2366412213740459,-0.33837890625,0.123779296875,-0.41943359375,1.4518
2.015267175572519,0.0916030534351145,-1.2366412213740459,-0.336181640625,0.126953125,-0.414794921875,1.4535
1.8931297709923665,0.0,-1.3282442748091603,-0.33642578125,0.121826171875,-0.419921875,1.4551999999999998
1.984732824427481,0.030534351145038167,-1.1603053435114503,-0.33984375,0.12060546875,-0.41943359375,1.4568999999999999
1.9541984732824427,0.030534351145038167,-1.0381679389312977,-0.333740234375,0.121337890625,-0.409423828125,1.4586
2.0,0.061068702290076333,-1.2213740458015268,-0.336669921875,0.123046875,-0.413330078125,1.4603
2.1374045801526718,-0.21374045801526717,-1.1450381679389312,-0.33740234375,0.123291015625,-0.4150390625,1.462
2.3206106870229006,-0.061068702290076333,-1.2671755725190839,-0.33349609375,0.11962890625,-0.416748046875,1.4637
2.33587786259542,-0.4732824427480916,-1.0534351145038168,-0.33447265625,0.1240234375,-0.419921875,1.4653999999999998
2.213740458015267,-0.4732824427480916,-0.916030534351145,-0.334228515625,0.120849609375,-0.419677734375,1.4670999999999998
2.4122137404580153,-0.33587786259541985,-0.916030534351145,-0.33544921875,0.117919921875,-0.41162109375,1.4687999999999999
2.1374045801526718,-0.6412213740458015,-1.0534351145038168,-0.335205078125,0.115234375,-0.4150390625,1.4705
2.564885496183206,-0.6259541984732825,-1.3435114503816794,-0.3349609375,0.12255859375,-0.418701171875,1.4722
2.549618320610687,-0.549618320610687,-1.282442748091603,-0.339599609375,0.120361328125,-0.417724609375,1.4739
2.549618320610687,-0.6106870229007634,-1.0076335877862594,-0.335205078125,0.125,-0.418701171875,1.4756
2.50381679389313,-0.9007633587786259,-1.0229007633587786,-0.34130859375,0.12060546875,-0.417724609375,1.4772999999999998
2.5343511450381677,-0.8091603053435115,-1.0076335877862594,-0.34228515625,0.120849609375,-0.42333984375,1.4789999999999999
2.7938931297709924,-0.5801526717557252,-1.1145038167938932,-0.346923828125,0.116455078125,-0.418212890625,1.4807
2.6259541984732824,-0.48854961832061067,-0.9618320610687023,-0.3427734375,0.11669921875,-0.409912109375,1.4824
2.4122137404580153,-0.6259541984732825,-1.1145038167938932,-0.33984375,0.117431640625,-0.42138671875,1.4841
2.6259541984732824,-0.44274809160305345,-1.083969465648855,-0.341796875,0.11376953125,-0.41748046875,1.4858
2.5343511450381677,-0.2748091603053435,-1.0534351145038168,-0.34326171875,0.11279296875,-0.4189453125,1.4874999999999998
2.4885496183206106,-0.183206106870229,-0.8396946564885496,-0.34033203125,0.11474609375,-0.424560546875,1.4891999999999999
2.595419847328244,-0.3053435114503817,-1.0381679389312977,-0.34130859375,0.1142578125,-0.419677734375,1.4909
2.351145038167939,-0.12213740458015267,-1.0534351145038168,-0.335205078125,0.11572265625,-0.41796875,1.4926
2.427480916030534,0.0,-1.1755725190839694,-0.33837890625,0.120849609375,-0.419677734375,1.4943
2.595419847328244,-0.12213740458015267,-1.251908396946565,-0.340087890625,0.11962890625,-0.419921875,1.496
2.2595419847328246,-0.030534351145038167,-1.1145038167938932,-0.339599609375,0.12353515625,-0.405517578125,1.4976999999999998
2.2900763358778624,0.04580152671755725,-1.1908396946564885,-0.344482421875,0.117431640625,-0.41943359375,1.4993999999999998
2.366412213740458,-0.22900763358778625,-1.3282442748091603,-0.33447265625,0.114990234375,-0.416015625,1.5010999999999999
2.2595419847328246,-0.21374045801526717,-1.251908396946565,-0.3388671875,0.12255859375,-0.4150390625,1.5028
2.0763358778625953,0.0,-1.297709923664122,-0.341796875,0.117919921875,-0.419921875,1.5045
2.2748091603053435,-0.015267175572519083,-1.297709923664122,-0.33984375,0.117919921875,-0.427978515625,1.5062
1.8473282442748091,-0.061068702290076333,-1.5267175572519085,-0.341796875,0.122314453125,-0.416259765625,1.5079
2.0916030534351147,-0.061068702290076333,-1.251908396946565,-0.336181640625,0.1201171875,-0.413330078125,1.5095999999999998
2.198473282442748,-0.061068702290076333,-1.5419847328244274,-0.343017578125,0.1171875,-0.4208984375,1.5112999999999999
2.1526717557251906,-0.030534351145038167,-1.5572519083969465,-0.3408203125,0.11962890625,-0.422607421875,1.513
2.1374045801526718,0.16793893129770993,-1.4809160305343512,-0.3408203125,0.123291015625,-0.416259765625,1.5147
2.2442748091603053,0.32061068702290074,-1.3282442748091603,-0.345703125,0.12158203125,-0.4208984375,1.5164
1.9541984732824427,0.2595419847328244,-1.5419847328244274,-0.342529296875,0.12060546875,-0.42138671875,1.5181
2.0916030534351147,0.3053435114503817,-1.6641221374045803,-0.341552734375,0.116943359375,-0.41064453125,1.5197999999999998
1.8778625954198473,0.030534351145038167,-1.7404580152671756,-0.337646484375,0.119384765625,-0.411376953125,1.5214999999999999
2.015267175572519,0.3053435114503817,-1.5114503816793894,-0.33984375,0.1201171875,-0.415771484375,1.5231999999999999
1.5419847328244274,0.183206106870229,-1.6488549618320612,-0.3369140625,0.1142578125,-0.423583984375,1.5249
1.6488549618320612,0.183206106870229,-1.8473282442748091,-0.345947265625,0.114990234375,-0.416259765625,1.5266
1.8473282442748091,0.4732824427480916,-2.0763358778625953,-0.342041015625,0.122802734375,-0.4267578125,1.5283
1.7404580152671756,0.22900763358778625,-1.8931297709923665,-0.34033203125,0.117431640625,-0.421630859375,1.5299999999999998
1.7557251908396947,0.21374045801526717,-2.1068702290076335,-0.342529296875,0.11572265625,-0.4140625,1.5316999999999998
1.6488549618320612,0.3053435114503817,-2.16793893129771,-0.341552734375,0.116943359375,-0.416259765625,1.5333999999999999
1.633587786259542,0.4732824427480916,-1.9236641221374047,-0.342529296875,0.1181640625,-0.42578125,1.5351
1.7099236641221374,0.44274809160305345,-2.015267175572519,-0.34619140625,0.1162109375,-0.41552734375,1.5368
1.4961832061068703,0.48854961832061067,-2.213740458015267,-0.343994140625,0.119873046875,-0.41845703125,1.5385
1.5725190839694656,0.5954198473282443,-1.9236641221374047,-0.3408203125,0.117431640625,-0.417236328125,1.5402
1.5877862595419847,0.6412213740458015,-2.2442748091603053,-0.34130859375,0.116455078125,-0.4130859375,1.5418999999999998
1.4961832061068703,0.732824427480916,-2.183206106870229,-0.33740234375,0.11474609375,-0.42041015625,1.5435999999999999
1.3435114503816794,0.7175572519083969,-2.3053435114503817,-0.3388671875,0.115478515625,-0.42529296875,1.5453
1.2671755725190839,0.7633587786259542,-2.1374045801526718,-0.335205078125,0.12109375,-0.425537109375,1.547
1.4351145038167938,0.6412213740458015,-2.427480916030534,-0.337646484375,0.12353515625,-0.41845703125,1.5487
1.1908396946564885,0.7786259541984732,-2.427480916030534,-0.343994140625,0.1171875,-0.427978515625,1.5504
1.1755725190839694,0.8702290076335878,-2.351145038167939,-0.34130859375,0.1201171875,-0.422607421875,1.5520999999999998
1.3740458015267176,0.6564885496183206,-2.4427480916030535,-0.339599609375,0.12060546875,-0.422119140625,1.5537999999999998
1.1450381679389312,0.6259541984732825,-2.4427480916030535,-0.33837890625,0.1181640625,-0.416015625,1.5554999999999999
0.9007633587786259,0.7938931297709924,-2.2442748091603053,-0.341552734375,0.116943359375,-0.416748046875,1.5572
1.1450381679389312,0.8396946564885496,-2.3969465648854964,-0.34033203125,0.119140625,-0.410400390625,1.5589
1.0534351145038168,0.44274809160305345,-2.427480916030534,-0.338134765625,0.11669921875,-0.422607421875,1.5606
0.7633587786259542,0.7175572519083969,-2.2442748091603053,-0.3369140625,0.119384765625,-0.424072265625,1.5623
0.9312977099236641,0.7022900763358778,-2.2900763358778624,-0.340576171875,0.115966796875,-0.41796875,1.5639999999999998
0.9923664122137404,0.6412213740458015,-2.33587786259542,-0.3408203125,0.11767578125,-0.419921875,1.5656999999999999
0.7938931297709924,0.7022900763358778,-2.3053435114503817,-0.3408203125,0.12109375,-0.419189453125,1.5674
0.7938931297709924,0.8244274809160306,-2.2748091603053435,-0.3369140625,0.116455078125,-0.40869140625,1.5691
0.5954198473282443,0.732824427480916,-2.1068702290076335,-0.34033203125,0.118896484375,-0.41943359375,1.5708
0.7786259541984732,0.5801526717557252,-2.122137404580153,-0.340087890625,0.12158203125,-0.415283203125,1.5725
0.9007633587786259,0.7022900763358778,-2.2290076335877864,-0.34326171875,0.11669921875,-0.422119140625,1.5741999999999998
0.7480916030534351,0.7786259541984732,-2.198473282442748,-0.33837890625,0.120361328125,-0.428466796875,1.5758999999999999
0.7938931297709924,0.9465648854961832,-2.122137404580153,-0.3427734375,0.124267578125,-0.4111328125,1.5776
0.916030534351145,1.0534351145038168,-2.1374045801526718,-0.341552734375,0.121826171875,-0.42626953125,1.5793
1.0076335877862594,1.0381679389312977,-2.1068702290076335,-0.33837890625,0.121337890625,-0.41943359375,1.581
0.7480916030534351,0.8854961832061069,-1.8778625954198473,-0.341064453125,0.11572265625,-0.422119140625,1.5827
0.9312977099236641,0.916030534351145,-1.9389312977099236,-0.33984375,0.12255859375,-0.4150390625,1.5843999999999998
0.9770992366412213,0.9007633587786259,-2.0916030534351147,-0.3349609375,0.123291015625,-0.4189453125,1.5860999999999998
0.9465648854961832,0.9312977099236641,-1.9694656488549618,-0.34228515625,0.114990234375,-0.420166015625,1.5877999999999999
1.0076335877862594,0.9312977099236641,-1.8778625954198473,-0.342529296875,0.120849609375,-0.4169921875,1.5895
1.1450381679389312,0.7633587786259542,-1.786259541984733,-0.337158203125,0.1171875,-0.42529296875,1.5912
1.1755725190839694,0.7786259541984732,-1.9083969465648856,-0.3466796875,0.114990234375,-0.4169921875,1.5929
1.1755725190839694,0.732824427480916,-1.9236641221374047,-0.343505859375,0.12451171875,-0.421875,1.5946
1.2213740458015268,0.8091603053435115,-1.83206106870229,-0.3408203125,0.11767578125,-0.413330078125,1.5962999999999998
1.282442748091603,0.9465648854961832,-1.7404580152671756,-0.339111328125,0.12158203125,-0.422119140625,1.5979999999999999
1.3740458015267176,0.8549618320610687,-1.8778625954198473,-0.341552734375,0.123046875,-0.41796875,1.5997
1.2671755725190839,0.7175572519083969,-1.6488549618320612,-0.341796875,0.119384765625,-0.42041015625,1.6014
1.4045801526717556,0.8549618320610687,-1.7557251908396947,-0.3408203125,0.12158203125,-0.42529296875,1.6031
1.3435114503816794,0.732824427480916,-1.8473282442748091,-0.339111328125,0.12255859375,-0.423095703125,1.6048
1.450381679389313,0.6259541984732825,-1.8015267175572518,-0.33642578125,0.12158203125,-0.424072265625,1.6064999999999998
1.3587786259541985,0.6870229007633588,-1.5572519083969465,-0.335693359375,0.11865234375,-0.42236328125,1.6081999999999999
1.6030534351145038,0.7480916030534351,-1.6641221374045803,-0.338134765625,0.1171875,-0.406494140625,1.6098999999999999
1.5725190839694656,0.8091603053435115,-1.6030534351145038,-0.3359375,0.120361328125,-0.412841796875,1.6116
1.5419847328244274,0.7938931297709924,-1.4351145038167938,-0.338623046875,0.116943359375,-0.410400390625,1.6133
1.4809160305343512,0.6870229007633588,-1.3129770992366412,-0.33837890625,0.119873046875,-0.420166015625,1.615
1.3587786259541985,0.7633587786259542,-1.4351145038167938,-0.340087890625,0.119873046875,-0.428466796875,1.6166999999999998
1.4198473282442747,0.6717557251908397,-1.4809160305343512,-0.341064453125,0.118408203125,-0.418701171875,1.6183999999999998
1.4045801526717556,0.48854961832061067,-1.1908396946564885,-0.340087890625,0.12109375,-0.41796875,1.6200999999999999
1.6030534351145038,0.5801526717557252,-1.3129770992366412,-0.33447265625,0.118408203125,-0.419677734375,1.6218
1.4198473282442747,0.5801526717557252,-1.282442748091603,-0.3408203125,0.119384765625,-0.409912109375,1.6235
1.282442748091603,0.549618320610687,-1.1145038167938932,-0.34228515625,0.121826171875,-0.414306640625,1.6252
1.282442748091603,0.6870229007633588,-1.1603053435114503,-0.33984375,0.11376953125,-0.41845703125,1.6269
1.3587786259541985,0.7480916030534351,-1.0229007633587786,-0.33984375,0.117431640625,-0.42041015625,1.6285999999999998
1.3740458015267176,0.8702290076335878,-1.1450381679389312,-0.341064453125,0.12158203125,-0.4150390625,1.6302999999999999
1.5572519083969465,0.7022900763358778,-1.0381679389312977,-0.33935546875,0.120849609375,-0.41650390625,1.632
1.450381679389313,0.6106870229007634,-1.1450381679389312,-0.340087890625,0.115966796875,-0.422607421875,1.6337
1.1145038167938932,0.8091603053435115,-1.099236641221374,-0.340087890625,0.1240234375,-0.41357421875,1.6354
1.3435114503816794,0.7633587786259542,-0.8702290076335878,-0.3388671875,0.11962890625,-0.416259765625,1.6371
1.3587786259541985,0.6259541984732825,-0.7786259541984732,-0.34228515625,0.119873046875,-0.423095703125,1.6387999999999998
1.2061068702290076,0.5954198473282443,-0.8244274809160306,-0.343994140625,0.120849609375,-0.41015625,1.6404999999999998
1.251908396946565,0.7786259541984732,-0.916030534351145,-0.341552734375,0.1201171875,-0.416259765625,1.6421999999999999
1.2671755725190839,0.9923664122137404,-0.8244274809160306,-0.340576171875,0.11865234375,-0.41455078125,1.6439
1.1450381679389312,0.9465648854961832,-0.8244274809160306,-0.3408203125,0.11669921875,-0.425048828125,1.6456
1.282442748091603,0.9007633587786259,-0.8396946564885496,-0.343017578125,0.119384765625,-0.42431640625,1.6473
1.2671755725190839,1.099236641221374,-0.8702290076335878,-0.337646484375,0.119384765625,-0.417236328125,1.6489999999999998
1.3435114503816794,1.282442748091603,-0.9465648854961832,-0.340576171875,0.123779296875,-0.42529296875,1.6506999999999998
1.0687022900763359,1.0687022900763359,-0.9007633587786259,-0.340576171875,0.115966796875,-0.422119140625,1.6523999999999999
1.1145038167938932,1.251908396946565,-1.0687022900763359,-0.343505859375,0.124267578125,-0.41064453125,1.6541
1.282442748091603,1.282442748091603,-1.0229007633587786,-0.343994140625,0.12451171875,-0.42041015625,1.6558
1.3435114503816794,1.3893129770992367,-1.0076335877862594,-0.34033203125,0.125244140625,-0.417724609375,1.6575
1.4809160305343512,1.465648854961832,-1.099236641221374,-0.33984375,0.125244140625,-0.425537109375,1.6592
1.5114503816793894,1.2213740458015268,-1.2366412213740459,-0.3408203125,0.11962890625,-0.419921875,1.6608999999999998
1.6793893129770991,1.2061068702290076,-1.3435114503816794,-0.33642578125,0.1201171875,-0.4169921875,1.6625999999999999
1.9236641221374047,1.0534351145038168,-1.251908396946565,-0.33837890625,0.126708984375,-0.4091796875,1.6643
2.015267175572519,1.297709923664122,-1.450381679389313,-0.340576171875,0.1298828125,-0.4169921875,1.666
1.9694656488549618,1.0687022900763359,-1.465648854961832,-0.34130859375,0.1220703125,-0.407958984375,1.6677
2.0,1.1603053435114503,-1.5419847328244274,-0.340087890625,0.125,-0.423583984375,1.6694
2.1068702290076335,0.9007633587786259,-1.4198473282442747,-0.34130859375,0.1220703125,-0.407958984375,1.6710999999999998
2.030534351145038,1.0076335877862594,-1.5419847328244274,-0.338623046875,0.12353515625,-0.416015625,1.6727999999999998
1.9694656488549618,1.1603053435114503,-1.3587786259541985,-0.33740234375,0.12109375,-0.419677734375,1.6744999999999999
2.183206106870229,0.9923664122137404,-1.7251908396946565,-0.339599609375,0.1201171875,-0.421875,1.6762
2.030534351145038,1.0534351145038168,-1.633587786259542,-0.3427734375,0.1240234375,-0.42919921875,1.6779
2.2290076335877864,1.2366412213740459,-1.5114503816793894,-0.33935546875,0.124267578125,-0.41357421875,1.6796
2.198473282442748,1.251908396946565,-1.7251908396946565,-0.3388671875,0.121337890625,-0.4150390625,1.6813
2.198473282442748,1.1450381679389312,-1.7251908396946565,-0.3359375,0.11767578125,-0.41748046875,1.6829999999999998
2.0916030534351147,1.3282442748091603,-1.7251908396946565,-0.33642578125,0.120849609375,-0.4189453125,1.6846999999999999
2.2748091603053435,1.3587786259541985,-1.8473282442748091,-0.3359375,0.11572265625,-0.42431640625,1.6864
2.16793893129771,1.1908396946564885,-1.7099236641221374,-0.341796875,0.11962890625,-0.41845703125,1.6881
2.213740458015267,1.2366412213740459,-1.8473282442748091,-0.339599609375,0.1162109375,-0.41455078125,1.6898
2.2748091603053435,1.4045801526717556,-1.83206106870229,-0.33984375,0.115966796875,-0.414794921875,1.6915
2.045801526717557,1.4351145038167938,-1.816793893129771,-0.340576171875,0.11669921875,-0.411865234375,1.6931999999999998
2.0916030534351147,1.5572519083969465,-1.7099236641221374,-0.340576171875,0.1171875,-0.424560546875,1.6948999999999999
2.045801526717557,1.3587786259541985,-1.7557251908396947,-0.337646484375,0.122802734375,-0.420654296875,1.6965999999999999
1.9694656488549618,1.2671755725190839,-1.7099236641221374,-0.3388671875,0.114501953125,-0.419189453125,1.6983
1.9083969465648856,1.3893129770992367,-2.030534351145038,-0.340087890625,0.11279296875,-0.41455078125,1.7
1.83206106870229,1.465648854961832,-1.7251908396946565,-0.3349609375,0.119873046875,-0.4189453125,1.7017
2.0610687022900764,1.7251908396946565,-1.984732824427481,-0.343505859375,0.117431640625,-0.426513671875,1.7033999999999998
2.030534351145038,1.3893129770992367,-1.8625954198473282,-0.33935546875,0.1142578125,-0.41845703125,1.7050999999999998
1.9541984732824427,1.251908396946565,-2.045801526717557,-0.336181640625,0.11279296875,-0.420654296875,1.7067999999999999
1.7099236641221374,1.633587786259542,-1.8015267175572518,-0.3388671875,0.116943359375,-0.4189453125,1.7085
1.7251908396946565,1.4351145038167938,-1.7709923664122138,-0.341796875,0.1181640625,-0.416748046875,1.7102
1.633587786259542,1.3129770992366412,-1.6793893129770991,-0.33544921875,0.1142578125,-0.419921875,1.7119
1.8015267175572518,1.3740458015267176,-1.8625954198473282,-0.333984375,0.120361328125,-0.417724609375,1.7136
1.6641221374045803,1.4351145038167938,-1.633587786259542,-0.33740234375,0.116943359375,-0.416259765625,1.7152999999999998
1.3893129770992367,1.3740458015267176,-1.9694656488549618,-0.342529296875,0.11669921875,-0.416015625,1.7169999999999999
1.6030534351145038,1.282442748091603,-1.6641221374045803,-0.33447265625,0.12158203125,-0.411865234375,1.7187
1.6488549618320612,1.4045801526717556,-1.6030534351145038,-0.337158203125,0.119140625,-0.42626953125,1.7204
1.6793893129770991,0.9618320610687023,-1.4198473282442747,-0.339599609375,0.119384765625,-0.425048828125,1.7221
1.4351145038167938,1.1297709923664123,-1.618320610687023,-0.33935546875,0.118896484375,-0.41552734375,1.7238
1.6946564885496183,1.4961832061068703,-1.816793893129771,-0.340087890625,0.116943359375,-0.422607421875,1.7254999999999998
1.6946564885496183,1.297709923664122,-1.5877862595419847,-0.33740234375,0.120361328125,-0.4208984375,1.7271999999999998
1.5419847328244274,1.1450381679389312,-1.297709923664122,-0.339111328125,0.12158203125,-0.4189453125,1.7288999999999999
1.7709923664122138,1.3435114503816794,-1.618320610687023,-0.3349609375,0.1240234375,-0.422607421875,1.7306
1.618320610687023,1.4045801526717556,-1.4351145038167938,-0.341064453125,0.116943359375,-0.4189453125,1.7323
1.5419847328244274,1.1297709923664123,-1.4351145038167938,-0.34423828125,0.11669921875,-0.421630859375,1.734
1.6641221374045803,1.1297709923664123,-1.6946564885496183,-0.337646484375,0.121826171875,-0.4208984375,1.7356999999999998
1.8931297709923665,1.0534351145038168,-1.5572519083969465,-0.338623046875,0.120849609375,-0.414306640625,1.7373999999999998
1.816793893129771,1.2366412213740459,-1.5419847328244274,-0.340087890625,0.118896484375,-0.42138671875,1.7390999999999999
2.2595419847328246,1.3893129770992367,-1.618320610687023,-0.3310546875,0.12646484375,-0.42529296875,1.7408
2.2595419847328246,1.2061068702290076,-1.465648854961832,-0.337890625,0.121826171875,-0.423583984375,1.7425
2.3206106870229006,1.1297709923664123,-1.5267175572519085,-0.3369140625,0.119873046875,-0.422119140625,1.7442
2.3206106870229006,1.2366412213740459,-1.5114503816793894,-0.3349609375,0.119873046875,-0.424560546875,1.7459
2.2442748091603053,0.9618320610687023,-1.297709923664122,-0.33642578125,0.116455078125,-0.42822265625,1.7475999999999998
2.351145038167939,1.1755725190839694,-1.1908396946564885,-0.333740234375,0.121337890625,-0.42236328125,1.7492999999999999
2.8396946564885495,1.1603053435114503,-1.4809160305343512,-0.33935546875,0.11865234375,-0.41650390625,1.751
2.732824427480916,1.0229007633587786,-1.450381679389313,-0.336669921875,0.1181640625,-0.422119140625,1.7527
2.5343511450381677,0.8854961832061069,-1.5877862595419847,-0.3359375,0.11474609375,-0.41650390625,1.7544
2.595419847328244,0.9770992366412213,-1.1908396946564885,-0.342041015625,0.11865234375,-0.423828125,1.7561
2.900763358778626,0.8549618320610687,-1.1297709923664123,-0.3388671875,0.113525390625,-0.4208984375,1.7577999999999998
3.0381679389312977,0.6717557251908397,-1.1755725190839694,-0.344970703125,0.12109375,-0.422607421875,1.7594999999999998
2.9770992366412212,0.7175572519083969,-0.9770992366412213,-0.336669921875,0.11279296875,-0.42236328125,1.7611999999999999
2.7786259541984735,0.7480916030534351,-1.2213740458015268,-0.340576171875,0.11376953125,-0.421142578125,1.7629
2.7480916030534353,0.6870229007633588,-1.0229007633587786,-0.3359375,0.1171875,-0.423828125,1.7646
2.7938931297709924,0.6564885496183206,-0.7633587786259542,-0.335205078125,0.114990234375,-0.42431640625,1.7663
2.763358778625954,0.4732824427480916,-0.7786259541984732,-0.339111328125,0.1142578125,-0.4150390625,1.7679999999999998
2.687022900763359,0.6412213740458015,-0.6106870229007634,-0.33984375,0.112060546875,-0.416259765625,1.7696999999999998
2.549618320610687,0.42748091603053434,-0.6412213740458015,-0.3408203125,0.11279296875,-0.41650390625,1.7713999999999999
2.366412213740458,0.3511450381679389,-0.6106870229007634,-0.33447265625,0.11376953125,-0.42041015625,1.7731
2.213740458015267,0.4122137404580153,-0.2595419847328244,-0.337890625,0.11376953125,-0.42138671875,1.7748
2.2595419847328246,0.24427480916030533,-0.366412213740458,-0.335693359375,0.11328125,-0.421630859375,1.7765
1.9694656488549618,0.44274809160305345,-0.32061068702290074,-0.332763671875,0.110595703125,-0.418701171875,1.7782
1.8625954198473282,0.22900763358778625,-0.5038167938931297,-0.338134765625,0.113525390625,-0.427978515625,1.7798999999999998
1.83206106870229,0.16793893129770993,-0.015267175572519083,-0.340576171875,0.1083984375,-0.426025390625,1.7815999999999999
1.6030534351145038,0.0916030534351145,0.030534351145038167,-0.333251953125,0.112060546875,-0.429443359375,1.7832999999999999
1.5267175572519085,-0.04580152671755725,0.0,-0.338623046875,0.11474609375,-0.419677734375,1.785
1.3740458015267176,0.0,0.07633587786259542,-0.34033203125,0.1103515625,-0.419921875,1.7867
1.0687022900763359,-0.07633587786259542,-0.030534351145038167,-0.341552734375,0.111083984375,-0.42626953125,1.7884
1.2061068702290076,-0.183206106870229,0.030534351145038167,-0.340576171875,0.117431640625,-0.41796875,1.7900999999999998
0.8396946564885496,-0.2595419847328244,0.13740458015267176,-0.34130859375,0.120361328125,-0.424560546875,1.7917999999999998
0.6259541984732825,-0.3969465648854962,0.0916030534351145,-0.337646484375,0.118408203125,-0.423095703125,1.7934999999999999
0.9312977099236641,-0.2900763358778626,0.21374045801526717,-0.33447265625,0.117919921875,-0.42626953125,1.7952
0.9007633587786259,-0.3511450381679389,-0.07633587786259542,-0.34033203125,0.11962890625,-0.42041015625,1.7969
0.549618320610687,-0.4580152671755725,0.07633587786259542,-0.3388671875,0.120361328125,-0.414306640625,1.7986
0.6564885496183206,-0.33587786259541985,0.04580152671755725,-0.341796875,0.118408203125,-0.41943359375,1.8002999999999998
0.5954198473282443,-0.2748091603053435,0.015267175572519083,-0.337646484375,0.126953125,-0.42236328125,1.8019999999999998
