gyrox1,gyroy1,gyroz1,accelx1,accely1,accelz1,Time
0.366412213740458,0.8854961832061069,-1.5419847328244274,-0.454833984375,0.06640625,-0.16845703125,0.0
0.22900763358778625,0.9465648854961832,-1.3587786259541985,-0.456298828125,0.072021484375,-0.164306640625,0.0017
0.42748091603053434,1.1450381679389312,-1.5114503816793894,-0.455322265625,0.0693359375,-0.167724609375,0.0034
0.33587786259541985,1.099236641221374,-1.5572519083969465,-0.452880859375,0.072021484375,-0.172607421875,0.0050999999999999995
0.6106870229007634,0.7786259541984732,-1.450381679389313,-0.457763671875,0.06982421875,-0.169921875,0.0068
0.5190839694656488,0.732824427480916,-1.3893129770992367,-0.459716796875,0.069091796875,-0.1611328125,0.008499999999999999
0.5038167938931297,0.8549618320610687,-1.5267175572519085,-0.456298828125,0.066162109375,-0.16796875,0.010199999999999999
0.5648854961832062,0.7938931297709924,-1.465648854961832,-0.454833984375,0.068115234375,-0.169189453125,0.011899999999999999
0.5190839694656488,0.6564885496183206,-1.450381679389313,-0.45703125,0.064208984375,-0.172607421875,0.0136
0.5343511450381679,0.732824427480916,-1.4198473282442747,-0.458251953125,0.07275390625,-0.158935546875,0.0153
0.549618320610687,0.7786259541984732,-1.4809160305343512,-0.456298828125,0.070068359375,-0.163818359375,0.016999999999999998
0.5343511450381679,0.6870229007633588,-1.6488549618320612,-0.460205078125,0.068359375,-0.170654296875,0.018699999999999998
0.8396946564885496,0.7175572519083969,-1.3282442748091603,-0.449951171875,0.066650390625,-0.169677734375,0.020399999999999998
0.5801526717557252,0.6412213740458015,-1.3740458015267176,-0.451416015625,0.071533203125,-0.1728515625,0.022099999999999998
0.5954198473282443,0.6259541984732825,-1.450381679389313,-0.458740234375,0.07275390625,-0.1640625,0.023799999999999998
0.6717557251908397,0.5954198473282443,-1.3587786259541985,-0.451171875,0.06787109375,-0.1669921875,0.0255
0.7175572519083969,0.6870229007633588,-1.1908396946564885,-0.453857421875,0.0673828125,-0.1611328125,0.0272
0.8396946564885496,0.6717557251908397,-1.2213740458015268,-0.458251953125,0.068359375,-0.16796875,0.0289
0.6259541984732825,0.5038167938931297,-1.1755725190839694,-0.45263671875,0.068115234375,-0.16796875,0.0306
0.6564885496183206,0.5038167938931297,-1.3893129770992367,-0.462646484375,0.0732421875,-0.173828125,0.032299999999999995
0.7786259541984732,0.6412213740458015,-1.251908396946565,-0.459228515625,0.0693359375,-0.171875,0.033999999999999996
0.7786259541984732,0.5801526717557252,-1.0381679389312977,-0.4619140625,0.06640625,-0.16357421875,0.035699999999999996
0.7938931297709924,0.6106870229007634,-1.1297709923664123,-0.459228515625,0.064697265625,-0.16650390625,0.037399999999999996
0.8702290076335878,0.5038167938931297,-1.2213740458015268,-0.45703125,0.067138671875,-0.16748046875,0.039099999999999996
0.9312977099236641,0.48854961832061067,-1.1603053435114503,-0.4580078125,0.069580078125,-0.165771484375,0.040799999999999996
0.9770992366412213,0.3816793893129771,-1.0381679389312977,-0.458984375,0.06787109375,-0.16015625,0.042499999999999996
1.1145038167938932,0.42748091603053434,-1.1145038167938932,-0.45361328125,0.0693359375,-0.1748046875,0.044199999999999996
0.9923664122137404,0.4580152671755725,-1.099236641221374,-0.457275390625,0.07080078125,-0.165283203125,0.045899999999999996
0.8702290076335878,0.5801526717557252,-0.9770992366412213,-0.45166015625,0.066650390625,-0.165771484375,0.047599999999999996
1.1145038167938932,0.6106870229007634,-1.099236641221374,-0.45654296875,0.06884765625,-0.167724609375,0.0493
1.0381679389312977,0.6717557251908397,-0.8702290076335878,-0.45458984375,0.0712890625,-0.16845703125,0.051
1.0076335877862594,0.42748091603053434,-0.9923664122137404,-0.457275390625,0.067626953125,-0.174560546875,0.0527
1.1755725190839694,0.48854961832061067,-0.9923664122137404,-0.458740234375,0.06494140625,-0.16259765625,0.0544
1.1755725190839694,0.6259541984732825,-0.9618320610687023,-0.459716796875,0.070556640625,-0.161865234375,0.0561
1.0534351145038168,0.44274809160305345,-0.916030534351145,-0.453857421875,0.0732421875,-0.164306640625,0.0578
1.3740458015267176,0.4732824427480916,-0.8702290076335878,-0.45556640625,0.068115234375,-0.164306640625,0.0595
1.4198473282442747,0.42748091603053434,-0.8702290076335878,-0.456787109375,0.069580078125,-0.1630859375,0.0612
1.1450381679389312,0.5343511450381679,-0.9465648854961832,-0.451416015625,0.07080078125,-0.163330078125,0.0629
1.3282442748091603,0.4732824427480916,-0.7938931297709924,-0.45361328125,0.064697265625,-0.16455078125,0.06459999999999999
1.4045801526717556,0.4122137404580153,-0.8244274809160306,-0.45556640625,0.072998046875,-0.158935546875,0.0663
1.4809160305343512,0.3053435114503817,-0.8091603053435115,-0.457763671875,0.071533203125,-0.165283203125,0.06799999999999999
1.5267175572519085,0.3053435114503817,-0.9465648854961832,-0.456298828125,0.070556640625,-0.154296875,0.0697
1.618320610687023,0.42748091603053434,-0.9770992366412213,-0.45654296875,0.068603515625,-0.164306640625,0.07139999999999999
1.3587786259541985,0.33587786259541985,-0.9923664122137404,-0.4619140625,0.067138671875,-0.164794921875,0.0731
1.633587786259542,0.33587786259541985,-0.6564885496183206,-0.458984375,0.066162109375,-0.162109375,0.07479999999999999
1.6030534351145038,0.2595419847328244,-0.8854961832061069,-0.457275390625,0.06298828125,-0.16064453125,0.0765
1.5114503816793894,0.42748091603053434,-0.8091603053435115,-0.459716796875,0.067138671875,-0.166015625,0.07819999999999999
1.4961832061068703,0.4732824427480916,-0.8396946564885496,-0.4560546875,0.0693359375,-0.17041015625,0.0799
1.6793893129770991,0.2748091603053435,-0.7480916030534351,-0.45849609375,0.06982421875,-0.159912109375,0.08159999999999999
1.3587786259541985,0.13740458015267176,-0.7786259541984732,-0.456298828125,0.06982421875,-0.166259765625,0.0833
1.3129770992366412,0.3511450381679389,-0.5801526717557252,-0.4599609375,0.072509765625,-0.1669921875,0.08499999999999999
1.6946564885496183,0.3053435114503817,-0.7175572519083969,-0.452392578125,0.06689453125,-0.16357421875,0.0867
1.5419847328244274,0.183206106870229,-0.6106870229007634,-0.457275390625,0.067138671875,-0.1650390625,0.08839999999999999
1.3893129770992367,0.2748091603053435,-0.8244274809160306,-0.459716796875,0.0625,-0.16455078125,0.0901
1.4198473282442747,0.21374045801526717,-0.6412213740458015,-0.459228515625,0.0673828125,-0.1669921875,0.09179999999999999
1.4045801526717556,0.32061068702290074,-0.8091603053435115,-0.45947265625,0.064697265625,-0.167236328125,0.0935
1.5572519083969465,0.32061068702290074,-0.6717557251908397,-0.45654296875,0.069091796875,-0.1728515625,0.09519999999999999
1.4809160305343512,0.24427480916030533,-0.6870229007633588,-0.453369140625,0.0693359375,-0.169189453125,0.0969
1.5725190839694656,0.3511450381679389,-0.5954198473282443,-0.453369140625,0.064208984375,-0.162353515625,0.0986
1.3893129770992367,0.42748091603053434,-0.7938931297709924,-0.45654296875,0.062255859375,-0.16455078125,0.1003
1.4198473282442747,0.3511450381679389,-0.6870229007633588,-0.45849609375,0.063232421875,-0.16455078125,0.102
1.4809160305343512,0.2900763358778626,-0.7633587786259542,-0.455322265625,0.068603515625,-0.162109375,0.1037
1.3740458015267176,0.3053435114503817,-0.6717557251908397,-0.458984375,0.06982421875,-0.173095703125,0.1054
1.4351145038167938,0.33587786259541985,-0.732824427480916,-0.4609375,0.0654296875,-0.17041015625,0.1071
1.5419847328244274,0.5038167938931297,-0.7633587786259542,-0.455322265625,0.06494140625,-0.166748046875,0.1088
1.2671755725190839,0.4732824427480916,-0.7938931297709924,-0.456298828125,0.06787109375,-0.1748046875,0.11049999999999999
1.3129770992366412,0.48854961832061067,-0.6106870229007634,-0.458984375,0.066650390625,-0.16357421875,0.1122
1.4198473282442747,0.42748091603053434,-0.7175572519083969,-0.460205078125,0.0615234375,-0.160888671875,0.11389999999999999
1.2061068702290076,0.3969465648854962,-0.8091603053435115,-0.459228515625,0.06591796875,-0.158935546875,0.1156
1.099236641221374,0.5954198473282443,-0.9312977099236641,-0.45654296875,0.068359375,-0.15576171875,0.11729999999999999
1.0381679389312977,0.5038167938931297,-0.7786259541984732,-0.455322265625,0.0673828125,-0.166015625,0.119
1.083969465648855,0.549618320610687,-0.7175572519083969,-0.457275390625,0.06982421875,-0.15625,0.12069999999999999
1.1755725190839694,0.5648854961832062,-0.7633587786259542,-0.4560546875,0.06787109375,-0.160888671875,0.1224
1.0687022900763359,0.5343511450381679,-0.7786259541984732,-0.460205078125,0.072509765625,-0.158203125,0.12409999999999999
1.1297709923664123,0.6870229007633588,-0.7175572519083969,-0.450927734375,0.064208984375,-0.15234375,0.1258
1.0687022900763359,0.7175572519083969,-0.8549618320610687,-0.458251953125,0.06689453125,-0.153564453125,0.1275
0.9007633587786259,0.7022900763358778,-0.7480916030534351,-0.45556640625,0.068115234375,-0.15673828125,0.12919999999999998
0.8854961832061069,0.6106870229007634,-0.7938931297709924,-0.458984375,0.066162109375,-0.15576171875,0.1309
0.8396946564885496,0.8091603053435115,-0.9312977099236641,-0.458984375,0.067138671875,-0.1611328125,0.1326
0.6564885496183206,0.732824427480916,-0.8396946564885496,-0.46142578125,0.0693359375,-0.162841796875,0.1343
0.8549618320610687,0.8396946564885496,-0.916030534351145,-0.45849609375,0.064697265625,-0.169189453125,0.13599999999999998
0.8244274809160306,0.7480916030534351,-0.9465648854961832,-0.456298828125,0.06689453125,-0.16455078125,0.1377
0.6564885496183206,0.8244274809160306,-0.8549618320610687,-0.4560546875,0.066162109375,-0.162353515625,0.1394
0.5801526717557252,0.6870229007633588,-0.9465648854961832,-0.4619140625,0.068359375,-0.16796875,0.1411
0.7022900763358778,0.7633587786259542,-1.0229007633587786,-0.455078125,0.06689453125,-0.1591796875,0.14279999999999998
0.6717557251908397,0.7480916030534351,-1.0076335877862594,-0.46435546875,0.0703125,-0.170654296875,0.1445
0.8549618320610687,0.8244274809160306,-0.9312977099236641,-0.45703125,0.068359375,-0.1650390625,0.1462
0.6412213740458015,0.8549618320610687,-0.9923664122137404,-0.45751953125,0.067626953125,-0.165283203125,0.1479
0.3969465648854962,0.6717557251908397,-0.9770992366412213,-0.45947265625,0.065673828125,-0.17431640625,0.14959999999999998
0.4732824427480916,0.732824427480916,-1.083969465648855,-0.458740234375,0.06201171875,-0.16162109375,0.1513
0.3511450381679389,1.0076335877862594,-0.9007633587786259,-0.45849609375,0.06591796875,-0.1591796875,0.153
0.5038167938931297,0.7175572519083969,-1.0076335877862594,-0.45263671875,0.065185546875,-0.163330078125,0.1547
0.44274809160305345,0.8549618320610687,-1.083969465648855,-0.46142578125,0.068115234375,-0.166748046875,0.15639999999999998
0.3969465648854962,0.9770992366412213,-1.2213740458015268,-0.45849609375,0.065673828125,-0.1591796875,0.1581
0.32061068702290074,0.9465648854961832,-1.1297709923664123,-0.461181640625,0.063720703125,-0.164794921875,0.1598
0.33587786259541985,0.8854961832061069,-1.0229007633587786,-0.45556640625,0.065673828125,-0.16455078125,0.1615
0.24427480916030533,0.9465648854961832,-1.1297709923664123,-0.453125,0.06689453125,-0.16357421875,0.16319999999999998
0.21374045801526717,1.0229007633587786,-1.2213740458015268,-0.458984375,0.072998046875,-0.17138671875,0.1649
0.21374045801526717,0.9618320610687023,-1.1297709923664123,-0.4560546875,0.06689453125,-0.169921875,0.1666
0.2900763358778626,1.0076335877862594,-1.297709923664122,-0.45947265625,0.063232421875,-0.16064453125,0.16829999999999998
0.21374045801526717,1.0381679389312977,-1.2061068702290076,-0.459716796875,0.0703125,-0.160888671875,0.16999999999999998
0.10687022900763359,1.083969465648855,-1.3282442748091603,-0.456787109375,0.071533203125,-0.161865234375,0.1717
0.3053435114503817,0.9770992366412213,-1.2366412213740459,-0.455810546875,0.06982421875,-0.15771484375,0.1734
0.07633587786259542,1.0687022900763359,-1.0534351145038168,-0.461669921875,0.06884765625,-0.162841796875,0.17509999999999998
-0.07633587786259542,1.0534351145038168,-1.282442748091603,-0.457275390625,0.068603515625,-0.162109375,0.17679999999999998
0.015267175572519083,1.1297709923664123,-1.2671755725190839,-0.46044921875,0.07177734375,-0.163818359375,0.1785
0.183206106870229,1.2366412213740459,-1.2366412213740459,-0.45458984375,0.06005859375,-0.15625,0.1802
0.030534351145038167,1.1297709923664123,-1.1755725190839694,-0.460693359375,0.070068359375,-0.173095703125,0.18189999999999998
-0.061068702290076333,1.0076335877862594,-1.4045801526717556,-0.453125,0.069580078125,-0.165283203125,0.18359999999999999
0.030534351145038167,1.083969465648855,-1.2671755725190839,-0.460205078125,0.06787109375,-0.165283203125,0.1853
-0.030534351145038167,1.1603053435114503,-1.4045801526717556,-0.46142578125,0.0693359375,-0.16650390625,0.187
0.030534351145038167,1.1908396946564885,-1.3587786259541985,-0.456298828125,0.0673828125,-0.17138671875,0.18869999999999998
0.3053435114503817,1.3435114503816794,-1.2671755725190839,-0.457763671875,0.07080078125,-0.169677734375,0.19039999999999999
0.183206106870229,1.282442748091603,-1.282442748091603,-0.457275390625,0.068603515625,-0.15478515625,0.1921
0.22900763358778625,1.1145038167938932,-1.4961832061068703,-0.455322265625,0.0712890625,-0.15771484375,0.1938
0.1984732824427481,1.3893129770992367,-1.2366412213740459,-0.45947265625,0.06982421875,-0.169189453125,0.19549999999999998
0.061068702290076333,1.1908396946564885,-1.4045801526717556,-0.46142578125,0.0712890625,-0.159423828125,0.1972
0.0916030534351145,1.3740458015267176,-1.297709923664122,-0.46142578125,0.06787109375,-0.161376953125,0.1989
0.3053435114503817,1.3435114503816794,-1.282442748091603,-0.45849609375,0.069091796875,-0.16015625,0.2006
0.183206106870229,1.4198473282442747,-1.2061068702290076,-0.455322265625,0.066162109375,-0.16259765625,0.20229999999999998
0.16793893129770993,1.3893129770992367,-1.3435114503816794,-0.460693359375,0.06396484375,-0.169189453125,0.204
0.061068702290076333,1.3282442748091603,-1.282442748091603,-0.45361328125,0.063720703125,-0.1728515625,0.2057
0.21374045801526717,1.3129770992366412,-1.3435114503816794,-0.455810546875,0.068603515625,-0.166015625,0.2074
0.16793893129770993,1.297709923664122,-1.251908396946565,-0.463623046875,0.068359375,-0.160888671875,0.20909999999999998
0.24427480916030533,1.465648854961832,-1.3435114503816794,-0.461669921875,0.068359375,-0.1611328125,0.2108
0.5190839694656488,1.3587786259541985,-0.9770992366412213,-0.45947265625,0.0654296875,-0.16064453125,0.2125
0.4732824427480916,1.4045801526717556,-1.4198473282442747,-0.462890625,0.071533203125,-0.171142578125,0.2142
0.33587786259541985,1.618320610687023,-1.2213740458015268,-0.451904296875,0.067626953125,-0.165283203125,0.21589999999999998
0.2900763358778626,1.6488549618320612,-1.2213740458015268,-0.456298828125,0.071044921875,-0.169189453125,0.2176
0.5190839694656488,1.4351145038167938,-1.297709923664122,-0.458251953125,0.066162109375,-0.167236328125,0.2193
0.3053435114503817,1.3587786259541985,-1.2671755725190839,-0.4599609375,0.06640625,-0.162109375,0.22099999999999997
0.4732824427480916,1.465648854961832,-1.0687022900763359,-0.46240234375,0.06494140625,-0.16162109375,0.22269999999999998
0.6259541984732825,1.5267175572519085,-1.3587786259541985,-0.458984375,0.064453125,-0.153564453125,0.2244
0.4580152671755725,1.4351145038167938,-1.0687022900763359,-0.456787109375,0.0703125,-0.15966796875,0.2261
0.549618320610687,1.4961832061068703,-1.0229007633587786,-0.455078125,0.0673828125,-0.1669921875,0.22779999999999997
0.6259541984732825,1.2671755725190839,-0.8244274809160306,-0.462646484375,0.068359375,-0.160400390625,0.22949999999999998
0.8091603053435115,1.3587786259541985,-1.1297709923664123,-0.45556640625,0.064697265625,-0.161376953125,0.2312
0.5954198473282443,1.4198473282442747,-1.0229007633587786,-0.45849609375,0.07177734375,-0.16015625,0.2329
0.7938931297709924,1.3435114503816794,-0.9770992366412213,-0.4609375,0.069580078125,-0.16552734375,0.23459999999999998
0.6259541984732825,1.4045801526717556,-0.8549618320610687,-0.462158203125,0.064453125,-0.168701171875,0.23629999999999998
0.4122137404580153,1.5877862595419847,-0.9465648854961832,-0.45703125,0.0712890625,-0.169921875,0.238
0.7633587786259542,1.4198473282442747,-0.8396946564885496,-0.458984375,0.06884765625,-0.1611328125,0.2397
0.9465648854961832,1.5267175572519085,-0.8091603053435115,-0.46240234375,0.066650390625,-0.168701171875,0.24139999999999998
0.9770992366412213,1.6641221374045803,-0.6259541984732825,-0.462158203125,0.064697265625,-0.169921875,0.24309999999999998
0.6564885496183206,1.5419847328244274,-0.9770992366412213,-0.457763671875,0.0712890625,-0.173583984375,0.2448
0.7480916030534351,1.5877862595419847,-0.8854961832061069,-0.453369140625,0.068359375,-0.161865234375,0.2465
1.0229007633587786,1.6946564885496183,-0.6259541984732825,-0.458984375,0.066650390625,-0.16650390625,0.24819999999999998
0.9923664122137404,1.7251908396946565,-0.5343511450381679,-0.461181640625,0.06982421875,-0.171875,0.24989999999999998
1.0381679389312977,1.5572519083969465,-0.7633587786259542,-0.459228515625,0.068603515625,-0.1640625,0.2516
1.1297709923664123,1.8015267175572518,-0.5190839694656488,-0.46142578125,0.07080078125,-0.173095703125,0.25329999999999997
1.083969465648855,1.6488549618320612,-0.7480916030534351,-0.457275390625,0.074951171875,-0.169921875,0.255
1.1145038167938932,1.7709923664122138,-0.6870229007633588,-0.453857421875,0.072265625,-0.161865234375,0.2567
1.2061068702290076,1.7099236641221374,-0.916030534351145,-0.454833984375,0.075439453125,-0.16015625,0.25839999999999996
1.2366412213740459,1.633587786259542,-0.6412213740458015,-0.46484375,0.0712890625,-0.1630859375,0.2601
1.282442748091603,1.7404580152671756,-0.7786259541984732,-0.457275390625,0.068359375,-0.174072265625,0.2618
1.4198473282442747,1.7099236641221374,-0.6870229007633588,-0.465087890625,0.0712890625,-0.165283203125,0.2635
1.3893129770992367,1.786259541984733,-0.9465648854961832,-0.453857421875,0.06689453125,-0.16796875,0.2652
1.465648854961832,1.7557251908396947,-0.732824427480916,-0.458740234375,0.066162109375,-0.173828125,0.26689999999999997
1.4198473282442747,1.9389312977099236,-0.9007633587786259,-0.458984375,0.067138671875,-0.17333984375,0.2686
1.3282442748091603,1.9236641221374047,-0.9618320610687023,-0.46240234375,0.071044921875,-0.163330078125,0.2703
1.4198473282442747,1.7709923664122138,-0.9618320610687023,-0.46240234375,0.064697265625,-0.173583984375,0.27199999999999996
1.618320610687023,1.8473282442748091,-0.9770992366412213,-0.455810546875,0.0703125,-0.16748046875,0.2737
1.7709923664122138,1.8473282442748091,-1.0534351145038168,-0.459716796875,0.07275390625,-0.159912109375,0.2754
1.7709923664122138,1.8015267175572518,-1.1603053435114503,-0.45703125,0.06787109375,-0.15966796875,0.27709999999999996
1.6946564885496183,1.984732824427481,-1.083969465648855,-0.458251953125,0.073486328125,-0.1591796875,0.2788
1.7099236641221374,1.8931297709923665,-1.2213740458015268,-0.451904296875,0.06884765625,-0.16259765625,0.28049999999999997
1.8015267175572518,1.9083969465648856,-1.1603053435114503,-0.44970703125,0.068603515625,-0.167236328125,0.2822
1.6946564885496183,2.0916030534351147,-1.1450381679389312,-0.453857421875,0.068359375,-0.174560546875,0.2839
1.8473282442748091,2.16793893129771,-1.251908396946565,-0.458251953125,0.068359375,-0.175048828125,0.28559999999999997
1.9389312977099236,2.0763358778625953,-0.9465648854961832,-0.457275390625,0.068603515625,-0.16259765625,0.2873
2.0763358778625953,2.3053435114503817,-1.099236641221374,-0.46142578125,0.068115234375,-0.168701171875,0.289
1.984732824427481,2.0,-0.9923664122137404,-0.46142578125,0.0703125,-0.16650390625,0.29069999999999996
1.9083969465648856,2.1374045801526718,-1.251908396946565,-0.463134765625,0.0693359375,-0.1650390625,0.2924
2.0916030534351147,2.16793893129771,-0.9312977099236641,-0.45849609375,0.067626953125,-0.167236328125,0.2941
2.0763358778625953,1.9389312977099236,-1.1297709923664123,-0.452392578125,0.06494140625,-0.175048828125,0.2958
2.198473282442748,2.015267175572519,-1.1297709923664123,-0.45556640625,0.07177734375,-0.166259765625,0.2975
2.0916030534351147,2.198473282442748,-1.1603053435114503,-0.4609375,0.064453125,-0.175048828125,0.29919999999999997
2.16793893129771,2.122137404580153,-1.2366412213740459,-0.46240234375,0.070068359375,-0.16162109375,0.3009
2.045801526717557,2.1068702290076335,-1.1755725190839694,-0.4599609375,0.065185546875,-0.16455078125,0.3026
2.198473282442748,2.2595419847328246,-1.0381679389312977,-0.456298828125,0.068115234375,-0.171630859375,0.30429999999999996
2.2290076335877864,2.16793893129771,-1.0687022900763359,-0.460205078125,0.070556640625,-0.1689453125,0.306
2.183206106870229,2.3969465648854964,-0.9770992366412213,-0.4580078125,0.071533203125,-0.17236328125,0.3077
1.9389312977099236,2.33587786259542,-1.0076335877862594,-0.45947265625,0.0654296875,-0.163818359375,0.3094
2.045801526717557,2.2748091603053435,-1.0687022900763359,-0.45751953125,0.067626953125,-0.16259765625,0.3111
2.0763358778625953,2.2595419847328246,-1.0534351145038168,-0.457763671875,0.066650390625,-0.1669921875,0.31279999999999997
2.0,2.2595419847328246,-0.7633587786259542,-0.45654296875,0.068115234375,-0.176513671875,0.3145
2.0610687022900764,2.198473282442748,-0.8702290076335878,-0.461181640625,0.068115234375,-0.174072265625,0.3162
2.1374045801526718,2.2595419847328246,-0.7786259541984732,-0.458984375,0.067138671875,-0.1650390625,0.31789999999999996
2.1068702290076335,2.2595419847328246,-0.7633587786259542,-0.460205078125,0.07080078125,-0.16015625,0.3196
1.984732824427481,2.3053435114503817,-0.9007633587786259,-0.455322265625,0.070556640625,-0.164794921875,0.3213
1.9389312977099236,2.198473282442748,-0.8549618320610687,-0.45361328125,0.069091796875,-0.16552734375,0.323
2.1374045801526718,2.16793893129771,-0.8091603053435115,-0.455322265625,0.06884765625,-0.1689453125,0.3247
2.0763358778625953,2.1374045801526718,-0.9007633587786259,-0.4599609375,0.066162109375,-0.166259765625,0.32639999999999997
2.0610687022900764,2.0,-0.9312977099236641,-0.46142578125,0.06591796875,-0.170654296875,0.3281
2.1526717557251906,2.0610687022900764,-0.8854961832061069,-0.460205078125,0.06591796875,-0.1767578125,0.3298
2.2748091603053435,2.0763358778625953,-0.7633587786259542,-0.453857421875,0.072265625,-0.165283203125,0.33149999999999996
2.0610687022900764,2.183206106870229,-0.7938931297709924,-0.45654296875,0.06787109375,-0.1611328125,0.3332
1.984732824427481,2.0763358778625953,-0.7633587786259542,-0.456787109375,0.070556640625,-0.16064453125,0.3349
2.2595419847328246,2.030534351145038,-0.7938931297709924,-0.45263671875,0.066650390625,-0.171630859375,0.33659999999999995
2.2290076335877864,1.9389312977099236,-0.9465648854961832,-0.45751953125,0.0673828125,-0.168212890625,0.3383
2.2290076335877864,2.0763358778625953,-0.8091603053435115,-0.45361328125,0.066162109375,-0.1640625,0.33999999999999997
2.2900763358778624,2.183206106870229,-0.9007633587786259,-0.458740234375,0.065673828125,-0.166015625,0.3417
2.1526717557251906,1.984732824427481,-0.8854961832061069,-0.453857421875,0.067626953125,-0.16162109375,0.3434
2.1374045801526718,1.9541984732824427,-0.916030534351145,-0.46044921875,0.06884765625,-0.168701171875,0.34509999999999996
2.198473282442748,1.83206106870229,-0.9770992366412213,-0.45849609375,0.066650390625,-0.165283203125,0.3468
2.183206106870229,1.8931297709923665,-0.9312977099236641,-0.452880859375,0.069580078125,-0.169189453125,0.3485
2.198473282442748,1.633587786259542,-0.9618320610687023,-0.45556640625,0.06884765625,-0.165283203125,0.35019999999999996
2.183206106870229,1.633587786259542,-1.0229007633587786,-0.4560546875,0.072021484375,-0.165283203125,0.3519
2.213740458015267,1.7099236641221374,-0.7175572519083969,-0.456787109375,0.06591796875,-0.168212890625,0.35359999999999997
2.4122137404580153,1.618320610687023,-0.8091603053435115,-0.457763671875,0.068359375,-0.16259765625,0.3553
2.2748091603053435,1.5572519083969465,-0.8702290076335878,-0.44873046875,0.06689453125,-0.163330078125,0.357
2.3206106870229006,1.618320610687023,-0.8396946564885496,-0.453369140625,0.06982421875,-0.162109375,0.35869999999999996
2.33587786259542,1.5114503816793894,-0.7175572519083969,-0.458984375,0.07421875,-0.16455078125,0.3604
2.0763358778625953,1.5572519083969465,-0.7786259541984732,-0.459228515625,0.0673828125,-0.171875,0.3621
2.2748091603053435,1.4809160305343512,-0.7786259541984732,-0.4560546875,0.068115234375,-0.166748046875,0.36379999999999996
2.351145038167939,1.3893129770992367,-0.732824427480916,-0.45751953125,0.06591796875,-0.16455078125,0.3655
2.198473282442748,1.4351145038167938,-0.6412213740458015,-0.45654296875,0.06689453125,-0.171630859375,0.36719999999999997
2.0763358778625953,1.251908396946565,-0.7022900763358778,-0.45751953125,0.0712890625,-0.169677734375,0.3689
2.122137404580153,1.1755725190839694,-0.5343511450381679,-0.454345703125,0.065673828125,-0.16650390625,0.3706
2.122137404580153,1.1908396946564885,-0.6870229007633588,-0.457275390625,0.068603515625,-0.1689453125,0.37229999999999996
2.3969465648854964,1.1908396946564885,-0.5190839694656488,-0.45703125,0.068603515625,-0.17041015625,0.374
2.2748091603053435,1.2061068702290076,-0.732824427480916,-0.457763671875,0.06982421875,-0.16552734375,0.3757
2.2748091603053435,1.099236641221374,-0.6412213740458015,-0.455322265625,0.064453125,-0.1787109375,0.37739999999999996
2.2900763358778624,1.2061068702290076,-0.8854961832061069,-0.45703125,0.063720703125,-0.17138671875,0.3791
2.2595419847328246,1.2366412213740459,-0.7022900763358778,-0.459716796875,0.066162109375,-0.16650390625,0.38079999999999997
2.3969465648854964,1.1297709923664123,-0.5343511450381679,-0.463134765625,0.066650390625,-0.166015625,0.38249999999999995
2.351145038167939,1.083969465648855,-0.4732824427480916,-0.458740234375,0.063232421875,-0.174072265625,0.3842
1.9694656488549618,1.0687022900763359,-0.6259541984732825,-0.45458984375,0.0625,-0.171142578125,0.38589999999999997
2.2748091603053435,0.9923664122137404,-0.6564885496183206,-0.4560546875,0.07666015625,-0.166748046875,0.3876
2.1374045801526718,1.0229007633587786,-0.8702290076335878,-0.4580078125,0.06494140625,-0.16943359375,0.3893
2.2900763358778624,1.083969465648855,-0.48854961832061067,-0.455322265625,0.0693359375,-0.17236328125,0.39099999999999996
2.122137404580153,1.1297709923664123,-0.549618320610687,-0.457763671875,0.06689453125,-0.1728515625,0.3927
2.183206106870229,1.1755725190839694,-0.5190839694656488,-0.46044921875,0.06591796875,-0.166259765625,0.3944
2.2900763358778624,1.3282442748091603,-0.549618320610687,-0.456787109375,0.06787109375,-0.168212890625,0.39609999999999995
2.198473282442748,1.3282442748091603,-0.5343511450381679,-0.455322265625,0.06494140625,-0.1640625,0.3978
2.2595419847328246,1.1603053435114503,-0.5801526717557252,-0.4599609375,0.067138671875,-0.165283203125,0.39949999999999997
2.0610687022900764,1.099236641221374,-0.6259541984732825,-0.46142578125,0.0703125,-0.169921875,0.4012
2.1526717557251906,1.2671755725190839,-0.7786259541984732,-0.458984375,0.065185546875,-0.166015625,0.4029
2.2290076335877864,1.2671755725190839,-0.5954198473282443,-0.4580078125,0.07080078125,-0.1650390625,0.40459999999999996
2.122137404580153,1.1908396946564885,-0.732824427480916,-0.45556640625,0.0673828125,-0.1689453125,0.4063
2.198473282442748,1.2061068702290076,-0.6259541984732825,-0.458984375,0.067626953125,-0.1650390625,0.408
2.030534351145038,1.4198473282442747,-0.6259541984732825,-0.45947265625,0.063232421875,-0.164306640625,0.40969999999999995
2.213740458015267,1.2213740458015268,-0.6870229007633588,-0.45703125,0.0673828125,-0.165771484375,0.4114
2.1526717557251906,1.282442748091603,-0.6870229007633588,-0.462158203125,0.068359375,-0.1650390625,0.41309999999999997
2.2748091603053435,1.297709923664122,-0.4732824427480916,-0.457763671875,0.069091796875,-0.170166015625,0.4148
1.9694656488549618,1.450381679389313,-0.7480916030534351,-0.4560546875,0.064697265625,-0.171630859375,0.4165
2.183206106870229,1.4809160305343512,-0.6259541984732825,-0.4619140625,0.061279296875,-0.16455078125,0.41819999999999996
2.351145038167939,1.3587786259541985,-0.7022900763358778,-0.455322265625,0.069091796875,-0.163330078125,0.4199
2.16793893129771,1.5114503816793894,-0.7480916030534351,-0.4560546875,0.06982421875,-0.161865234375,0.4216
2.0,1.618320610687023,-0.8091603053435115,-0.45703125,0.062255859375,-0.163330078125,0.42329999999999995
1.8931297709923665,1.5114503816793894,-0.5648854961832062,-0.458740234375,0.066162109375,-0.167236328125,0.425
1.8778625954198473,1.4351145038167938,-0.732824427480916,-0.455322265625,0.068603515625,-0.162841796875,0.42669999999999997
2.1374045801526718,1.450381679389313,-0.6412213740458015,-0.455810546875,0.0693359375,-0.171142578125,0.4284
2.0763358778625953,1.4961832061068703,-0.7480916030534351,-0.4580078125,0.0703125,-0.1650390625,0.4301
1.984732824427481,1.4809160305343512,-0.732824427480916,-0.455810546875,0.066162109375,-0.166015625,0.43179999999999996
2.0763358778625953,1.465648854961832,-0.7175572519083969,-0.45947265625,0.070556640625,-0.163330078125,0.4335
1.9694656488549618,1.5725190839694656,-0.7786259541984732,-0.457763671875,0.065673828125,-0.173095703125,0.4352
1.786259541984733,1.4809160305343512,-0.8549618320610687,-0.45849609375,0.069580078125,-0.171142578125,0.43689999999999996
2.122137404580153,1.5419847328244274,-0.6870229007633588,-0.460205078125,0.059814453125,-0.169921875,0.4386
2.122137404580153,1.7404580152671756,-0.916030534351145,-0.459716796875,0.06640625,-0.16943359375,0.44029999999999997
1.9541984732824427,1.7251908396946565,-0.8244274809160306,-0.46142578125,0.063232421875,-0.174072265625,0.44199999999999995
2.0610687022900764,1.6488549618320612,-0.8244274809160306,-0.461181640625,0.0693359375,-0.163818359375,0.4437
1.984732824427481,1.7099236641221374,-0.7938931297709924,-0.45361328125,0.063232421875,-0.175048828125,0.44539999999999996
1.8473282442748091,1.6488549618320612,-1.0687022900763359,-0.460205078125,0.072021484375,-0.170654296875,0.4471
1.8931297709923665,1.83206106870229,-0.9007633587786259,-0.460205078125,0.069091796875,-0.16162109375,0.4488
1.6641221374045803,1.618320610687023,-1.0076335877862594,-0.460205078125,0.06787109375,-0.1728515625,0.45049999999999996
1.7404580152671756,1.8625954198473282,-0.8854961832061069,-0.45849609375,0.06884765625,-0.168701171875,0.4522
1.7709923664122138,1.8931297709923665,-1.0381679389312977,-0.456298828125,0.068115234375,-0.17138671875,0.45389999999999997
1.8778625954198473,1.8625954198473282,-0.9618320610687023,-0.45849609375,0.064208984375,-0.164306640625,0.45559999999999995
1.816793893129771,1.786259541984733,-1.1603053435114503,-0.45703125,0.06884765625,-0.16748046875,0.4573
1.7709923664122138,1.8473282442748091,-1.1908396946564885,-0.455078125,0.0654296875,-0.1669921875,0.45899999999999996
1.7557251908396947,1.816793893129771,-1.1297709923664123,-0.4560546875,0.0712890625,-0.17236328125,0.4607
1.8778625954198473,1.816793893129771,-1.0381679389312977,-0.457275390625,0.068603515625,-0.177734375,0.4624
1.5419847328244274,1.8778625954198473,-1.083969465648855,-0.461669921875,0.071533203125,-0.1787109375,0.46409999999999996
1.8625954198473282,1.8625954198473282,-1.282442748091603,-0.45458984375,0.067138671875,-0.1640625,0.4658
1.9236641221374047,1.786259541984733,-1.1145038167938932,-0.4580078125,0.061767578125,-0.170166015625,0.46749999999999997
1.5877862595419847,1.8931297709923665,-1.0687022900763359,-0.458251953125,0.0703125,-0.1630859375,0.46919999999999995
1.7099236641221374,2.1068702290076335,-1.3587786259541985,-0.45703125,0.06884765625,-0.17626953125,0.4709
1.7251908396946565,2.045801526717557,-1.297709923664122,-0.45458984375,0.0703125,-0.169677734375,0.47259999999999996
1.4809160305343512,2.045801526717557,-1.1603053435114503,-0.460693359375,0.066162109375,-0.166748046875,0.4743
1.7404580152671756,2.0610687022900764,-1.3282442748091603,-0.45849609375,0.0615234375,-0.171142578125,0.476
1.6488549618320612,1.9694656488549618,-1.3435114503816794,-0.456298828125,0.066162109375,-0.16748046875,0.47769999999999996
1.9236641221374047,1.9694656488549618,-1.2061068702290076,-0.452880859375,0.0673828125,-0.165771484375,0.4794
1.5419847328244274,1.9694656488549618,-1.4045801526717556,-0.455322265625,0.0751953125,-0.173095703125,0.48109999999999997
1.5725190839694656,1.9389312977099236,-1.4045801526717556,-0.451904296875,0.072265625,-0.16845703125,0.48279999999999995
1.6793893129770991,2.0763358778625953,-1.282442748091603,-0.457763671875,0.070556640625,-0.16845703125,0.4845
1.5877862595419847,1.9236641221374047,-1.251908396946565,-0.457763671875,0.070068359375,-0.16796875,0.48619999999999997
1.5725190839694656,1.9541984732824427,-1.3282442748091603,-0.46044921875,0.072509765625,-0.167236328125,0.4879
1.6030534351145038,1.9236641221374047,-1.3435114503816794,-0.458984375,0.068115234375,-0.165771484375,0.4896
1.7251908396946565,1.984732824427481,-1.3435114503816794,-0.456298828125,0.068603515625,-0.1796875,0.49129999999999996
1.5877862595419847,1.8778625954198473,-1.4351145038167938,-0.456298828125,0.06982421875,-0.165771484375,0.493
1.6641221374045803,1.83206106870229,-1.3893129770992367,-0.458984375,0.06640625,-0.16943359375,0.4947
1.450381679389313,2.030534351145038,-1.5114503816793894,-0.452880859375,0.06640625,-0.17431640625,0.49639999999999995
1.633587786259542,2.2442748091603053,-1.4351145038167938,-0.455322265625,0.069580078125,-0.172607421875,0.4981
1.4045801526717556,2.0916030534351147,-1.3893129770992367,-0.457275390625,0.06982421875,-0.1650390625,0.49979999999999997
1.5419847328244274,2.0916030534351147,-1.282442748091603,-0.452392578125,0.064697265625,-0.163818359375,0.5015
1.7404580152671756,1.9236641221374047,-1.3893129770992367,-0.453857421875,0.068359375,-0.166259765625,0.5032
1.5725190839694656,1.9389312977099236,-1.3740458015267176,-0.456298828125,0.06982421875,-0.176025390625,0.5049
1.3435114503816794,2.0,-1.297709923664122,-0.4541015625,0.070068359375,-0.177978515625,0.5065999999999999
1.450381679389313,1.9236641221374047,-1.4198473282442747,-0.453857421875,0.0693359375,-0.1728515625,0.5083
1.5419847328244274,1.9236641221374047,-1.3740458015267176,-0.459716796875,0.072021484375,-0.16845703125,0.51
1.4961832061068703,1.9541984732824427,-1.3282442748091603,-0.456298828125,0.0615234375,-0.1728515625,0.5116999999999999
1.5572519083969465,1.816793893129771,-1.297709923664122,-0.455078125,0.072509765625,-0.166748046875,0.5134
1.5877862595419847,1.9541984732824427,-1.3893129770992367,-0.456787109375,0.069580078125,-0.162109375,0.5151
1.5877862595419847,1.8625954198473282,-1.3282442748091603,-0.4521484375,0.06982421875,-0.17431640625,0.5167999999999999
1.5725190839694656,1.9541984732824427,-1.3740458015267176,-0.455078125,0.07080078125,-0.1669921875,0.5185
1.4809160305343512,1.6793893129770991,-1.2671755725190839,-0.45556640625,0.066650390625,-0.168701171875,0.5202
1.5877862595419847,1.83206106870229,-1.1297709923664123,-0.458740234375,0.06494140625,-0.176513671875,0.5218999999999999
1.4961832061068703,1.6641221374045803,-1.3740458015267176,-0.455810546875,0.065185546875,-0.17626953125,0.5236
1.3893129770992367,1.633587786259542,-1.3129770992366412,-0.45751953125,0.064697265625,-0.171875,0.5253
1.4961832061068703,1.7404580152671756,-1.2671755725190839,-0.455078125,0.067626953125,-0.170166015625,0.527
1.3740458015267176,1.6488549618320612,-1.1603053435114503,-0.456787109375,0.071044921875,-0.162353515625,0.5287
1.6946564885496183,1.6641221374045803,-1.1297709923664123,-0.45849609375,0.0703125,-0.16650390625,0.5304
1.4809160305343512,1.5877862595419847,-1.2671755725190839,-0.454345703125,0.0595703125,-0.169189453125,0.5321
1.5267175572519085,1.5725190839694656,-1.2671755725190839,-0.462646484375,0.06884765625,-0.168212890625,0.5337999999999999
1.633587786259542,1.5419847328244274,-1.2366412213740459,-0.452880859375,0.06494140625,-0.155517578125,0.5355
1.5267175572519085,1.6641221374045803,-1.0229007633587786,-0.456787109375,0.066650390625,-0.164794921875,0.5372
1.6488549618320612,1.5725190839694656,-1.2671755725190839,-0.456787109375,0.067626953125,-0.16796875,0.5388999999999999
1.3893129770992367,1.4351145038167938,-1.1908396946564885,-0.453125,0.065185546875,-0.16064453125,0.5406
1.5114503816793894,1.6030534351145038,-1.0381679389312977,-0.458251953125,0.064453125,-0.170166015625,0.5423
1.6793893129770991,1.5572519083969465,-1.0229007633587786,-0.45556640625,0.068359375,-0.17041015625,0.5439999999999999
1.6030534351145038,1.5725190839694656,-1.0381679389312977,-0.456298828125,0.064697265625,-0.169921875,0.5457
1.5114503816793894,1.4351145038167938,-1.083969465648855,-0.46044921875,0.0654296875,-0.176025390625,0.5474
1.450381679389313,1.4961832061068703,-0.8702290076335878,-0.45751953125,0.061279296875,-0.170654296875,0.5490999999999999
1.5572519083969465,1.6030534351145038,-0.9465648854961832,-0.458740234375,0.07080078125,-0.1689453125,0.5508
1.4198473282442747,1.5267175572519085,-1.1450381679389312,-0.45166015625,0.068603515625,-0.165283203125,0.5525
1.465648854961832,1.3282442748091603,-0.9007633587786259,-0.457763671875,0.067138671875,-0.17529296875,0.5541999999999999
1.6641221374045803,1.3129770992366412,-0.9312977099236641,-0.45654296875,0.06591796875,-0.165771484375,0.5559
1.6030534351145038,1.282442748091603,-0.8854961832061069,-0.45458984375,0.0703125,-0.167236328125,0.5576
1.3435114503816794,1.2061068702290076,-0.9312977099236641,-0.455810546875,0.063232421875,-0.170654296875,0.5593
1.5572519083969465,1.0687022900763359,-0.9770992366412213,-0.453125,0.071044921875,-0.1787109375,0.5609999999999999
1.4198473282442747,1.1145038167938932,-0.8396946564885496,-0.452880859375,0.06494140625,-0.170654296875,0.5627
1.450381679389313,1.0229007633587786,-0.8549618320610687,-0.45263671875,0.066162109375,-0.166259765625,0.5644
1.5114503816793894,1.1145038167938932,-0.8549618320610687,-0.451904296875,0.06982421875,-0.169189453125,0.5660999999999999
1.5572519083969465,1.2061068702290076,-0.8549618320610687,-0.451171875,0.061767578125,-0.169189453125,0.5678
1.5114503816793894,0.9312977099236641,-0.8244274809160306,-0.456298828125,0.06640625,-0.16748046875,0.5695
1.5877862595419847,0.9465648854961832,-0.9312977099236641,-0.455810546875,0.060302734375,-0.162353515625,0.5711999999999999
1.4809160305343512,1.0534351145038168,-0.7175572519083969,-0.451904296875,0.0673828125,-0.172607421875,0.5729
1.297709923664122,0.7786259541984732,-0.916030534351145,-0.45849609375,0.0634765625,-0.171630859375,0.5746
1.6030534351145038,0.8702290076335878,-0.8396946564885496,-0.453369140625,0.06396484375,-0.171142578125,0.5762999999999999
1.4351145038167938,0.7480916030534351,-0.8244274809160306,-0.455322265625,0.06884765625,-0.166748046875,0.578
1.4198473282442747,0.7938931297709924,-0.6106870229007634,-0.45458984375,0.0693359375,-0.1669921875,0.5797
1.4045801526717556,0.7022900763358778,-0.7938931297709924,-0.460693359375,0.073974609375,-0.16796875,0.5813999999999999
1.3893129770992367,0.5954198473282443,-0.6717557251908397,-0.455322265625,0.06640625,-0.165283203125,0.5831
1.465648854961832,0.6259541984732825,-0.916030534351145,-0.456298828125,0.06689453125,-0.171142578125,0.5848
1.3893129770992367,0.8244274809160306,-0.6870229007633588,-0.45263671875,0.067138671875,-0.173828125,0.5865
1.297709923664122,0.8091603053435115,-0.8091603053435115,-0.455810546875,0.06640625,-0.17431640625,0.5882
1.4961832061068703,0.6870229007633588,-0.7480916030534351,-0.454833984375,0.0693359375,-0.17333984375,0.5899
1.4198473282442747,0.7022900763358778,-0.6717557251908397,-0.455078125,0.064208984375,-0.17529296875,0.5916
1.3587786259541985,0.7480916030534351,-0.7938931297709924,-0.457275390625,0.064208984375,-0.17236328125,0.5932999999999999
1.282442748091603,0.7022900763358778,-0.9312977099236641,-0.461181640625,0.065185546875,-0.165771484375,0.595
1.3129770992366412,0.6106870229007634,-0.6717557251908397,-0.453369140625,0.067138671875,-0.1728515625,0.5967
1.5114503816793894,0.6106870229007634,-0.7022900763358778,-0.4580078125,0.061767578125,-0.169189453125,0.5983999999999999
1.3740458015267176,0.6870229007633588,-0.6564885496183206,-0.4560546875,0.065673828125,-0.170654296875,0.6001
1.2061068702290076,0.549618320610687,-0.7175572519083969,-0.453369140625,0.06396484375,-0.170166015625,0.6018
1.2366412213740459,0.6106870229007634,-0.5343511450381679,-0.458984375,0.062744140625,-0.177978515625,0.6034999999999999
1.2213740458015268,0.732824427480916,-0.7633587786259542,-0.45703125,0.06982421875,-0.16796875,0.6052
1.2671755725190839,0.5648854961832062,-0.7786259541984732,-0.453369140625,0.06298828125,-0.1708984375,0.6069
1.282442748091603,0.6106870229007634,-0.6870229007633588,-0.457275390625,0.075439453125,-0.15625,0.6085999999999999
1.3587786259541985,0.5801526717557252,-0.5801526717557252,-0.456787109375,0.06884765625,-0.155517578125,0.6103
1.251908396946565,0.549618320610687,-0.6412213740458015,-0.456787109375,0.07373046875,-0.161865234375,0.612
1.083969465648855,0.6412213740458015,-0.6564885496183206,-0.4560546875,0.0634765625,-0.168212890625,0.6136999999999999
1.1145038167938932,0.44274809160305345,-0.6717557251908397,-0.453369140625,0.067626953125,-0.16748046875,0.6154
1.1297709923664123,0.5190839694656488,-0.5954198473282443,-0.457275390625,0.0673828125,-0.170166015625,0.6171
0.9923664122137404,0.6870229007633588,-0.7175572519083969,-0.45556640625,0.06591796875,-0.174072265625,0.6188
1.1297709923664123,0.5648854961832062,-0.5801526717557252,-0.456787109375,0.067138671875,-0.168212890625,0.6204999999999999
1.1755725190839694,0.4732824427480916,-0.549618320610687,-0.45703125,0.063720703125,-0.165283203125,0.6222
1.1145038167938932,0.7175572519083969,-0.5038167938931297,-0.45556640625,0.06298828125,-0.165283203125,0.6239
0.916030534351145,0.732824427480916,-0.7175572519083969,-0.46044921875,0.06494140625,-0.169189453125,0.6255999999999999
1.0534351145038168,0.6259541984732825,-0.5038167938931297,-0.452880859375,0.067138671875,-0.17138671875,0.6273
0.8702290076335878,0.5038167938931297,-0.6564885496183206,-0.45458984375,0.067138671875,-0.166259765625,0.629
0.9618320610687023,0.5801526717557252,-0.549618320610687,-0.456787109375,0.0673828125,-0.168701171875,0.6306999999999999
0.9007633587786259,0.6259541984732825,-0.48854961832061067,-0.458740234375,0.064208984375,-0.171630859375,0.6324
0.8549618320610687,0.8091603053435115,-0.3816793893129771,-0.45849609375,0.06396484375,-0.1708984375,0.6341
0.7633587786259542,0.549618320610687,-0.6412213740458015,-0.4599609375,0.0673828125,-0.163818359375,0.6357999999999999
0.916030534351145,0.7786259541984732,-0.5801526717557252,-0.45751953125,0.07421875,-0.16357421875,0.6375
0.9770992366412213,0.7938931297709924,-0.6564885496183206,-0.45751953125,0.066162109375,-0.16796875,0.6392
0.8244274809160306,0.7022900763358778,-0.5954198473282443,-0.455322265625,0.065185546875,-0.171142578125,0.6408999999999999
0.7938931297709924,0.6870229007633588,-0.5801526717557252,-0.454833984375,0.063720703125,-0.162109375,0.6426
0.5648854961832062,0.5801526717557252,-0.48854961832061067,-0.45556640625,0.071533203125,-0.169189453125,0.6443
0.549618320610687,0.7786259541984732,-0.4580152671755725,-0.45751953125,0.06640625,-0.165283203125,0.646
0.8702290076335878,0.44274809160305345,-0.6870229007633588,-0.450439453125,0.069091796875,-0.163818359375,0.6476999999999999
0.6412213740458015,0.5954198473282443,-0.5190839694656488,-0.456298828125,0.0712890625,-0.1611328125,0.6494
0.732824427480916,0.6564885496183206,-0.5038167938931297,-0.45703125,0.064453125,-0.16357421875,0.6511
0.5954198473282443,0.6870229007633588,-0.5954198473282443,-0.457275390625,0.068603515625,-0.1689453125,0.6527999999999999
0.6259541984732825,0.6106870229007634,-0.5954198473282443,-0.454833984375,0.064208984375,-0.166015625,0.6545
0.549618320610687,0.549618320610687,-0.6259541984732825,-0.4580078125,0.070068359375,-0.172119140625,0.6562
0.5190839694656488,0.6564885496183206,-0.5648854961832062,-0.452392578125,0.06591796875,-0.1728515625,0.6578999999999999
0.7480916030534351,0.5648854961832062,-0.6870229007633588,-0.454833984375,0.066650390625,-0.172607421875,0.6596
0.6106870229007634,0.366412213740458,-0.5343511450381679,-0.455322265625,0.063232421875,-0.17041015625,0.6613
0.48854961832061067,0.5801526717557252,-0.6870229007633588,-0.45361328125,0.071044921875,-0.170166015625,0.6629999999999999
0.6412213740458015,0.6106870229007634,-0.5038167938931297,-0.457763671875,0.067138671875,-0.17041015625,0.6647
0.48854961832061067,0.6259541984732825,-0.5801526717557252,-0.460205078125,0.067626953125,-0.17431640625,0.6664
0.5038167938931297,0.5954198473282443,-0.6106870229007634,-0.458984375,0.073974609375,-0.16162109375,0.6680999999999999
0.5190839694656488,0.3053435114503817,-0.6717557251908397,-0.463623046875,0.068115234375,-0.1689453125,0.6698
0.42748091603053434,0.3511450381679389,-0.5038167938931297,-0.46044921875,0.069091796875,-0.1708984375,0.6715
0.5648854961832062,0.5190839694656488,-0.5343511450381679,-0.455810546875,0.072265625,-0.167724609375,0.6731999999999999
0.5190839694656488,0.6412213740458015,-0.6564885496183206,-0.46240234375,0.068603515625,-0.166015625,0.6748999999999999
0.44274809160305345,0.3969465648854962,-0.48854961832061067,-0.46044921875,0.065185546875,-0.169921875,0.6766
0.5038167938931297,0.4122137404580153,-0.3969465648854962,-0.458740234375,0.06884765625,-0.18017578125,0.6783
0.48854961832061067,0.42748091603053434,-0.6870229007633588,-0.4580078125,0.072509765625,-0.1748046875,0.6799999999999999
0.33587786259541985,0.32061068702290074,-0.7633587786259542,-0.457275390625,0.069580078125,-0.176025390625,0.6817
0.3816793893129771,0.4122137404580153,-0.5801526717557252,-0.451904296875,0.069091796875,-0.165283203125,0.6834
0.2748091603053435,0.2748091603053435,-0.5648854961832062,-0.4560546875,0.068359375,-0.164794921875,0.6850999999999999
0.2748091603053435,0.2595419847328244,-0.6564885496183206,-0.458251953125,0.07080078125,-0.16455078125,0.6868
0.5038167938931297,0.3511450381679389,-0.5801526717557252,-0.456298828125,0.072509765625,-0.165283203125,0.6885
0.32061068702290074,0.0916030534351145,-0.6259541984732825,-0.456787109375,0.0693359375,-0.1796875,0.6901999999999999
0.3816793893129771,0.13740458015267176,-0.5801526717557252,-0.451904296875,0.06787109375,-0.16259765625,0.6919
0.42748091603053434,0.21374045801526717,-0.6412213740458015,-0.451904296875,0.063232421875,-0.16796875,0.6936
0.44274809160305345,0.2595419847328244,-0.5954198473282443,-0.453125,0.065673828125,-0.16552734375,0.6952999999999999
0.6106870229007634,0.1984732824427481,-0.5343511450381679,-0.455322265625,0.071044921875,-0.163330078125,0.697
0.3053435114503817,0.04580152671755725,-0.6106870229007634,-0.458984375,0.066650390625,-0.169677734375,0.6987
0.33587786259541985,0.030534351145038167,-0.7022900763358778,-0.462646484375,0.064208984375,-0.161865234375,0.7003999999999999
0.4122137404580153,0.12213740458015267,-0.6564885496183206,-0.457763671875,0.072021484375,-0.16259765625,0.7021
0.5801526717557252,0.4122137404580153,-0.6106870229007634,-0.4580078125,0.06982421875,-0.169677734375,0.7038
0.366412213740458,0.24427480916030533,-0.6259541984732825,-0.462646484375,0.06982421875,-0.16552734375,0.7055
0.3969465648854962,0.015267175572519083,-0.6106870229007634,-0.461181640625,0.069580078125,-0.16650390625,0.7071999999999999
0.44274809160305345,0.15267175572519084,-0.6259541984732825,-0.455810546875,0.06494140625,-0.165283203125,0.7089
0.6259541984732825,0.0916030534351145,-0.48854961832061067,-0.459716796875,0.068603515625,-0.168212890625,0.7106
0.366412213740458,0.24427480916030533,-0.48854961832061067,-0.458251953125,0.071533203125,-0.16796875,0.7122999999999999
0.48854961832061067,0.32061068702290074,-0.5801526717557252,-0.460205078125,0.068603515625,-0.166748046875,0.714
0.5648854961832062,0.2748091603053435,-0.6717557251908397,-0.45458984375,0.06884765625,-0.158935546875,0.7157
0.5801526717557252,0.12213740458015267,-0.4122137404580153,-0.459228515625,0.06982421875,-0.1689453125,0.7173999999999999
0.3969465648854962,0.3511450381679389,-0.6259541984732825,-0.455322265625,0.067626953125,-0.15966796875,0.7191
0.3816793893129771,0.16793893129770993,-0.5801526717557252,-0.4501953125,0.07080078125,-0.161865234375,0.7208
0.48854961832061067,0.16793893129770993,-0.5343511450381679,-0.4560546875,0.070556640625,-0.175537109375,0.7224999999999999
0.7480916030534351,0.2900763358778626,-0.3053435114503817,-0.458251953125,0.07177734375,-0.173583984375,0.7242
0.7633587786259542,0.42748091603053434,-0.5190839694656488,-0.457275390625,0.07177734375,-0.164306640625,0.7259
0.6259541984732825,0.15267175572519084,-0.5190839694656488,-0.460693359375,0.06640625,-0.162109375,0.7275999999999999
0.5648854961832062,0.2595419847328244,-0.32061068702290074,-0.457275390625,0.068359375,-0.161865234375,0.7293
0.5954198473282443,0.22900763358778625,-0.6870229007633588,-0.458251953125,0.076416015625,-0.168701171875,0.731
0.8244274809160306,0.3511450381679389,-0.6870229007633588,-0.4619140625,0.06884765625,-0.165771484375,0.7326999999999999
0.7480916030534351,0.366412213740458,-0.5038167938931297,-0.458740234375,0.074951171875,-0.162109375,0.7343999999999999
0.7938931297709924,0.6106870229007634,-0.549618320610687,-0.462158203125,0.076904296875,-0.169921875,0.7361
0.7175572519083969,0.5648854961832062,-0.32061068702290074,-0.455078125,0.07568359375,-0.16845703125,0.7378
0.732824427480916,0.5038167938931297,-0.5343511450381679,-0.45947265625,0.0703125,-0.171630859375,0.7394999999999999
0.9923664122137404,0.549618320610687,-0.4732824427480916,-0.46044921875,0.0693359375,-0.161865234375,0.7412
0.9618320610687023,0.7022900763358778,-0.42748091603053434,-0.456787109375,0.0693359375,-0.16552734375,0.7429
0.916030534351145,0.6870229007633588,-0.549618320610687,-0.459716796875,0.06982421875,-0.1708984375,0.7445999999999999
0.9007633587786259,0.7938931297709924,-0.5190839694656488,-0.4609375,0.071533203125,-0.164306640625,0.7463
1.0229007633587786,0.6870229007633588,-0.3511450381679389,-0.457763671875,0.072265625,-0.159423828125,0.748
1.1145038167938932,0.5801526717557252,-0.5190839694656488,-0.46044921875,0.068359375,-0.16259765625,0.7496999999999999
0.8244274809160306,0.5954198473282443,-0.44274809160305345,-0.45849609375,0.07080078125,-0.16845703125,0.7514
1.099236641221374,0.7633587786259542,-0.549618320610687,-0.45556640625,0.0703125,-0.15478515625,0.7531
1.1145038167938932,0.732824427480916,-0.4580152671755725,-0.454345703125,0.0732421875,-0.160400390625,0.7547999999999999
1.0534351145038168,0.42748091603053434,-0.44274809160305345,-0.4580078125,0.071044921875,-0.166259765625,0.7565
1.2213740458015268,0.6106870229007634,-0.4580152671755725,-0.450927734375,0.072265625,-0.158447265625,0.7582
1.282442748091603,0.7480916030534351,-0.3511450381679389,-0.451416015625,0.07177734375,-0.156494140625,0.7598999999999999
1.2061068702290076,0.7786259541984732,-0.33587786259541985,-0.460693359375,0.068115234375,-0.17919921875,0.7615999999999999
1.3435114503816794,0.7786259541984732,-0.42748091603053434,-0.45849609375,0.071533203125,-0.16455078125,0.7633
1.2366412213740459,0.6106870229007634,-0.2900763358778626,-0.4580078125,0.0703125,-0.163818359375,0.7649999999999999
1.3587786259541985,0.8396946564885496,-0.3969465648854962,-0.45849609375,0.068115234375,-0.15966796875,0.7666999999999999
1.251908396946565,0.732824427480916,-0.3053435114503817,-0.463134765625,0.067626953125,-0.162841796875,0.7684
1.3129770992366412,0.6412213740458015,-0.3969465648854962,-0.460693359375,0.072509765625,-0.16259765625,0.7701
1.3587786259541985,0.7786259541984732,-0.12213740458015267,-0.4580078125,0.072021484375,-0.167236328125,0.7717999999999999
1.1603053435114503,0.7786259541984732,-0.12213740458015267,-0.4560546875,0.067626953125,-0.163330078125,0.7735
1.3129770992366412,0.9312977099236641,-0.10687022900763359,-0.4580078125,0.067626953125,-0.166015625,0.7752
1.5114503816793894,0.7175572519083969,-0.13740458015267176,-0.460205078125,0.0703125,-0.169189453125,0.7768999999999999
1.3893129770992367,0.7175572519083969,0.04580152671755725,-0.45849609375,0.06884765625,-0.167236328125,0.7786
1.4198473282442747,0.7786259541984732,-0.10687022900763359,-0.457275390625,0.070068359375,-0.163330078125,0.7803
1.465648854961832,0.7633587786259542,-0.24427480916030533,-0.458740234375,0.068359375,-0.1533203125,0.7819999999999999
1.3740458015267176,0.6870229007633588,-0.21374045801526717,-0.456787109375,0.07373046875,-0.169189453125,0.7837
1.7251908396946565,0.7786259541984732,0.0,-0.458740234375,0.075439453125,-0.165283203125,0.7854
1.5572519083969465,0.732824427480916,0.0,-0.4560546875,0.06982421875,-0.1669921875,0.7870999999999999
1.282442748091603,0.732824427480916,0.030534351145038167,-0.457763671875,0.075439453125,-0.163818359375,0.7888
1.3740458015267176,0.5954198473282443,-0.061068702290076333,-0.452392578125,0.071533203125,-0.164306640625,0.7905
1.4961832061068703,0.7480916030534351,-0.15267175572519084,-0.4541015625,0.071044921875,-0.161865234375,0.7921999999999999
1.6030534351145038,0.7175572519083969,-0.030534351145038167,-0.456298828125,0.0693359375,-0.157958984375,0.7938999999999999
1.4045801526717556,0.7786259541984732,-0.07633587786259542,-0.460205078125,0.067626953125,-0.175537109375,0.7956
1.5419847328244274,0.8091603053435115,-0.24427480916030533,-0.455810546875,0.071044921875,-0.163330078125,0.7973
1.4809160305343512,0.8091603053435115,-0.030534351145038167,-0.45654296875,0.07080078125,-0.163818359375,0.7989999999999999
1.6488549618320612,0.8091603053435115,-0.183206106870229,-0.45556640625,0.0703125,-0.168701171875,0.8007
1.6641221374045803,0.9312977099236641,-0.21374045801526717,-0.454833984375,0.07177734375,-0.1630859375,0.8024
1.6030534351145038,0.7175572519083969,-0.3969465648854962,-0.4580078125,0.068115234375,-0.16943359375,0.8040999999999999
1.5572519083969465,0.7480916030534351,-0.24427480916030533,-0.462646484375,0.0703125,-0.166259765625,0.8058
1.7557251908396947,0.916030534351145,-0.3816793893129771,-0.459228515625,0.071533203125,-0.169677734375,0.8075
1.6793893129770991,0.9618320610687023,-0.32061068702290074,-0.45751953125,0.066162109375,-0.16748046875,0.8091999999999999
1.7709923664122138,0.7786259541984732,-0.33587786259541985,-0.457763671875,0.073974609375,-0.165283203125,0.8109
1.8778625954198473,0.8244274809160306,-0.48854961832061067,-0.457275390625,0.072021484375,-0.16455078125,0.8126
1.9389312977099236,0.8702290076335878,-0.549618320610687,-0.457275390625,0.07177734375,-0.168701171875,0.8142999999999999
1.9694656488549618,0.9770992366412213,-0.5648854961832062,-0.46044921875,0.074462890625,-0.16748046875,0.816
1.9236641221374047,0.8854961832061069,-0.7175572519083969,-0.46142578125,0.0771484375,-0.170654296875,0.8177
1.9694656488549618,1.083969465648855,-0.7633587786259542,-0.45947265625,0.07373046875,-0.155517578125,0.8193999999999999
2.0610687022900764,1.083969465648855,-0.7480916030534351,-0.459716796875,0.07373046875,-0.158935546875,0.8210999999999999
1.8473282442748091,1.0229007633587786,-0.7022900763358778,-0.455810546875,0.075927734375,-0.169921875,0.8228
1.9541984732824427,1.0076335877862594,-0.7022900763358778,-0.45458984375,0.073486328125,-0.16650390625,0.8244999999999999
2.16793893129771,1.3129770992366412,-0.8091603053435115,-0.462158203125,0.07177734375,-0.169921875,0.8261999999999999
2.1068702290076335,1.0687022900763359,-0.9465648854961832,-0.461181640625,0.072509765625,-0.163330078125,0.8279
1.8778625954198473,1.083969465648855,-0.7786259541984732,-0.4599609375,0.06982421875,-0.173095703125,0.8296
2.122137404580153,1.0534351145038168,-0.7938931297709924,-0.46044921875,0.074951171875,-0.157958984375,0.8312999999999999
2.2900763358778624,1.1297709923664123,-1.0229007633587786,-0.459716796875,0.06982421875,-0.163330078125,0.833
1.9236641221374047,1.2366412213740459,-1.1297709923664123,-0.462158203125,0.07666015625,-0.162353515625,0.8347
2.1526717557251906,1.2366412213740459,-1.2061068702290076,-0.454833984375,0.069580078125,-0.159912109375,0.8363999999999999
2.1526717557251906,1.2213740458015268,-1.2366412213740459,-0.458740234375,0.071533203125,-0.164794921875,0.8381
2.0916030534351147,1.3587786259541985,-1.083969465648855,-0.46142578125,0.0732421875,-0.173828125,0.8398
2.198473282442748,1.282442748091603,-1.2366412213740459,-0.4560546875,0.071533203125,-0.161865234375,0.8414999999999999
2.16793893129771,1.251908396946565,-1.2366412213740459,-0.458251953125,0.06884765625,-0.165283203125,0.8432
2.183206106870229,1.1755725190839694,-1.1145038167938932,-0.458984375,0.068359375,-0.16650390625,0.8449
2.2748091603053435,1.282442748091603,-1.282442748091603,-0.453857421875,0.072021484375,-0.16357421875,0.8465999999999999
2.2900763358778624,1.1450381679389312,-1.3129770992366412,-0.456298828125,0.067626953125,-0.161376953125,0.8482999999999999
2.3053435114503817,1.251908396946565,-1.297709923664122,-0.4599609375,0.071044921875,-0.1689453125,0.85
2.1068702290076335,1.0229007633587786,-1.1297709923664123,-0.457763671875,0.068603515625,-0.17578125,0.8516999999999999
2.015267175572519,0.9465648854961832,-1.282442748091603,-0.45947265625,0.068359375,-0.1611328125,0.8533999999999999
2.183206106870229,1.099236641221374,-1.0076335877862594,-0.461181640625,0.072265625,-0.165283203125,0.8551
1.9389312977099236,1.0381679389312977,-1.0381679389312977,-0.4541015625,0.06884765625,-0.15673828125,0.8568
2.213740458015267,0.9007633587786259,-1.3129770992366412,-0.45556640625,0.071533203125,-0.16357421875,0.8584999999999999
2.1068702290076335,0.9618320610687023,-1.1603053435114503,-0.458740234375,0.067626953125,-0.166015625,0.8602
2.030534351145038,0.8702290076335878,-1.1603053435114503,-0.45947265625,0.0654296875,-0.16015625,0.8619
2.33587786259542,0.8702290076335878,-1.1908396946564885,-0.452880859375,0.074462890625,-0.164306640625,0.8635999999999999
1.9694656488549618,0.7786259541984732,-1.3129770992366412,-0.453369140625,0.068359375,-0.161376953125,0.8653
2.030534351145038,0.7175572519083969,-1.0229007633587786,-0.454345703125,0.068603515625,-0.158935546875,0.867
2.030534351145038,0.8396946564885496,-0.8854961832061069,-0.4521484375,0.070556640625,-0.16650390625,0.8686999999999999
2.183206106870229,0.7175572519083969,-1.1908396946564885,-0.457763671875,0.072509765625,-0.170166015625,0.8704
2.122137404580153,0.732824427480916,-1.2213740458015268,-0.4560546875,0.072509765625,-0.16650390625,0.8721
2.0610687022900764,0.7786259541984732,-1.083969465648855,-0.45751953125,0.07373046875,-0.16552734375,0.8737999999999999
2.0763358778625953,0.549618320610687,-1.0381679389312977,-0.452880859375,0.070556640625,-0.16162109375,0.8755
1.9083969465648856,0.5954198473282443,-1.0229007633587786,-0.456298828125,0.067626953125,-0.15869140625,0.8772
1.9236641221374047,0.5954198473282443,-1.1450381679389312,-0.45751953125,0.075439453125,-0.16796875,0.8788999999999999
1.816793893129771,0.7175572519083969,-1.0687022900763359,-0.45654296875,0.0732421875,-0.169921875,0.8805999999999999
1.8931297709923665,0.7022900763358778,-1.0229007633587786,-0.4560546875,0.068603515625,-0.17041015625,0.8823
1.83206106870229,0.6412213740458015,-0.9007633587786259,-0.454345703125,0.068115234375,-0.16650390625,0.8839999999999999
1.8015267175572518,0.6106870229007634,-0.9312977099236641,-0.45703125,0.067138671875,-0.162109375,0.8856999999999999
2.122137404580153,0.6870229007633588,-1.0381679389312977,-0.4560546875,0.062255859375,-0.16064453125,0.8874
2.045801526717557,0.6870229007633588,-0.9465648854961832,-0.457763671875,0.06689453125,-0.1630859375,0.8891
1.9694656488549618,0.5190839694656488,-0.9923664122137404,-0.457275390625,0.068359375,-0.169677734375,0.8907999999999999
2.030534351145038,0.4732824427480916,-0.9618320610687023,-0.4619140625,0.069580078125,-0.172607421875,0.8925
2.0610687022900764,0.549618320610687,-0.8702290076335878,-0.461669921875,0.06982421875,-0.165283203125,0.8942
1.9541984732824427,0.5954198473282443,-0.7938931297709924,-0.451416015625,0.06884765625,-0.16357421875,0.8958999999999999
1.984732824427481,0.5343511450381679,-1.0534351145038168,-0.45751953125,0.07470703125,-0.16650390625,0.8976
2.16793893129771,0.6412213740458015,-1.1297709923664123,-0.457275390625,0.07421875,-0.174560546875,0.8993
1.816793893129771,0.5648854961832062,-0.9618320610687023,-0.4501953125,0.06884765625,-0.1640625,0.9009999999999999
1.816793893129771,0.5190839694656488,-1.0381679389312977,-0.458740234375,0.06591796875,-0.16259765625,0.9027
1.8931297709923665,0.6259541984732825,-0.9923664122137404,-0.4541015625,0.07177734375,-0.1669921875,0.9044
2.2290076335877864,0.5801526717557252,-0.9923664122137404,-0.45654296875,0.071533203125,-0.168212890625,0.9060999999999999
1.8473282442748091,0.44274809160305345,-1.099236641221374,-0.454833984375,0.072021484375,-0.15771484375,0.9077999999999999
1.9083969465648856,0.5038167938931297,-0.9923664122137404,-0.45263671875,0.0703125,-0.171630859375,0.9095
2.16793893129771,0.5954198473282443,-1.1297709923664123,-0.453369140625,0.066162109375,-0.167236328125,0.9111999999999999
1.7557251908396947,0.4122137404580153,-0.9770992366412213,-0.45068359375,0.068359375,-0.16845703125,0.9128999999999999
1.9694656488549618,0.3816793893129771,-1.0687022900763359,-0.458251953125,0.07666015625,-0.156494140625,0.9146
2.0,0.3053435114503817,-1.0381679389312977,-0.45849609375,0.0732421875,-0.16552734375,0.9163
2.1068702290076335,0.366412213740458,-1.2061068702290076,-0.45849609375,0.06884765625,-0.16162109375,0.9179999999999999
1.984732824427481,0.44274809160305345,-0.9618320610687023,-0.458740234375,0.071044921875,-0.1669921875,0.9197
2.015267175572519,0.4580152671755725,-1.1755725190839694,-0.448974609375,0.06982421875,-0.1669921875,0.9214
1.9541984732824427,0.4580152671755725,-1.0229007633587786,-0.451904296875,0.067138671875,-0.16259765625,0.9230999999999999
1.9236641221374047,0.6870229007633588,-1.099236641221374,-0.452392578125,0.071533203125,-0.168212890625,0.9248
1.83206106870229,0.5648854961832062,-1.1755725190839694,-0.45849609375,0.06396484375,-0.16748046875,0.9265
1.8015267175572518,0.4122137404580153,-1.2213740458015268,-0.45654296875,0.0703125,-0.164306640625,0.9281999999999999
1.8473282442748091,0.5038167938931297,-1.1145038167938932,-0.46044921875,0.063720703125,-0.16650390625,0.9299
1.7557251908396947,0.549618320610687,-1.1450381679389312,-0.45556640625,0.0712890625,-0.166259765625,0.9316
1.9389312977099236,0.5343511450381679,-0.9618320610687023,-0.455810546875,0.070068359375,-0.164306640625,0.9332999999999999
1.7557251908396947,0.42748091603053434,-0.9770992366412213,-0.453125,0.067138671875,-0.159423828125,0.9349999999999999
1.8778625954198473,0.44274809160305345,-0.9618320610687023,-0.45751953125,0.070068359375,-0.1669921875,0.9367
1.6641221374045803,0.48854961832061067,-1.099236641221374,-0.4560546875,0.07080078125,-0.155517578125,0.9383999999999999
1.7557251908396947,0.5038167938931297,-0.9007633587786259,-0.4560546875,0.064208984375,-0.162109375,0.9400999999999999
1.83206106870229,0.2748091603053435,-1.0229007633587786,-0.45361328125,0.067626953125,-0.164306640625,0.9418
1.6946564885496183,0.4580152671755725,-1.0076335877862594,-0.452880859375,0.069091796875,-0.1591796875,0.9434999999999999
1.6488549618320612,0.5190839694656488,-1.099236641221374,-0.455810546875,0.06591796875,-0.163818359375,0.9451999999999999
1.5877862595419847,0.5648854961832062,-1.0229007633587786,-0.45751953125,0.066650390625,-0.161865234375,0.9469
1.6641221374045803,0.6412213740458015,-1.083969465648855,-0.457763671875,0.06787109375,-0.163330078125,0.9486
1.4961832061068703,0.6870229007633588,-1.083969465648855,-0.459228515625,0.069580078125,-0.17236328125,0.9502999999999999
1.618320610687023,0.7175572519083969,-1.1908396946564885,-0.45947265625,0.064697265625,-0.167724609375,0.952
1.5114503816793894,0.732824427480916,-1.0687022900763359,-0.4541015625,0.06640625,-0.16455078125,0.9537
1.3893129770992367,0.732824427480916,-0.9770992366412213,-0.455322265625,0.068359375,-0.160888671875,0.9553999999999999
1.4351145038167938,0.7480916030534351,-0.7786259541984732,-0.45751953125,0.06884765625,-0.168701171875,0.9571
1.5725190839694656,1.0076335877862594,-1.0381679389312977,-0.4580078125,0.065673828125,-0.16064453125,0.9588
1.3435114503816794,0.8702290076335878,-0.8091603053435115,-0.460205078125,0.068359375,-0.164306640625,0.9604999999999999
1.1450381679389312,0.8702290076335878,-1.0076335877862594,-0.459228515625,0.0693359375,-0.168701171875,0.9621999999999999
1.1603053435114503,0.8244274809160306,-0.8244274809160306,-0.4541015625,0.068115234375,-0.16650390625,0.9639
1.3893129770992367,1.0534351145038168,-0.916030534351145,-0.458984375,0.068115234375,-0.166015625,0.9655999999999999
1.1755725190839694,1.099236641221374,-0.7480916030534351,-0.45654296875,0.062255859375,-0.168701171875,0.9672999999999999
1.1755725190839694,1.083969465648855,-1.083969465648855,-0.462158203125,0.067626953125,-0.166748046875,0.969
1.1755725190839694,1.1297709923664123,-0.9618320610687023,-0.459716796875,0.068359375,-0.162109375,0.9706999999999999
0.9770992366412213,1.083969465648855,-1.0229007633587786,-0.458984375,0.0712890625,-0.158447265625,0.9723999999999999
1.1450381679389312,1.1908396946564885,-0.8854961832061069,-0.461181640625,0.06591796875,-0.160888671875,0.9741
0.9007633587786259,1.251908396946565,-0.8244274809160306,-0.461181640625,0.069091796875,-0.16796875,0.9758
1.099236641221374,1.251908396946565,-0.7786259541984732,-0.45556640625,0.07275390625,-0.167724609375,0.9774999999999999
1.1145038167938932,1.1755725190839694,-0.8854961832061069,-0.459228515625,0.06640625,-0.163330078125,0.9792
1.1297709923664123,1.1908396946564885,-0.7022900763358778,-0.461669921875,0.066162109375,-0.15673828125,0.9809
0.7938931297709924,1.1908396946564885,-0.9923664122137404,-0.45751953125,0.067626953125,-0.16015625,0.9825999999999999
0.8244274809160306,1.1450381679389312,-0.7786259541984732,-0.45849609375,0.071533203125,-0.163330078125,0.9843
0.7633587786259542,1.2366412213740459,-0.8244274809160306,-0.45458984375,0.0703125,-0.16455078125,0.986
0.9618320610687023,1.3587786259541985,-0.7633587786259542,-0.457763671875,0.07177734375,-0.157470703125,0.9876999999999999
0.8854961832061069,1.3587786259541985,-0.6717557251908397,-0.4619140625,0.06884765625,-0.1513671875,0.9894
0.6717557251908397,1.4045801526717556,-0.7633587786259542,-0.461669921875,0.0693359375,-0.15625,0.9911
0.6870229007633588,1.297709923664122,-0.8396946564885496,-0.45263671875,0.07080078125,-0.16845703125,0.9927999999999999
0.7633587786259542,1.3129770992366412,-0.8091603053435115,-0.456787109375,0.067138671875,-0.170166015625,0.9944999999999999
0.8549618320610687,1.2671755725190839,-0.7175572519083969,-0.457763671875,0.07275390625,-0.16259765625,0.9962
0.5801526717557252,1.4045801526717556,-0.7480916030534351,-0.460693359375,0.06884765625,-0.162353515625,0.9978999999999999
0.5190839694656488,1.3893129770992367,-0.7633587786259542,-0.45849609375,0.0654296875,-0.16796875,0.9995999999999999
0.6259541984732825,1.2671755725190839,-0.8091603053435115,-0.456787109375,0.064208984375,-0.1728515625,1.0012999999999999
0.549618320610687,1.3893129770992367,-0.7938931297709924,-0.458984375,0.06982421875,-0.16259765625,1.003
0.5343511450381679,1.5419847328244274,-0.732824427480916,-0.455078125,0.0673828125,-0.16259765625,1.0047
0.42748091603053434,1.3740458015267176,-0.7633587786259542,-0.45458984375,0.069580078125,-0.16650390625,1.0064
0.549618320610687,1.450381679389313,-0.7786259541984732,-0.4580078125,0.061767578125,-0.166259765625,1.0081
0.5190839694656488,1.3435114503816794,-0.8854961832061069,-0.462890625,0.068115234375,-0.169921875,1.0098
0.32061068702290074,1.2671755725190839,-0.916030534351145,-0.462158203125,0.0703125,-0.17529296875,1.0114999999999998
0.42748091603053434,1.251908396946565,-0.7175572519083969,-0.459716796875,0.071044921875,-0.1611328125,1.0131999999999999
0.5801526717557252,1.3435114503816794,-0.7938931297709924,-0.45751953125,0.071533203125,-0.16650390625,1.0149
0.1984732824427481,1.282442748091603,-0.9007633587786259,-0.458984375,0.071044921875,-0.16455078125,1.0166
0.366412213740458,1.3740458015267176,-0.7022900763358778,-0.453369140625,0.07373046875,-0.162841796875,1.0183
0.24427480916030533,1.282442748091603,-0.6564885496183206,-0.4599609375,0.06640625,-0.167236328125,1.02
0.32061068702290074,1.1145038167938932,-0.5190839694656488,-0.459228515625,0.072021484375,-0.17041015625,1.0217
0.21374045801526717,1.4351145038167938,-0.6564885496183206,-0.462890625,0.06591796875,-0.16845703125,1.0233999999999999
0.10687022900763359,1.2366412213740459,-0.6259541984732825,-0.460205078125,0.069091796875,-0.16259765625,1.0251
0.32061068702290074,1.2061068702290076,-0.6259541984732825,-0.458984375,0.0751953125,-0.165771484375,1.0268
0.10687022900763359,1.282442748091603,-0.44274809160305345,-0.459228515625,0.0712890625,-0.162353515625,1.0285
0.2595419847328244,1.1297709923664123,-0.5038167938931297,-0.454833984375,0.07177734375,-0.166259765625,1.0302
0.10687022900763359,1.1145038167938932,-0.6564885496183206,-0.456298828125,0.071044921875,-0.16845703125,1.0319
0.015267175572519083,1.2213740458015268,-0.6717557251908397,-0.45654296875,0.075439453125,-0.167724609375,1.0335999999999999
-0.07633587786259542,1.2671755725190839,-0.4732824427480916,-0.460205078125,0.072998046875,-0.166259765625,1.0352999999999999
-0.10687022900763359,1.1297709923664123,-0.5648854961832062,-0.455322265625,0.0712890625,-0.165283203125,1.037
0.13740458015267176,1.3893129770992367,-0.3969465648854962,-0.464599609375,0.06884765625,-0.163330078125,1.0387
-0.030534351145038167,1.251908396946565,-0.2900763358778626,-0.458740234375,0.0693359375,-0.164306640625,1.0404
0.13740458015267176,1.1908396946564885,-0.5343511450381679,-0.457763671875,0.063720703125,-0.169189453125,1.0421
0.12213740458015267,1.1908396946564885,-0.3969465648854962,-0.45458984375,0.068115234375,-0.1669921875,1.0437999999999998
-0.0916030534351145,1.2366412213740459,-0.3511450381679389,-0.4599609375,0.06640625,-0.168212890625,1.0454999999999999
-0.1984732824427481,1.1755725190839694,-0.5343511450381679,-0.4599609375,0.068603515625,-0.1669921875,1.0472
0.04580152671755725,1.0534351145038168,-0.5190839694656488,-0.4560546875,0.070556640625,-0.158447265625,1.0489
-0.015267175572519083,1.1297709923664123,-0.2748091603053435,-0.45556640625,0.06884765625,-0.162841796875,1.0506
0.0,1.251908396946565,-0.183206106870229,-0.456298828125,0.071533203125,-0.162353515625,1.0523
-0.15267175572519084,1.1297709923664123,-0.2748091603053435,-0.456787109375,0.069091796875,-0.16015625,1.054
-0.16793893129770993,1.251908396946565,-0.33587786259541985,-0.456298828125,0.067626953125,-0.169921875,1.0556999999999999
0.030534351145038167,1.3587786259541985,-0.1984732824427481,-0.458984375,0.0703125,-0.1611328125,1.0574
0.0,1.282442748091603,-0.24427480916030533,-0.456787109375,0.071533203125,-0.159423828125,1.0591
0.030534351145038167,1.1603053435114503,-0.366412213740458,-0.46240234375,0.06787109375,-0.16015625,1.0608
0.13740458015267176,1.2213740458015268,-0.42748091603053434,-0.46240234375,0.0703125,-0.17333984375,1.0625
-0.22900763358778625,1.2213740458015268,-0.3511450381679389,-0.45556640625,0.074951171875,-0.16748046875,1.0642
-0.1984732824427481,1.0229007633587786,-0.1984732824427481,-0.454345703125,0.072021484375,-0.1650390625,1.0658999999999998
-0.030534351145038167,0.7786259541984732,-0.24427480916030533,-0.453369140625,0.0693359375,-0.162109375,1.0675999999999999
-0.04580152671755725,0.9618320610687023,-0.2748091603053435,-0.4560546875,0.0654296875,-0.15576171875,1.0693
0.015267175572519083,0.8396946564885496,-0.12213740458015267,-0.453857421875,0.07373046875,-0.162109375,1.071
-0.16793893129770993,0.8549618320610687,-0.3511450381679389,-0.455322265625,0.0712890625,-0.162109375,1.0727
0.015267175572519083,0.6564885496183206,0.04580152671755725,-0.457763671875,0.072021484375,-0.158935546875,1.0744
-0.030534351145038167,0.7633587786259542,-0.061068702290076333,-0.454345703125,0.072509765625,-0.166015625,1.0760999999999998
0.07633587786259542,1.0381679389312977,-0.07633587786259542,-0.461181640625,0.075439453125,-0.162109375,1.0777999999999999
-0.13740458015267176,0.9618320610687023,-0.04580152671755725,-0.4580078125,0.072998046875,-0.17138671875,1.0795
0.030534351145038167,1.1297709923664123,-0.07633587786259542,-0.458740234375,0.073486328125,-0.15869140625,1.0812
0.04580152671755725,0.9312977099236641,-0.13740458015267176,-0.45703125,0.0654296875,-0.1611328125,1.0829
0.04580152671755725,1.099236641221374,-0.07633587786259542,-0.458984375,0.0712890625,-0.157470703125,1.0846
0.030534351145038167,1.2061068702290076,-0.15267175572519084,-0.45361328125,0.073974609375,-0.167724609375,1.0863
0.015267175572519083,1.0076335877862594,0.015267175572519083,-0.4521484375,0.076416015625,-0.167236328125,1.0879999999999999
0.10687022900763359,1.099236641221374,-0.030534351145038167,-0.4560546875,0.0751953125,-0.162841796875,1.0897
0.04580152671755725,1.2213740458015268,0.061068702290076333,-0.458740234375,0.072509765625,-0.167236328125,1.0914
0.13740458015267176,1.1450381679389312,0.10687022900763359,-0.456787109375,0.073974609375,-0.17041015625,1.0931
-0.061068702290076333,1.1450381679389312,0.030534351145038167,-0.460205078125,0.07373046875,-0.170166015625,1.0948
0.07633587786259542,1.1297709923664123,0.015267175572519083,-0.46044921875,0.07568359375,-0.1650390625,1.0965
0.0,1.099236641221374,-0.015267175572519083,-0.45751953125,0.076904296875,-0.169677734375,1.0981999999999998
0.12213740458015267,1.0534351145038168,0.0,-0.45361328125,0.069580078125,-0.168212890625,1.0998999999999999
0.0,1.1450381679389312,0.0,-0.4580078125,0.072509765625,-0.169677734375,1.1016
-0.10687022900763359,1.1145038167938932,-0.3053435114503817,-0.45263671875,0.071044921875,-0.17578125,1.1033
0.07633587786259542,1.2671755725190839,-0.16793893129770993,-0.454833984375,0.076171875,-0.169189453125,1.105
0.2748091603053435,1.2061068702290076,-0.3511450381679389,-0.455322265625,0.0712890625,-0.172607421875,1.1067
0.22900763358778625,1.1297709923664123,-0.2900763358778626,-0.460205078125,0.072021484375,-0.16650390625,1.1083999999999998
0.2900763358778626,1.2671755725190839,-0.2748091603053435,-0.45947265625,0.07763671875,-0.169189453125,1.1100999999999999
0.24427480916030533,1.2671755725190839,-0.3969465648854962,-0.45458984375,0.076416015625,-0.174072265625,1.1118
0.2748091603053435,1.297709923664122,-0.4732824427480916,-0.45654296875,0.075927734375,-0.1611328125,1.1135
0.5648854961832062,1.450381679389313,-0.4580152671755725,-0.460205078125,0.076904296875,-0.15966796875,1.1152
0.3816793893129771,1.3740458015267176,-0.5648854961832062,-0.457763671875,0.072998046875,-0.159423828125,1.1169
0.1984732824427481,1.3740458015267176,-0.549618320610687,-0.45556640625,0.074951171875,-0.160888671875,1.1186
0.3053435114503817,1.2671755725190839,-0.44274809160305345,-0.456298828125,0.074462890625,-0.158935546875,1.1202999999999999
0.5954198473282443,1.4198473282442747,-0.4122137404580153,-0.455810546875,0.06884765625,-0.1669921875,1.1219999999999999
0.5648854961832062,1.5267175572519085,-0.6412213740458015,-0.453857421875,0.074462890625,-0.169677734375,1.1237
0.5343511450381679,1.3587786259541985,-0.5648854961832062,-0.454833984375,0.072509765625,-0.166015625,1.1254
0.5190839694656488,1.4045801526717556,-0.6106870229007634,-0.458740234375,0.076416015625,-0.17138671875,1.1271
0.7175572519083969,1.618320610687023,-0.6717557251908397,-0.45703125,0.077392578125,-0.17236328125,1.1288
0.6717557251908397,1.3893129770992367,-0.7480916030534351,-0.457275390625,0.0771484375,-0.164794921875,1.1304999999999998
0.5801526717557252,1.4351145038167938,-0.6412213740458015,-0.451904296875,0.0771484375,-0.170166015625,1.1321999999999999
0.9312977099236641,1.5267175572519085,-0.6412213740458015,-0.455322265625,0.076904296875,-0.166259765625,1.1339
0.7938931297709924,1.5114503816793894,-0.6106870229007634,-0.460205078125,0.076416015625,-0.158203125,1.1356
0.5954198473282443,1.4961832061068703,-0.8396946564885496,-0.457763671875,0.078369140625,-0.162109375,1.1373
0.8244274809160306,1.4961832061068703,-0.6259541984732825,-0.456298828125,0.079833984375,-0.170654296875,1.139
1.0229007633587786,1.5419847328244274,-0.8091603053435115,-0.4521484375,0.079345703125,-0.16748046875,1.1407
1.0076335877862594,1.5572519083969465,-0.5038167938931297,-0.45556640625,0.074462890625,-0.16162109375,1.1423999999999999
0.9007633587786259,1.6488549618320612,-0.7938931297709924,-0.4560546875,0.07763671875,-0.166748046875,1.1441
0.8091603053435115,1.7709923664122138,-0.6106870229007634,-0.4599609375,0.07666015625,-0.1689453125,1.1458
0.9618320610687023,1.618320610687023,-0.5954198473282443,-0.45458984375,0.079833984375,-0.157470703125,1.1475
1.0229007633587786,1.6793893129770991,-0.5954198473282443,-0.459228515625,0.07763671875,-0.169189453125,1.1492
1.0381679389312977,1.6488549618320612,-0.732824427480916,-0.458984375,0.07470703125,-0.16259765625,1.1509
0.9770992366412213,1.9541984732824427,-0.6106870229007634,-0.458740234375,0.0703125,-0.170654296875,1.1525999999999998
0.9465648854961832,1.816793893129771,-0.5343511450381679,-0.462646484375,0.076904296875,-0.16748046875,1.1542999999999999
0.9770992366412213,1.9389312977099236,-0.4580152671755725,-0.455322265625,0.07568359375,-0.1630859375,1.156
1.083969465648855,1.8778625954198473,-0.7938931297709924,-0.45849609375,0.07470703125,-0.15771484375,1.1577
1.0229007633587786,1.8473282442748091,-0.5038167938931297,-0.460693359375,0.075439453125,-0.1611328125,1.1594
1.1450381679389312,1.8015267175572518,-0.549618320610687,-0.458984375,0.072021484375,-0.162109375,1.1611
1.0534351145038168,1.8473282442748091,-0.5038167938931297,-0.45458984375,0.070556640625,-0.16162109375,1.1627999999999998
0.9007633587786259,1.8473282442748091,-0.44274809160305345,-0.462158203125,0.0751953125,-0.173583984375,1.1644999999999999
1.2671755725190839,1.8625954198473282,-0.3053435114503817,-0.45849609375,0.074951171875,-0.16845703125,1.1662
1.3129770992366412,1.8625954198473282,-0.5954198473282443,-0.45751953125,0.075439453125,-0.168701171875,1.1679
1.2213740458015268,1.9083969465648856,-0.5190839694656488,-0.459716796875,0.079345703125,-0.166015625,1.1696
1.1603053435114503,1.816793893129771,-0.4122137404580153,-0.455322265625,0.07958984375,-0.160400390625,1.1713
1.2366412213740459,1.7557251908396947,-0.2595419847328244,-0.454345703125,0.076904296875,-0.16064453125,1.173
1.5114503816793894,1.9389312977099236,-0.5038167938931297,-0.454345703125,0.07568359375,-0.16796875,1.1746999999999999
1.282442748091603,1.984732824427481,-0.32061068702290074,-0.456787109375,0.0751953125,-0.16943359375,1.1764
1.4045801526717556,1.9389312977099236,-0.5954198473282443,-0.45703125,0.08203125,-0.164306640625,1.1781
1.4961832061068703,2.045801526717557,-0.549618320610687,-0.460693359375,0.07373046875,-0.16748046875,1.1798
1.4809160305343512,1.9389312977099236,-0.5038167938931297,-0.458251953125,0.073974609375,-0.16943359375,1.1815
1.5419847328244274,1.9083969465648856,-0.5190839694656488,-0.45556640625,0.0732421875,-0.16064453125,1.1832
1.3893129770992367,1.9389312977099236,-0.6106870229007634,-0.45654296875,0.073486328125,-0.161865234375,1.1848999999999998
1.4961832061068703,1.9236641221374047,-0.4732824427480916,-0.453369140625,0.079345703125,-0.17431640625,1.1865999999999999
1.4045801526717556,2.0763358778625953,-0.7022900763358778,-0.454833984375,0.075439453125,-0.1650390625,1.1883
1.816793893129771,2.045801526717557,-0.4580152671755725,-0.454345703125,0.076416015625,-0.164794921875,1.19
1.8931297709923665,2.015267175572519,-0.8854961832061069,-0.45361328125,0.07470703125,-0.163330078125,1.1917
1.816793893129771,1.83206106870229,-0.6259541984732825,-0.460693359375,0.0703125,-0.16796875,1.1934
1.8015267175572518,2.0763358778625953,-0.6870229007633588,-0.45703125,0.072021484375,-0.1689453125,1.1950999999999998
1.5725190839694656,1.9236641221374047,-0.6717557251908397,-0.456298828125,0.069580078125,-0.16357421875,1.1967999999999999
1.9236641221374047,1.9389312977099236,-0.8396946564885496,-0.45556640625,0.07470703125,-0.165283203125,1.1985
1.8778625954198473,1.9694656488549618,-0.8091603053435115,-0.461669921875,0.0693359375,-0.1650390625,1.2002
1.8931297709923665,2.0610687022900764,-0.6870229007633588,-0.459228515625,0.074951171875,-0.162109375,1.2019
1.9083969465648856,2.015267175572519,-0.7480916030534351,-0.456298828125,0.07568359375,-0.157958984375,1.2036
1.8015267175572518,2.0610687022900764,-0.7022900763358778,-0.45263671875,0.079345703125,-0.16796875,1.2053
1.8931297709923665,2.030534351145038,-0.8854961832061069,-0.45654296875,0.07958984375,-0.16796875,1.2069999999999999
2.1526717557251906,1.9694656488549618,-0.7480916030534351,-0.462158203125,0.07080078125,-0.173828125,1.2086999999999999
2.0763358778625953,1.8778625954198473,-0.7786259541984732,-0.458984375,0.075927734375,-0.164306640625,1.2104
2.2290076335877864,2.122137404580153,-0.9618320610687023,-0.45263671875,0.07421875,-0.161865234375,1.2121
2.0763358778625953,2.183206106870229,-0.7480916030534351,-0.45947265625,0.07470703125,-0.165283203125,1.2138
2.2442748091603053,1.8473282442748091,-0.7022900763358778,-0.45458984375,0.07470703125,-0.160400390625,1.2155
2.33587786259542,1.9236641221374047,-0.8396946564885496,-0.4599609375,0.075927734375,-0.167724609375,1.2171999999999998
2.0916030534351147,2.16793893129771,-0.9465648854961832,-0.457763671875,0.07275390625,-0.163818359375,1.2188999999999999
2.0610687022900764,2.2290076335877864,-0.8702290076335878,-0.456787109375,0.07421875,-0.162353515625,1.2206
2.198473282442748,2.1068702290076335,-0.8854961832061069,-0.4638671875,0.0712890625,-0.16845703125,1.2223
2.519083969465649,2.1526717557251906,-0.9007633587786259,-0.45947265625,0.07958984375,-0.161376953125,1.224
2.2442748091603053,2.2595419847328246,-0.7786259541984732,-0.457275390625,0.073486328125,-0.1669921875,1.2257
2.183206106870229,2.198473282442748,-0.9770992366412213,-0.455322265625,0.075927734375,-0.1630859375,1.2273999999999998
2.2595419847328246,2.3206106870229006,-1.099236641221374,-0.454833984375,0.078857421875,-0.16845703125,1.2290999999999999
2.3206106870229006,2.2595419847328246,-0.9770992366412213,-0.457275390625,0.079833984375,-0.1689453125,1.2308
2.519083969465649,2.1526717557251906,-0.9465648854961832,-0.454833984375,0.0712890625,-0.167724609375,1.2325
2.4732824427480917,2.122137404580153,-0.8854961832061069,-0.455322265625,0.071533203125,-0.171142578125,1.2342
2.549618320610687,2.2595419847328246,-0.8854961832061069,-0.454345703125,0.07421875,-0.172119140625,1.2359
2.5343511450381677,2.213740458015267,-0.8091603053435115,-0.451171875,0.0791015625,-0.169189453125,1.2376
2.4427480916030535,2.1526717557251906,-0.7480916030534351,-0.451904296875,0.07275390625,-0.162841796875,1.2392999999999998
2.4427480916030535,2.3969465648854964,-1.0076335877862594,-0.457275390625,0.0771484375,-0.166015625,1.2409999999999999
2.5801526717557253,2.2900763358778624,-0.9312977099236641,-0.458740234375,0.0732421875,-0.169921875,1.2427
2.50381679389313,2.381679389312977,-1.0687022900763359,-0.45703125,0.06884765625,-0.163330078125,1.2444
2.50381679389313,2.427480916030534,-0.9312977099236641,-0.455078125,0.075439453125,-0.1611328125,1.2461
2.4732824427480917,2.33587786259542,-1.1145038167938932,-0.456298828125,0.076416015625,-0.164794921875,1.2478
2.687022900763359,2.351145038167939,-0.9618320610687023,-0.45556640625,0.07373046875,-0.17724609375,1.2494999999999998
2.5343511450381677,2.1526717557251906,-1.0076335877862594,-0.455078125,0.072509765625,-0.171142578125,1.2511999999999999
2.50381679389313,2.3206106870229006,-1.0687022900763359,-0.45361328125,0.072998046875,-0.168212890625,1.2529
2.7786259541984735,2.351145038167939,-1.0534351145038168,-0.4560546875,0.074951171875,-0.166015625,1.2546
2.6564885496183206,2.366412213740458,-1.1297709923664123,-0.458984375,0.072509765625,-0.1748046875,1.2563
2.732824427480916,2.4580152671755724,-1.2366412213740459,-0.457275390625,0.072998046875,-0.162353515625,1.258
2.6412213740458017,2.366412213740458,-0.9618320610687023,-0.453857421875,0.0732421875,-0.17333984375,1.2596999999999998
2.5801526717557253,2.366412213740458,-1.1297709923664123,-0.4560546875,0.076416015625,-0.159423828125,1.2613999999999999
2.6717557251908395,2.2442748091603053,-1.1603053435114503,-0.4560546875,0.078125,-0.161865234375,1.2631
2.564885496183206,2.427480916030534,-1.1145038167938932,-0.453857421875,0.0771484375,-0.1640625,1.2648
2.595419847328244,2.427480916030534,-1.0687022900763359,-0.45263671875,0.073486328125,-0.172607421875,1.2665
2.732824427480916,2.381679389312977,-1.2061068702290076,-0.458251953125,0.075927734375,-0.1728515625,1.2682
2.7022900763358777,2.2900763358778624,-1.0687022900763359,-0.455078125,0.07275390625,-0.168701171875,1.2699
2.4122137404580153,2.427480916030534,-1.2061068702290076,-0.45361328125,0.07275390625,-0.168701171875,1.2715999999999998
2.5343511450381677,2.3206106870229006,-1.2061068702290076,-0.455322265625,0.077880859375,-0.1669921875,1.2732999999999999
2.4122137404580153,2.3969465648854964,-1.297709923664122,-0.452392578125,0.07421875,-0.159423828125,1.275
2.717557251908397,2.3053435114503817,-0.9770992366412213,-0.459716796875,0.0693359375,-0.16552734375,1.2767
2.6106870229007635,2.3206106870229006,-1.2671755725190839,-0.4560546875,0.072509765625,-0.163330078125,1.2784
2.6564885496183206,2.2290076335877864,-1.3129770992366412,-0.45361328125,0.07373046875,-0.162109375,1.2801
2.7022900763358777,2.2595419847328246,-1.465648854961832,-0.455810546875,0.0771484375,-0.165283203125,1.2817999999999998
2.717557251908397,2.2595419847328246,-1.297709923664122,-0.45556640625,0.0771484375,-0.170166015625,1.2834999999999999
2.7938931297709924,2.3053435114503817,-1.3740458015267176,-0.45703125,0.068603515625,-0.170654296875,1.2852
2.5801526717557253,2.366412213740458,-1.2061068702290076,-0.44921875,0.073974609375,-0.17041015625,1.2869
2.4885496183206106,2.2595419847328246,-1.4045801526717556,-0.455078125,0.07568359375,-0.171630859375,1.2886
2.6259541984732824,2.122137404580153,-1.2213740458015268,-0.454833984375,0.06884765625,-0.17236328125,1.2903
2.5343511450381677,2.213740458015267,-1.465648854961832,-0.45654296875,0.07275390625,-0.1708984375,1.292
2.6412213740458017,2.0610687022900764,-1.282442748091603,-0.45458984375,0.07421875,-0.168701171875,1.2936999999999999
2.687022900763359,2.0763358778625953,-1.3435114503816794,-0.45556640625,0.07275390625,-0.170166015625,1.2953999999999999
2.4580152671755724,2.0610687022900764,-1.2366412213740459,-0.453125,0.069580078125,-0.169677734375,1.2971
2.4885496183206106,2.0,-1.5419847328244274,-0.45361328125,0.070068359375,-0.16748046875,1.2988
2.7022900763358777,2.0610687022900764,-1.3893129770992367,-0.452392578125,0.0712890625,-0.182861328125,1.3005
2.564885496183206,2.015267175572519,-1.5572519083969465,-0.452880859375,0.0703125,-0.17919921875,1.3022
2.6564885496183206,1.9389312977099236,-1.4961832061068703,-0.45849609375,0.0732421875,-0.169677734375,1.3038999999999998
2.6259541984732824,1.9694656488549618,-1.5114503816793894,-0.4541015625,0.072509765625,-0.17138671875,1.3055999999999999
2.6106870229007635,1.8931297709923665,-1.2671755725190839,-0.457275390625,0.074462890625,-0.168212890625,1.3073
2.564885496183206,1.9694656488549618,-1.3893129770992367,-0.456298828125,0.07958984375,-0.1640625,1.309
2.6564885496183206,1.8778625954198473,-1.4961832061068703,-0.455810546875,0.074462890625,-0.167724609375,1.3107
2.8396946564885495,1.9083969465648856,-1.3129770992366412,-0.45703125,0.0712890625,-0.17333984375,1.3124
2.717557251908397,1.7557251908396947,-1.1297709923664123,-0.4521484375,0.071044921875,-0.1767578125,1.3140999999999998
2.5801526717557253,1.8931297709923665,-1.5572519083969465,-0.453857421875,0.07275390625,-0.172119140625,1.3157999999999999
2.549618320610687,1.83206106870229,-1.4198473282442747,-0.454833984375,0.072021484375,-0.169921875,1.3175
2.732824427480916,1.6030534351145038,-1.5419847328244274,-0.4541015625,0.069091796875,-0.178466796875,1.3192
2.5343511450381677,1.7404580152671756,-1.3435114503816794,-0.454833984375,0.0732421875,-0.170654296875,1.3209
2.564885496183206,1.7404580152671756,-1.3129770992366412,-0.461669921875,0.07373046875,-0.16748046875,1.3226
2.6564885496183206,1.7251908396946565,-1.4351145038167938,-0.45458984375,0.071533203125,-0.170654296875,1.3243
2.595419847328244,1.6488549618320612,-1.5114503816793894,-0.45458984375,0.068603515625,-0.172119140625,1.3259999999999998
2.6106870229007635,1.5114503816793894,-1.251908396946565,-0.457763671875,0.070556640625,-0.1689453125,1.3276999999999999
2.7938931297709924,1.6488549618320612,-1.3740458015267176,-0.456298828125,0.073486328125,-0.1650390625,1.3294
2.7938931297709924,1.4198473282442747,-1.3435114503816794,-0.4482421875,0.071044921875,-0.1650390625,1.3311
2.7022900763358777,1.5267175572519085,-1.3587786259541985,-0.4580078125,0.07177734375,-0.177490234375,1.3328
2.519083969465649,1.4198473282442747,-1.2671755725190839,-0.45703125,0.07177734375,-0.16748046875,1.3345
2.595419847328244,1.3893129770992367,-1.251908396946565,-0.45849609375,0.071044921875,-0.172119140625,1.3361999999999998
2.519083969465649,1.4351145038167938,-1.083969465648855,-0.457275390625,0.0654296875,-0.16748046875,1.3378999999999999
2.7786259541984735,1.465648854961832,-1.282442748091603,-0.451416015625,0.07373046875,-0.172119140625,1.3396
2.732824427480916,1.2671755725190839,-1.297709923664122,-0.453857421875,0.06884765625,-0.1748046875,1.3413
2.5343511450381677,1.1908396946564885,-1.3282442748091603,-0.454833984375,0.074951171875,-0.171875,1.343
2.595419847328244,1.1908396946564885,-1.1755725190839694,-0.457763671875,0.072998046875,-0.16943359375,1.3447
2.6564885496183206,1.3129770992366412,-1.282442748091603,-0.45458984375,0.0732421875,-0.171630859375,1.3463999999999998
2.564885496183206,1.2671755725190839,-1.1297709923664123,-0.456787109375,0.07275390625,-0.17529296875,1.3480999999999999
2.7938931297709924,1.251908396946565,-1.1297709923664123,-0.459716796875,0.07373046875,-0.17333984375,1.3497999999999999
2.564885496183206,1.2213740458015268,-1.1603053435114503,-0.452880859375,0.073486328125,-0.177978515625,1.3515
2.595419847328244,1.1145038167938932,-1.3282442748091603,-0.455078125,0.073486328125,-0.166015625,1.3532
2.717557251908397,1.1755725190839694,-1.3129770992366412,-0.454833984375,0.073974609375,-0.173583984375,1.3549
2.6564885496183206,1.297709923664122,-0.9618320610687023,-0.459228515625,0.07568359375,-0.15966796875,1.3566
2.564885496183206,1.297709923664122,-1.0534351145038168,-0.456298828125,0.077392578125,-0.173583984375,1.3582999999999998
2.5343511450381677,1.3129770992366412,-1.2061068702290076,-0.453369140625,0.066162109375,-0.17919921875,1.3599999999999999
2.5343511450381677,1.2213740458015268,-1.1908396946564885,-0.458251953125,0.070556640625,-0.162841796875,1.3617
2.5343511450381677,1.2213740458015268,-1.1908396946564885,-0.4580078125,0.07421875,-0.16943359375,1.3634
2.564885496183206,1.251908396946565,-1.083969465648855,-0.456787109375,0.07421875,-0.170166015625,1.3651
2.8091603053435112,1.1603053435114503,-1.0687022900763359,-0.45556640625,0.067626953125,-0.171142578125,1.3668
2.5801526717557253,1.0381679389312977,-1.083969465648855,-0.45654296875,0.071044921875,-0.169677734375,1.3684999999999998
2.6412213740458017,1.083969465648855,-1.0229007633587786,-0.456787109375,0.074951171875,-0.1767578125,1.3701999999999999
2.519083969465649,1.0534351145038168,-1.083969465648855,-0.455810546875,0.072265625,-0.165283203125,1.3719
2.519083969465649,1.0687022900763359,-1.1755725190839694,-0.45751953125,0.071533203125,-0.18115234375,1.3736
2.6106870229007635,1.1908396946564885,-0.9618320610687023,-0.456298828125,0.068359375,-0.17578125,1.3753
2.5801526717557253,1.0229007633587786,-0.9007633587786259,-0.452880859375,0.06982421875,-0.171630859375,1.377
2.3969465648854964,1.083969465648855,-1.0687022900763359,-0.458740234375,0.069580078125,-0.167724609375,1.3786999999999998
2.366412213740458,0.9770992366412213,-0.916030534351145,-0.460693359375,0.0732421875,-0.1708984375,1.3803999999999998
2.4732824427480917,0.9923664122137404,-0.8244274809160306,-0.458740234375,0.07177734375,-0.17236328125,1.3820999999999999
2.549618320610687,1.099236641221374,-0.6870229007633588,-0.4541015625,0.072998046875,-0.169189453125,1.3838
2.50381679389313,1.0381679389312977,-0.7938931297709924,-0.45068359375,0.0732421875,-0.164794921875,1.3855
2.2900763358778624,0.9007633587786259,-0.9465648854961832,-0.45947265625,0.070556640625,-0.16796875,1.3872
2.3969465648854964,0.9770992366412213,-0.8396946564885496,-0.456787109375,0.06884765625,-0.1689453125,1.3889
2.122137404580153,0.9923664122137404,-1.0229007633587786,-0.453125,0.072265625,-0.174072265625,1.3905999999999998
2.4580152671755724,0.8702290076335878,-0.8854961832061069,-0.455078125,0.07373046875,-0.17626953125,1.3922999999999999
2.427480916030534,0.8854961832061069,-0.7938931297709924,-0.4541015625,0.06982421875,-0.16796875,1.394
2.3969465648854964,0.9312977099236641,-0.916030534351145,-0.454345703125,0.0693359375,-0.16845703125,1.3957
2.33587786259542,0.916030534351145,-0.8091603053435115,-0.456298828125,0.07080078125,-0.1728515625,1.3974
2.2290076335877864,0.7022900763358778,-0.6717557251908397,-0.453369140625,0.06640625,-0.177001953125,1.3991
2.2595419847328246,0.7786259541984732,-0.7480916030534351,-0.455810546875,0.0732421875,-0.169677734375,1.4007999999999998
2.366412213740458,0.7175572519083969,-0.8702290076335878,-0.455810546875,0.0693359375,-0.159423828125,1.4024999999999999
2.2748091603053435,0.7480916030534351,-0.6870229007633588,-0.458251953125,0.066650390625,-0.17236328125,1.4042
2.1374045801526718,0.7786259541984732,-0.7022900763358778,-0.453125,0.068603515625,-0.16748046875,1.4059
2.1374045801526718,0.8702290076335878,-0.7633587786259542,-0.454345703125,0.07080078125,-0.17041015625,1.4076
2.2595419847328246,0.7633587786259542,-0.5954198473282443,-0.456298828125,0.070556640625,-0.16552734375,1.4093
2.16793893129771,0.5343511450381679,-0.6717557251908397,-0.44775390625,0.0703125,-0.172607421875,1.411
1.984732824427481,0.7633587786259542,-0.7022900763358778,-0.45849609375,0.0673828125,-0.1689453125,1.4126999999999998
1.8778625954198473,0.8091603053435115,-0.8854961832061069,-0.4580078125,0.066162109375,-0.175048828125,1.4143999999999999
2.045801526717557,0.7480916030534351,-0.6106870229007634,-0.453125,0.0712890625,-0.16796875,1.4161
1.8778625954198473,0.6412213740458015,-0.6564885496183206,-0.456298828125,0.072998046875,-0.16845703125,1.4178
2.0610687022900764,0.5648854961832062,-0.7786259541984732,-0.453857421875,0.06591796875,-0.175048828125,1.4195
2.045801526717557,0.6106870229007634,-0.6106870229007634,-0.4599609375,0.068115234375,-0.17041015625,1.4212
1.9236641221374047,0.5954198473282443,-0.732824427480916,-0.4560546875,0.070556640625,-0.1689453125,1.4228999999999998
1.6793893129770991,0.5648854961832062,-0.7786259541984732,-0.46142578125,0.07080078125,-0.169677734375,1.4245999999999999
1.633587786259542,0.6106870229007634,-0.7022900763358778,-0.449951171875,0.066650390625,-0.166259765625,1.4263
1.9389312977099236,0.5954198473282443,-0.732824427480916,-0.451904296875,0.070556640625,-0.170654296875,1.428
1.83206106870229,0.5954198473282443,-0.7022900763358778,-0.451904296875,0.072265625,-0.1640625,1.4297
1.83206106870229,0.549618320610687,-0.44274809160305345,-0.454833984375,0.073974609375,-0.165283203125,1.4314
1.6946564885496183,0.5648854961832062,-0.6564885496183206,-0.456298828125,0.06982421875,-0.16357421875,1.4330999999999998
1.5419847328244274,0.732824427480916,-0.5343511450381679,-0.45849609375,0.064208984375,-0.16650390625,1.4347999999999999
1.4961832061068703,0.5648854961832062,-0.4122137404580153,-0.457763671875,0.068359375,-0.163818359375,1.4364999999999999
1.6946564885496183,0.42748091603053434,-0.5190839694656488,-0.453125,0.071533203125,-0.16796875,1.4382
1.4961832061068703,0.6259541984732825,-0.549618320610687,-0.457763671875,0.071044921875,-0.17626953125,1.4399
1.4809160305343512,0.5648854961832062,-0.5343511450381679,-0.45703125,0.07080078125,-0.16748046875,1.4416
1.465648854961832,0.4732824427480916,-0.6412213740458015,-0.461669921875,0.071533203125,-0.166015625,1.4433
1.282442748091603,0.5801526717557252,-0.5190839694656488,-0.458740234375,0.06982421875,-0.172119140625,1.4449999999999998
1.3587786259541985,0.48854961832061067,-0.6412213740458015,-0.457275390625,0.06884765625,-0.1650390625,1.4466999999999999
1.297709923664122,0.5343511450381679,-0.7022900763358778,-0.4580078125,0.072265625,-0.170166015625,1.4484
1.1755725190839694,0.6259541984732825,-0.4732824427480916,-0.456787109375,0.07421875,-0.1669921875,1.4501
1.1908396946564885,0.6717557251908397,-0.6412213740458015,-0.45849609375,0.068603515625,-0.1640625,1.4518
1.2213740458015268,0.6106870229007634,-0.732824427480916,-0.4521484375,0.072021484375,-0.16748046875,1.4535
1.2061068702290076,0.6259541984732825,-0.3816793893129771,-0.4580078125,0.0712890625,-0.175048828125,1.4551999999999998
1.1450381679389312,0.8091603053435115,-0.5038167938931297,-0.4560546875,0.067626953125,-0.1640625,1.4568999999999999
0.9770992366412213,0.6717557251908397,-0.5343511450381679,-0.459228515625,0.0693359375,-0.173828125,1.4586
0.9312977099236641,0.7175572519083969,-0.7480916030534351,-0.4541015625,0.070556640625,-0.17138671875,1.4603
1.083969465648855,0.6259541984732825,-0.5038167938931297,-0.454833984375,0.069091796875,-0.172119140625,1.462
1.1297709923664123,0.5801526717557252,-0.48854961832061067,-0.455810546875,0.068603515625,-0.1630859375,1.4637
0.8702290076335878,0.6106870229007634,-0.5343511450381679,-0.458984375,0.0732421875,-0.162841796875,1.4653999999999998
1.0229007633587786,0.7480916030534351,-0.7480916030534351,-0.4541015625,0.070068359375,-0.167236328125,1.4670999999999998
0.8396946564885496,0.7480916030534351,-0.44274809160305345,-0.456298828125,0.072998046875,-0.16943359375,1.4687999999999999
0.8549618320610687,0.7938931297709924,-0.5801526717557252,-0.453369140625,0.076416015625,-0.17578125,1.4705
0.8702290076335878,0.8396946564885496,-0.48854961832061067,-0.4609375,0.071044921875,-0.1728515625,1.4722
0.7938931297709924,0.8244274809160306,-0.3969465648854962,-0.455078125,0.071044921875,-0.17041015625,1.4739
0.8549618320610687,0.8854961832061069,-0.4732824427480916,-0.45703125,0.071044921875,-0.168701171875,1.4756
0.7938931297709924,0.9770992366412213,-0.48854961832061067,-0.45751953125,0.074462890625,-0.16796875,1.4772999999999998
0.5343511450381679,0.8091603053435115,-0.4122137404580153,-0.457275390625,0.0703125,-0.166015625,1.4789999999999999
0.48854961832061067,0.9618320610687023,-0.4732824427480916,-0.45751953125,0.072265625,-0.16455078125,1.4807
0.6564885496183206,0.8091603053435115,-0.5343511450381679,-0.458740234375,0.074462890625,-0.16259765625,1.4824
0.6259541984732825,0.9618320610687023,-0.6412213740458015,-0.4560546875,0.072021484375,-0.170654296875,1.4841
0.44274809160305345,1.0381679389312977,-0.549618320610687,-0.45458984375,0.071533203125,-0.17041015625,1.4858
0.4732824427480916,0.8854961832061069,-0.48854961832061067,-0.454833984375,0.077392578125,-0.1669921875,1.4874999999999998
0.5038167938931297,1.0229007633587786,-0.6412213740458015,-0.45849609375,0.07080078125,-0.162353515625,1.4891999999999999
0.4122137404580153,0.9770992366412213,-0.6259541984732825,-0.46240234375,0.069091796875,-0.16552734375,1.4909
0.5954198473282443,1.0076335877862594,-0.48854961832061067,-0.45751953125,0.069091796875,-0.165771484375,1.4926
0.3511450381679389,1.1603053435114503,-0.6259541984732825,-0.45751953125,0.072265625,-0.16455078125,1.4943
0.44274809160305345,1.1145038167938932,-0.7022900763358778,-0.458251953125,0.07421875,-0.165283203125,1.496
0.4122137404580153,1.2213740458015268,-0.5954198473282443,-0.4580078125,0.076904296875,-0.17626953125,1.4976999999999998
0.1984732824427481,1.1450381679389312,-0.549618320610687,-0.454833984375,0.07373046875,-0.176025390625,1.4993999999999998
0.2900763358778626,1.1450381679389312,-0.7175572519083969,-0.4599609375,0.07568359375,-0.163330078125,1.5010999999999999
0.24427480916030533,1.297709923664122,-0.5648854961832062,-0.45458984375,0.080810546875,-0.15869140625,1.5028
0.1984732824427481,1.1450381679389312,-0.8702290076335878,-0.45361328125,0.07470703125,-0.166259765625,1.5045
0.2900763358778626,1.0687022900763359,-0.8549618320610687,-0.451171875,0.06982421875,-0.164306640625,1.5062
0.22900763358778625,1.1908396946564885,-0.8396946564885496,-0.4541015625,0.069580078125,-0.164306640625,1.5079
0.22900763358778625,1.0534351145038168,-0.7480916030534351,-0.451904296875,0.072509765625,-0.174072265625,1.5095999999999998
0.16793893129770993,1.0687022900763359,-0.7633587786259542,-0.45458984375,0.073486328125,-0.173583984375,1.5112999999999999
0.07633587786259542,1.2366412213740459,-0.7480916030534351,-0.456787109375,0.073974609375,-0.166259765625,1.513
0.16793893129770993,0.9312977099236641,-1.0534351145038168,-0.457763671875,0.071533203125,-0.166015625,1.5147
0.07633587786259542,1.1908396946564885,-0.8549618320610687,-0.45849609375,0.072998046875,-0.169921875,1.5164
0.030534351145038167,1.1908396946564885,-0.9770992366412213,-0.45703125,0.072265625,-0.165283203125,1.5181
0.10687022900763359,1.0076335877862594,-0.9770992366412213,-0.4560546875,0.071044921875,-0.160888671875,1.5197999999999998
0.3511450381679389,1.1603053435114503,-0.916030534351145,-0.458740234375,0.071044921875,-0.172607421875,1.5214999999999999
0.10687022900763359,1.3587786259541985,-0.8854961832061069,-0.45166015625,0.06689453125,-0.1640625,1.5231999999999999
-0.13740458015267176,1.3129770992366412,-0.9312977099236641,-0.453857421875,0.07421875,-0.170166015625,1.5249
0.2595419847328244,1.1450381679389312,-0.9007633587786259,-0.45703125,0.076904296875,-0.1728515625,1.5266
0.15267175572519084,1.0381679389312977,-0.9007633587786259,-0.460205078125,0.077392578125,-0.17333984375,1.5283
-0.0916030534351145,1.0381679389312977,-0.8549618320610687,-0.455078125,0.07421875,-0.170654296875,1.5299999999999998
0.015267175572519083,1.1450381679389312,-0.916030534351145,-0.456298828125,0.073974609375,-0.171630859375,1.5316999999999998
0.183206106870229,1.1603053435114503,-0.7786259541984732,-0.45263671875,0.075439453125,-0.166748046875,1.5333999999999999
0.0,1.1145038167938932,-0.8854961832061069,-0.451416015625,0.07275390625,-0.16357421875,1.5351
-0.061068702290076333,0.9923664122137404,-0.7938931297709924,-0.457763671875,0.070556640625,-0.166015625,1.5368
-0.0916030534351145,1.1145038167938932,-0.916030534351145,-0.456298828125,0.07470703125,-0.160888671875,1.5385
-0.2748091603053435,0.9923664122137404,-0.8549618320610687,-0.451416015625,0.073974609375,-0.174560546875,1.5402
-0.16793893129770993,0.916030534351145,-1.083969465648855,-0.453125,0.0712890625,-0.17626953125,1.5418999999999998
0.0916030534351145,0.8244274809160306,-0.7175572519083969,-0.454345703125,0.076171875,-0.174560546875,1.5435999999999999
0.12213740458015267,1.0381679389312977,-0.8396946564885496,-0.455810546875,0.075439453125,-0.166259765625,1.5453
0.0,0.9312977099236641,-0.8396946564885496,-0.451416015625,0.0791015625,-0.167724609375,1.547
-0.10687022900763359,0.9618320610687023,-0.8244274809160306,-0.453369140625,0.0712890625,-0.165771484375,1.5487
-0.22900763358778625,0.9770992366412213,-0.7022900763358778,-0.455322265625,0.076904296875,-0.157958984375,1.5504
-0.32061068702290074,0.8091603053435115,-0.7786259541984732,-0.456787109375,0.07568359375,-0.172607421875,1.5520999999999998
-0.04580152671755725,0.916030534351145,-0.8396946564885496,-0.45849609375,0.079833984375,-0.16748046875,1.5537999999999998
0.015267175572519083,0.9465648854961832,-0.9465648854961832,-0.4609375,0.076904296875,-0.1669921875,1.5554999999999999
-0.10687022900763359,0.9465648854961832,-1.0381679389312977,-0.46240234375,0.07373046875,-0.162353515625,1.5572
-0.1984732824427481,0.8396946564885496,-1.0229007633587786,-0.4521484375,0.078125,-0.1650390625,1.5589
-0.183206106870229,1.2366412213740459,-0.8091603053435115,-0.455322265625,0.074462890625,-0.164306640625,1.5606
0.0,0.9312977099236641,-0.9465648854961832,-0.45654296875,0.073486328125,-0.16552734375,1.5623
-0.21374045801526717,0.8549618320610687,-0.9312977099236641,-0.461181640625,0.076416015625,-0.17333984375,1.5639999999999998
0.015267175572519083,1.0534351145038168,-1.099236641221374,-0.4599609375,0.07763671875,-0.170654296875,1.5656999999999999
-0.13740458015267176,0.9618320610687023,-0.9618320610687023,-0.4560546875,0.0771484375,-0.163818359375,1.5674
-0.12213740458015267,0.7786259541984732,-1.0687022900763359,-0.450927734375,0.07763671875,-0.16064453125,1.5691
-0.10687022900763359,0.8702290076335878,-1.1755725190839694,-0.453125,0.076904296875,-0.1669921875,1.5708
0.0,1.0229007633587786,-1.1145038167938932,-0.45263671875,0.07763671875,-0.17578125,1.5725
0.0,1.0534351145038168,-1.0076335877862594,-0.456787109375,0.075927734375,-0.16357421875,1.5741999999999998
0.15267175572519084,0.9618320610687023,-1.1908396946564885,-0.45654296875,0.07177734375,-0.166015625,1.5758999999999999
0.0,0.732824427480916,-1.3129770992366412,-0.4521484375,0.073486328125,-0.1630859375,1.5776
0.15267175572519084,0.8854961832061069,-1.083969465648855,-0.460205078125,0.0771484375,-0.17529296875,1.5793
0.21374045801526717,0.9465648854961832,-1.1145038167938932,-0.453857421875,0.0751953125,-0.171142578125,1.581
0.030534351145038167,0.7175572519083969,-1.2061068702290076,-0.448486328125,0.07958984375,-0.176025390625,1.5827
0.04580152671755725,0.8702290076335878,-1.2671755725190839,-0.45703125,0.0791015625,-0.172607421875,1.5843999999999998
0.015267175572519083,0.7938931297709924,-1.2366412213740459,-0.45703125,0.08154296875,-0.16943359375,1.5860999999999998
0.22900763358778625,0.8396946564885496,-1.3740458015267176,-0.456787109375,0.0771484375,-0.16455078125,1.5877999999999999
0.07633587786259542,0.8854961832061069,-1.2671755725190839,-0.456298828125,0.072021484375,-0.17041015625,1.5895
0.13740458015267176,0.732824427480916,-1.3893129770992367,-0.46044921875,0.0693359375,-0.162353515625,1.5912
0.22900763358778625,0.8549618320610687,-1.3587786259541985,-0.455322265625,0.07421875,-0.164794921875,1.5929
0.24427480916030533,0.9312977099236641,-1.3893129770992367,-0.458251953125,0.07177734375,-0.172119140625,1.5946
0.2748091603053435,0.9770992366412213,-1.1450381679389312,-0.457763671875,0.07275390625,-0.162353515625,1.5962999999999998
0.1984732824427481,0.9312977099236641,-1.2213740458015268,-0.452880859375,0.07421875,-0.16796875,1.5979999999999999
0.10687022900763359,0.9618320610687023,-1.4198473282442747,-0.459716796875,0.080810546875,-0.15966796875,1.5997
0.3053435114503817,0.9770992366412213,-1.5877862595419847,-0.45703125,0.076171875,-0.170654296875,1.6014
0.2900763358778626,1.0076335877862594,-1.3435114503816794,-0.454833984375,0.077392578125,-0.169921875,1.6031
0.3816793893129771,0.9007633587786259,-1.3740458015267176,-0.45947265625,0.07373046875,-0.167724609375,1.6048
0.2595419847328244,1.099236641221374,-1.1450381679389312,-0.462158203125,0.07568359375,-0.167236328125,1.6064999999999998
0.1984732824427481,0.9923664122137404,-1.3435114503816794,-0.45556640625,0.073974609375,-0.162353515625,1.6081999999999999
0.21374045801526717,0.8702290076335878,-1.3587786259541985,-0.458740234375,0.0703125,-0.162109375,1.6098999999999999
0.2900763358778626,0.9923664122137404,-1.3129770992366412,-0.459228515625,0.07421875,-0.170166015625,1.6116
0.030534351145038167,0.9770992366412213,-1.251908396946565,-0.4580078125,0.072021484375,-0.170166015625,1.6133
0.0916030534351145,0.8702290076335878,-1.2671755725190839,-0.457275390625,0.073486328125,-0.167236328125,1.615
0.10687022900763359,0.9465648854961832,-1.0076335877862594,-0.45947265625,0.072998046875,-0.169921875,1.6166999999999998
0.16793893129770993,0.916030534351145,-1.1908396946564885,-0.46435546875,0.071533203125,-0.169189453125,1.6183999999999998
0.3511450381679389,0.8549618320610687,-1.0534351145038168,-0.4580078125,0.06787109375,-0.16796875,1.6200999999999999
0.04580152671755725,0.6412213740458015,-1.1145038167938932,-0.456298828125,0.073974609375,-0.169677734375,1.6218
0.183206106870229,0.6412213740458015,-1.1145038167938932,-0.452880859375,0.069580078125,-0.16845703125,1.6235
-0.061068702290076333,0.8396946564885496,-1.1908396946564885,-0.45458984375,0.07275390625,-0.171630859375,1.6252
0.0916030534351145,0.7175572519083969,-1.099236641221374,-0.457763671875,0.073486328125,-0.17041015625,1.6269
0.030534351145038167,0.7175572519083969,-1.1908396946564885,-0.459228515625,0.070068359375,-0.165283203125,1.6285999999999998
-0.24427480916030533,0.8244274809160306,-1.1755725190839694,-0.455810546875,0.074462890625,-0.17041015625,1.6302999999999999
-0.0916030534351145,0.8854961832061069,-1.1603053435114503,-0.4521484375,0.073974609375,-0.16943359375,1.632
-0.15267175572519084,0.7022900763358778,-1.099236641221374,-0.452880859375,0.072265625,-0.173828125,1.6337
-0.3816793893129771,0.6717557251908397,-1.0229007633587786,-0.45458984375,0.068359375,-0.162841796875,1.6354
-0.15267175572519084,0.4580152671755725,-1.0534351145038168,-0.45751953125,0.0703125,-0.16650390625,1.6371
-0.22900763358778625,0.6564885496183206,-1.1603053435114503,-0.45361328125,0.06884765625,-0.173095703125,1.6387999999999998
-0.3816793893129771,0.6564885496183206,-0.9465648854961832,-0.45166015625,0.068603515625,-0.157958984375,1.6404999999999998
-0.183206106870229,0.549618320610687,-1.099236641221374,-0.454345703125,0.06884765625,-0.165283203125,1.6421999999999999
-0.42748091603053434,0.6106870229007634,-0.9923664122137404,-0.456787109375,0.070556640625,-0.1650390625,1.6439
-0.4122137404580153,0.7175572519083969,-0.9312977099236641,-0.456298828125,0.072998046875,-0.169921875,1.6456
-0.5190839694656488,0.6412213740458015,-0.7786259541984732,-0.457275390625,0.07421875,-0.164306640625,1.6473
-0.5038167938931297,0.8549618320610687,-0.9465648854961832,-0.4501953125,0.075439453125,-0.1630859375,1.6489999999999998
-0.44274809160305345,0.6564885496183206,-0.8702290076335878,-0.45751953125,0.068603515625,-0.166259765625,1.6506999999999998
-0.7786259541984732,0.6412213740458015,-1.0534351145038168,-0.4580078125,0.066162109375,-0.16845703125,1.6523999999999999
-0.7786259541984732,0.6564885496183206,-0.7786259541984732,-0.45849609375,0.06689453125,-0.17578125,1.6541
-0.7022900763358778,0.5038167938931297,-0.9923664122137404,-0.45849609375,0.074462890625,-0.16796875,1.6558
-0.7938931297709924,0.5954198473282443,-0.9312977099236641,-0.456787109375,0.072509765625,-0.171142578125,1.6575
-0.7480916030534351,0.6259541984732825,-1.0076335877862594,-0.4560546875,0.0732421875,-0.1689453125,1.6592
-0.9312977099236641,0.7633587786259542,-1.1297709923664123,-0.4580078125,0.0751953125,-0.162841796875,1.6608999999999998
-0.7938931297709924,0.549618320610687,-0.9312977099236641,-0.457275390625,0.066650390625,-0.16455078125,1.6625999999999999
-1.0534351145038168,0.732824427480916,-1.0381679389312977,-0.45947265625,0.0712890625,-0.166748046875,1.6643
-1.1755725190839694,0.732824427480916,-1.0687022900763359,-0.453857421875,0.07275390625,-0.17236328125,1.666
-0.9770992366412213,0.6717557251908397,-0.8091603053435115,-0.4521484375,0.068115234375,-0.158447265625,1.6677
-1.1755725190839694,0.8549618320610687,-0.9465648854961832,-0.4560546875,0.0703125,-0.1640625,1.6694
-1.1755725190839694,0.5648854961832062,-0.9465648854961832,-0.45849609375,0.072509765625,-0.1650390625,1.6710999999999998
-1.4351145038167938,0.6564885496183206,-1.1297709923664123,-0.460205078125,0.071533203125,-0.165283203125,1.6727999999999998
-1.1755725190839694,0.5190839694656488,-0.9312977099236641,-0.454833984375,0.06787109375,-0.16162109375,1.6744999999999999
-1.282442748091603,0.4732824427480916,-0.9618320610687023,-0.4560546875,0.074462890625,-0.16796875,1.6762
-1.465648854961832,0.732824427480916,-0.8396946564885496,-0.45556640625,0.066162109375,-0.172607421875,1.6779
-1.4045801526717556,0.8244274809160306,-1.0229007633587786,-0.452392578125,0.0673828125,-0.16748046875,1.6796
-1.5725190839694656,0.5954198473282443,-0.9770992366412213,-0.451416015625,0.06884765625,-0.17041015625,1.6813
-1.83206106870229,0.6870229007633588,-1.1908396946564885,-0.45703125,0.06689453125,-0.168212890625,1.6829999999999998
-1.5725190839694656,0.6564885496183206,-0.8396946564885496,-0.451416015625,0.075927734375,-0.166015625,1.6846999999999999
-1.5725190839694656,0.6106870229007634,-1.0534351145038168,-0.455322265625,0.0693359375,-0.163330078125,1.6864
-1.8473282442748091,0.6870229007633588,-1.0534351145038168,-0.45458984375,0.072021484375,-0.16748046875,1.6881
-1.9236641221374047,0.7938931297709924,-0.9770992366412213,-0.46533203125,0.070556640625,-0.1728515625,1.6898
-1.9083969465648856,0.9465648854961832,-0.916030534351145,-0.453369140625,0.071044921875,-0.167724609375,1.6915
-2.015267175572519,0.8702290076335878,-0.9923664122137404,-0.45458984375,0.072265625,-0.175537109375,1.6931999999999998
-2.0916030534351147,0.6106870229007634,-0.9618320610687023,-0.453857421875,0.0693359375,-0.16650390625,1.6948999999999999
-2.33587786259542,0.6564885496183206,-0.916030534351145,-0.455078125,0.066650390625,-0.169677734375,1.6965999999999999
-2.0763358778625953,0.6717557251908397,-1.0076335877862594,-0.454345703125,0.066162109375,-0.159912109375,1.6983
-2.183206106870229,0.7786259541984732,-0.9618320610687023,-0.452880859375,0.0712890625,-0.169189453125,1.7
-2.4427480916030535,0.7938931297709924,-0.9618320610687023,-0.4560546875,0.065185546875,-0.163818359375,1.7017
-2.549618320610687,0.7480916030534351,-1.1145038167938932,-0.458740234375,0.069091796875,-0.170166015625,1.7033999999999998
-2.732824427480916,0.732824427480916,-0.7480916030534351,-0.455078125,0.06982421875,-0.1748046875,1.7050999999999998
-2.6259541984732824,1.0229007633587786,-0.9007633587786259,-0.457275390625,0.071533203125,-0.1640625,1.7067999999999999
-2.9160305343511452,0.7480916030534351,-0.916030534351145,-0.456787109375,0.07177734375,-0.16845703125,1.7085
-2.9770992366412212,0.9770992366412213,-0.8091603053435115,-0.458984375,0.06640625,-0.172119140625,1.7102
-2.9160305343511452,0.9312977099236641,-1.0076335877862594,-0.453857421875,0.06982421875,-0.165283203125,1.7119
-3.068702290076336,0.916030534351145,-1.0687022900763359,-0.455810546875,0.067626953125,-0.17041015625,1.7136
-3.1297709923664123,0.916030534351145,-0.9007633587786259,-0.45556640625,0.068603515625,-0.154052734375,1.7152999999999998
-3.3282442748091605,0.9465648854961832,-1.0229007633587786,-0.460205078125,0.07177734375,-0.156982421875,1.7169999999999999
-3.3282442748091605,1.2366412213740459,-0.916030534351145,-0.460205078125,0.064453125,-0.16162109375,1.7187
-3.435114503816794,1.0381679389312977,-0.916030534351145,-0.46337890625,0.0654296875,-0.16796875,1.7204
-3.5267175572519083,1.1603053435114503,-1.0229007633587786,-0.46337890625,0.06787109375,-0.163330078125,1.7221
-3.7099236641221376,1.3435114503816794,-0.8244274809160306,-0.462890625,0.068115234375,-0.1630859375,1.7238
-4.0458015267175576,1.5419847328244274,-0.9465648854961832,-0.457763671875,0.065185546875,-0.16455078125,1.7254999999999998
-4.229007633587786,1.7404580152671756,-1.0534351145038168,-0.461669921875,0.06103515625,-0.158447265625,1.7271999999999998
-4.2748091603053435,1.6641221374045803,-1.0687022900763359,-0.458251953125,0.060791015625,-0.17041015625,1.7288999999999999
-4.549618320610687,1.6793893129770991,-1.2366412213740459,-0.461669921875,0.06396484375,-0.166259765625,1.7306
-4.641221374045801,1.9694656488549618,-1.4045801526717556,-0.457275390625,0.063720703125,-0.169189453125,1.7323
-5.068702290076335,1.8931297709923665,-1.1755725190839694,-0.461181640625,0.059814453125,-0.165771484375,1.734
-5.251908396946565,1.984732824427481,-1.297709923664122,-0.46337890625,0.063720703125,-0.16259765625,1.7356999999999998
-5.312977099236641,2.0610687022900764,-1.3435114503816794,-0.45947265625,0.0654296875,-0.163818359375,1.7373999999999998
-5.66412213740458,2.213740458015267,-1.4198473282442747,-0.458251953125,0.06103515625,-0.1591796875,1.7390999999999999
-5.969465648854962,2.183206106870229,-1.5725190839694656,-0.46044921875,0.0615234375,-0.162109375,1.7408
-6.122137404580153,2.2290076335877864,-1.6030534351145038,-0.4599609375,0.064453125,-0.171142578125,1.7425
-6.320610687022901,2.2900763358778624,-1.633587786259542,-0.456298828125,0.060791015625,-0.16943359375,1.7442
-6.488549618320611,2.2748091603053435,-1.7251908396946565,-0.4638671875,0.062255859375,-0.164794921875,1.7459
-7.022900763358779,2.4732824427480917,-1.7557251908396947,-0.46240234375,0.060302734375,-0.1591796875,1.7475999999999998
-7.541984732824427,2.595419847328244,-1.9694656488549618,-0.463134765625,0.056640625,-0.164306640625,1.7492999999999999
-7.557251908396947,2.595419847328244,-2.2290076335877864,-0.461181640625,0.05908203125,-0.16162109375,1.751
-7.923664122137405,2.6412213740458017,-2.213740458015267,-0.4619140625,0.060546875,-0.163818359375,1.7527
-8.412213740458014,2.8091603053435112,-2.213740458015267,-0.457763671875,0.05810546875,-0.163818359375,1.7544
-8.687022900763358,2.946564885496183,-2.366412213740458,-0.4638671875,0.05810546875,-0.1640625,1.7561
-9.007633587786259,2.946564885496183,-2.33587786259542,-0.4580078125,0.0537109375,-0.164794921875,1.7577999999999998
-9.312977099236642,2.8091603053435112,-2.732824427480916,-0.459716796875,0.05810546875,-0.16259765625,1.7594999999999998
-9.770992366412214,2.931297709923664,-2.6106870229007635,-0.4580078125,0.056884765625,-0.1640625,1.7611999999999999
-9.908396946564885,2.946564885496183,-2.7022900763358777,-0.4599609375,0.057861328125,-0.169677734375,1.7629
-10.473282442748092,3.0076335877862594,-2.8396946564885495,-0.45751953125,0.059326171875,-0.168212890625,1.7646
-10.778625954198473,3.114503816793893,-3.2213740458015265,-0.460205078125,0.055419921875,-0.168212890625,1.7663
-11.267175572519085,2.9770992366412212,-3.282442748091603,-0.4609375,0.054443359375,-0.1728515625,1.7679999999999998
-11.816793893129772,2.900763358778626,-3.3893129770992365,-0.456298828125,0.057861328125,-0.164794921875,1.7696999999999998
-12.061068702290076,2.9770992366412212,-3.312977099236641,-0.459228515625,0.05859375,-0.16845703125,1.7713999999999999
-12.412213740458014,3.2519083969465647,-3.5114503816793894,-0.452880859375,0.049072265625,-0.165771484375,1.7731
-13.114503816793894,3.1603053435114505,-3.618320610687023,-0.458251953125,0.05517578125,-0.166015625,1.7748
-13.450381679389313,3.1908396946564888,-3.8625954198473282,-0.458984375,0.055908203125,-0.164794921875,1.7765
-13.755725190839694,3.2519083969465647,-3.786259541984733,-0.456787109375,0.054443359375,-0.166259765625,1.7782
-14.076335877862595,3.282442748091603,-4.0458015267175576,-0.455322265625,0.0498046875,-0.1640625,1.7798999999999998
-14.641221374045802,3.404580152671756,-4.396946564885496,-0.458251953125,0.052978515625,-0.164794921875,1.7815999999999999
-15.17557251908397,3.435114503816794,-4.33587786259542,-0.461181640625,0.05078125,-0.162353515625,1.7832999999999999
-15.419847328244275,3.282442748091603,-4.366412213740458,-0.462890625,0.04833984375,-0.1650390625,1.785
-15.969465648854962,3.435114503816794,-4.549618320610687,-0.46142578125,0.05419921875,-0.159423828125,1.7867
-16.53435114503817,3.3740458015267176,-4.427480916030534,-0.45703125,0.05126953125,-0.159423828125,1.7884
-16.625954198473284,3.2519083969465647,-4.732824427480916,-0.455810546875,0.0517578125,-0.158203125,1.7900999999999998
-17.236641221374047,3.435114503816794,-4.809160305343512,-0.456787109375,0.052734375,-0.159912109375,1.7917999999999998
-17.81679389312977,3.435114503816794,-5.022900763358779,-0.457763671875,0.05419921875,-0.153564453125,1.7934999999999999
-18.12213740458015,3.450381679389313,-5.038167938931298,-0.45849609375,0.0537109375,-0.166259765625,1.7952
-18.519083969465647,3.49618320610687,-5.221374045801527,-0.46142578125,0.05615234375,-0.16162109375,1.7969
-19.251908396946565,3.480916030534351,-5.221374045801527,-0.462158203125,0.052490234375,-0.157470703125,1.7986
