gyrox1,gyroy1,gyroz1,accelx1,accely1,accelz1,Time
3.0381679389312977,2.0763358778625953,-3.3435114503816794,-0.43359375,-0.152099609375,-0.125,0.0
2.6412213740458017,2.1526717557251906,-3.4198473282442747,-0.435791015625,-0.148193359375,-0.120361328125,0.0017
2.7022900763358777,1.9541984732824427,-3.2977099236641223,-0.435791015625,-0.150634765625,-0.126220703125,0.0034
2.763358778625954,1.9541984732824427,-3.2977099236641223,-0.430908203125,-0.154296875,-0.129638671875,0.0050999999999999995
2.4122137404580153,1.984732824427481,-3.2061068702290076,-0.434814453125,-0.14892578125,-0.12255859375,0.0068
2.381679389312977,1.8931297709923665,-3.2519083969465647,-0.434814453125,-0.15478515625,-0.121826171875,0.008499999999999999
2.427480916030534,1.816793893129771,-3.0839694656488548,-0.437744140625,-0.152099609375,-0.118896484375,0.010199999999999999
2.427480916030534,1.633587786259542,-3.2213740458015265,-0.433349609375,-0.15478515625,-0.12451171875,0.011899999999999999
2.351145038167939,1.618320610687023,-3.1297709923664123,-0.436279296875,-0.15283203125,-0.126220703125,0.0136
2.1526717557251906,1.6946564885496183,-2.9923664122137406,-0.440673828125,-0.152099609375,-0.118408203125,0.0153
2.1068702290076335,1.8015267175572518,-3.0381679389312977,-0.436279296875,-0.15234375,-0.13134765625,0.016999999999999998
2.213740458015267,1.618320610687023,-3.0076335877862594,-0.43701171875,-0.157470703125,-0.12451171875,0.018699999999999998
2.2442748091603053,1.6641221374045803,-2.7938931297709924,-0.436767578125,-0.15380859375,-0.12646484375,0.020399999999999998
2.122137404580153,1.633587786259542,-2.9770992366412212,-0.435791015625,-0.156494140625,-0.116943359375,0.022099999999999998
2.366412213740458,1.7404580152671756,-2.854961832061069,-0.4423828125,-0.16015625,-0.131591796875,0.023799999999999998
2.2442748091603053,1.7251908396946565,-2.9618320610687023,-0.436767578125,-0.154541015625,-0.128662109375,0.0255
2.4427480916030535,1.83206106870229,-2.564885496183206,-0.43994140625,-0.15283203125,-0.126708984375,0.0272
2.6106870229007635,1.8473282442748091,-2.6564885496183206,-0.441162109375,-0.158935546875,-0.12451171875,0.0289
2.6717557251908395,1.9694656488549618,-2.732824427480916,-0.438720703125,-0.155517578125,-0.12158203125,0.0306
2.763358778625954,2.16793893129771,-2.931297709923664,-0.441162109375,-0.157470703125,-0.124267578125,0.032299999999999995
2.595419847328244,2.2442748091603053,-2.519083969465649,-0.44287109375,-0.14990234375,-0.123046875,0.033999999999999996
2.8244274809160306,2.3206106870229006,-2.595419847328244,-0.433349609375,-0.157958984375,-0.130126953125,0.035699999999999996
2.9770992366412212,2.3206106870229006,-2.3053435114503817,-0.439208984375,-0.1591796875,-0.131591796875,0.037399999999999996
3.145038167938931,2.4885496183206106,-2.5343511450381677,-0.439697265625,-0.15869140625,-0.128662109375,0.039099999999999996
3.4656488549618323,2.6564885496183206,-2.4732824427480917,-0.441162109375,-0.15673828125,-0.129638671875,0.040799999999999996
3.435114503816794,2.5343511450381677,-2.427480916030534,-0.4453125,-0.156005859375,-0.12158203125,0.042499999999999996
3.5572519083969465,2.5801526717557253,-2.3206106870229006,-0.4453125,-0.15966796875,-0.124755859375,0.044199999999999996
3.66412213740458,2.732824427480916,-2.4580152671755724,-0.4482421875,-0.16455078125,-0.124267578125,0.045899999999999996
3.6946564885496183,2.717557251908397,-2.519083969465649,-0.448974609375,-0.1630859375,-0.125732421875,0.047599999999999996
3.801526717557252,2.7786259541984735,-2.351145038167939,-0.4443359375,-0.159912109375,-0.11572265625,0.0493
3.4198473282442747,2.8091603053435112,-2.2442748091603053,-0.445556640625,-0.157470703125,-0.126708984375,0.051
3.633587786259542,2.8702290076335877,-2.183206106870229,-0.44677734375,-0.157958984375,-0.131103515625,0.0527
3.8473282442748094,2.595419847328244,-2.366412213740458,-0.442626953125,-0.16162109375,-0.134521484375,0.0544
3.5572519083969465,2.717557251908397,-2.3053435114503817,-0.445556640625,-0.156982421875,-0.12841796875,0.0561
3.6030534351145036,2.717557251908397,-1.8778625954198473,-0.451416015625,-0.15966796875,-0.1259765625,0.0578
3.2977099236641223,2.4427480916030535,-2.1526717557251906,-0.446533203125,-0.1572265625,-0.135986328125,0.0595
3.404580152671756,2.381679389312977,-1.9236641221374047,-0.4443359375,-0.16796875,-0.11962890625,0.0612
3.267175572519084,2.4885496183206106,-2.0916030534351147,-0.44921875,-0.160400390625,-0.130126953125,0.0629
3.404580152671756,2.50381679389313,-1.984732824427481,-0.448486328125,-0.15966796875,-0.134521484375,0.06459999999999999
3.435114503816794,2.2442748091603053,-1.9694656488549618,-0.448486328125,-0.16357421875,-0.132568359375,0.0663
3.435114503816794,2.1068702290076335,-1.816793893129771,-0.44921875,-0.161376953125,-0.126708984375,0.06799999999999999
3.3740458015267176,2.2900763358778624,-1.83206106870229,-0.4423828125,-0.160888671875,-0.125,0.0697
3.1755725190839694,1.9389312977099236,-1.5419847328244274,-0.451416015625,-0.166015625,-0.123779296875,0.07139999999999999
3.3435114503816794,2.0916030534351147,-1.6488549618320612,-0.447021484375,-0.162109375,-0.130126953125,0.0731
3.435114503816794,2.2290076335877864,-1.7709923664122138,-0.447265625,-0.167724609375,-0.1328125,0.07479999999999999
3.2977099236641223,2.213740458015267,-1.633587786259542,-0.44287109375,-0.166259765625,-0.13232421875,0.0765
3.404580152671756,2.0,-1.633587786259542,-0.447509765625,-0.1630859375,-0.126708984375,0.07819999999999999
3.312977099236641,2.1526717557251906,-1.6946564885496183,-0.444091796875,-0.162353515625,-0.13525390625,0.0799
3.4656488549618323,2.0916030534351147,-1.5877862595419847,-0.448486328125,-0.166748046875,-0.126220703125,0.08159999999999999
3.404580152671756,2.2595419847328246,-1.4351145038167938,-0.451171875,-0.168212890625,-0.13671875,0.0833
3.282442748091603,2.366412213740458,-1.2213740458015268,-0.451904296875,-0.168212890625,-0.118896484375,0.08499999999999999
3.3893129770992365,2.0916030534351147,-1.5419847328244274,-0.4501953125,-0.170654296875,-0.12451171875,0.0867
3.404580152671756,2.1068702290076335,-1.4809160305343512,-0.452392578125,-0.166259765625,-0.130615234375,0.08839999999999999
3.4656488549618323,2.16793893129771,-1.4198473282442747,-0.45166015625,-0.159423828125,-0.13134765625,0.0901
3.3435114503816794,2.0,-1.2061068702290076,-0.45458984375,-0.160400390625,-0.128662109375,0.09179999999999999
3.6030534351145036,2.0,-1.3893129770992367,-0.44873046875,-0.16455078125,-0.134033203125,0.0935
3.3893129770992365,1.9236641221374047,-1.3435114503816794,-0.451416015625,-0.173828125,-0.1240234375,0.09519999999999999
3.618320610687023,1.9541984732824427,-1.297709923664122,-0.451904296875,-0.16845703125,-0.123046875,0.0969
3.5877862595419847,1.83206106870229,-1.2213740458015268,-0.453369140625,-0.16845703125,-0.12548828125,0.0986
3.480916030534351,1.8931297709923665,-1.099236641221374,-0.449462890625,-0.1650390625,-0.12548828125,0.1003
3.5114503816793894,1.7251908396946565,-1.1603053435114503,-0.45263671875,-0.1640625,-0.12646484375,0.102
3.3740458015267176,1.8778625954198473,-1.465648854961832,-0.45263671875,-0.1640625,-0.1240234375,0.1037
3.267175572519084,1.83206106870229,-1.3587786259541985,-0.4501953125,-0.16455078125,-0.124267578125,0.1054
3.282442748091603,1.5114503816793894,-1.1450381679389312,-0.45263671875,-0.171630859375,-0.125244140625,0.1071
3.2061068702290076,1.6793893129770991,-1.1755725190839694,-0.449951171875,-0.17431640625,-0.128662109375,0.1088
3.1603053435114505,1.4198473282442747,-1.099236641221374,-0.454833984375,-0.170654296875,-0.132568359375,0.11049999999999999
3.0229007633587788,1.618320610687023,-1.3893129770992367,-0.4501953125,-0.171142578125,-0.119140625,0.1122
2.9923664122137406,1.282442748091603,-1.282442748091603,-0.44970703125,-0.173095703125,-0.123779296875,0.11389999999999999
2.8702290076335877,1.5725190839694656,-1.1755725190839694,-0.4501953125,-0.172119140625,-0.12451171875,0.1156
2.8244274809160306,1.6030534351145038,-1.083969465648855,-0.455078125,-0.16650390625,-0.126708984375,0.11729999999999999
2.687022900763359,1.6946564885496183,-1.282442748091603,-0.44677734375,-0.16845703125,-0.123291015625,0.119
2.7786259541984735,1.7251908396946565,-1.1145038167938932,-0.452392578125,-0.165771484375,-0.124267578125,0.12069999999999999
2.2900763358778624,1.8473282442748091,-1.0076335877862594,-0.4521484375,-0.16748046875,-0.128662109375,0.1224
2.4885496183206106,1.8473282442748091,-1.0534351145038168,-0.451904296875,-0.16357421875,-0.127685546875,0.12409999999999999
2.4427480916030535,2.0916030534351147,-1.1145038167938932,-0.453857421875,-0.169677734375,-0.121826171875,0.1258
2.1526717557251906,2.1068702290076335,-0.8702290076335878,-0.44677734375,-0.165771484375,-0.1298828125,0.1275
2.366412213740458,2.3053435114503817,-0.7175572519083969,-0.451171875,-0.166015625,-0.13720703125,0.12919999999999998
2.3206106870229006,2.183206106870229,-0.9007633587786259,-0.442626953125,-0.1640625,-0.13232421875,0.1309
2.030534351145038,2.0916030534351147,-0.9465648854961832,-0.448974609375,-0.16845703125,-0.126708984375,0.1326
2.198473282442748,2.2290076335877864,-1.1450381679389312,-0.448486328125,-0.16259765625,-0.130859375,0.1343
1.8931297709923665,2.366412213740458,-0.8854961832061069,-0.441650390625,-0.1669921875,-0.128173828125,0.13599999999999998
1.6030534351145038,2.1526717557251906,-0.8091603053435115,-0.44384765625,-0.16796875,-0.13134765625,0.1377
1.7557251908396947,2.2748091603053435,-1.3129770992366412,-0.443359375,-0.163330078125,-0.13671875,0.1394
1.6793893129770991,2.213740458015267,-1.1145038167938932,-0.443603515625,-0.163818359375,-0.14111328125,0.1411
1.633587786259542,1.984732824427481,-0.916030534351145,-0.444580078125,-0.16455078125,-0.130615234375,0.14279999999999998
1.6793893129770991,1.83206106870229,-1.083969465648855,-0.44091796875,-0.15869140625,-0.136962890625,0.1445
1.3435114503816794,1.786259541984733,-1.1603053435114503,-0.442138671875,-0.159912109375,-0.125,0.1462
1.4351145038167938,1.5572519083969465,-1.2061068702290076,-0.4375,-0.157470703125,-0.1298828125,0.1479
1.1450381679389312,1.786259541984733,-1.1297709923664123,-0.441162109375,-0.1591796875,-0.129150390625,0.14959999999999998
1.1297709923664123,1.3740458015267176,-1.2213740458015268,-0.44287109375,-0.158203125,-0.124755859375,0.1513
1.3435114503816794,1.3129770992366412,-1.3282442748091603,-0.4384765625,-0.15869140625,-0.1240234375,0.153
1.6946564885496183,1.4045801526717556,-1.2213740458015268,-0.4375,-0.1572265625,-0.12744140625,0.1547
1.282442748091603,1.3282442748091603,-1.4809160305343512,-0.441650390625,-0.154052734375,-0.12451171875,0.15639999999999998
1.3435114503816794,1.282442748091603,-1.3740458015267176,-0.435302734375,-0.154052734375,-0.132080078125,0.1581
1.7709923664122138,1.1450381679389312,-1.6488549618320612,-0.43603515625,-0.15087890625,-0.131591796875,0.1598
1.5725190839694656,1.3129770992366412,-1.4198473282442747,-0.4365234375,-0.152587890625,-0.1259765625,0.1615
1.6793893129770991,1.297709923664122,-1.5877862595419847,-0.43701171875,-0.14892578125,-0.128173828125,0.16319999999999998
1.9236641221374047,1.099236641221374,-1.5267175572519085,-0.437744140625,-0.1552734375,-0.133544921875,0.1649
2.030534351145038,1.1908396946564885,-1.450381679389313,-0.4375,-0.1533203125,-0.131591796875,0.1666
2.0916030534351147,1.251908396946565,-1.465648854961832,-0.437744140625,-0.155029296875,-0.12744140625,0.16829999999999998
2.2748091603053435,1.4809160305343512,-1.4351145038167938,-0.436767578125,-0.156494140625,-0.1298828125,0.16999999999999998
2.4427480916030535,1.5114503816793894,-1.3435114503816794,-0.439208984375,-0.149169921875,-0.12890625,0.1717
2.717557251908397,1.7099236641221374,-1.4809160305343512,-0.440673828125,-0.153564453125,-0.119384765625,0.1734
2.717557251908397,1.5267175572519085,-1.4961832061068703,-0.43896484375,-0.15087890625,-0.129638671875,0.17509999999999998
2.931297709923664,1.7709923664122138,-1.4198473282442747,-0.437255859375,-0.148681640625,-0.127197265625,0.17679999999999998
3.0381679389312977,1.8931297709923665,-1.2213740458015268,-0.43994140625,-0.153076171875,-0.13232421875,0.1785
3.099236641221374,1.9694656488549618,-1.5877862595419847,-0.433349609375,-0.14990234375,-0.13427734375,0.1802
3.1755725190839694,2.2595419847328246,-1.3435114503816794,-0.43798828125,-0.14892578125,-0.1240234375,0.18189999999999998
3.2061068702290076,2.2442748091603053,-1.4198473282442747,-0.440185546875,-0.15380859375,-0.1279296875,0.18359999999999999
3.2213740458015265,2.366412213740458,-1.0687022900763359,-0.4404296875,-0.155029296875,-0.13232421875,0.1853
3.114503816793893,2.4427480916030535,-1.297709923664122,-0.437744140625,-0.15185546875,-0.12841796875,0.187
3.099236641221374,2.6412213740458017,-1.450381679389313,-0.438232421875,-0.145751953125,-0.12060546875,0.18869999999999998
3.1755725190839694,2.717557251908397,-1.2061068702290076,-0.439697265625,-0.150634765625,-0.12890625,0.19039999999999999
3.3893129770992365,2.8702290076335877,-1.2213740458015268,-0.437255859375,-0.153076171875,-0.1220703125,0.1921
3.1603053435114505,3.068702290076336,-1.3435114503816794,-0.439453125,-0.157470703125,-0.122802734375,0.1938
3.1908396946564888,3.1755725190839694,-1.1297709923664123,-0.436767578125,-0.150390625,-0.124267578125,0.19549999999999998
3.480916030534351,3.236641221374046,-1.3435114503816794,-0.437744140625,-0.15576171875,-0.125732421875,0.1972
3.7251908396946565,3.49618320610687,-1.4198473282442747,-0.4365234375,-0.150634765625,-0.131591796875,0.1989
3.5114503816793894,3.6793893129770994,-1.5725190839694656,-0.435302734375,-0.15673828125,-0.126220703125,0.2006
3.7099236641221376,4.030534351145038,-1.3129770992366412,-0.43798828125,-0.152587890625,-0.12744140625,0.20229999999999998
3.816793893129771,3.9083969465648853,-1.6946564885496183,-0.442626953125,-0.155029296875,-0.125244140625,0.204
3.9236641221374047,3.9236641221374047,-1.4351145038167938,-0.435302734375,-0.156005859375,-0.120361328125,0.2057
4.0,4.2748091603053435,-1.786259541984733,-0.437744140625,-0.153564453125,-0.127685546875,0.2074
4.2748091603053435,4.091603053435114,-1.618320610687023,-0.44091796875,-0.155517578125,-0.125,0.20909999999999998
4.458015267175573,3.816793893129771,-1.8625954198473282,-0.4404296875,-0.1591796875,-0.128173828125,0.2108
4.580152671755725,3.9083969465648853,-1.633587786259542,-0.441650390625,-0.153564453125,-0.12060546875,0.2125
4.656488549618321,3.9236641221374047,-1.816793893129771,-0.443115234375,-0.154541015625,-0.123779296875,0.2142
4.809160305343512,3.786259541984733,-1.6946564885496183,-0.435546875,-0.154541015625,-0.123291015625,0.21589999999999998
4.778625954198473,3.7404580152671754,-1.7251908396946565,-0.43896484375,-0.158935546875,-0.119873046875,0.2176
4.717557251908397,3.9083969465648853,-1.5725190839694656,-0.4462890625,-0.1552734375,-0.122802734375,0.2193
4.763358778625954,3.7404580152671754,-1.8015267175572518,-0.44775390625,-0.15380859375,-0.11962890625,0.22099999999999997
4.595419847328245,3.6946564885496183,-1.7251908396946565,-0.43994140625,-0.154541015625,-0.12158203125,0.22269999999999998
4.809160305343512,3.572519083969466,-1.8473282442748091,-0.446044921875,-0.156982421875,-0.1181640625,0.2244
4.824427480916031,3.5877862595419847,-1.3587786259541985,-0.4404296875,-0.1533203125,-0.12744140625,0.2261
4.396946564885496,3.3893129770992365,-1.5877862595419847,-0.443115234375,-0.16015625,-0.121337890625,0.22779999999999997
4.5038167938931295,3.3282442748091605,-1.4809160305343512,-0.441650390625,-0.161376953125,-0.123046875,0.22949999999999998
4.732824427480916,3.5114503816793894,-1.633587786259542,-0.4462890625,-0.16455078125,-0.12060546875,0.2312
4.5038167938931295,3.5114503816793894,-1.5267175572519085,-0.44384765625,-0.161376953125,-0.1298828125,0.2329
4.290076335877862,3.2977099236641223,-1.251908396946565,-0.45068359375,-0.153076171875,-0.12890625,0.23459999999999998
4.2748091603053435,3.3282442748091605,-1.1297709923664123,-0.447998046875,-0.161865234375,-0.129638671875,0.23629999999999998
4.351145038167939,3.2061068702290076,-1.0381679389312977,-0.44775390625,-0.15966796875,-0.1259765625,0.238
4.183206106870229,3.2519083969465647,-1.297709923664122,-0.447998046875,-0.158203125,-0.123291015625,0.2397
4.015267175572519,3.2977099236641223,-0.7786259541984732,-0.449462890625,-0.158203125,-0.124755859375,0.24139999999999998
4.244274809160306,3.3282442748091605,-0.6564885496183206,-0.445556640625,-0.1650390625,-0.12451171875,0.24309999999999998
4.091603053435114,3.312977099236641,-0.8091603053435115,-0.448974609375,-0.159912109375,-0.13525390625,0.2448
3.9236641221374047,3.3740458015267176,-0.5954198473282443,-0.449462890625,-0.15966796875,-0.134521484375,0.2465
3.9236641221374047,3.3282442748091605,-0.5038167938931297,-0.45068359375,-0.15576171875,-0.123046875,0.24819999999999998
4.0,3.1755725190839694,-0.3511450381679389,-0.449462890625,-0.158935546875,-0.12646484375,0.24989999999999998
3.954198473282443,3.236641221374046,-0.42748091603053434,-0.4501953125,-0.15966796875,-0.131591796875,0.2516
3.954198473282443,3.068702290076336,-0.10687022900763359,-0.447998046875,-0.166259765625,-0.1298828125,0.25329999999999997
3.786259541984733,3.0229007633587788,-0.183206106870229,-0.44775390625,-0.163330078125,-0.12646484375,0.255
4.076335877862595,3.282442748091603,0.015267175572519083,-0.44873046875,-0.157470703125,-0.1298828125,0.2567
3.8473282442748094,3.1603053435114505,-0.030534351145038167,-0.444091796875,-0.1689453125,-0.125244140625,0.25839999999999996
3.954198473282443,3.099236641221374,0.22900763358778625,-0.44677734375,-0.16748046875,-0.12939453125,0.2601
3.8625954198473282,2.9770992366412212,0.2748091603053435,-0.445068359375,-0.161865234375,-0.127197265625,0.2618
4.091603053435114,2.900763358778626,0.32061068702290074,-0.443359375,-0.1630859375,-0.13232421875,0.2635
3.83206106870229,3.0381679389312977,0.3969465648854962,-0.445068359375,-0.16357421875,-0.128662109375,0.2652
4.061068702290076,3.1297709923664123,0.42748091603053434,-0.447509765625,-0.163330078125,-0.1259765625,0.26689999999999997
4.0458015267175576,3.053435114503817,0.549618320610687,-0.448486328125,-0.165771484375,-0.1298828125,0.2686
3.6030534351145036,3.267175572519084,0.5190839694656488,-0.444580078125,-0.1669921875,-0.125244140625,0.2703
3.6030534351145036,3.282442748091603,0.5190839694656488,-0.445556640625,-0.16357421875,-0.129150390625,0.27199999999999996
3.6793893129770994,3.145038167938931,0.549618320610687,-0.4404296875,-0.1650390625,-0.127197265625,0.2737
3.4198473282442747,3.1297709923664123,0.44274809160305345,-0.444091796875,-0.163330078125,-0.134521484375,0.2754
3.3282442748091605,3.1908396946564888,0.5190839694656488,-0.4453125,-0.1630859375,-0.13623046875,0.27709999999999996
3.3587786259541983,3.053435114503817,0.5038167938931297,-0.436279296875,-0.16357421875,-0.13037109375,0.2788
3.0229007633587788,3.0381679389312977,0.33587786259541985,-0.44287109375,-0.164794921875,-0.122802734375,0.28049999999999997
2.946564885496183,3.0076335877862594,0.21374045801526717,-0.439208984375,-0.165283203125,-0.127685546875,0.2822
2.763358778625954,2.8396946564885495,0.3511450381679389,-0.437255859375,-0.169921875,-0.12939453125,0.2839
2.5801526717557253,2.6564885496183206,0.1984732824427481,-0.43994140625,-0.167236328125,-0.130859375,0.28559999999999997
2.4427480916030535,2.4732824427480917,0.04580152671755725,-0.4375,-0.16796875,-0.134521484375,0.2873
2.2595419847328246,2.2748091603053435,0.12213740458015267,-0.43994140625,-0.162109375,-0.1279296875,0.289
1.9694656488549618,2.351145038167939,-0.10687022900763359,-0.43310546875,-0.1650390625,-0.13623046875,0.29069999999999996
2.0916030534351147,2.122137404580153,-0.22900763358778625,-0.43603515625,-0.16259765625,-0.13134765625,0.2924
1.816793893129771,1.8625954198473282,-0.21374045801526717,-0.432861328125,-0.1650390625,-0.12646484375,0.2941
1.5267175572519085,1.7557251908396947,-0.3816793893129771,-0.43603515625,-0.159423828125,-0.135498046875,0.2958
1.5114503816793894,1.7404580152671756,-0.6412213740458015,-0.441162109375,-0.16357421875,-0.12939453125,0.2975
1.4045801526717556,1.5572519083969465,-0.6870229007633588,-0.435791015625,-0.158935546875,-0.12646484375,0.29919999999999997
1.2366412213740459,1.465648854961832,-0.6106870229007634,-0.435791015625,-0.1533203125,-0.1318359375,0.3009
1.251908396946565,1.4198473282442747,-0.8244274809160306,-0.4375,-0.16064453125,-0.127197265625,0.3026
1.0076335877862594,1.1145038167938932,-0.8702290076335878,-0.435791015625,-0.158447265625,-0.13232421875,0.30429999999999996
0.9465648854961832,1.2366412213740459,-0.9618320610687023,-0.432373046875,-0.156494140625,-0.12744140625,0.306
0.9312977099236641,1.450381679389313,-1.1755725190839694,-0.43505859375,-0.155029296875,-0.134033203125,0.3077
0.9618320610687023,1.2213740458015268,-1.2061068702290076,-0.431884765625,-0.15234375,-0.129638671875,0.3094
0.8244274809160306,1.1450381679389312,-1.4809160305343512,-0.43408203125,-0.153076171875,-0.1298828125,0.3111
0.9465648854961832,1.4961832061068703,-1.5725190839694656,-0.4326171875,-0.15087890625,-0.12890625,0.31279999999999997
0.8091603053435115,1.3129770992366412,-1.5725190839694656,-0.43310546875,-0.150634765625,-0.129150390625,0.3145
0.9923664122137404,1.282442748091603,-1.5572519083969465,-0.4345703125,-0.153076171875,-0.128662109375,0.3162
1.1755725190839694,1.3282442748091603,-1.6793893129770991,-0.43798828125,-0.152099609375,-0.130859375,0.31789999999999996
1.0076335877862594,1.251908396946565,-1.9083969465648856,-0.4365234375,-0.15234375,-0.126220703125,0.3196
1.1450381679389312,1.3129770992366412,-2.015267175572519,-0.439208984375,-0.153076171875,-0.12548828125,0.3213
1.5877862595419847,1.297709923664122,-2.045801526717557,-0.4365234375,-0.1533203125,-0.12841796875,0.323
1.3129770992366412,1.618320610687023,-2.183206106870229,-0.438720703125,-0.146240234375,-0.12548828125,0.3247
1.6641221374045803,1.6030534351145038,-2.2442748091603053,-0.438232421875,-0.15087890625,-0.130615234375,0.32639999999999997
1.9083969465648856,1.5572519083969465,-2.3206106870229006,-0.434814453125,-0.147705078125,-0.123779296875,0.3281
1.6488549618320612,1.6030534351145038,-2.4122137404580153,-0.435546875,-0.1533203125,-0.12109375,0.3298
2.1068702290076335,1.786259541984733,-2.4122137404580153,-0.44482421875,-0.151611328125,-0.118896484375,0.33149999999999996
2.183206106870229,2.0,-2.4122137404580153,-0.44287109375,-0.151123046875,-0.1240234375,0.3332
2.595419847328244,1.9236641221374047,-2.519083969465649,-0.43701171875,-0.14599609375,-0.119873046875,0.3349
2.8091603053435112,2.122137404580153,-2.366412213740458,-0.443115234375,-0.150634765625,-0.11767578125,0.33659999999999995
2.717557251908397,2.3206106870229006,-2.595419847328244,-0.442626953125,-0.14599609375,-0.12109375,0.3383
3.2213740458015265,2.4427480916030535,-2.4885496183206106,-0.44921875,-0.14404296875,-0.1240234375,0.33999999999999997
3.5419847328244276,2.8396946564885495,-2.564885496183206,-0.443603515625,-0.149658203125,-0.125,0.3417
3.6793893129770994,2.885496183206107,-2.549618320610687,-0.443359375,-0.143310546875,-0.121826171875,0.3434
3.83206106870229,2.732824427480916,-2.687022900763359,-0.440185546875,-0.15234375,-0.128173828125,0.34509999999999996
4.152671755725191,3.0839694656488548,-2.4427480916030535,-0.4453125,-0.149169921875,-0.120849609375,0.3468
4.488549618320611,3.480916030534351,-2.33587786259542,-0.444091796875,-0.149169921875,-0.123291015625,0.3485
4.259541984732825,3.572519083969466,-2.183206106870229,-0.448486328125,-0.1474609375,-0.118408203125,0.35019999999999996
4.885496183206107,3.8931297709923665,-2.16793893129771,-0.447998046875,-0.14404296875,-0.124267578125,0.3519
4.961832061068702,4.091603053435114,-2.0916030534351147,-0.445068359375,-0.154541015625,-0.1318359375,0.35359999999999997
4.793893129770993,4.076335877862595,-2.1374045801526718,-0.4501953125,-0.155517578125,-0.133544921875,0.3553
4.931297709923665,4.519083969465649,-2.045801526717557,-0.448974609375,-0.151611328125,-0.118896484375,0.357
5.297709923664122,4.5038167938931295,-1.9389312977099236,-0.44873046875,-0.161376953125,-0.11767578125,0.35869999999999996
5.312977099236641,4.442748091603053,-1.5725190839694656,-0.448486328125,-0.1611328125,-0.12255859375,0.3604
5.129770992366412,4.641221374045801,-1.8625954198473282,-0.453125,-0.1591796875,-0.123291015625,0.3621
5.297709923664122,4.824427480916031,-1.7099236641221374,-0.450927734375,-0.160400390625,-0.128173828125,0.36379999999999996
5.358778625954199,4.595419847328245,-1.6488549618320612,-0.44580078125,-0.160888671875,-0.126708984375,0.3655
5.450381679389313,4.625954198473282,-1.5572519083969465,-0.451904296875,-0.156494140625,-0.12548828125,0.36719999999999997
5.32824427480916,4.564885496183206,-1.6641221374045803,-0.450927734375,-0.157958984375,-0.134521484375,0.3689
5.435114503816794,4.656488549618321,-1.4961832061068703,-0.453857421875,-0.1611328125,-0.130615234375,0.3706
5.374045801526718,4.320610687022901,-1.5419847328244274,-0.453125,-0.1630859375,-0.126220703125,0.37229999999999996
4.99236641221374,4.33587786259542,-1.251908396946565,-0.451416015625,-0.16455078125,-0.1298828125,0.374
5.297709923664122,4.2748091603053435,-1.3435114503816794,-0.448486328125,-0.16845703125,-0.1259765625,0.3757
5.206106870229007,4.305343511450381,-1.3587786259541985,-0.448486328125,-0.1650390625,-0.127685546875,0.37739999999999996
4.977099236641221,4.106870229007634,-1.2213740458015268,-0.44384765625,-0.168701171875,-0.1142578125,0.3791
4.8396946564885495,3.8625954198473282,-1.1755725190839694,-0.449462890625,-0.164794921875,-0.122802734375,0.38079999999999997
4.702290076335878,3.6793893129770994,-1.0381679389312977,-0.4541015625,-0.166748046875,-0.119140625,0.38249999999999995
4.427480916030534,3.1603053435114505,-0.9312977099236641,-0.447509765625,-0.172607421875,-0.134521484375,0.3842
4.5038167938931295,2.8702290076335877,-0.9465648854961832,-0.448486328125,-0.167236328125,-0.132568359375,0.38589999999999997
4.183206106870229,2.9160305343511452,-0.7022900763358778,-0.45068359375,-0.17529296875,-0.1240234375,0.3876
3.877862595419847,2.7022900763358777,-0.5648854961832062,-0.44873046875,-0.168701171875,-0.126708984375,0.3893
3.5877862595419847,2.2748091603053435,-0.549618320610687,-0.44677734375,-0.174072265625,-0.129150390625,0.39099999999999996
3.1755725190839694,2.2748091603053435,-0.3053435114503817,-0.452392578125,-0.166748046875,-0.1240234375,0.3927
3.0076335877862594,2.0916030534351147,-0.07633587786259542,-0.44384765625,-0.169677734375,-0.127197265625,0.3944
2.6259541984732824,1.984732824427481,0.0,-0.44921875,-0.166748046875,-0.125244140625,0.39609999999999995
2.1374045801526718,1.786259541984733,0.22900763358778625,-0.44921875,-0.1689453125,-0.124267578125,0.3978
1.9541984732824427,1.8931297709923665,0.1984732824427481,-0.451904296875,-0.1689453125,-0.13037109375,0.39949999999999997
1.3129770992366412,1.6030534351145038,0.5038167938931297,-0.44677734375,-0.16650390625,-0.13427734375,0.4012
1.0381679389312977,1.3587786259541985,0.2748091603053435,-0.44091796875,-0.169677734375,-0.130859375,0.4029
0.4580152671755725,1.3435114503816794,0.44274809160305345,-0.4443359375,-0.17041015625,-0.1318359375,0.40459999999999996
0.1984732824427481,1.4198473282442747,0.5190839694656488,-0.447998046875,-0.1708984375,-0.134033203125,0.4063
-0.2900763358778626,1.2671755725190839,0.8091603053435115,-0.4462890625,-0.17431640625,-0.137939453125,0.408
-0.8396946564885496,1.1297709923664123,0.7480916030534351,-0.440185546875,-0.1708984375,-0.126708984375,0.40969999999999995
-1.5114503816793894,1.1297709923664123,0.9007633587786259,-0.4443359375,-0.165771484375,-0.1328125,0.4114
-1.6641221374045803,0.9923664122137404,0.8549618320610687,-0.44287109375,-0.165283203125,-0.126953125,0.41309999999999997
-2.2442748091603053,0.9923664122137404,0.9923664122137404,-0.44384765625,-0.16455078125,-0.122802734375,0.4148
-2.381679389312977,0.9312977099236641,0.8091603053435115,-0.44287109375,-0.16455078125,-0.123291015625,0.4165
-2.6106870229007635,0.9618320610687023,0.9007633587786259,-0.43701171875,-0.170166015625,-0.1318359375,0.41819999999999996
-2.900763358778626,0.7022900763358778,0.732824427480916,-0.443603515625,-0.166259765625,-0.1259765625,0.4199
-2.931297709923664,0.7022900763358778,0.732824427480916,-0.43994140625,-0.169677734375,-0.127685546875,0.4216
-3.2519083969465647,0.732824427480916,0.8091603053435115,-0.440673828125,-0.16552734375,-0.130615234375,0.42329999999999995
-3.312977099236641,0.7175572519083969,0.6564885496183206,-0.440673828125,-0.1640625,-0.12890625,0.425
-3.3893129770992365,0.42748091603053434,0.6717557251908397,-0.440185546875,-0.166748046875,-0.126708984375,0.42669999999999997
-3.282442748091603,0.3511450381679389,0.5190839694656488,-0.43994140625,-0.165283203125,-0.13330078125,0.4284
-3.4198473282442747,0.366412213740458,0.6259541984732825,-0.4384765625,-0.16162109375,-0.130615234375,0.4301
-3.450381679389313,0.5190839694656488,0.5648854961832062,-0.43701171875,-0.159423828125,-0.1201171875,0.43179999999999996
-3.404580152671756,0.4580152671755725,0.183206106870229,-0.439697265625,-0.1630859375,-0.1279296875,0.4335
-3.5267175572519083,0.13740458015267176,0.15267175572519084,-0.4404296875,-0.156982421875,-0.12841796875,0.4352
-3.0076335877862594,0.015267175572519083,0.13740458015267176,-0.438720703125,-0.15625,-0.123779296875,0.43689999999999996
-3.0839694656488548,0.24427480916030533,0.10687022900763359,-0.4375,-0.159423828125,-0.1240234375,0.4386
-3.404580152671756,0.32061068702290074,-0.015267175572519083,-0.439208984375,-0.156494140625,-0.122802734375,0.44029999999999997
-3.114503816793893,0.3053435114503817,0.061068702290076333,-0.4384765625,-0.151123046875,-0.12646484375,0.44199999999999995
-2.9160305343511452,0.2900763358778626,-0.2748091603053435,-0.439208984375,-0.156494140625,-0.11962890625,0.4437
-2.931297709923664,0.2900763358778626,-0.061068702290076333,-0.436279296875,-0.151123046875,-0.1279296875,0.44539999999999996
-2.6717557251908395,0.32061068702290074,-0.3053435114503817,-0.432861328125,-0.150390625,-0.129150390625,0.4471
-2.6106870229007635,0.48854961832061067,-0.4122137404580153,-0.439453125,-0.150390625,-0.1220703125,0.4488
-2.427480916030534,0.4732824427480916,-0.22900763358778625,-0.43359375,-0.1513671875,-0.1201171875,0.45049999999999996
-2.4732824427480917,0.4732824427480916,-0.2748091603053435,-0.43798828125,-0.15673828125,-0.1220703125,0.4522
-2.381679389312977,0.5190839694656488,-0.5343511450381679,-0.4287109375,-0.1513671875,-0.128173828125,0.45389999999999997
-1.8625954198473282,0.9618320610687023,-0.3816793893129771,-0.435546875,-0.14697265625,-0.12548828125,0.45559999999999995
-1.8778625954198473,1.1450381679389312,-0.4732824427480916,-0.431884765625,-0.150390625,-0.123779296875,0.4573
-1.7099236641221374,0.8396946564885496,-0.3511450381679389,-0.432373046875,-0.149658203125,-0.12451171875,0.45899999999999996
-1.4351145038167938,0.8244274809160306,-0.6870229007633588,-0.42724609375,-0.1494140625,-0.125,0.4607
-0.9465648854961832,0.9923664122137404,-0.6106870229007634,-0.43505859375,-0.149169921875,-0.128662109375,0.4624
-0.9465648854961832,1.2366412213740459,-0.6412213740458015,-0.4345703125,-0.143310546875,-0.129150390625,0.46409999999999996
-0.7938931297709924,1.1908396946564885,-0.7480916030534351,-0.434326171875,-0.14013671875,-0.12646484375,0.4658
-0.2595419847328244,1.251908396946565,-0.9312977099236641,-0.435302734375,-0.14453125,-0.13037109375,0.46749999999999997
0.04580152671755725,1.3740458015267176,-0.9465648854961832,-0.43701171875,-0.146728515625,-0.128662109375,0.46919999999999995
0.13740458015267176,1.5419847328244274,-1.2671755725190839,-0.431640625,-0.146728515625,-0.126953125,0.4709
0.2900763358778626,1.5267175572519085,-1.0687022900763359,-0.43994140625,-0.14599609375,-0.120849609375,0.47259999999999996
0.8702290076335878,1.5725190839694656,-1.297709923664122,-0.438720703125,-0.146484375,-0.127685546875,0.4743
1.099236641221374,1.8473282442748091,-1.3129770992366412,-0.442138671875,-0.142822265625,-0.130615234375,0.476
1.3282442748091603,1.8931297709923665,-1.2213740458015268,-0.437744140625,-0.14501953125,-0.135986328125,0.47769999999999996
1.633587786259542,1.9083969465648856,-1.5725190839694656,-0.438232421875,-0.142333984375,-0.127685546875,0.4794
1.786259541984733,2.198473282442748,-1.6488549618320612,-0.434326171875,-0.1435546875,-0.1220703125,0.48109999999999997
1.9389312977099236,2.4427480916030535,-1.4198473282442747,-0.44140625,-0.14697265625,-0.123779296875,0.48279999999999995
2.2290076335877864,2.366412213740458,-1.5114503816793894,-0.43603515625,-0.14111328125,-0.13427734375,0.4845
2.4427480916030535,2.717557251908397,-1.4961832061068703,-0.433349609375,-0.146728515625,-0.126220703125,0.48619999999999997
2.687022900763359,2.885496183206107,-1.7099236641221374,-0.436279296875,-0.14501953125,-0.12939453125,0.4879
2.763358778625954,2.7786259541984735,-1.6793893129770991,-0.43798828125,-0.14599609375,-0.1328125,0.4896
2.732824427480916,2.931297709923664,-1.7404580152671756,-0.430908203125,-0.150634765625,-0.132080078125,0.49129999999999996
3.0229007633587788,3.1297709923664123,-1.786259541984733,-0.436767578125,-0.152099609375,-0.126953125,0.493
3.1755725190839694,2.9923664122137406,-1.9236641221374047,-0.43603515625,-0.150390625,-0.12109375,0.4947
2.9618320610687023,3.114503816793893,-1.9541984732824427,-0.43701171875,-0.14990234375,-0.124755859375,0.49639999999999995
3.1755725190839694,3.2061068702290076,-2.1068702290076335,-0.43115234375,-0.149658203125,-0.1357421875,0.4981
3.2977099236641223,3.1297709923664123,-2.015267175572519,-0.436279296875,-0.149169921875,-0.130126953125,0.49979999999999997
3.404580152671756,3.114503816793893,-2.3053435114503817,-0.442138671875,-0.1552734375,-0.120361328125,0.5015
3.3435114503816794,3.282442748091603,-2.213740458015267,-0.43505859375,-0.156982421875,-0.118408203125,0.5032
3.282442748091603,3.114503816793893,-2.16793893129771,-0.438232421875,-0.14794921875,-0.122314453125,0.5049
3.114503816793893,3.0381679389312977,-2.183206106870229,-0.440185546875,-0.1533203125,-0.1201171875,0.5065999999999999
2.900763358778626,3.0839694656488548,-2.1374045801526718,-0.437744140625,-0.15869140625,-0.1240234375,0.5083
3.114503816793893,2.9618320610687023,-2.2442748091603053,-0.434326171875,-0.153564453125,-0.12548828125,0.51
3.053435114503817,2.946564885496183,-2.0916030534351147,-0.43701171875,-0.154541015625,-0.128173828125,0.5116999999999999
2.6412213740458017,3.068702290076336,-2.0763358778625953,-0.43896484375,-0.153564453125,-0.130126953125,0.5134
2.7786259541984735,2.732824427480916,-2.1526717557251906,-0.43798828125,-0.155517578125,-0.12451171875,0.5151
2.687022900763359,2.6717557251908395,-2.0763358778625953,-0.442626953125,-0.15576171875,-0.12646484375,0.5167999999999999
2.16793893129771,2.6564885496183206,-1.9083969465648856,-0.446533203125,-0.15234375,-0.129150390625,0.5185
2.1374045801526718,2.5801526717557253,-1.9389312977099236,-0.44970703125,-0.1591796875,-0.13232421875,0.5202
1.9236641221374047,2.519083969465649,-1.8931297709923665,-0.44921875,-0.157470703125,-0.127197265625,0.5218999999999999
1.6030534351145038,2.4580152671755724,-1.633587786259542,-0.44189453125,-0.1640625,-0.12353515625,0.5236
1.618320610687023,2.427480916030534,-1.6641221374045803,-0.4453125,-0.157470703125,-0.125,0.5253
1.251908396946565,2.2900763358778624,-1.450381679389313,-0.450927734375,-0.156494140625,-0.1259765625,0.527
0.8702290076335878,2.198473282442748,-1.297709923664122,-0.44287109375,-0.158447265625,-0.12548828125,0.5287
0.7022900763358778,2.183206106870229,-1.1755725190839694,-0.446044921875,-0.15478515625,-0.124267578125,0.5304
0.3816793893129771,2.045801526717557,-1.1603053435114503,-0.450927734375,-0.158935546875,-0.122802734375,0.5321
0.24427480916030533,2.2595419847328246,-1.2213740458015268,-0.447021484375,-0.16015625,-0.12060546875,0.5337999999999999
-0.13740458015267176,2.0916030534351147,-1.0076335877862594,-0.4560546875,-0.16015625,-0.120361328125,0.5355
-0.21374045801526717,1.786259541984733,-0.9465648854961832,-0.447021484375,-0.16064453125,-0.1240234375,0.5372
-0.183206106870229,1.7099236641221374,-0.9007633587786259,-0.44873046875,-0.156982421875,-0.118408203125,0.5388999999999999
-0.8854961832061069,1.6641221374045803,-0.7175572519083969,-0.45703125,-0.161865234375,-0.134033203125,0.5406
-1.0076335877862594,1.5572519083969465,-0.5648854961832062,-0.452880859375,-0.1640625,-0.12841796875,0.5423
-0.9618320610687023,1.2671755725190839,-0.6259541984732825,-0.455810546875,-0.1640625,-0.12646484375,0.5439999999999999
-1.1145038167938932,1.2061068702290076,-0.4580152671755725,-0.451904296875,-0.161376953125,-0.12548828125,0.5457
-1.083969465648855,1.1603053435114503,-0.5343511450381679,-0.4599609375,-0.16943359375,-0.12841796875,0.5474
-1.0534351145038168,0.7938931297709924,-0.2595419847328244,-0.448486328125,-0.1611328125,-0.118408203125,0.5490999999999999
-1.4809160305343512,0.8091603053435115,-0.44274809160305345,-0.45068359375,-0.16796875,-0.12646484375,0.5508
-1.2213740458015268,1.0229007633587786,-0.4580152671755725,-0.457763671875,-0.157470703125,-0.135009765625,0.5525
-1.1450381679389312,0.7786259541984732,-0.3511450381679389,-0.452392578125,-0.1630859375,-0.12890625,0.5541999999999999
-1.3740458015267176,0.7022900763358778,-0.22900763358778625,-0.45654296875,-0.163330078125,-0.13134765625,0.5559
-1.3282442748091603,0.6259541984732825,-0.21374045801526717,-0.453125,-0.16650390625,-0.1357421875,0.5576
-1.3282442748091603,0.5190839694656488,-0.32061068702290074,-0.4560546875,-0.161376953125,-0.130859375,0.5593
-1.083969465648855,0.32061068702290074,-0.32061068702290074,-0.45263671875,-0.165771484375,-0.134521484375,0.5609999999999999
-1.1297709923664123,0.4732824427480916,-0.3053435114503817,-0.454833984375,-0.1669921875,-0.123779296875,0.5627
-1.083969465648855,0.5954198473282443,-0.2748091603053435,-0.451171875,-0.162353515625,-0.13525390625,0.5644
-0.8854961832061069,0.549618320610687,-0.3969465648854962,-0.4609375,-0.164794921875,-0.141357421875,0.5660999999999999
-0.9618320610687023,0.3053435114503817,-0.12213740458015267,-0.46240234375,-0.161865234375,-0.133544921875,0.5678
-0.8702290076335878,0.48854961832061067,-0.10687022900763359,-0.458251953125,-0.16259765625,-0.1279296875,0.5695
-0.7480916030534351,0.42748091603053434,-0.13740458015267176,-0.461181640625,-0.16845703125,-0.131103515625,0.5711999999999999
-0.6106870229007634,0.48854961832061067,0.2595419847328244,-0.461181640625,-0.160888671875,-0.1318359375,0.5729
-0.42748091603053434,0.4732824427480916,0.2900763358778626,-0.450927734375,-0.162353515625,-0.126708984375,0.5746
-0.44274809160305345,0.33587786259541985,0.32061068702290074,-0.452392578125,-0.156494140625,-0.1328125,0.5762999999999999
-0.4122137404580153,0.5343511450381679,0.061068702290076333,-0.45556640625,-0.156005859375,-0.13037109375,0.578
-0.2900763358778626,0.5343511450381679,0.183206106870229,-0.4501953125,-0.160400390625,-0.130126953125,0.5797
0.0,0.42748091603053434,0.366412213740458,-0.44775390625,-0.16259765625,-0.134765625,0.5813999999999999
-0.12213740458015267,0.3969465648854962,0.366412213740458,-0.44580078125,-0.157958984375,-0.128173828125,0.5831
-0.04580152671755725,0.2595419847328244,0.21374045801526717,-0.44921875,-0.157470703125,-0.11962890625,0.5848
0.1984732824427481,0.32061068702290074,0.3816793893129771,-0.447265625,-0.157958984375,-0.135498046875,0.5865
0.07633587786259542,0.2900763358778626,0.32061068702290074,-0.44775390625,-0.157470703125,-0.136474609375,0.5882
0.07633587786259542,0.15267175572519084,0.2900763358778626,-0.451904296875,-0.15576171875,-0.129150390625,0.5899
0.22900763358778625,0.33587786259541985,0.1984732824427481,-0.451416015625,-0.156982421875,-0.1259765625,0.5916
0.5648854961832062,0.061068702290076333,0.33587786259541985,-0.448486328125,-0.157958984375,-0.121337890625,0.5932999999999999
0.6106870229007634,-0.16793893129770993,0.0916030534351145,-0.4423828125,-0.158447265625,-0.12646484375,0.595
0.7786259541984732,-0.10687022900763359,0.1984732824427481,-0.44384765625,-0.158935546875,-0.1201171875,0.5967
0.7022900763358778,-0.16793893129770993,0.24427480916030533,-0.447265625,-0.158203125,-0.126708984375,0.5983999999999999
0.9312977099236641,-0.15267175572519084,-0.015267175572519083,-0.445556640625,-0.159912109375,-0.129150390625,0.6001
0.916030534351145,-0.2748091603053435,-0.07633587786259542,-0.441162109375,-0.1611328125,-0.12890625,0.6018
1.0229007633587786,-0.22900763358778625,0.366412213740458,-0.44091796875,-0.162353515625,-0.123779296875,0.6034999999999999
1.2213740458015268,-0.22900763358778625,-0.12213740458015267,-0.4453125,-0.161865234375,-0.123291015625,0.6052
1.0076335877862594,-0.4122137404580153,0.13740458015267176,-0.44189453125,-0.1591796875,-0.128173828125,0.6069
1.0534351145038168,-0.0916030534351145,-0.22900763358778625,-0.44384765625,-0.16357421875,-0.121826171875,0.6085999999999999
1.0381679389312977,-0.12213740458015267,-0.04580152671755725,-0.4375,-0.16015625,-0.127197265625,0.6103
1.282442748091603,-0.22900763358778625,-0.2595419847328244,-0.43994140625,-0.16064453125,-0.126220703125,0.612
1.2366412213740459,0.04580152671755725,0.04580152671755725,-0.445556640625,-0.154296875,-0.12451171875,0.6136999999999999
1.3893129770992367,0.015267175572519083,-0.16793893129770993,-0.4365234375,-0.16015625,-0.12451171875,0.6154
1.3129770992366412,0.04580152671755725,-0.04580152671755725,-0.43798828125,-0.15869140625,-0.12890625,0.6171
1.1603053435114503,0.13740458015267176,-0.15267175572519084,-0.430419921875,-0.1630859375,-0.130126953125,0.6188
1.2366412213740459,0.33587786259541985,-0.10687022900763359,-0.438232421875,-0.1630859375,-0.1220703125,0.6204999999999999
1.3587786259541985,0.24427480916030533,-0.15267175572519084,-0.432861328125,-0.156494140625,-0.12939453125,0.6222
1.3282442748091603,0.24427480916030533,-0.10687022900763359,-0.434814453125,-0.156982421875,-0.13232421875,0.6239
1.1450381679389312,0.33587786259541985,-0.21374045801526717,-0.435302734375,-0.160400390625,-0.13232421875,0.6255999999999999
1.2213740458015268,0.4580152671755725,0.015267175572519083,-0.435302734375,-0.163330078125,-0.122314453125,0.6273
1.1603053435114503,0.5648854961832062,-0.12213740458015267,-0.432373046875,-0.162109375,-0.13720703125,0.629
1.4045801526717556,0.22900763358778625,-0.24427480916030533,-0.431884765625,-0.156982421875,-0.134765625,0.6306999999999999
1.1755725190839694,0.3511450381679389,-0.21374045801526717,-0.43310546875,-0.158935546875,-0.133544921875,0.6324
0.8702290076335878,0.3511450381679389,-0.10687022900763359,-0.433349609375,-0.164794921875,-0.133544921875,0.6341
0.9618320610687023,0.12213740458015267,0.015267175572519083,-0.433837890625,-0.15576171875,-0.127197265625,0.6357999999999999
0.7633587786259542,0.13740458015267176,0.12213740458015267,-0.4267578125,-0.161376953125,-0.121826171875,0.6375
0.5343511450381679,0.2595419847328244,-0.07633587786259542,-0.4287109375,-0.15478515625,-0.12646484375,0.6392
0.549618320610687,0.32061068702290074,-0.10687022900763359,-0.430419921875,-0.153076171875,-0.133544921875,0.6408999999999999
0.366412213740458,-0.07633587786259542,-0.16793893129770993,-0.422607421875,-0.160888671875,-0.129638671875,0.6426
0.04580152671755725,0.04580152671755725,0.0,-0.424072265625,-0.154296875,-0.123779296875,0.6443
-0.12213740458015267,-0.10687022900763359,-0.16793893129770993,-0.428466796875,-0.153564453125,-0.129638671875,0.646
-0.15267175572519084,-0.3969465648854962,-0.24427480916030533,-0.423828125,-0.152587890625,-0.13671875,0.6476999999999999
-0.2748091603053435,-0.33587786259541985,-0.22900763358778625,-0.427978515625,-0.157958984375,-0.127197265625,0.6494
-0.4732824427480916,-0.5343511450381679,-0.04580152671755725,-0.4267578125,-0.15087890625,-0.129638671875,0.6511
-0.9465648854961832,-0.7480916030534351,-0.3053435114503817,-0.433837890625,-0.152099609375,-0.1357421875,0.6527999999999999
-0.7938931297709924,-0.5801526717557252,-0.2900763358778626,-0.4306640625,-0.150634765625,-0.133056640625,0.6545
-0.8091603053435115,-0.5343511450381679,-0.2595419847328244,-0.430908203125,-0.1474609375,-0.1376953125,0.6562
-1.0381679389312977,-0.7022900763358778,-0.13740458015267176,-0.426513671875,-0.152587890625,-0.12939453125,0.6578999999999999
-1.1755725190839694,-0.7022900763358778,-0.2900763358778626,-0.42919921875,-0.143310546875,-0.13134765625,0.6596
-1.282442748091603,-0.5343511450381679,-0.2595419847328244,-0.424072265625,-0.14697265625,-0.130859375,0.6613
-1.6946564885496183,-0.33587786259541985,-0.22900763358778625,-0.427978515625,-0.140380859375,-0.12353515625,0.6629999999999999
-1.3282442748091603,-0.44274809160305345,-0.44274809160305345,-0.42529296875,-0.153076171875,-0.127685546875,0.6647
-1.297709923664122,-0.32061068702290074,-0.4580152671755725,-0.43505859375,-0.1416015625,-0.136474609375,0.6664
-1.5572519083969465,-0.12213740458015267,-0.5648854961832062,-0.4306640625,-0.141357421875,-0.13671875,0.6680999999999999
-1.5572519083969465,-0.07633587786259542,-0.9312977099236641,-0.428955078125,-0.142822265625,-0.13330078125,0.6698
-1.3129770992366412,0.15267175572519084,-0.7633587786259542,-0.43115234375,-0.14208984375,-0.12646484375,0.6715
-1.2366412213740459,0.10687022900763359,-0.7022900763358778,-0.431396484375,-0.144287109375,-0.126220703125,0.6731999999999999
-1.251908396946565,0.12213740458015267,-0.7175572519083969,-0.43017578125,-0.141845703125,-0.126953125,0.6748999999999999
-0.9770992366412213,0.1984732824427481,-0.9465648854961832,-0.43017578125,-0.13916015625,-0.135009765625,0.6766
-0.9007633587786259,0.2595419847328244,-0.9618320610687023,-0.429443359375,-0.14111328125,-0.13232421875,0.6783
-0.916030534351145,0.42748091603053434,-1.282442748091603,-0.429443359375,-0.14111328125,-0.122802734375,0.6799999999999999
-0.6412213740458015,0.5343511450381679,-1.1908396946564885,-0.427978515625,-0.13623046875,-0.127685546875,0.6817
-0.6870229007633588,0.6259541984732825,-1.465648854961832,-0.431884765625,-0.140869140625,-0.1298828125,0.6834
-0.3969465648854962,0.6412213740458015,-1.450381679389313,-0.428466796875,-0.1376953125,-0.125,0.6850999999999999
-0.015267175572519083,0.6259541984732825,-1.6488549618320612,-0.43017578125,-0.14013671875,-0.1318359375,0.6868
0.3511450381679389,0.916030534351145,-1.6030534351145038,-0.42529296875,-0.13623046875,-0.12890625,0.6885
0.7633587786259542,1.1908396946564885,-1.9083969465648856,-0.4267578125,-0.138916015625,-0.123291015625,0.6901999999999999
0.9007633587786259,1.1145038167938932,-1.984732824427481,-0.440185546875,-0.135498046875,-0.12744140625,0.6919
1.1755725190839694,1.0076335877862594,-2.16793893129771,-0.4345703125,-0.13818359375,-0.128662109375,0.6936
1.465648854961832,1.297709923664122,-2.045801526717557,-0.434326171875,-0.134521484375,-0.1298828125,0.6952999999999999
1.8931297709923665,1.4809160305343512,-2.198473282442748,-0.43603515625,-0.140869140625,-0.122314453125,0.697
1.984732824427481,1.5419847328244274,-2.2442748091603053,-0.441650390625,-0.13916015625,-0.123291015625,0.6987
2.6259541984732824,1.5419847328244274,-2.3053435114503817,-0.442626953125,-0.132568359375,-0.123779296875,0.7003999999999999
2.7938931297709924,1.9236641221374047,-2.351145038167939,-0.441162109375,-0.136474609375,-0.119873046875,0.7021
3.236641221374046,1.8473282442748091,-2.183206106870229,-0.44580078125,-0.14306640625,-0.12158203125,0.7038
3.6030534351145036,1.9389312977099236,-2.198473282442748,-0.443115234375,-0.140380859375,-0.120849609375,0.7055
3.7709923664122136,2.1526717557251906,-2.198473282442748,-0.443359375,-0.140869140625,-0.11962890625,0.7071999999999999
4.442748091603053,2.045801526717557,-2.213740458015267,-0.446044921875,-0.139404296875,-0.127197265625,0.7089
4.564885496183206,1.9694656488549618,-2.122137404580153,-0.449462890625,-0.143798828125,-0.12548828125,0.7106
4.961832061068702,2.1526717557251906,-1.9541984732824427,-0.44482421875,-0.146728515625,-0.13134765625,0.7122999999999999
5.343511450381679,2.183206106870229,-1.984732824427481,-0.450927734375,-0.144775390625,-0.122802734375,0.714
5.694656488549619,2.213740458015267,-1.8015267175572518,-0.450439453125,-0.142578125,-0.1337890625,0.7157
5.770992366412214,2.2290076335877864,-1.7557251908396947,-0.451171875,-0.1435546875,-0.13134765625,0.7173999999999999
6.152671755725191,2.3053435114503817,-1.6641221374045803,-0.45166015625,-0.14697265625,-0.130859375,0.7191
6.33587786259542,2.4122137404580153,-1.5267175572519085,-0.456298828125,-0.148193359375,-0.13037109375,0.7208
6.595419847328245,2.427480916030534,-1.297709923664122,-0.4541015625,-0.149169921875,-0.120361328125,0.7224999999999999
6.564885496183206,2.427480916030534,-1.1755725190839694,-0.456787109375,-0.149169921875,-0.13134765625,0.7242
6.961832061068702,2.4732824427480917,-1.2213740458015268,-0.4521484375,-0.1572265625,-0.12060546875,0.7259
7.00763358778626,2.5343511450381677,-1.0534351145038168,-0.4560546875,-0.153564453125,-0.1181640625,0.7275999999999999
7.190839694656488,2.4580152671755724,-0.9618320610687023,-0.4541015625,-0.15625,-0.12646484375,0.7293
7.267175572519084,2.3969465648854964,-0.7022900763358778,-0.45947265625,-0.1572265625,-0.128662109375,0.731
7.6183206106870225,2.4122137404580153,-0.7480916030534351,-0.45458984375,-0.1630859375,-0.126220703125,0.7326999999999999
7.374045801526718,2.4732824427480917,-0.5038167938931297,-0.45654296875,-0.162841796875,-0.12890625,0.7343999999999999
7.175572519083969,2.5343511450381677,-0.48854961832061067,-0.454345703125,-0.164306640625,-0.128662109375,0.7361
7.1603053435114505,2.427480916030534,-0.5801526717557252,-0.452392578125,-0.1630859375,-0.133056640625,0.7378
7.129770992366412,2.381679389312977,-0.5801526717557252,-0.455322265625,-0.162353515625,-0.130859375,0.7394999999999999
6.885496183206107,2.3206106870229006,-0.44274809160305345,-0.45361328125,-0.160400390625,-0.12841796875,0.7412
6.717557251908397,2.16793893129771,-0.366412213740458,-0.455078125,-0.169677734375,-0.130859375,0.7429
6.595419847328245,2.1374045801526718,-0.3969465648854962,-0.457763671875,-0.1630859375,-0.125732421875,0.7445999999999999
6.33587786259542,1.7709923664122138,-0.2748091603053435,-0.450927734375,-0.16943359375,-0.12744140625,0.7463
6.290076335877862,1.5725190839694656,-0.12213740458015267,-0.455078125,-0.166259765625,-0.123291015625,0.748
6.1679389312977095,1.2213740458015268,-0.12213740458015267,-0.45263671875,-0.173095703125,-0.1240234375,0.7496999999999999
5.557251908396947,1.3129770992366412,0.030534351145038167,-0.449462890625,-0.17333984375,-0.1357421875,0.7514
5.404580152671755,1.0687022900763359,-0.0916030534351145,-0.45068359375,-0.170166015625,-0.130126953125,0.7531
5.145038167938932,0.9923664122137404,-0.0916030534351145,-0.454833984375,-0.17333984375,-0.126953125,0.7547999999999999
4.748091603053435,0.5801526717557252,-0.12213740458015267,-0.453857421875,-0.178466796875,-0.131591796875,0.7565
3.984732824427481,0.5038167938931297,-0.0916030534351145,-0.450927734375,-0.173828125,-0.1298828125,0.7582
3.480916030534351,0.3816793893129771,-0.030534351145038167,-0.44970703125,-0.180908203125,-0.127685546875,0.7598999999999999
3.1908396946564888,0.1984732824427481,-0.2595419847328244,-0.451171875,-0.181640625,-0.134521484375,0.7615999999999999
2.900763358778626,-0.12213740458015267,-0.2595419847328244,-0.454345703125,-0.17919921875,-0.13623046875,0.7633
2.33587786259542,-0.32061068702290074,-0.0916030534351145,-0.455810546875,-0.175048828125,-0.122314453125,0.7649999999999999
1.984732824427481,-0.44274809160305345,0.04580152671755725,-0.447509765625,-0.176025390625,-0.13037109375,0.7666999999999999
1.3282442748091603,-0.6259541984732825,0.183206106870229,-0.448486328125,-0.173583984375,-0.1328125,0.7684
0.9465648854961832,-0.7633587786259542,-0.13740458015267176,-0.448486328125,-0.17578125,-0.1357421875,0.7701
0.42748091603053434,-0.8702290076335878,0.1984732824427481,-0.448974609375,-0.177978515625,-0.12548828125,0.7717999999999999
0.07633587786259542,-0.8244274809160306,0.366412213740458,-0.4521484375,-0.1728515625,-0.1240234375,0.7735
-0.33587786259541985,-0.7022900763358778,0.21374045801526717,-0.4482421875,-0.173583984375,-0.127685546875,0.7752
-0.916030534351145,-0.8244274809160306,0.04580152671755725,-0.450439453125,-0.17333984375,-0.1318359375,0.7768999999999999
-1.2671755725190839,-0.9770992366412213,0.42748091603053434,-0.4501953125,-0.174560546875,-0.134033203125,0.7786
-1.618320610687023,-0.7633587786259542,0.32061068702290074,-0.44921875,-0.171630859375,-0.125732421875,0.7803
-2.0,-0.8091603053435115,0.44274809160305345,-0.451171875,-0.167724609375,-0.121337890625,0.7819999999999999
-2.2595419847328246,-0.9770992366412213,0.2900763358778626,-0.44921875,-0.1689453125,-0.1162109375,0.7837
-2.6564885496183206,-1.0534351145038168,0.2748091603053435,-0.452880859375,-0.170166015625,-0.131591796875,0.7854
-2.9160305343511452,-0.9007633587786259,0.5190839694656488,-0.451904296875,-0.16259765625,-0.133544921875,0.7870999999999999
-2.9770992366412212,-1.1145038167938932,0.4580152671755725,-0.445556640625,-0.1611328125,-0.130615234375,0.7888
-3.4656488549618323,-1.099236641221374,0.4580152671755725,-0.44482421875,-0.16552734375,-0.12890625,0.7905
-3.572519083969466,-1.282442748091603,0.6564885496183206,-0.441650390625,-0.166259765625,-0.129150390625,0.7921999999999999
-3.450381679389313,-1.3893129770992367,0.3816793893129771,-0.447998046875,-0.16748046875,-0.125244140625,0.7938999999999999
-3.7099236641221376,-1.3893129770992367,0.48854961832061067,-0.44580078125,-0.1650390625,-0.12646484375,0.7956
-3.786259541984733,-1.4045801526717556,0.2900763358778626,-0.4453125,-0.154541015625,-0.13037109375,0.7973
-3.954198473282443,-1.5114503816793894,0.5190839694656488,-0.444580078125,-0.155517578125,-0.127685546875,0.7989999999999999
-3.7251908396946565,-1.5267175572519085,0.48854961832061067,-0.445068359375,-0.158203125,-0.12890625,0.8007
-3.5572519083969465,-1.7251908396946565,0.2748091603053435,-0.44189453125,-0.15478515625,-0.123779296875,0.8024
-3.7404580152671754,-1.7557251908396947,0.183206106870229,-0.447265625,-0.15673828125,-0.127685546875,0.8040999999999999
-3.7709923664122136,-1.618320610687023,0.42748091603053434,-0.446044921875,-0.153076171875,-0.126220703125,0.8058
-3.786259541984733,-1.6030534351145038,0.061068702290076333,-0.44482421875,-0.150390625,-0.122802734375,0.8075
-3.7251908396946565,-1.9236641221374047,-0.061068702290076333,-0.44677734375,-0.146484375,-0.119140625,0.8091999999999999
-3.572519083969466,-1.9541984732824427,-0.030534351145038167,-0.444580078125,-0.151123046875,-0.11962890625,0.8109
-3.572519083969466,-1.8931297709923665,-0.07633587786259542,-0.443115234375,-0.152587890625,-0.12255859375,0.8126
-3.3740458015267176,-1.8778625954198473,-0.32061068702290074,-0.449462890625,-0.1494140625,-0.120849609375,0.8142999999999999
-3.3282442748091605,-2.122137404580153,-0.04580152671755725,-0.447509765625,-0.146240234375,-0.123291015625,0.816
-2.854961832061069,-2.0763358778625953,-0.3511450381679389,-0.443603515625,-0.146240234375,-0.13037109375,0.8177
-2.6564885496183206,-1.8778625954198473,-0.21374045801526717,-0.449951171875,-0.143310546875,-0.121826171875,0.8193999999999999
-2.7786259541984735,-1.5877862595419847,-0.42748091603053434,-0.44970703125,-0.14501953125,-0.130615234375,0.8210999999999999
-2.2595419847328246,-1.5572519083969465,-0.5190839694656488,-0.447998046875,-0.1455078125,-0.126220703125,0.8228
-2.030534351145038,-1.5419847328244274,-0.8854961832061069,-0.451904296875,-0.143798828125,-0.128173828125,0.8244999999999999
-1.465648854961832,-1.618320610687023,-0.9007633587786259,-0.4443359375,-0.143798828125,-0.12109375,0.8261999999999999
-1.450381679389313,-1.1755725190839694,-0.9618320610687023,-0.449951171875,-0.143310546875,-0.13330078125,0.8279
-0.9923664122137404,-0.916030534351145,-0.8702290076335878,-0.453369140625,-0.14599609375,-0.12939453125,0.8296
-0.6564885496183206,-0.7938931297709924,-1.1297709923664123,-0.451904296875,-0.137451171875,-0.12890625,0.8312999999999999
-0.15267175572519084,-0.5190839694656488,-1.0381679389312977,-0.44970703125,-0.13671875,-0.129638671875,0.833
0.24427480916030533,-0.5343511450381679,-1.099236641221374,-0.4462890625,-0.140380859375,-0.128173828125,0.8347
0.549618320610687,-0.3511450381679389,-1.0381679389312977,-0.447265625,-0.14306640625,-0.132080078125,0.8363999999999999
1.1297709923664123,-0.0916030534351145,-1.0687022900763359,-0.44921875,-0.1435546875,-0.128662109375,0.8381
1.297709923664122,0.0916030534351145,-1.282442748091603,-0.449462890625,-0.138427734375,-0.1279296875,0.8398
1.5572519083969465,0.16793893129770993,-1.465648854961832,-0.4482421875,-0.135009765625,-0.12841796875,0.8414999999999999
2.198473282442748,0.32061068702290074,-1.2671755725190839,-0.450439453125,-0.1396484375,-0.133544921875,0.8432
2.427480916030534,0.5038167938931297,-1.450381679389313,-0.446533203125,-0.13720703125,-0.129150390625,0.8449
3.053435114503817,0.5801526717557252,-1.3129770992366412,-0.443115234375,-0.135498046875,-0.12744140625,0.8465999999999999
3.2977099236641223,0.8091603053435115,-1.5572519083969465,-0.45068359375,-0.144775390625,-0.13623046875,0.8482999999999999
3.5419847328244276,0.9312977099236641,-1.5419847328244274,-0.4462890625,-0.138671875,-0.128173828125,0.85
4.091603053435114,1.0076335877862594,-1.7404580152671756,-0.44384765625,-0.140625,-0.126708984375,0.8516999999999999
4.152671755725191,1.1908396946564885,-1.5114503816793894,-0.444580078125,-0.138427734375,-0.13037109375,0.8533999999999999
4.549618320610687,1.1603053435114503,-1.8015267175572518,-0.446044921875,-0.14501953125,-0.127197265625,0.8551
4.793893129770993,1.251908396946565,-1.6641221374045803,-0.44677734375,-0.1435546875,-0.121826171875,0.8568
5.190839694656488,1.4351145038167938,-1.816793893129771,-0.447021484375,-0.144287109375,-0.133056640625,0.8584999999999999
5.145038167938932,1.465648854961832,-1.7404580152671756,-0.441162109375,-0.145751953125,-0.127197265625,0.8602
5.419847328244275,1.4198473282442747,-1.9389312977099236,-0.443115234375,-0.14501953125,-0.13134765625,0.8619
5.8320610687022905,1.4198473282442747,-1.7404580152671756,-0.441650390625,-0.144775390625,-0.134033203125,0.8635999999999999
5.847328244274809,1.7099236641221374,-2.045801526717557,-0.440673828125,-0.15087890625,-0.125244140625,0.8653
6.106870229007634,1.618320610687023,-1.984732824427481,-0.432861328125,-0.1474609375,-0.122802734375,0.867
6.229007633587786,1.7251908396946565,-1.83206106870229,-0.435302734375,-0.1455078125,-0.12060546875,0.8686999999999999
6.519083969465649,1.6793893129770991,-1.9694656488549618,-0.43798828125,-0.146728515625,-0.116943359375,0.8704
6.8396946564885495,1.5877862595419847,-1.9236641221374047,-0.435791015625,-0.144287109375,-0.11962890625,0.8721
6.900763358778626,1.6946564885496183,-1.984732824427481,-0.4375,-0.14990234375,-0.120361328125,0.8737999999999999
7.0534351145038165,1.83206106870229,-2.16793893129771,-0.429931640625,-0.145751953125,-0.124755859375,0.8755
7.114503816793893,1.618320610687023,-2.0,-0.435302734375,-0.150146484375,-0.120361328125,0.8772
7.175572519083969,1.633587786259542,-2.015267175572519,-0.437744140625,-0.14697265625,-0.122314453125,0.8788999999999999
7.419847328244275,1.9389312977099236,-2.122137404580153,-0.435791015625,-0.1474609375,-0.116943359375,0.8805999999999999
7.526717557251908,1.7099236641221374,-2.0763358778625953,-0.4326171875,-0.153076171875,-0.126953125,0.8823
7.633587786259542,1.7404580152671756,-2.0,-0.43310546875,-0.146484375,-0.119384765625,0.8839999999999999
7.893129770992366,1.7251908396946565,-2.183206106870229,-0.431884765625,-0.153564453125,-0.1240234375,0.8856999999999999
8.0,1.6793893129770991,-1.8473282442748091,-0.43310546875,-0.156005859375,-0.132080078125,0.8874
7.938931297709924,1.5572519083969465,-1.9083969465648856,-0.434326171875,-0.153076171875,-0.1328125,0.8891
8.458015267175572,1.7251908396946565,-2.2748091603053435,-0.4365234375,-0.149658203125,-0.12744140625,0.8907999999999999
8.305343511450381,1.8625954198473282,-2.030534351145038,-0.43505859375,-0.1591796875,-0.1259765625,0.8925
8.244274809160306,1.786259541984733,-1.7404580152671756,-0.432861328125,-0.15576171875,-0.1337890625,0.8942
8.259541984732824,1.6793893129770991,-2.0763358778625953,-0.432373046875,-0.154541015625,-0.1318359375,0.8958999999999999
8.442748091603054,1.6946564885496183,-2.030534351145038,-0.430419921875,-0.1533203125,-0.125732421875,0.8976
8.396946564885496,1.9694656488549618,-2.0,-0.428955078125,-0.1591796875,-0.12841796875,0.8993
8.259541984732824,1.9083969465648856,-1.9083969465648856,-0.43212890625,-0.158447265625,-0.126220703125,0.9009999999999999
8.229007633587786,1.7404580152671756,-1.7557251908396947,-0.43505859375,-0.158935546875,-0.1240234375,0.9027
8.244274809160306,1.6946564885496183,-1.8931297709923665,-0.430419921875,-0.15771484375,-0.126708984375,0.9044
8.122137404580153,1.6641221374045803,-1.8473282442748091,-0.43017578125,-0.1591796875,-0.13037109375,0.9060999999999999
8.061068702290076,1.6641221374045803,-1.6488549618320612,-0.42919921875,-0.158935546875,-0.1318359375,0.9077999999999999
7.847328244274809,1.6030534351145038,-1.8473282442748091,-0.428466796875,-0.16064453125,-0.13427734375,0.9095
7.404580152671755,1.5114503816793894,-1.8778625954198473,-0.431884765625,-0.158203125,-0.126708984375,0.9111999999999999
7.541984732824427,1.4351145038167938,-1.633587786259542,-0.43505859375,-0.1630859375,-0.1240234375,0.9128999999999999
7.190839694656488,1.297709923664122,-1.8015267175572518,-0.43359375,-0.165283203125,-0.1259765625,0.9146
6.931297709923665,1.1145038167938932,-1.7251908396946565,-0.4306640625,-0.164794921875,-0.131103515625,0.9163
6.702290076335878,1.2061068702290076,-1.786259541984733,-0.43798828125,-0.16357421875,-0.124267578125,0.9179999999999999
6.427480916030534,0.9465648854961832,-1.7709923664122138,-0.4375,-0.162353515625,-0.13037109375,0.9197
5.938931297709924,0.8091603053435115,-1.3587786259541985,-0.433349609375,-0.16357421875,-0.1259765625,0.9214
5.374045801526718,0.916030534351145,-1.7557251908396947,-0.435302734375,-0.1669921875,-0.130126953125,0.9230999999999999
5.190839694656488,0.8244274809160306,-1.7251908396946565,-0.439208984375,-0.163330078125,-0.129150390625,0.9248
4.763358778625954,0.5801526717557252,-1.5419847328244274,-0.437744140625,-0.16259765625,-0.136474609375,0.9265
4.351145038167939,0.33587786259541985,-1.5572519083969465,-0.4384765625,-0.16552734375,-0.128662109375,0.9281999999999999
3.6793893129770994,0.3511450381679389,-1.3893129770992367,-0.438720703125,-0.164306640625,-0.135986328125,0.9299
3.6030534351145036,0.030534351145038167,-1.7404580152671756,-0.4384765625,-0.165771484375,-0.131591796875,0.9316
3.053435114503817,0.04580152671755725,-1.5267175572519085,-0.4365234375,-0.161865234375,-0.126220703125,0.9332999999999999
2.6717557251908395,-0.04580152671755725,-1.4351145038167938,-0.4365234375,-0.1640625,-0.12353515625,0.9349999999999999
2.381679389312977,-0.0916030534351145,-1.297709923664122,-0.437744140625,-0.1640625,-0.127197265625,0.9367
2.366412213740458,-0.04580152671755725,-1.3893129770992367,-0.438232421875,-0.16259765625,-0.1259765625,0.9383999999999999
1.5572519083969465,0.061068702290076333,-1.3587786259541985,-0.438720703125,-0.163818359375,-0.127197265625,0.9400999999999999
1.4351145038167938,-0.22900763358778625,-1.3129770992366412,-0.439208984375,-0.167724609375,-0.127197265625,0.9418
1.3587786259541985,-0.366412213740458,-1.2366412213740459,-0.435791015625,-0.1669921875,-0.125,0.9434999999999999
1.0381679389312977,-0.13740458015267176,-1.2061068702290076,-0.442138671875,-0.16357421875,-0.12744140625,0.9451999999999999
0.7175572519083969,-0.04580152671755725,-1.3435114503816794,-0.440673828125,-0.16259765625,-0.12255859375,0.9469
0.5954198473282443,-0.15267175572519084,-1.3893129770992367,-0.441650390625,-0.1669921875,-0.12353515625,0.9486
0.6106870229007634,-0.15267175572519084,-1.4961832061068703,-0.446044921875,-0.160888671875,-0.115966796875,0.9502999999999999
0.2900763358778626,0.030534351145038167,-1.4809160305343512,-0.446533203125,-0.160888671875,-0.122802734375,0.952
0.2595419847328244,-0.12213740458015267,-1.6793893129770991,-0.446044921875,-0.160888671875,-0.12890625,0.9537
0.183206106870229,-0.15267175572519084,-1.6946564885496183,-0.443603515625,-0.16259765625,-0.120849609375,0.9553999999999999
0.07633587786259542,0.04580152671755725,-1.816793893129771,-0.443359375,-0.156494140625,-0.120849609375,0.9571
0.030534351145038167,0.0,-1.7099236641221374,-0.443115234375,-0.162353515625,-0.130126953125,0.9588
0.3053435114503817,0.0916030534351145,-1.8931297709923665,-0.447021484375,-0.16064453125,-0.115478515625,0.9604999999999999
0.15267175572519084,-0.04580152671755725,-1.7557251908396947,-0.448974609375,-0.1591796875,-0.122802734375,0.9621999999999999
0.015267175572519083,-0.2595419847328244,-2.213740458015267,-0.44384765625,-0.162841796875,-0.12109375,0.9639
-0.13740458015267176,-0.04580152671755725,-2.16793893129771,-0.443115234375,-0.163330078125,-0.124755859375,0.9655999999999999
0.10687022900763359,0.015267175572519083,-1.9541984732824427,-0.44775390625,-0.158203125,-0.118896484375,0.9672999999999999
-0.04580152671755725,-0.061068702290076333,-2.3053435114503817,-0.44970703125,-0.159912109375,-0.118896484375,0.969
0.16793893129770993,0.015267175572519083,-2.183206106870229,-0.444580078125,-0.1533203125,-0.119873046875,0.9706999999999999
0.183206106870229,0.04580152671755725,-2.2442748091603053,-0.449951171875,-0.1572265625,-0.122314453125,0.9723999999999999
0.1984732824427481,0.0916030534351145,-2.427480916030534,-0.447021484375,-0.15576171875,-0.121337890625,0.9741
0.21374045801526717,-0.16793893129770993,-2.519083969465649,-0.44921875,-0.153076171875,-0.118408203125,0.9758
0.12213740458015267,-0.04580152671755725,-2.3969465648854964,-0.44970703125,-0.156494140625,-0.115478515625,0.9774999999999999
0.0916030534351145,-0.10687022900763359,-2.4732824427480917,-0.450439453125,-0.156005859375,-0.122802734375,0.9792
0.0916030534351145,-0.07633587786259542,-2.564885496183206,-0.44970703125,-0.1552734375,-0.121826171875,0.9809
0.183206106870229,0.2900763358778626,-2.6106870229007635,-0.44921875,-0.154541015625,-0.127685546875,0.9825999999999999
0.3511450381679389,0.2595419847328244,-2.2595419847328246,-0.45068359375,-0.154052734375,-0.1240234375,0.9843
0.4122137404580153,0.0916030534351145,-2.4427480916030535,-0.45263671875,-0.151611328125,-0.126953125,0.986
0.44274809160305345,0.10687022900763359,-2.3969465648854964,-0.4482421875,-0.147216796875,-0.11962890625,0.9876999999999999
0.9465648854961832,0.16793893129770993,-2.2748091603053435,-0.45068359375,-0.14404296875,-0.120849609375,0.9894
0.8549618320610687,0.3511450381679389,-2.1374045801526718,-0.4521484375,-0.1513671875,-0.116943359375,0.9911
1.1450381679389312,0.3511450381679389,-1.9694656488549618,-0.454833984375,-0.15185546875,-0.122314453125,0.9927999999999999
1.4198473282442747,0.3053435114503817,-1.816793893129771,-0.44873046875,-0.1513671875,-0.125732421875,0.9944999999999999
1.786259541984733,0.7938931297709924,-2.0610687022900764,-0.45458984375,-0.15087890625,-0.124267578125,0.9962
1.8778625954198473,0.8244274809160306,-1.83206106870229,-0.453369140625,-0.14599609375,-0.128173828125,0.9978999999999999
2.2748091603053435,0.6259541984732825,-1.6488549618320612,-0.453857421875,-0.145751953125,-0.127197265625,0.9995999999999999
2.549618320610687,0.8702290076335878,-1.6488549618320612,-0.455810546875,-0.14404296875,-0.11767578125,1.0012999999999999
2.763358778625954,0.8396946564885496,-1.8015267175572518,-0.456298828125,-0.14697265625,-0.120849609375,1.003
3.0381679389312977,0.8091603053435115,-1.4809160305343512,-0.45703125,-0.140869140625,-0.122314453125,1.0047
3.5877862595419847,0.8549618320610687,-1.4198473282442747,-0.4560546875,-0.146240234375,-0.125732421875,1.0064
3.9083969465648853,1.0687022900763359,-1.450381679389313,-0.45458984375,-0.14404296875,-0.12109375,1.0081
4.305343511450381,1.1755725190839694,-1.4045801526717556,-0.4521484375,-0.140625,-0.122802734375,1.0098
4.656488549618321,1.083969465648855,-1.3282442748091603,-0.457275390625,-0.14306640625,-0.115234375,1.0114999999999998
4.961832061068702,1.282442748091603,-1.0534351145038168,-0.45654296875,-0.1416015625,-0.12060546875,1.0131999999999999
5.465648854961832,1.1755725190839694,-1.0381679389312977,-0.455810546875,-0.140869140625,-0.125244140625,1.0149
5.862595419847328,0.9007633587786259,-0.9007633587786259,-0.451416015625,-0.142578125,-0.1220703125,1.0166
6.091603053435114,0.9465648854961832,-0.6259541984732825,-0.45556640625,-0.140869140625,-0.119384765625,1.0183
6.091603053435114,1.083969465648855,-0.5038167938931297,-0.458740234375,-0.145751953125,-0.11328125,1.02
6.442748091603053,0.8702290076335878,-0.3511450381679389,-0.454345703125,-0.144287109375,-0.12353515625,1.0217
6.702290076335878,0.732824427480916,-0.2748091603053435,-0.453857421875,-0.14208984375,-0.116455078125,1.0233999999999999
6.793893129770993,0.916030534351145,-0.183206106870229,-0.4521484375,-0.141845703125,-0.121337890625,1.0251
7.099236641221374,0.916030534351145,-0.12213740458015267,-0.453369140625,-0.141357421875,-0.119873046875,1.0268
7.32824427480916,0.7938931297709924,0.061068702290076333,-0.44970703125,-0.1435546875,-0.1220703125,1.0285
7.419847328244275,0.9007633587786259,-0.015267175572519083,-0.457763671875,-0.145751953125,-0.120849609375,1.0302
7.404580152671755,1.099236641221374,0.33587786259541985,-0.4560546875,-0.150146484375,-0.10595703125,1.0319
7.312977099236641,1.0381679389312977,0.061068702290076333,-0.4453125,-0.14892578125,-0.11767578125,1.0335999999999999
7.465648854961832,0.732824427480916,0.44274809160305345,-0.449462890625,-0.15087890625,-0.111572265625,1.0352999999999999
7.679389312977099,0.9618320610687023,-0.015267175572519083,-0.44921875,-0.148681640625,-0.10986328125,1.037
7.6183206106870225,0.7633587786259542,-0.24427480916030533,-0.4453125,-0.158935546875,-0.11181640625,1.0387
7.190839694656488,0.8244274809160306,-0.2595419847328244,-0.447265625,-0.156494140625,-0.107177734375,1.0404
7.190839694656488,0.549618320610687,-0.1984732824427481,-0.446533203125,-0.158935546875,-0.10888671875,1.0421
7.267175572519084,0.48854961832061067,-0.4580152671755725,-0.439697265625,-0.163818359375,-0.11669921875,1.0437999999999998
7.175572519083969,0.2900763358778626,-0.3816793893129771,-0.4423828125,-0.16748046875,-0.111083984375,1.0454999999999999
7.022900763358779,0.2748091603053435,-0.8091603053435115,-0.443603515625,-0.16748046875,-0.11376953125,1.0472
6.702290076335878,0.16793893129770993,-0.9618320610687023,-0.4453125,-0.1689453125,-0.113037109375,1.0489
6.519083969465649,-0.183206106870229,-0.8091603053435115,-0.444091796875,-0.17626953125,-0.1123046875,1.0506
6.2748091603053435,-0.3816793893129771,-1.2366412213740459,-0.445556640625,-0.180908203125,-0.107177734375,1.0523
5.603053435114504,-0.42748091603053434,-1.4198473282442747,-0.4404296875,-0.176513671875,-0.1064453125,1.054
5.6183206106870225,-0.3053435114503817,-1.5725190839694656,-0.43896484375,-0.179931640625,-0.110107421875,1.0556999999999999
5.206106870229007,-0.5190839694656488,-1.7557251908396947,-0.437744140625,-0.181640625,-0.10986328125,1.0574
4.717557251908397,-0.8702290076335878,-1.984732824427481,-0.439453125,-0.1845703125,-0.111083984375,1.0591
4.3816793893129775,-0.8091603053435115,-2.213740458015267,-0.441162109375,-0.183837890625,-0.124755859375,1.0608
3.618320610687023,-0.9618320610687023,-2.213740458015267,-0.434326171875,-0.184814453125,-0.114013671875,1.0625
3.068702290076336,-0.8854961832061069,-2.687022900763359,-0.436279296875,-0.186767578125,-0.1181640625,1.0642
2.366412213740458,-0.8702290076335878,-2.6259541984732824,-0.4384765625,-0.180908203125,-0.1171875,1.0658999999999998
2.0916030534351147,-0.9923664122137404,-2.6412213740458017,-0.438232421875,-0.18701171875,-0.122314453125,1.0675999999999999
1.6946564885496183,-1.1908396946564885,-2.7786259541984735,-0.443115234375,-0.188232421875,-0.123779296875,1.0693
1.251908396946565,-1.2061068702290076,-3.1297709923664123,-0.4345703125,-0.192138671875,-0.1240234375,1.071
0.6412213740458015,-1.1755725190839694,-2.885496183206107,-0.43994140625,-0.189453125,-0.1279296875,1.0727
0.44274809160305345,-1.1297709923664123,-3.312977099236641,-0.4404296875,-0.18994140625,-0.125,1.0744
0.061068702290076333,-1.1603053435114503,-3.4656488549618323,-0.439453125,-0.187744140625,-0.135498046875,1.0760999999999998
-0.44274809160305345,-1.0687022900763359,-3.3435114503816794,-0.438232421875,-0.187744140625,-0.13818359375,1.0777999999999999
-0.6106870229007634,-1.0687022900763359,-3.267175572519084,-0.438232421875,-0.182373046875,-0.1318359375,1.0795
-0.7633587786259542,-1.0076335877862594,-3.5114503816793894,-0.4384765625,-0.186767578125,-0.13330078125,1.0812
-0.9007633587786259,-1.1145038167938932,-3.3435114503816794,-0.448974609375,-0.184326171875,-0.126953125,1.0829
-1.083969465648855,-1.282442748091603,-3.5114503816793894,-0.439208984375,-0.177978515625,-0.132080078125,1.0846
-1.1908396946564885,-1.297709923664122,-3.404580152671756,-0.43505859375,-0.171875,-0.1328125,1.0863
-1.3587786259541985,-1.5267175572519085,-3.480916030534351,-0.434814453125,-0.174560546875,-0.1318359375,1.0879999999999999
-1.2213740458015268,-1.5725190839694656,-3.618320610687023,-0.43359375,-0.171875,-0.126708984375,1.0897
-1.6488549618320612,-1.6030534351145038,-3.4198473282442747,-0.438720703125,-0.170654296875,-0.131103515625,1.0914
-1.4809160305343512,-1.7404580152671756,-3.618320610687023,-0.434326171875,-0.17138671875,-0.139404296875,1.0931
-1.5267175572519085,-1.8473282442748091,-3.5877862595419847,-0.43359375,-0.165771484375,-0.137939453125,1.0948
-1.3740458015267176,-2.2290076335877864,-3.4656488549618323,-0.43115234375,-0.16455078125,-0.13525390625,1.0965
-1.618320610687023,-2.366412213740458,-3.312977099236641,-0.42822265625,-0.161865234375,-0.134765625,1.0981999999999998
-1.8015267175572518,-2.427480916030534,-3.267175572519084,-0.432861328125,-0.161376953125,-0.119384765625,1.0998999999999999
-1.786259541984733,-2.732824427480916,-3.2061068702290076,-0.438232421875,-0.15966796875,-0.125,1.1016
-1.9236641221374047,-2.7022900763358777,-3.2061068702290076,-0.436767578125,-0.157958984375,-0.12939453125,1.1033
-2.0610687022900764,-2.8244274809160306,-3.3282442748091605,-0.4365234375,-0.159423828125,-0.130126953125,1.105
-1.9694656488549618,-2.931297709923664,-3.1297709923664123,-0.4345703125,-0.15673828125,-0.118896484375,1.1067
-2.0916030534351147,-2.931297709923664,-2.946564885496183,-0.43701171875,-0.155029296875,-0.128173828125,1.1083999999999998
-2.4122137404580153,-3.1908396946564888,-2.8244274809160306,-0.429443359375,-0.14892578125,-0.123291015625,1.1100999999999999
-2.3969465648854964,-3.282442748091603,-2.8091603053435112,-0.433349609375,-0.1533203125,-0.129150390625,1.1118
-2.3969465648854964,-3.2213740458015265,-2.763358778625954,-0.430419921875,-0.15673828125,-0.119873046875,1.1135
-2.8396946564885495,-3.1297709923664123,-2.687022900763359,-0.429931640625,-0.152587890625,-0.12353515625,1.1152
-3.099236641221374,-3.1755725190839694,-2.5343511450381677,-0.431640625,-0.153076171875,-0.12451171875,1.1169
-3.1755725190839694,-2.8091603053435112,-2.564885496183206,-0.4306640625,-0.15283203125,-0.123779296875,1.1186
-3.099236641221374,-2.6717557251908395,-2.549618320610687,-0.43310546875,-0.15380859375,-0.119384765625,1.1202999999999999
-3.2061068702290076,-2.6259541984732824,-2.564885496183206,-0.43603515625,-0.152587890625,-0.119384765625,1.1219999999999999
-3.2061068702290076,-2.564885496183206,-2.4580152671755724,-0.43115234375,-0.157958984375,-0.11181640625,1.1237
-3.0839694656488548,-2.366412213740458,-2.7480916030534353,-0.435302734375,-0.156982421875,-0.119873046875,1.1254
-3.1755725190839694,-2.015267175572519,-2.3969465648854964,-0.43505859375,-0.147705078125,-0.127685546875,1.1271
-2.900763358778626,-1.8778625954198473,-2.549618320610687,-0.43505859375,-0.15185546875,-0.12060546875,1.1288
-3.0381679389312977,-1.786259541984733,-2.6259541984732824,-0.4306640625,-0.15380859375,-0.121826171875,1.1304999999999998
-3.0381679389312977,-1.4961832061068703,-2.6259541984732824,-0.427001953125,-0.15625,-0.113525390625,1.1321999999999999
-2.732824427480916,-1.2671755725190839,-2.6717557251908395,-0.431884765625,-0.156494140625,-0.12109375,1.1339
-2.4580152671755724,-1.3740458015267176,-2.717557251908397,-0.436279296875,-0.155517578125,-0.117919921875,1.1356
-2.595419847328244,-1.3893129770992367,-2.763358778625954,-0.436279296875,-0.15673828125,-0.1220703125,1.1373
-2.0763358778625953,-1.1755725190839694,-2.8396946564885495,-0.43896484375,-0.15673828125,-0.126708984375,1.139
-1.9083969465648856,-1.0229007633587786,-2.854961832061069,-0.4365234375,-0.1533203125,-0.1142578125,1.1407
-2.0763358778625953,-1.1145038167938932,-3.0076335877862594,-0.436279296875,-0.155517578125,-0.1181640625,1.1423999999999999
-1.9083969465648856,-1.0229007633587786,-2.9160305343511452,-0.435546875,-0.1533203125,-0.12353515625,1.1441
-1.816793893129771,-0.8854961832061069,-2.9770992366412212,-0.43701171875,-0.150634765625,-0.11865234375,1.1458
-1.5877862595419847,-0.6106870229007634,-3.053435114503817,-0.43505859375,-0.151611328125,-0.125244140625,1.1475
-1.5419847328244274,-0.8091603053435115,-3.0229007633587788,-0.437744140625,-0.156982421875,-0.115234375,1.1492
-1.618320610687023,-0.732824427480916,-3.312977099236641,-0.4404296875,-0.150390625,-0.1298828125,1.1509
-1.5725190839694656,-0.916030534351145,-3.0839694656488548,-0.435546875,-0.15771484375,-0.12646484375,1.1525999999999998
-1.4198473282442747,-0.5648854961832062,-3.2519083969465647,-0.440185546875,-0.1494140625,-0.11962890625,1.1542999999999999
-1.1603053435114503,-0.732824427480916,-3.3893129770992365,-0.440673828125,-0.15380859375,-0.116943359375,1.156
-1.3587786259541985,-0.7480916030534351,-3.1908396946564888,-0.44091796875,-0.156494140625,-0.126220703125,1.1577
-1.099236641221374,-0.549618320610687,-3.3435114503816794,-0.443603515625,-0.153076171875,-0.120849609375,1.1594
-1.2366412213740459,-0.6717557251908397,-3.2061068702290076,-0.444580078125,-0.1533203125,-0.11572265625,1.1611
-1.1450381679389312,-0.4732824427480916,-3.2061068702290076,-0.4482421875,-0.151123046875,-0.125,1.1627999999999998
-1.0534351145038168,-0.5343511450381679,-3.1603053435114505,-0.44921875,-0.148681640625,-0.117919921875,1.1644999999999999
-1.3740458015267176,-0.3816793893129771,-3.2213740458015265,-0.44873046875,-0.152587890625,-0.11865234375,1.1662
-1.1603053435114503,-0.5038167938931297,-3.3587786259541983,-0.45166015625,-0.146484375,-0.125,1.1679
-1.0687022900763359,-0.5038167938931297,-2.931297709923664,-0.4443359375,-0.153076171875,-0.122314453125,1.1696
-0.9007633587786259,-0.366412213740458,-2.9923664122137406,-0.447998046875,-0.155517578125,-0.119140625,1.1713
-1.083969465648855,-0.32061068702290074,-3.1755725190839694,-0.443603515625,-0.14990234375,-0.1171875,1.173
-0.8244274809160306,-0.3969465648854962,-3.099236641221374,-0.44970703125,-0.150634765625,-0.12451171875,1.1746999999999999
-0.9465648854961832,-0.33587786259541985,-2.7938931297709924,-0.449462890625,-0.150390625,-0.1171875,1.1764
-1.1908396946564885,-0.1984732824427481,-2.8702290076335877,-0.458251953125,-0.14404296875,-0.114013671875,1.1781
-1.0381679389312977,-0.32061068702290074,-2.885496183206107,-0.451416015625,-0.148681640625,-0.122802734375,1.1798
-0.7938931297709924,-0.3511450381679389,-2.732824427480916,-0.453369140625,-0.151611328125,-0.1181640625,1.1815
-0.7175572519083969,-0.2595419847328244,-2.4427480916030535,-0.456298828125,-0.147216796875,-0.118896484375,1.1832
-0.7786259541984732,-0.4122137404580153,-2.4580152671755724,-0.45361328125,-0.1494140625,-0.123291015625,1.1848999999999998
-0.8549618320610687,-0.24427480916030533,-2.4580152671755724,-0.45703125,-0.149169921875,-0.120361328125,1.1865999999999999
-0.4732824427480916,-0.13740458015267176,-2.3206106870229006,-0.460205078125,-0.150146484375,-0.122802734375,1.1883
-0.549618320610687,-0.030534351145038167,-2.2290076335877864,-0.455322265625,-0.14599609375,-0.114990234375,1.19
-0.549618320610687,-0.15267175572519084,-2.2290076335877864,-0.4609375,-0.15234375,-0.11474609375,1.1917
-0.4732824427480916,-0.22900763358778625,-2.045801526717557,-0.458984375,-0.14599609375,-0.115966796875,1.1934
-0.0916030534351145,0.10687022900763359,-1.9694656488549618,-0.456787109375,-0.14697265625,-0.126953125,1.1950999999999998
0.0916030534351145,0.2748091603053435,-2.0,-0.45947265625,-0.147216796875,-0.115966796875,1.1967999999999999
0.1984732824427481,0.21374045801526717,-2.122137404580153,-0.456787109375,-0.14697265625,-0.11669921875,1.1985
0.3053435114503817,0.3511450381679389,-2.0,-0.45166015625,-0.147705078125,-0.114990234375,1.2002
0.2748091603053435,0.3511450381679389,-2.0763358778625953,-0.458984375,-0.143310546875,-0.12548828125,1.2019
0.44274809160305345,0.2748091603053435,-1.8015267175572518,-0.45703125,-0.144287109375,-0.125244140625,1.2036
0.7175572519083969,0.16793893129770993,-1.6793893129770991,-0.4580078125,-0.148681640625,-0.130859375,1.2053
0.6412213740458015,0.5648854961832062,-1.6030534351145038,-0.45849609375,-0.146728515625,-0.121337890625,1.2069999999999999
0.7633587786259542,0.48854961832061067,-1.6030534351145038,-0.4619140625,-0.142822265625,-0.11865234375,1.2086999999999999
0.9312977099236641,0.3053435114503817,-1.2671755725190839,-0.45849609375,-0.14501953125,-0.125732421875,1.2104
0.8091603053435115,0.732824427480916,-1.1145038167938932,-0.4521484375,-0.154052734375,-0.1181640625,1.2121
0.9770992366412213,0.7786259541984732,-0.9618320610687023,-0.45703125,-0.148193359375,-0.127685546875,1.2138
0.732824427480916,0.5648854961832062,-0.9770992366412213,-0.461669921875,-0.149658203125,-0.124267578125,1.2155
0.5954198473282443,0.5648854961832062,-1.0229007633587786,-0.45703125,-0.152587890625,-0.121337890625,1.2171999999999998
0.7480916030534351,0.5801526717557252,-0.9618320610687023,-0.457763671875,-0.147705078125,-0.11376953125,1.2188999999999999
0.3969465648854962,0.4732824427480916,-0.7175572519083969,-0.45751953125,-0.1494140625,-0.120849609375,1.2206
0.2748091603053435,0.42748091603053434,-0.8244274809160306,-0.454833984375,-0.151611328125,-0.116943359375,1.2223
0.32061068702290074,0.3816793893129771,-0.8396946564885496,-0.456298828125,-0.15283203125,-0.117431640625,1.224
0.061068702290076333,0.5190839694656488,-0.7938931297709924,-0.457763671875,-0.1572265625,-0.113037109375,1.2257
-0.10687022900763359,0.2595419847328244,-0.8091603053435115,-0.455810546875,-0.15673828125,-0.122314453125,1.2273999999999998
-0.07633587786259542,0.04580152671755725,-0.8396946564885496,-0.45361328125,-0.15625,-0.109619140625,1.2290999999999999
-0.2748091603053435,0.07633587786259542,-0.8396946564885496,-0.458984375,-0.153564453125,-0.123046875,1.2308
-0.16793893129770993,-0.15267175572519084,-0.9770992366412213,-0.45263671875,-0.157470703125,-0.119873046875,1.2325
-0.3816793893129771,-0.13740458015267176,-0.9465648854961832,-0.455078125,-0.16259765625,-0.12255859375,1.2342
-0.6259541984732825,-0.04580152671755725,-1.0687022900763359,-0.453857421875,-0.164794921875,-0.12841796875,1.2359
-0.6106870229007634,-0.15267175572519084,-1.1450381679389312,-0.456787109375,-0.161865234375,-0.127197265625,1.2376
-0.7633587786259542,-0.0916030534351145,-1.465648854961832,-0.451904296875,-0.156982421875,-0.1201171875,1.2392999999999998
-1.0381679389312977,-0.12213740458015267,-1.3893129770992367,-0.454345703125,-0.16357421875,-0.12158203125,1.2409999999999999
-1.0687022900763359,-0.2748091603053435,-1.5114503816793894,-0.45458984375,-0.16455078125,-0.133544921875,1.2427
-1.1297709923664123,-0.15267175572519084,-1.465648854961832,-0.45703125,-0.1591796875,-0.12646484375,1.2444
-1.099236641221374,-0.04580152671755725,-1.8015267175572518,-0.45263671875,-0.1640625,-0.13134765625,1.2461
-1.3129770992366412,-0.030534351145038167,-1.8015267175572518,-0.45751953125,-0.171630859375,-0.122314453125,1.2478
-1.3435114503816794,0.015267175572519083,-2.0763358778625953,-0.456298828125,-0.17138671875,-0.121826171875,1.2494999999999998
-1.4198473282442747,0.1984732824427481,-2.122137404580153,-0.457275390625,-0.16552734375,-0.129150390625,1.2511999999999999
-1.3587786259541985,0.3053435114503817,-2.4580152671755724,-0.459716796875,-0.165771484375,-0.126220703125,1.2529
-1.3129770992366412,0.4122137404580153,-2.366412213740458,-0.45458984375,-0.167236328125,-0.130615234375,1.2546
-1.4045801526717556,0.5038167938931297,-2.6717557251908395,-0.459716796875,-0.161865234375,-0.1328125,1.2563
-1.2366412213740459,0.7633587786259542,-2.6717557251908395,-0.45751953125,-0.16357421875,-0.132080078125,1.258
-1.2366412213740459,0.6717557251908397,-3.0229007633587788,-0.455322265625,-0.162841796875,-0.1279296875,1.2596999999999998
-1.1297709923664123,0.7022900763358778,-2.9770992366412212,-0.46142578125,-0.16015625,-0.128662109375,1.2613999999999999
-1.0687022900763359,0.8396946564885496,-3.1297709923664123,-0.455078125,-0.163330078125,-0.123779296875,1.2631
-0.8396946564885496,1.0534351145038168,-3.068702290076336,-0.458984375,-0.163330078125,-0.12841796875,1.2648
-0.6717557251908397,1.1297709923664123,-3.4198473282442747,-0.457763671875,-0.16455078125,-0.13037109375,1.2665
-0.6564885496183206,1.2671755725190839,-3.114503816793893,-0.455322265625,-0.160888671875,-0.12939453125,1.2682
-0.8854961832061069,1.2213740458015268,-3.1755725190839694,-0.4501953125,-0.15966796875,-0.133544921875,1.2699
-0.6717557251908397,1.4045801526717556,-3.236641221374046,-0.453857421875,-0.16015625,-0.125,1.2715999999999998
-0.4732824427480916,1.5114503816793894,-3.3740458015267176,-0.456298828125,-0.16064453125,-0.125244140625,1.2732999999999999
-0.4580152671755725,1.3740458015267176,-3.1297709923664123,-0.458740234375,-0.1611328125,-0.13623046875,1.275
-0.6870229007633588,1.5419847328244274,-3.145038167938931,-0.45703125,-0.160400390625,-0.12939453125,1.2767
-0.42748091603053434,1.7404580152671756,-3.1908396946564888,-0.45361328125,-0.156005859375,-0.12939453125,1.2784
-0.3969465648854962,1.7557251908396947,-3.114503816793893,-0.454833984375,-0.154541015625,-0.127197265625,1.2801
-0.32061068702290074,1.9541984732824427,-2.946564885496183,-0.45263671875,-0.157958984375,-0.130615234375,1.2817999999999998
-0.3053435114503817,1.9694656488549618,-3.0076335877862594,-0.451904296875,-0.158203125,-0.13037109375,1.2834999999999999
-0.13740458015267176,1.9541984732824427,-2.4885496183206106,-0.45654296875,-0.154541015625,-0.13037109375,1.2852
-0.2748091603053435,1.984732824427481,-2.4580152671755724,-0.451904296875,-0.15234375,-0.129150390625,1.2869
-0.5038167938931297,2.0916030534351147,-2.519083969465649,-0.450927734375,-0.146728515625,-0.1328125,1.2886
-0.42748091603053434,2.183206106870229,-2.2595419847328246,-0.4501953125,-0.154296875,-0.129638671875,1.2903
-0.10687022900763359,2.2290076335877864,-2.0763358778625953,-0.452880859375,-0.1513671875,-0.127685546875,1.292
-0.12213740458015267,2.213740458015267,-2.1068702290076335,-0.449462890625,-0.147705078125,-0.12646484375,1.2936999999999999
-0.2595419847328244,2.4732824427480917,-1.83206106870229,-0.452880859375,-0.15283203125,-0.127197265625,1.2953999999999999
0.061068702290076333,2.50381679389313,-1.9541984732824427,-0.446044921875,-0.149169921875,-0.120361328125,1.2971
0.15267175572519084,2.564885496183206,-1.816793893129771,-0.450439453125,-0.148681640625,-0.12158203125,1.2988
0.42748091603053434,2.564885496183206,-1.8473282442748091,-0.447021484375,-0.155517578125,-0.12890625,1.3005
0.44274809160305345,2.6259541984732824,-1.6488549618320612,-0.445556640625,-0.14501953125,-0.126220703125,1.3022
0.5038167938931297,2.854961832061069,-1.7557251908396947,-0.447265625,-0.1494140625,-0.13037109375,1.3038999999999998
0.6717557251908397,2.763358778625954,-1.633587786259542,-0.444580078125,-0.148681640625,-0.1279296875,1.3055999999999999
0.916030534351145,2.6717557251908395,-1.7557251908396947,-0.4453125,-0.1533203125,-0.1220703125,1.3073
1.0076335877862594,2.6412213740458017,-1.5725190839694656,-0.446533203125,-0.156494140625,-0.139404296875,1.309
1.0076335877862594,2.8396946564885495,-1.5267175572519085,-0.446044921875,-0.15087890625,-0.125732421875,1.3107
1.3893129770992367,2.900763358778626,-1.5572519083969465,-0.44384765625,-0.152099609375,-0.121826171875,1.3124
1.4198473282442747,2.9618320610687023,-1.633587786259542,-0.436279296875,-0.1572265625,-0.12548828125,1.3140999999999998
1.6488549618320612,3.236641221374046,-1.2061068702290076,-0.44091796875,-0.153564453125,-0.132568359375,1.3157999999999999
1.8931297709923665,3.145038167938931,-1.5114503816793894,-0.433837890625,-0.157470703125,-0.125,1.3175
2.2748091603053435,3.312977099236641,-1.5572519083969465,-0.436279296875,-0.1591796875,-0.13720703125,1.3192
2.198473282442748,3.480916030534351,-1.2671755725190839,-0.441650390625,-0.153076171875,-0.128662109375,1.3209
2.2900763358778624,3.435114503816794,-1.297709923664122,-0.44189453125,-0.15283203125,-0.12255859375,1.3226
2.33587786259542,3.633587786259542,-1.3587786259541985,-0.440185546875,-0.15625,-0.130859375,1.3243
2.7022900763358777,4.0458015267175576,-1.1755725190839694,-0.442626953125,-0.15478515625,-0.133056640625,1.3259999999999998
2.717557251908397,4.015267175572519,-1.0534351145038168,-0.438232421875,-0.157470703125,-0.132080078125,1.3276999999999999
2.900763358778626,4.015267175572519,-1.1297709923664123,-0.44189453125,-0.16064453125,-0.126708984375,1.3294
3.1908396946564888,4.198473282442748,-1.2366412213740459,-0.4345703125,-0.1552734375,-0.1396484375,1.3311
3.1908396946564888,4.3816793893129775,-1.083969465648855,-0.4384765625,-0.15625,-0.130615234375,1.3328
3.6030534351145036,4.427480916030534,-1.1297709923664123,-0.435302734375,-0.161376953125,-0.12841796875,1.3345
3.5572519083969465,4.534351145038168,-0.916030534351145,-0.435791015625,-0.149658203125,-0.126953125,1.3361999999999998
3.435114503816794,4.641221374045801,-1.1297709923664123,-0.437744140625,-0.1533203125,-0.134033203125,1.3378999999999999
4.106870229007634,4.717557251908397,-1.0534351145038168,-0.434814453125,-0.156982421875,-0.134765625,1.3396
4.122137404580153,4.9465648854961835,-1.1603053435114503,-0.437744140625,-0.153564453125,-0.13134765625,1.3413
4.015267175572519,4.99236641221374,-1.0076335877862594,-0.43701171875,-0.1591796875,-0.12890625,1.343
4.33587786259542,4.885496183206107,-1.282442748091603,-0.43798828125,-0.160888671875,-0.137939453125,1.3447
4.320610687022901,4.916030534351145,-1.099236641221374,-0.431640625,-0.156494140625,-0.13134765625,1.3463999999999998
4.519083969465649,5.114503816793893,-1.0381679389312977,-0.4345703125,-0.156005859375,-0.130859375,1.3480999999999999
4.656488549618321,4.885496183206107,-1.1297709923664123,-0.435546875,-0.156982421875,-0.12451171875,1.3497999999999999
4.366412213740458,4.916030534351145,-1.2213740458015268,-0.43359375,-0.15380859375,-0.13134765625,1.3515
4.427480916030534,4.687022900763359,-1.1450381679389312,-0.43505859375,-0.156494140625,-0.1240234375,1.3532
4.396946564885496,4.3816793893129775,-1.3282442748091603,-0.433349609375,-0.161865234375,-0.130126953125,1.3549
4.641221374045801,4.549618320610687,-1.2366412213740459,-0.43359375,-0.152587890625,-0.126220703125,1.3566
4.519083969465649,4.6106870229007635,-0.9007633587786259,-0.434326171875,-0.15625,-0.12451171875,1.3582999999999998
3.984732824427481,4.015267175572519,-1.099236641221374,-0.4306640625,-0.15869140625,-0.12646484375,1.3599999999999999
4.2748091603053435,3.801526717557252,-1.1450381679389312,-0.434326171875,-0.1591796875,-0.124267578125,1.3617
4.122137404580153,3.877862595419847,-1.0076335877862594,-0.43115234375,-0.163330078125,-0.11962890625,1.3634
3.954198473282443,4.076335877862595,-1.1145038167938932,-0.442138671875,-0.1611328125,-0.121826171875,1.3651
3.5877862595419847,3.816793893129771,-0.9465648854961832,-0.442138671875,-0.160400390625,-0.119873046875,1.3668
3.5267175572519083,3.816793893129771,-0.7938931297709924,-0.434814453125,-0.15478515625,-0.12353515625,1.3684999999999998
3.2213740458015265,3.7709923664122136,-0.6717557251908397,-0.43212890625,-0.15576171875,-0.119873046875,1.3701999999999999
3.145038167938931,3.7404580152671754,-0.5190839694656488,-0.437744140625,-0.154052734375,-0.114013671875,1.3719
2.9618320610687023,3.7251908396946565,-0.44274809160305345,-0.434326171875,-0.151611328125,-0.1298828125,1.3736
2.6259541984732824,3.9236641221374047,-0.24427480916030533,-0.44091796875,-0.15234375,-0.125244140625,1.3753
2.595419847328244,3.816793893129771,-0.1984732824427481,-0.439453125,-0.1533203125,-0.126953125,1.377
2.427480916030534,3.83206106870229,-0.22900763358778625,-0.43798828125,-0.15380859375,-0.1318359375,1.3786999999999998
2.351145038167939,4.061068702290076,-0.10687022900763359,-0.438232421875,-0.15771484375,-0.12451171875,1.3803999999999998
1.8625954198473282,4.122137404580153,0.0,-0.4375,-0.154541015625,-0.123291015625,1.3820999999999999
1.8625954198473282,4.229007633587786,0.13740458015267176,-0.43408203125,-0.15576171875,-0.122802734375,1.3838
1.9694656488549618,4.427480916030534,0.2748091603053435,-0.437255859375,-0.154296875,-0.131591796875,1.3855
1.816793893129771,4.305343511450381,0.2900763358778626,-0.438720703125,-0.15283203125,-0.129638671875,1.3872
1.618320610687023,4.106870229007634,0.4122137404580153,-0.435302734375,-0.156494140625,-0.12255859375,1.3889
1.7404580152671756,4.091603053435114,0.3816793893129771,-0.434326171875,-0.158203125,-0.126220703125,1.3905999999999998
1.7099236641221374,4.244274809160306,0.549618320610687,-0.441650390625,-0.1533203125,-0.115478515625,1.3922999999999999
1.83206106870229,4.213740458015267,0.3511450381679389,-0.437255859375,-0.145263671875,-0.124755859375,1.394
1.7557251908396947,4.0,0.366412213740458,-0.4345703125,-0.154052734375,-0.125,1.3957
1.618320610687023,4.0,0.2748091603053435,-0.438720703125,-0.1552734375,-0.1240234375,1.3974
1.816793893129771,4.030534351145038,0.32061068702290074,-0.43505859375,-0.1572265625,-0.123291015625,1.3991
1.8473282442748091,4.030534351145038,0.183206106870229,-0.4345703125,-0.151611328125,-0.134765625,1.4007999999999998
2.0,3.9236641221374047,0.24427480916030533,-0.433349609375,-0.157958984375,-0.128173828125,1.4024999999999999
1.9541984732824427,3.7709923664122136,0.24427480916030533,-0.4365234375,-0.156982421875,-0.133544921875,1.4042
1.984732824427481,3.877862595419847,0.183206106870229,-0.43896484375,-0.16015625,-0.130859375,1.4059
1.8931297709923665,3.984732824427481,0.24427480916030533,-0.43505859375,-0.158203125,-0.127197265625,1.4076
2.3053435114503817,3.801526717557252,0.1984732824427481,-0.441162109375,-0.155517578125,-0.12939453125,1.4093
2.2595419847328246,3.8473282442748094,0.2595419847328244,-0.437744140625,-0.15283203125,-0.130859375,1.411
2.030534351145038,3.9236641221374047,0.2900763358778626,-0.43896484375,-0.15576171875,-0.12744140625,1.4126999999999998
2.2748091603053435,4.183206106870229,0.07633587786259542,-0.441162109375,-0.1552734375,-0.134521484375,1.4143999999999999
2.2595419847328246,4.076335877862595,0.2900763358778626,-0.44140625,-0.154052734375,-0.1396484375,1.4161
2.2900763358778624,4.106870229007634,0.15267175572519084,-0.437744140625,-0.154296875,-0.1201171875,1.4178
2.427480916030534,4.519083969465649,0.2748091603053435,-0.441162109375,-0.15771484375,-0.123291015625,1.4195
2.6564885496183206,4.595419847328245,0.22900763358778625,-0.445068359375,-0.154541015625,-0.12646484375,1.4212
2.4122137404580153,4.580152671755725,0.22900763358778625,-0.438720703125,-0.151611328125,-0.119140625,1.4228999999999998
3.0229007633587788,4.656488549618321,-0.0916030534351145,-0.443115234375,-0.155517578125,-0.12109375,1.4245999999999999
3.145038167938931,4.8396946564885495,0.32061068702290074,-0.44287109375,-0.156005859375,-0.129638671875,1.4263
3.3587786259541983,5.083969465648855,0.2595419847328244,-0.443603515625,-0.156982421875,-0.127197265625,1.428
3.3740458015267176,4.99236641221374,0.12213740458015267,-0.439208984375,-0.154296875,-0.12548828125,1.4297
3.5877862595419847,5.221374045801527,0.12213740458015267,-0.447509765625,-0.153076171875,-0.125,1.4314
3.7557251908396947,5.267175572519084,0.10687022900763359,-0.44873046875,-0.150634765625,-0.129150390625,1.4330999999999998
3.801526717557252,5.312977099236641,0.061068702290076333,-0.444091796875,-0.15185546875,-0.11572265625,1.4347999999999999
4.198473282442748,5.114503816793893,0.16793893129770993,-0.44775390625,-0.15673828125,-0.1220703125,1.4364999999999999
4.625954198473282,5.206106870229007,0.07633587786259542,-0.446044921875,-0.15380859375,-0.12060546875,1.4382
4.5038167938931295,5.083969465648855,0.2748091603053435,-0.448486328125,-0.15771484375,-0.1298828125,1.4399
4.3816793893129775,4.870229007633588,-0.015267175572519083,-0.44873046875,-0.155517578125,-0.131103515625,1.4416
4.702290076335878,4.824427480916031,-0.04580152671755725,-0.4462890625,-0.156982421875,-0.127685546875,1.4433
4.8396946564885495,4.67175572519084,-0.15267175572519084,-0.4453125,-0.157470703125,-0.11962890625,1.4449999999999998
4.6106870229007635,4.412213740458015,-0.07633587786259542,-0.447509765625,-0.15625,-0.1201171875,1.4466999999999999
4.778625954198473,4.320610687022901,-0.183206106870229,-0.453857421875,-0.154541015625,-0.123291015625,1.4484
5.129770992366412,4.122137404580153,0.061068702290076333,-0.452392578125,-0.157958984375,-0.119873046875,1.4501
5.068702290076335,3.984732824427481,-0.1984732824427481,-0.45166015625,-0.16064453125,-0.12451171875,1.4518
4.870229007633588,3.801526717557252,0.0,-0.451416015625,-0.16357421875,-0.117431640625,1.4535
4.732824427480916,3.816793893129771,-0.32061068702290074,-0.454833984375,-0.161865234375,-0.128662109375,1.4551999999999998
4.641221374045801,3.572519083969466,-0.24427480916030533,-0.448486328125,-0.163818359375,-0.125,1.4568999999999999
4.687022900763359,3.4656488549618323,0.21374045801526717,-0.45166015625,-0.159912109375,-0.123291015625,1.4586
4.6106870229007635,3.404580152671756,0.24427480916030533,-0.451904296875,-0.167724609375,-0.1318359375,1.4603
4.442748091603053,3.3587786259541983,-0.12213740458015267,-0.456298828125,-0.161376953125,-0.11962890625,1.462
4.427480916030534,3.2519083969465647,0.030534351145038167,-0.453125,-0.157958984375,-0.126708984375,1.4637
4.198473282442748,3.2061068702290076,0.21374045801526717,-0.455322265625,-0.16259765625,-0.122314453125,1.4653999999999998
4.015267175572519,3.2977099236641223,0.21374045801526717,-0.449462890625,-0.163330078125,-0.124267578125,1.4670999999999998
4.015267175572519,3.1755725190839694,0.2748091603053435,-0.455078125,-0.160400390625,-0.123779296875,1.4687999999999999
3.7557251908396947,3.2519083969465647,0.7022900763358778,-0.457275390625,-0.161376953125,-0.129638671875,1.4705
3.5267175572519083,3.114503816793893,0.44274809160305345,-0.4541015625,-0.159912109375,-0.13134765625,1.4722
3.3740458015267176,3.2061068702290076,0.732824427480916,-0.4580078125,-0.16845703125,-0.12451171875,1.4739
3.053435114503817,3.114503816793893,0.8854961832061069,-0.4501953125,-0.1611328125,-0.12451171875,1.4756
2.8396946564885495,2.9923664122137406,1.3282442748091603,-0.45166015625,-0.16845703125,-0.128173828125,1.4772999999999998
2.595419847328244,3.267175572519084,1.1908396946564885,-0.453125,-0.16455078125,-0.13232421875,1.4789999999999999
2.381679389312977,3.053435114503817,1.3893129770992367,-0.451416015625,-0.16015625,-0.127197265625,1.4807
2.2290076335877864,3.145038167938931,1.7251908396946565,-0.445068359375,-0.16357421875,-0.127685546875,1.4824
1.9541984732824427,3.068702290076336,1.8473282442748091,-0.4521484375,-0.162353515625,-0.130126953125,1.4841
1.6793893129770991,3.053435114503817,1.8015267175572518,-0.44970703125,-0.168701171875,-0.127197265625,1.4858
1.6793893129770991,2.900763358778626,2.030534351145038,-0.452392578125,-0.1650390625,-0.12646484375,1.4874999999999998
1.4961832061068703,2.8091603053435112,1.786259541984733,-0.449462890625,-0.16455078125,-0.134521484375,1.4891999999999999
1.1908396946564885,2.6717557251908395,2.0610687022900764,-0.447509765625,-0.164306640625,-0.13330078125,1.4909
0.7480916030534351,2.6564885496183206,2.0610687022900764,-0.443603515625,-0.166748046875,-0.123291015625,1.4926
0.5954198473282443,2.50381679389313,1.9694656488549618,-0.4404296875,-0.1630859375,-0.13134765625,1.4943
0.3053435114503817,2.381679389312977,1.816793893129771,-0.44580078125,-0.170654296875,-0.131103515625,1.496
0.030534351145038167,2.1374045801526718,2.0,-0.444091796875,-0.163330078125,-0.12744140625,1.4976999999999998
-0.061068702290076333,1.8625954198473282,1.6488549618320612,-0.442138671875,-0.166259765625,-0.11865234375,1.4993999999999998
-0.5038167938931297,1.7404580152671756,1.9389312977099236,-0.445068359375,-0.17041015625,-0.1279296875,1.5010999999999999
-0.33587786259541985,1.5877862595419847,1.7251908396946565,-0.443603515625,-0.169189453125,-0.13427734375,1.5028
-0.8091603053435115,1.3282442748091603,1.83206106870229,-0.43798828125,-0.1669921875,-0.135009765625,1.5045
-0.9465648854961832,1.1908396946564885,1.5267175572519085,-0.442626953125,-0.165771484375,-0.13134765625,1.5062
-1.2213740458015268,1.0687022900763359,1.5725190839694656,-0.442138671875,-0.170166015625,-0.13037109375,1.5079
-1.633587786259542,0.732824427480916,1.465648854961832,-0.438232421875,-0.1611328125,-0.12744140625,1.5095999999999998
-1.465648854961832,0.549618320610687,1.5267175572519085,-0.439453125,-0.164794921875,-0.1328125,1.5112999999999999
-1.7099236641221374,0.4732824427480916,1.450381679389313,-0.437255859375,-0.16796875,-0.1240234375,1.513
-1.83206106870229,0.2748091603053435,1.3587786259541985,-0.439697265625,-0.166015625,-0.1259765625,1.5147
-1.8015267175572518,0.366412213740458,0.9923664122137404,-0.432861328125,-0.162841796875,-0.11669921875,1.5164
-2.381679389312977,0.15267175572519084,0.9923664122137404,-0.43603515625,-0.16943359375,-0.12109375,1.5181
-2.1068702290076335,0.030534351145038167,0.916030534351145,-0.43408203125,-0.16259765625,-0.125732421875,1.5197999999999998
-1.9541984732824427,-0.16793893129770993,0.9007633587786259,-0.43896484375,-0.165283203125,-0.1201171875,1.5214999999999999
-2.16793893129771,-0.24427480916030533,0.5038167938931297,-0.439697265625,-0.169921875,-0.125,1.5231999999999999
-2.213740458015267,-0.366412213740458,0.6717557251908397,-0.439453125,-0.157470703125,-0.131591796875,1.5249
-2.183206106870229,-0.366412213740458,0.549618320610687,-0.436767578125,-0.162353515625,-0.119140625,1.5266
-2.2290076335877864,-0.5954198473282443,0.366412213740458,-0.434326171875,-0.16357421875,-0.123779296875,1.5283
-2.519083969465649,-0.4580152671755725,0.2595419847328244,-0.437744140625,-0.16015625,-0.126220703125,1.5299999999999998
-2.519083969465649,-0.42748091603053434,0.21374045801526717,-0.4365234375,-0.15673828125,-0.125732421875,1.5316999999999998
-2.2442748091603053,-0.33587786259541985,-0.10687022900763359,-0.427490234375,-0.160888671875,-0.127197265625,1.5333999999999999
-2.381679389312977,-0.2595419847328244,-0.12213740458015267,-0.434814453125,-0.15673828125,-0.124267578125,1.5351
-2.5801526717557253,-0.3053435114503817,-0.366412213740458,-0.436279296875,-0.15380859375,-0.126220703125,1.5368
-2.5343511450381677,-0.549618320610687,-0.366412213740458,-0.438720703125,-0.1513671875,-0.131103515625,1.5385
-2.6106870229007635,-0.16793893129770993,-0.48854961832061067,-0.444091796875,-0.158203125,-0.119384765625,1.5402
-2.717557251908397,0.015267175572519083,-0.5190839694656488,-0.436767578125,-0.14794921875,-0.120849609375,1.5418999999999998
-2.6412213740458017,-0.22900763358778625,-0.5343511450381679,-0.439697265625,-0.153564453125,-0.118896484375,1.5435999999999999
-2.6106870229007635,-0.22900763358778625,-0.6412213740458015,-0.44189453125,-0.152587890625,-0.118408203125,1.5453
-2.427480916030534,-0.015267175572519083,-0.9007633587786259,-0.4404296875,-0.1484375,-0.125,1.547
-2.381679389312977,-0.015267175572519083,-0.9618320610687023,-0.44189453125,-0.143798828125,-0.122314453125,1.5487
-2.687022900763359,0.13740458015267176,-1.0534351145038168,-0.436767578125,-0.151123046875,-0.119140625,1.5504
-2.381679389312977,0.13740458015267176,-0.8702290076335878,-0.4375,-0.144775390625,-0.117919921875,1.5520999999999998
-2.2442748091603053,0.183206106870229,-1.1297709923664123,-0.4345703125,-0.146240234375,-0.118896484375,1.5537999999999998
-2.2442748091603053,0.04580152671755725,-1.3893129770992367,-0.435546875,-0.143310546875,-0.120361328125,1.5554999999999999
-2.1526717557251906,0.16793893129770993,-1.2671755725190839,-0.44091796875,-0.147216796875,-0.12255859375,1.5572
-2.16793893129771,0.183206106870229,-1.4198473282442747,-0.439697265625,-0.14404296875,-0.11376953125,1.5589
-1.984732824427481,0.21374045801526717,-1.5572519083969465,-0.438720703125,-0.14697265625,-0.126220703125,1.5606
-2.0610687022900764,0.21374045801526717,-1.4351145038167938,-0.438720703125,-0.141357421875,-0.1240234375,1.5623
-1.8015267175572518,0.33587786259541985,-1.633587786259542,-0.4423828125,-0.140625,-0.130126953125,1.5639999999999998
-1.816793893129771,0.2595419847328244,-1.83206106870229,-0.4375,-0.147705078125,-0.120361328125,1.5656999999999999
-1.7557251908396947,0.3053435114503817,-1.5267175572519085,-0.441162109375,-0.141845703125,-0.11962890625,1.5674
-1.6946564885496183,0.366412213740458,-1.633587786259542,-0.439208984375,-0.1474609375,-0.1201171875,1.5691
-1.6488549618320612,0.21374045801526717,-1.9083969465648856,-0.445068359375,-0.143798828125,-0.123291015625,1.5708
-1.4351145038167938,0.13740458015267176,-1.83206106870229,-0.43896484375,-0.13720703125,-0.125,1.5725
-1.5114503816793894,0.3511450381679389,-2.045801526717557,-0.441650390625,-0.142822265625,-0.126953125,1.5741999999999998
-1.5877862595419847,0.44274809160305345,-1.8473282442748091,-0.433837890625,-0.140869140625,-0.12646484375,1.5758999999999999
-1.2061068702290076,0.32061068702290074,-1.9541984732824427,-0.4462890625,-0.141845703125,-0.13232421875,1.5776
-1.2366412213740459,0.22900763358778625,-2.045801526717557,-0.443115234375,-0.142822265625,-0.128173828125,1.5793
-1.0381679389312977,0.48854961832061067,-2.16793893129771,-0.443359375,-0.142578125,-0.1240234375,1.581
-1.2213740458015268,0.6564885496183206,-2.16793893129771,-0.442626953125,-0.14404296875,-0.12646484375,1.5827
-1.1755725190839694,0.5954198473282443,-2.16793893129771,-0.443603515625,-0.14404296875,-0.124755859375,1.5843999999999998
-1.2061068702290076,0.549618320610687,-2.030534351145038,-0.442626953125,-0.142333984375,-0.131591796875,1.5860999999999998
-0.7480916030534351,0.7633587786259542,-2.1526717557251906,-0.445556640625,-0.144775390625,-0.118896484375,1.5877999999999999
-0.9312977099236641,1.0381679389312977,-2.1374045801526718,-0.443603515625,-0.143798828125,-0.12744140625,1.5895
-0.916030534351145,1.1297709923664123,-2.16793893129771,-0.441650390625,-0.14501953125,-0.11865234375,1.5912
-0.7022900763358778,0.916030534351145,-2.213740458015267,-0.439208984375,-0.146484375,-0.130126953125,1.5929
-0.9312977099236641,1.2061068702290076,-2.0,-0.442626953125,-0.1494140625,-0.1298828125,1.5946
-0.9312977099236641,1.0381679389312977,-2.0610687022900764,-0.442626953125,-0.1494140625,-0.124755859375,1.5962999999999998
-0.5343511450381679,1.0229007633587786,-2.519083969465649,-0.44384765625,-0.1474609375,-0.1201171875,1.5979999999999999
-0.5801526717557252,1.2366412213740459,-2.549618320610687,-0.44287109375,-0.149658203125,-0.11962890625,1.5997
-0.9618320610687023,1.0229007633587786,-2.2290076335877864,-0.439453125,-0.153564453125,-0.117919921875,1.6014
-0.6564885496183206,0.9007633587786259,-2.381679389312977,-0.439453125,-0.148681640625,-0.121337890625,1.6031
-0.8549618320610687,1.2366412213740459,-2.4122137404580153,-0.4443359375,-0.153076171875,-0.115478515625,1.6048
-0.6106870229007634,0.9770992366412213,-2.427480916030534,-0.445556640625,-0.1513671875,-0.113037109375,1.6064999999999998
-0.5648854961832062,0.9618320610687023,-2.3969465648854964,-0.44482421875,-0.156494140625,-0.126220703125,1.6081999999999999
-0.7175572519083969,0.8702290076335878,-2.564885496183206,-0.442138671875,-0.15966796875,-0.119140625,1.6098999999999999
-1.0076335877862594,0.732824427480916,-2.732824427480916,-0.441650390625,-0.154052734375,-0.126708984375,1.6116
-0.8854961832061069,0.8702290076335878,-2.8091603053435112,-0.43896484375,-0.1572265625,-0.12646484375,1.6133
-1.1450381679389312,0.7175572519083969,-2.6564885496183206,-0.44140625,-0.1552734375,-0.127197265625,1.615
-1.2366412213740459,0.6106870229007634,-2.6717557251908395,-0.437744140625,-0.156494140625,-0.12353515625,1.6166999999999998
-1.297709923664122,0.5954198473282443,-2.732824427480916,-0.438720703125,-0.16064453125,-0.119140625,1.6183999999999998
-1.6641221374045803,0.42748091603053434,-2.7480916030534353,-0.43701171875,-0.157470703125,-0.127685546875,1.6200999999999999
-1.7709923664122138,0.32061068702290074,-2.8396946564885495,-0.439208984375,-0.150390625,-0.118408203125,1.6218
-1.5267175572519085,0.42748091603053434,-2.931297709923664,-0.44091796875,-0.152099609375,-0.125244140625,1.6235
-2.0763358778625953,0.2595419847328244,-2.9923664122137406,-0.442138671875,-0.155517578125,-0.117919921875,1.6252
-2.122137404580153,0.2900763358778626,-3.099236641221374,-0.43798828125,-0.156982421875,-0.121337890625,1.6269
-2.16793893129771,0.24427480916030533,-2.8396946564885495,-0.438232421875,-0.15625,-0.120361328125,1.6285999999999998
-2.6106870229007635,0.1984732824427481,-2.885496183206107,-0.445068359375,-0.15380859375,-0.11962890625,1.6302999999999999
-2.5801526717557253,0.1984732824427481,-2.9160305343511452,-0.443603515625,-0.15673828125,-0.116455078125,1.632
-2.4580152671755724,-0.030534351145038167,-2.9923664122137406,-0.4443359375,-0.158447265625,-0.117431640625,1.6337
-2.9160305343511452,-0.3053435114503817,-2.9770992366412212,-0.438232421875,-0.151611328125,-0.120849609375,1.6354
-2.8244274809160306,0.030534351145038167,-3.053435114503817,-0.44482421875,-0.157470703125,-0.119873046875,1.6371
-2.8702290076335877,-0.0916030534351145,-2.8702290076335877,-0.43994140625,-0.15283203125,-0.121826171875,1.6387999999999998
-2.6717557251908395,0.07633587786259542,-2.946564885496183,-0.438720703125,-0.155517578125,-0.11962890625,1.6404999999999998
-2.9160305343511452,-0.030534351145038167,-2.885496183206107,-0.4453125,-0.15771484375,-0.121337890625,1.6421999999999999
-2.946564885496183,-0.183206106870229,-2.9770992366412212,-0.443359375,-0.1552734375,-0.120361328125,1.6439
-2.900763358778626,-0.0916030534351145,-2.7786259541984735,-0.445556640625,-0.15380859375,-0.122802734375,1.6456
-2.931297709923664,-0.183206106870229,-2.8396946564885495,-0.4384765625,-0.147216796875,-0.1357421875,1.6473
-2.7786259541984735,-0.04580152671755725,-2.6106870229007635,-0.443603515625,-0.149169921875,-0.12353515625,1.6489999999999998
-2.4732824427480917,-0.10687022900763359,-2.854961832061069,-0.443115234375,-0.15283203125,-0.122802734375,1.6506999999999998
-2.6106870229007635,-0.061068702290076333,-2.4580152671755724,-0.439208984375,-0.149658203125,-0.13720703125,1.6523999999999999
-2.6106870229007635,0.061068702290076333,-2.7938931297709924,-0.440673828125,-0.148681640625,-0.12744140625,1.6541
-2.198473282442748,-0.04580152671755725,-2.6259541984732824,-0.442138671875,-0.148681640625,-0.1318359375,1.6558
-2.16793893129771,-0.2900763358778626,-2.6564885496183206,-0.445068359375,-0.146240234375,-0.131103515625,1.6575
-2.1374045801526718,-0.24427480916030533,-2.427480916030534,-0.443115234375,-0.15283203125,-0.124267578125,1.6592
-1.8015267175572518,-0.13740458015267176,-2.595419847328244,-0.444580078125,-0.14501953125,-0.1240234375,1.6608999999999998
-1.5725190839694656,-0.3969465648854962,-2.519083969465649,-0.442626953125,-0.152099609375,-0.130615234375,1.6625999999999999
-1.618320610687023,-0.6564885496183206,-2.4427480916030535,-0.4462890625,-0.146728515625,-0.124267578125,1.6643
-1.297709923664122,-0.48854961832061067,-2.519083969465649,-0.438720703125,-0.142822265625,-0.1328125,1.666
-1.099236641221374,-0.6870229007633588,-2.4580152671755724,-0.439453125,-0.148193359375,-0.1259765625,1.6677
-1.1145038167938932,-0.6412213740458015,-2.381679389312977,-0.44091796875,-0.147216796875,-0.130615234375,1.6694
-1.0687022900763359,-0.8091603053435115,-2.519083969465649,-0.442626953125,-0.15087890625,-0.124755859375,1.6710999999999998
-0.8091603053435115,-0.5801526717557252,-2.5343511450381677,-0.447509765625,-0.144775390625,-0.12939453125,1.6727999999999998
-0.9770992366412213,-0.5038167938931297,-2.6106870229007635,-0.44921875,-0.146484375,-0.123046875,1.6744999999999999
-0.5038167938931297,-0.549618320610687,-2.4122137404580153,-0.445556640625,-0.14794921875,-0.123291015625,1.6762
-0.4732824427480916,-0.44274809160305345,-2.4732824427480917,-0.443359375,-0.14892578125,-0.12548828125,1.6779
-0.42748091603053434,-0.24427480916030533,-2.4122137404580153,-0.440185546875,-0.15380859375,-0.12841796875,1.6796
-0.5038167938931297,-0.24427480916030533,-2.5343511450381677,-0.447265625,-0.152099609375,-0.130126953125,1.6813
-0.48854961832061067,0.015267175572519083,-2.33587786259542,-0.445556640625,-0.151611328125,-0.126953125,1.6829999999999998
-0.6412213740458015,0.1984732824427481,-2.3969465648854964,-0.444580078125,-0.15380859375,-0.123291015625,1.6846999999999999
-0.4580152671755725,0.3816793893129771,-2.3206106870229006,-0.440185546875,-0.1513671875,-0.130615234375,1.6864
0.13740458015267176,0.7022900763358778,-2.4427480916030535,-0.439697265625,-0.151611328125,-0.133544921875,1.6881
0.22900763358778625,0.6259541984732825,-2.366412213740458,-0.441650390625,-0.153076171875,-0.131103515625,1.6898
0.10687022900763359,0.8396946564885496,-2.519083969465649,-0.443115234375,-0.151611328125,-0.12646484375,1.6915
0.0,0.9770992366412213,-2.4427480916030535,-0.446533203125,-0.157470703125,-0.130859375,1.6931999999999998
0.061068702290076333,1.0534351145038168,-2.4427480916030535,-0.44482421875,-0.154052734375,-0.123291015625,1.6948999999999999
0.366412213740458,0.9923664122137404,-2.2748091603053435,-0.439453125,-0.15673828125,-0.127197265625,1.6965999999999999
0.13740458015267176,1.0381679389312977,-2.5343511450381677,-0.4384765625,-0.15673828125,-0.120849609375,1.6983
0.366412213740458,0.916030534351145,-2.50381679389313,-0.44091796875,-0.156005859375,-0.11962890625,1.7
0.549618320610687,1.1297709923664123,-2.4122137404580153,-0.44189453125,-0.156982421875,-0.1162109375,1.7017
0.5038167938931297,0.9618320610687023,-2.4427480916030535,-0.442626953125,-0.15869140625,-0.12939453125,1.7033999999999998
0.5038167938931297,0.8702290076335878,-2.3969465648854964,-0.439697265625,-0.165771484375,-0.129638671875,1.7050999999999998
0.4122137404580153,0.9770992366412213,-2.427480916030534,-0.44140625,-0.162353515625,-0.122802734375,1.7067999999999999
0.4580152671755725,0.7175572519083969,-2.3969465648854964,-0.441650390625,-0.16259765625,-0.1279296875,1.7085
0.21374045801526717,0.7480916030534351,-2.3969465648854964,-0.4404296875,-0.15869140625,-0.12939453125,1.7102
0.12213740458015267,0.6106870229007634,-2.5343511450381677,-0.443115234375,-0.164306640625,-0.126220703125,1.7119
0.030534351145038167,0.5343511450381679,-2.519083969465649,-0.444091796875,-0.167724609375,-0.12890625,1.7136
-0.32061068702290074,0.5648854961832062,-2.4427480916030535,-0.4453125,-0.164794921875,-0.134033203125,1.7152999999999998
-0.3053435114503817,0.3969465648854962,-2.2900763358778624,-0.44189453125,-0.16748046875,-0.123779296875,1.7169999999999999
-0.5648854961832062,0.32061068702290074,-2.3969465648854964,-0.439208984375,-0.16552734375,-0.121337890625,1.7187
-0.8702290076335878,0.549618320610687,-2.4122137404580153,-0.444580078125,-0.16259765625,-0.121337890625,1.7204
-1.2671755725190839,0.549618320610687,-2.5343511450381677,-0.451171875,-0.16357421875,-0.1259765625,1.7221
-1.450381679389313,0.33587786259541985,-2.4427480916030535,-0.443115234375,-0.16162109375,-0.130615234375,1.7238
-1.3587786259541985,0.48854961832061067,-2.3969465648854964,-0.445556640625,-0.167724609375,-0.12890625,1.7254999999999998
-1.7099236641221374,0.6106870229007634,-2.4122137404580153,-0.44873046875,-0.171142578125,-0.13134765625,1.7271999999999998
-2.198473282442748,0.6412213740458015,-2.4580152671755724,-0.4443359375,-0.165771484375,-0.13818359375,1.7288999999999999
-2.3053435114503817,0.5038167938931297,-2.5343511450381677,-0.451904296875,-0.164794921875,-0.128662109375,1.7306
-2.366412213740458,0.549618320610687,-2.6259541984732824,-0.444580078125,-0.163330078125,-0.126220703125,1.7323
-2.4580152671755724,0.6106870229007634,-2.549618320610687,-0.44873046875,-0.161865234375,-0.13232421875,1.734
-2.717557251908397,0.3816793893129771,-2.2900763358778624,-0.44873046875,-0.1669921875,-0.133544921875,1.7356999999999998
-2.854961832061069,0.32061068702290074,-2.33587786259542,-0.447998046875,-0.16357421875,-0.1298828125,1.7373999999999998
-3.0076335877862594,0.366412213740458,-2.2748091603053435,-0.447021484375,-0.16650390625,-0.12841796875,1.7390999999999999
-2.7938931297709924,0.15267175572519084,-2.3053435114503817,-0.449951171875,-0.159423828125,-0.126708984375,1.7408
-3.1603053435114505,0.13740458015267176,-2.2290076335877864,-0.4443359375,-0.16650390625,-0.135986328125,1.7425
-3.2977099236641223,-0.030534351145038167,-2.2595419847328246,-0.450439453125,-0.15966796875,-0.13232421875,1.7442
-3.068702290076336,-0.1984732824427481,-2.0610687022900764,-0.44775390625,-0.158447265625,-0.12548828125,1.7459
-3.2061068702290076,-0.4732824427480916,-2.015267175572519,-0.446533203125,-0.1640625,-0.128662109375,1.7475999999999998
-3.2519083969465647,-0.32061068702290074,-1.9541984732824427,-0.4482421875,-0.160400390625,-0.1337890625,1.7492999999999999
-3.282442748091603,-0.5954198473282443,-1.8015267175572518,-0.450927734375,-0.162353515625,-0.13134765625,1.751
-3.053435114503817,-0.6259541984732825,-1.7557251908396947,-0.450439453125,-0.1591796875,-0.1337890625,1.7527
-3.0839694656488548,-0.7480916030534351,-1.83206106870229,-0.447998046875,-0.16015625,-0.135009765625,1.7544
-3.053435114503817,-0.7786259541984732,-1.7099236641221374,-0.450439453125,-0.156005859375,-0.130859375,1.7561
-2.900763358778626,-0.7633587786259542,-1.5725190839694656,-0.45361328125,-0.15380859375,-0.136474609375,1.7577999999999998
-2.763358778625954,-0.8702290076335878,-1.465648854961832,-0.448486328125,-0.15380859375,-0.132080078125,1.7594999999999998
-2.946564885496183,-0.6259541984732825,-1.3129770992366412,-0.45263671875,-0.156494140625,-0.117919921875,1.7611999999999999
-2.6259541984732824,-0.7480916030534351,-1.2213740458015268,-0.456298828125,-0.153564453125,-0.123291015625,1.7629
-2.3969465648854964,-0.8244274809160306,-0.9770992366412213,-0.44970703125,-0.154541015625,-0.123779296875,1.7646
-2.519083969465649,-0.8396946564885496,-1.1297709923664123,-0.453125,-0.15185546875,-0.127197265625,1.7663
-2.2442748091603053,-0.5038167938931297,-0.8549618320610687,-0.448486328125,-0.15087890625,-0.123779296875,1.7679999999999998
-2.015267175572519,-0.5954198473282443,-0.7938931297709924,-0.4619140625,-0.154052734375,-0.12158203125,1.7696999999999998
-1.7709923664122138,-0.5038167938931297,-0.7633587786259542,-0.458251953125,-0.143310546875,-0.1279296875,1.7713999999999999
-1.6793893129770991,-0.2595419847328244,-0.5343511450381679,-0.457763671875,-0.14599609375,-0.12158203125,1.7731
-1.3587786259541985,0.07633587786259542,-0.48854961832061067,-0.451171875,-0.1474609375,-0.135009765625,1.7748
-1.3129770992366412,-0.12213740458015267,-0.3816793893129771,-0.45556640625,-0.148193359375,-0.130615234375,1.7765
-1.1450381679389312,-0.04580152671755725,-0.4122137404580153,-0.4541015625,-0.147216796875,-0.12451171875,1.7782
-0.5954198473282443,0.24427480916030533,-0.3511450381679389,-0.455810546875,-0.150634765625,-0.12060546875,1.7798999999999998
-0.33587786259541985,0.1984732824427481,-0.2595419847328244,-0.455322265625,-0.147705078125,-0.135986328125,1.7815999999999999
