gyrox1,gyroy1,gyroz1,accelx1,accely1,accelz1,Time
1.099236641221374,1.0534351145038168,-0.8396946564885496,-0.07568359375,-0.122802734375,-0.595947265625,0.0
0.8244274809160306,1.0534351145038168,-0.6870229007633588,-0.0771484375,-0.120361328125,-0.593017578125,0.0017
0.9465648854961832,1.1450381679389312,-0.7022900763358778,-0.078125,-0.11767578125,-0.591552734375,0.0034
1.1755725190839694,1.3893129770992367,-0.7175572519083969,-0.076171875,-0.1181640625,-0.5927734375,0.0050999999999999995
1.083969465648855,1.2213740458015268,-0.8244274809160306,-0.07666015625,-0.125,-0.58642578125,0.0068
0.9618320610687023,1.4809160305343512,-0.7633587786259542,-0.07861328125,-0.125244140625,-0.5947265625,0.008499999999999999
0.9312977099236641,1.2061068702290076,-0.8396946564885496,-0.07666015625,-0.125,-0.58935546875,0.010199999999999999
0.8091603053435115,1.282442748091603,-0.7022900763358778,-0.079833984375,-0.12451171875,-0.5908203125,0.011899999999999999
0.7786259541984732,1.297709923664122,-0.732824427480916,-0.075439453125,-0.12353515625,-0.594482421875,0.0136
0.8854961832061069,1.3282442748091603,-0.9770992366412213,-0.0751953125,-0.125,-0.593994140625,0.0153
0.7938931297709924,1.3893129770992367,-0.6717557251908397,-0.078857421875,-0.12060546875,-0.593017578125,0.016999999999999998
0.5954198473282443,1.5419847328244274,-0.6870229007633588,-0.0791015625,-0.12060546875,-0.584716796875,0.018699999999999998
0.8854961832061069,1.4198473282442747,-0.5801526717557252,-0.07958984375,-0.124267578125,-0.59130859375,0.020399999999999998
0.7633587786259542,1.5725190839694656,-0.6717557251908397,-0.0751953125,-0.122802734375,-0.594970703125,0.022099999999999998
1.0381679389312977,1.4961832061068703,-0.6412213740458015,-0.077392578125,-0.121337890625,-0.591552734375,0.023799999999999998
1.0687022900763359,1.3893129770992367,-0.6412213740458015,-0.07958984375,-0.117431640625,-0.597900390625,0.0255
0.916030534351145,1.4045801526717556,-0.6564885496183206,-0.074951171875,-0.12109375,-0.597412109375,0.0272
1.0229007633587786,1.465648854961832,-0.5648854961832062,-0.075439453125,-0.12841796875,-0.58984375,0.0289
0.9770992366412213,1.2061068702290076,-0.7633587786259542,-0.07470703125,-0.12109375,-0.591552734375,0.0306
1.2213740458015268,1.3282442748091603,-0.9770992366412213,-0.07470703125,-0.123779296875,-0.591796875,0.032299999999999995
1.0229007633587786,1.2061068702290076,-0.732824427480916,-0.06884765625,-0.12548828125,-0.585205078125,0.033999999999999996
0.916030534351145,1.4809160305343512,-0.8396946564885496,-0.072998046875,-0.122802734375,-0.590576171875,0.035699999999999996
1.099236641221374,1.4198473282442747,-0.916030534351145,-0.077880859375,-0.12255859375,-0.594970703125,0.037399999999999996
1.0229007633587786,1.450381679389313,-0.8549618320610687,-0.075439453125,-0.125244140625,-0.592041015625,0.039099999999999996
0.8549618320610687,1.5877862595419847,-0.8702290076335878,-0.080322265625,-0.122802734375,-0.591552734375,0.040799999999999996
0.9923664122137404,1.5572519083969465,-0.9923664122137404,-0.076416015625,-0.126220703125,-0.5966796875,0.042499999999999996
1.0229007633587786,1.6488549618320612,-0.9618320610687023,-0.076416015625,-0.126220703125,-0.59033203125,0.044199999999999996
1.0381679389312977,1.5267175572519085,-0.9618320610687023,-0.076416015625,-0.1220703125,-0.593994140625,0.045899999999999996
0.7022900763358778,1.6488549618320612,-1.0687022900763359,-0.07666015625,-0.127197265625,-0.585693359375,0.047599999999999996
0.7786259541984732,1.6946564885496183,-1.1145038167938932,-0.076416015625,-0.121337890625,-0.585693359375,0.0493
0.5954198473282443,1.6793893129770991,-1.0687022900763359,-0.0830078125,-0.123779296875,-0.59375,0.051
0.5954198473282443,1.633587786259542,-1.0687022900763359,-0.0791015625,-0.123779296875,-0.595947265625,0.0527
0.5343511450381679,1.8473282442748091,-1.0534351145038168,-0.079833984375,-0.120849609375,-0.592041015625,0.0544
0.4732824427480916,1.83206106870229,-1.083969465648855,-0.079833984375,-0.12158203125,-0.5966796875,0.0561
0.5343511450381679,1.7251908396946565,-1.0229007633587786,-0.07958984375,-0.1181640625,-0.59375,0.0578
0.5038167938931297,1.6488549618320612,-1.1297709923664123,-0.080078125,-0.1162109375,-0.59228515625,0.0595
0.3969465648854962,1.5572519083969465,-1.1145038167938932,-0.074462890625,-0.125732421875,-0.590576171875,0.0612
0.2900763358778626,1.7557251908396947,-0.9007633587786259,-0.079345703125,-0.12060546875,-0.6005859375,0.0629
0.4732824427480916,1.7251908396946565,-1.0687022900763359,-0.0751953125,-0.12353515625,-0.595458984375,0.06459999999999999
0.5801526717557252,1.8015267175572518,-1.0687022900763359,-0.073486328125,-0.114501953125,-0.593505859375,0.0663
0.13740458015267176,1.7709923664122138,-1.0229007633587786,-0.076171875,-0.122314453125,-0.586181640625,0.06799999999999999
0.5038167938931297,1.5572519083969465,-1.1145038167938932,-0.073974609375,-0.1259765625,-0.595947265625,0.0697
0.4580152671755725,1.6030534351145038,-0.916030534351145,-0.075439453125,-0.11865234375,-0.590576171875,0.07139999999999999
0.3053435114503817,1.5725190839694656,-1.0381679389312977,-0.076171875,-0.1240234375,-0.59716796875,0.0731
0.4122137404580153,1.3587786259541985,-0.9007633587786259,-0.0751953125,-0.1162109375,-0.5947265625,0.07479999999999999
0.6412213740458015,1.4198473282442747,-1.0229007633587786,-0.072998046875,-0.1201171875,-0.593994140625,0.0765
0.549618320610687,1.5572519083969465,-0.8854961832061069,-0.08251953125,-0.123046875,-0.594482421875,0.07819999999999999
0.5343511450381679,1.3435114503816794,-0.8244274809160306,-0.076171875,-0.122802734375,-0.59619140625,0.0799
0.4580152671755725,1.450381679389313,-0.8702290076335878,-0.07763671875,-0.118896484375,-0.595947265625,0.08159999999999999
0.5190839694656488,1.3587786259541985,-0.9770992366412213,-0.07080078125,-0.123046875,-0.59326171875,0.0833
0.4732824427480916,1.3129770992366412,-0.7938931297709924,-0.082275390625,-0.11767578125,-0.59423828125,0.08499999999999999
0.5190839694656488,1.3587786259541985,-0.8396946564885496,-0.075439453125,-0.1201171875,-0.59228515625,0.0867
0.7175572519083969,1.4198473282442747,-0.5190839694656488,-0.076171875,-0.120361328125,-0.59423828125,0.08839999999999999
0.6259541984732825,1.3282442748091603,-0.8396946564885496,-0.073486328125,-0.12353515625,-0.6015625,0.0901
0.5343511450381679,1.3587786259541985,-0.7480916030534351,-0.07275390625,-0.118408203125,-0.590087890625,0.09179999999999999
0.5648854961832062,1.2671755725190839,-0.8396946564885496,-0.074951171875,-0.1201171875,-0.59619140625,0.0935
0.24427480916030533,1.4809160305343512,-0.6717557251908397,-0.0732421875,-0.120361328125,-0.5966796875,0.09519999999999999
0.3969465648854962,1.3129770992366412,-0.8549618320610687,-0.07958984375,-0.128173828125,-0.596923828125,0.0969
0.44274809160305345,1.297709923664122,-0.5190839694656488,-0.072021484375,-0.126220703125,-0.587890625,0.0986
0.2748091603053435,1.3129770992366412,-0.7938931297709924,-0.07568359375,-0.122314453125,-0.594482421875,0.1003
0.21374045801526717,1.1450381679389312,-0.6870229007633588,-0.072998046875,-0.125,-0.592041015625,0.102
0.22900763358778625,1.099236641221374,-0.7633587786259542,-0.076416015625,-0.124267578125,-0.60107421875,0.1037
0.32061068702290074,1.0381679389312977,-0.7480916030534351,-0.070556640625,-0.124755859375,-0.592529296875,0.1054
0.4122137404580153,1.0229007633587786,-0.8702290076335878,-0.074951171875,-0.126220703125,-0.589599609375,0.1071
0.3816793893129771,0.7938931297709924,-0.6870229007633588,-0.071533203125,-0.126953125,-0.586181640625,0.1088
0.24427480916030533,0.7633587786259542,-0.8549618320610687,-0.074462890625,-0.125244140625,-0.588134765625,0.11049999999999999
0.549618320610687,0.8549618320610687,-0.9007633587786259,-0.070068359375,-0.126708984375,-0.59521484375,0.1122
0.5343511450381679,0.7175572519083969,-1.0381679389312977,-0.071044921875,-0.126708984375,-0.607666015625,0.11389999999999999
0.48854961832061067,0.5801526717557252,-1.0534351145038168,-0.072021484375,-0.1259765625,-0.597900390625,0.1156
0.4122137404580153,0.5190839694656488,-1.1450381679389312,-0.075439453125,-0.1279296875,-0.595947265625,0.11729999999999999
0.4732824427480916,0.8854961832061069,-0.9465648854961832,-0.074462890625,-0.1240234375,-0.592041015625,0.119
0.183206106870229,0.6106870229007634,-1.1603053435114503,-0.072021484375,-0.1259765625,-0.589599609375,0.12069999999999999
0.3816793893129771,0.732824427480916,-0.8396946564885496,-0.0712890625,-0.125,-0.59375,0.1224
0.3969465648854962,0.6870229007633588,-1.1755725190839694,-0.072998046875,-0.123046875,-0.59375,0.12409999999999999
0.183206106870229,0.6870229007633588,-1.0076335877862594,-0.075927734375,-0.126708984375,-0.59423828125,0.1258
0.15267175572519084,0.9312977099236641,-1.083969465648855,-0.075927734375,-0.1240234375,-0.59619140625,0.1275
0.061068702290076333,0.9770992366412213,-0.9618320610687023,-0.0732421875,-0.123779296875,-0.59521484375,0.12919999999999998
0.15267175572519084,0.916030534351145,-1.2213740458015268,-0.07568359375,-0.12451171875,-0.598876953125,0.1309
-0.030534351145038167,0.9007633587786259,-1.1450381679389312,-0.07763671875,-0.122314453125,-0.58984375,0.1326
-0.07633587786259542,0.8549618320610687,-1.2061068702290076,-0.0810546875,-0.12060546875,-0.587158203125,0.1343
-0.10687022900763359,0.8396946564885496,-0.9312977099236641,-0.07861328125,-0.125244140625,-0.59765625,0.13599999999999998
-0.2595419847328244,0.8702290076335878,-1.2366412213740459,-0.077392578125,-0.122314453125,-0.605224609375,0.1377
-0.3053435114503817,0.7480916030534351,-1.297709923664122,-0.083984375,-0.1201171875,-0.58544921875,0.1394
-0.3053435114503817,0.7786259541984732,-1.251908396946565,-0.08056640625,-0.121337890625,-0.590576171875,0.1411
-0.3816793893129771,0.5954198473282443,-1.251908396946565,-0.076904296875,-0.1162109375,-0.591552734375,0.14279999999999998
-0.33587786259541985,0.6412213740458015,-1.3129770992366412,-0.076171875,-0.125,-0.58837890625,0.1445
-0.32061068702290074,0.732824427480916,-1.297709923664122,-0.077392578125,-0.125732421875,-0.59619140625,0.1462
-0.2748091603053435,0.6259541984732825,-1.5877862595419847,-0.073974609375,-0.12451171875,-0.59130859375,0.1479
-0.24427480916030533,0.7175572519083969,-1.4045801526717556,-0.074951171875,-0.12353515625,-0.593017578125,0.14959999999999998
-0.2748091603053435,0.6564885496183206,-1.450381679389313,-0.075927734375,-0.123046875,-0.587890625,0.1513
-0.1984732824427481,0.4732824427480916,-1.5725190839694656,-0.075439453125,-0.120849609375,-0.5888671875,0.153
0.15267175572519084,0.5343511450381679,-1.6793893129770991,-0.0712890625,-0.118896484375,-0.593505859375,0.1547
0.1984732824427481,0.6106870229007634,-1.8015267175572518,-0.072021484375,-0.11962890625,-0.58935546875,0.15639999999999998
0.1984732824427481,0.6412213740458015,-1.6793893129770991,-0.07373046875,-0.123779296875,-0.591552734375,0.1581
0.16793893129770993,0.6564885496183206,-1.450381679389313,-0.076416015625,-0.11962890625,-0.592529296875,0.1598
0.42748091603053434,0.5038167938931297,-1.6793893129770991,-0.0712890625,-0.120361328125,-0.596923828125,0.1615
0.7938931297709924,0.5343511450381679,-1.633587786259542,-0.074462890625,-0.1162109375,-0.592529296875,0.16319999999999998
0.6412213740458015,0.44274809160305345,-1.6641221374045803,-0.07275390625,-0.115234375,-0.59130859375,0.1649
0.6717557251908397,0.4122137404580153,-1.5877862595419847,-0.07275390625,-0.118408203125,-0.593017578125,0.1666
0.6717557251908397,0.5038167938931297,-1.7557251908396947,-0.075927734375,-0.123046875,-0.590576171875,0.16829999999999998
0.6870229007633588,0.5648854961832062,-1.4809160305343512,-0.0751953125,-0.1171875,-0.5947265625,0.16999999999999998
0.6412213740458015,0.32061068702290074,-1.5267175572519085,-0.073974609375,-0.11865234375,-0.5888671875,0.1717
0.7938931297709924,0.42748091603053434,-1.450381679389313,-0.0771484375,-0.12060546875,-0.592041015625,0.1734
0.7175572519083969,0.5648854961832062,-1.4961832061068703,-0.077880859375,-0.12548828125,-0.593017578125,0.17509999999999998
0.732824427480916,0.5038167938931297,-1.3740458015267176,-0.07958984375,-0.124267578125,-0.58984375,0.17679999999999998
0.5954198473282443,0.4580152671755725,-1.5419847328244274,-0.081298828125,-0.123291015625,-0.59375,0.1785
0.4580152671755725,0.7480916030534351,-1.2366412213740459,-0.07421875,-0.125732421875,-0.589111328125,0.1802
0.3511450381679389,0.8091603053435115,-1.251908396946565,-0.0732421875,-0.124267578125,-0.591064453125,0.18189999999999998
0.16793893129770993,0.6870229007633588,-1.3435114503816794,-0.0693359375,-0.121337890625,-0.599853515625,0.18359999999999999
0.16793893129770993,0.549618320610687,-1.3282442748091603,-0.07421875,-0.119873046875,-0.595703125,0.1853
0.12213740458015267,0.5343511450381679,-1.3282442748091603,-0.075439453125,-0.123779296875,-0.5927734375,0.187
0.1984732824427481,0.44274809160305345,-1.465648854961832,-0.074951171875,-0.1201171875,-0.592041015625,0.18869999999999998
-0.04580152671755725,0.5801526717557252,-1.3435114503816794,-0.07275390625,-0.120849609375,-0.592041015625,0.19039999999999999
-0.15267175572519084,0.4580152671755725,-1.6793893129770991,-0.073486328125,-0.1220703125,-0.595947265625,0.1921
-0.04580152671755725,0.48854961832061067,-1.5419847328244274,-0.07177734375,-0.12353515625,-0.593017578125,0.1938
0.07633587786259542,0.4580152671755725,-1.786259541984733,-0.076171875,-0.125244140625,-0.5830078125,0.19549999999999998
-0.04580152671755725,0.366412213740458,-1.5877862595419847,-0.07763671875,-0.119873046875,-0.595703125,0.1972
0.13740458015267176,0.5190839694656488,-1.8625954198473282,-0.0771484375,-0.123291015625,-0.591552734375,0.1989
-0.061068702290076333,0.44274809160305345,-1.633587786259542,-0.07421875,-0.125,-0.588134765625,0.2006
0.15267175572519084,0.3053435114503817,-1.816793893129771,-0.0771484375,-0.122314453125,-0.58984375,0.20229999999999998
-0.04580152671755725,0.6717557251908397,-1.816793893129771,-0.0712890625,-0.12255859375,-0.589111328125,0.204
0.061068702290076333,0.7175572519083969,-1.8625954198473282,-0.0712890625,-0.123779296875,-0.59521484375,0.2057
0.07633587786259542,0.6564885496183206,-1.786259541984733,-0.078125,-0.12255859375,-0.593017578125,0.2074
0.2900763358778626,0.916030534351145,-1.9083969465648856,-0.076416015625,-0.12353515625,-0.59228515625,0.20909999999999998
0.2748091603053435,0.8854961832061069,-1.9236641221374047,-0.078369140625,-0.123291015625,-0.597412109375,0.2108
0.22900763358778625,0.7633587786259542,-2.030534351145038,-0.074462890625,-0.120361328125,-0.584716796875,0.2125
0.13740458015267176,0.7633587786259542,-1.7709923664122138,-0.07666015625,-0.12060546875,-0.587646484375,0.2142
0.4122137404580153,0.9618320610687023,-1.9236641221374047,-0.074951171875,-0.124755859375,-0.593017578125,0.21589999999999998
0.2595419847328244,0.8702290076335878,-1.8473282442748091,-0.072265625,-0.117919921875,-0.590087890625,0.2176
0.3511450381679389,0.9007633587786259,-1.8473282442748091,-0.07861328125,-0.123291015625,-0.591552734375,0.2193
0.1984732824427481,1.083969465648855,-1.618320610687023,-0.072509765625,-0.123779296875,-0.58984375,0.22099999999999997
0.2595419847328244,1.1755725190839694,-1.7099236641221374,-0.076171875,-0.125,-0.586181640625,0.22269999999999998
0.4122137404580153,1.2366412213740459,-1.8625954198473282,-0.078369140625,-0.12060546875,-0.5888671875,0.2244
0.3816793893129771,1.2213740458015268,-1.7099236641221374,-0.0712890625,-0.125732421875,-0.591552734375,0.2261
0.32061068702290074,1.099236641221374,-1.3129770992366412,-0.077392578125,-0.120849609375,-0.594482421875,0.22779999999999997
0.4122137404580153,0.9465648854961832,-1.6030534351145038,-0.075927734375,-0.126220703125,-0.586181640625,0.22949999999999998
0.3053435114503817,1.3282442748091603,-1.5419847328244274,-0.07666015625,-0.1240234375,-0.591064453125,0.2312
0.2748091603053435,1.3893129770992367,-1.2671755725190839,-0.073974609375,-0.1220703125,-0.600341796875,0.2329
0.15267175572519084,1.3587786259541985,-1.450381679389313,-0.075927734375,-0.122314453125,-0.59326171875,0.23459999999999998
0.21374045801526717,1.1450381679389312,-1.4809160305343512,-0.073486328125,-0.1181640625,-0.59423828125,0.23629999999999998
0.24427480916030533,1.0534351145038168,-1.4351145038167938,-0.074951171875,-0.12255859375,-0.59619140625,0.238
-0.0916030534351145,1.1908396946564885,-1.633587786259542,-0.08251953125,-0.124755859375,-0.59033203125,0.2397
-0.030534351145038167,1.2671755725190839,-1.6793893129770991,-0.07861328125,-0.124755859375,-0.589599609375,0.24139999999999998
0.015267175572519083,1.297709923664122,-1.5114503816793894,-0.077392578125,-0.120361328125,-0.585693359375,0.24309999999999998
0.015267175572519083,1.3129770992366412,-1.5725190839694656,-0.074951171875,-0.125732421875,-0.5947265625,0.2448
0.0,1.251908396946565,-1.6946564885496183,-0.078369140625,-0.12109375,-0.59375,0.2465
-0.07633587786259542,1.3435114503816794,-1.6641221374045803,-0.072509765625,-0.124755859375,-0.5869140625,0.24819999999999998
-0.21374045801526717,1.297709923664122,-1.633587786259542,-0.0751953125,-0.12353515625,-0.5927734375,0.24989999999999998
-0.061068702290076333,1.4045801526717556,-1.8625954198473282,-0.0810546875,-0.127197265625,-0.5869140625,0.2516
0.061068702290076333,1.282442748091603,-1.7557251908396947,-0.07958984375,-0.12109375,-0.593017578125,0.25329999999999997
0.0916030534351145,1.3282442748091603,-1.6793893129770991,-0.079345703125,-0.125,-0.58740234375,0.255
0.015267175572519083,1.3435114503816794,-1.9541984732824427,-0.078857421875,-0.11962890625,-0.588134765625,0.2567
0.030534351145038167,1.465648854961832,-1.7099236641221374,-0.077880859375,-0.121337890625,-0.586181640625,0.25839999999999996
0.015267175572519083,1.4961832061068703,-1.8473282442748091,-0.0751953125,-0.11767578125,-0.587890625,0.2601
0.12213740458015267,1.4045801526717556,-1.8778625954198473,-0.07275390625,-0.121337890625,-0.586181640625,0.2618
0.0916030534351145,1.1603053435114503,-1.9541984732824427,-0.076904296875,-0.119140625,-0.591064453125,0.2635
0.04580152671755725,1.297709923664122,-1.83206106870229,-0.07763671875,-0.117919921875,-0.591796875,0.2652
0.1984732824427481,1.3893129770992367,-2.0,-0.071533203125,-0.12255859375,-0.585205078125,0.26689999999999997
0.015267175572519083,1.2366412213740459,-1.9236641221374047,-0.077880859375,-0.121337890625,-0.588623046875,0.2686
-0.061068702290076333,1.2671755725190839,-2.0,-0.080810546875,-0.120849609375,-0.602294921875,0.2703
-0.24427480916030533,1.297709923664122,-1.8625954198473282,-0.07763671875,-0.117919921875,-0.583984375,0.27199999999999996
0.0916030534351145,1.1908396946564885,-2.0610687022900764,-0.078125,-0.123291015625,-0.586669921875,0.2737
0.10687022900763359,1.3740458015267176,-2.015267175572519,-0.074951171875,-0.120361328125,-0.59716796875,0.2754
0.21374045801526717,1.2671755725190839,-1.8015267175572518,-0.077392578125,-0.12255859375,-0.5927734375,0.27709999999999996
0.0,1.1755725190839694,-1.8931297709923665,-0.078857421875,-0.1279296875,-0.592529296875,0.2788
0.22900763358778625,1.1145038167938932,-2.0,-0.080810546875,-0.12060546875,-0.58984375,0.28049999999999997
0.44274809160305345,1.0687022900763359,-1.8015267175572518,-0.07861328125,-0.119873046875,-0.587890625,0.2822
0.2900763358778626,1.0229007633587786,-1.7557251908396947,-0.078125,-0.122314453125,-0.59521484375,0.2839
0.5954198473282443,1.1908396946564885,-1.83206106870229,-0.0771484375,-0.123046875,-0.595458984375,0.28559999999999997
0.32061068702290074,1.099236641221374,-1.83206106870229,-0.0791015625,-0.1259765625,-0.592041015625,0.2873
0.6106870229007634,1.2213740458015268,-1.8473282442748091,-0.07861328125,-0.12109375,-0.595947265625,0.289
0.6870229007633588,1.1908396946564885,-1.8625954198473282,-0.0791015625,-0.1220703125,-0.5869140625,0.29069999999999996
0.8091603053435115,1.2213740458015268,-1.7251908396946565,-0.078857421875,-0.122802734375,-0.591064453125,0.2924
1.0687022900763359,1.1450381679389312,-1.8931297709923665,-0.077392578125,-0.119873046875,-0.58935546875,0.2941
0.7633587786259542,1.2061068702290076,-1.7557251908396947,-0.077392578125,-0.12158203125,-0.585693359375,0.2958
0.7786259541984732,1.2671755725190839,-1.9389312977099236,-0.0751953125,-0.12255859375,-0.5888671875,0.2975
0.9465648854961832,1.2671755725190839,-1.9694656488549618,-0.077880859375,-0.122314453125,-0.5908203125,0.29919999999999997
1.0534351145038168,1.3740458015267176,-1.83206106870229,-0.07470703125,-0.122314453125,-0.592041015625,0.3009
0.8396946564885496,1.2671755725190839,-2.015267175572519,-0.076416015625,-0.119140625,-0.59375,0.3026
1.0381679389312977,1.4045801526717556,-1.8625954198473282,-0.080078125,-0.1201171875,-0.59228515625,0.30429999999999996
0.8091603053435115,1.3435114503816794,-1.9083969465648856,-0.073486328125,-0.120361328125,-0.5859375,0.306
0.9770992366412213,1.4351145038167938,-1.9389312977099236,-0.078125,-0.124755859375,-0.58935546875,0.3077
0.8244274809160306,1.5114503816793894,-2.045801526717557,-0.074462890625,-0.1220703125,-0.5947265625,0.3094
0.8244274809160306,1.5267175572519085,-1.9236641221374047,-0.076416015625,-0.123046875,-0.590087890625,0.3111
0.7938931297709924,1.3282442748091603,-2.1374045801526718,-0.073974609375,-0.123046875,-0.58984375,0.31279999999999997
0.8091603053435115,1.450381679389313,-2.0610687022900764,-0.076904296875,-0.12646484375,-0.58642578125,0.3145
0.7175572519083969,1.465648854961832,-2.1068702290076335,-0.076171875,-0.130615234375,-0.58447265625,0.3162
0.7786259541984732,1.3740458015267176,-2.0610687022900764,-0.07666015625,-0.121337890625,-0.5966796875,0.31789999999999996
0.9007633587786259,1.3435114503816794,-1.8778625954198473,-0.076171875,-0.123779296875,-0.586181640625,0.3196
1.0534351145038168,1.2366412213740459,-2.015267175572519,-0.076416015625,-0.11962890625,-0.589599609375,0.3213
0.7175572519083969,1.1603053435114503,-2.183206106870229,-0.083740234375,-0.124755859375,-0.58984375,0.323
0.9465648854961832,1.251908396946565,-1.8473282442748091,-0.07568359375,-0.1201171875,-0.590087890625,0.3247
0.9770992366412213,1.4198473282442747,-1.9236641221374047,-0.073486328125,-0.117919921875,-0.57958984375,0.32639999999999997
1.0076335877862594,1.3740458015267176,-1.9389312977099236,-0.073974609375,-0.122314453125,-0.590087890625,0.3281
0.8549618320610687,1.297709923664122,-1.8473282442748091,-0.075439453125,-0.12255859375,-0.593017578125,0.3298
0.7633587786259542,1.3893129770992367,-1.83206106870229,-0.08056640625,-0.1259765625,-0.58935546875,0.33149999999999996
0.6564885496183206,1.3282442748091603,-1.9083969465648856,-0.078369140625,-0.123291015625,-0.593505859375,0.3332
0.6564885496183206,1.3893129770992367,-2.015267175572519,-0.076171875,-0.125,-0.587158203125,0.3349
0.7938931297709924,1.4961832061068703,-1.7557251908396947,-0.07861328125,-0.124755859375,-0.59033203125,0.33659999999999995
0.6564885496183206,1.5267175572519085,-1.9083969465648856,-0.07568359375,-0.1240234375,-0.587890625,0.3383
0.549618320610687,1.251908396946565,-1.9083969465648856,-0.080322265625,-0.117919921875,-0.588623046875,0.33999999999999997
0.5648854961832062,1.1755725190839694,-1.786259541984733,-0.072998046875,-0.119384765625,-0.586181640625,0.3417
0.3969465648854962,1.297709923664122,-1.8778625954198473,-0.080322265625,-0.119140625,-0.593505859375,0.3434
0.5648854961832062,1.083969465648855,-1.9389312977099236,-0.074951171875,-0.120361328125,-0.587646484375,0.34509999999999996
0.48854961832061067,1.1145038167938932,-1.8778625954198473,-0.07421875,-0.11962890625,-0.58740234375,0.3468
0.6870229007633588,1.0229007633587786,-1.786259541984733,-0.078857421875,-0.118896484375,-0.589111328125,0.3485
0.6564885496183206,0.9923664122137404,-2.1374045801526718,-0.075439453125,-0.115234375,-0.58642578125,0.35019999999999996
0.7938931297709924,1.099236641221374,-2.1068702290076335,-0.078369140625,-0.11767578125,-0.58642578125,0.3519
0.5801526717557252,1.099236641221374,-1.9083969465648856,-0.074462890625,-0.119384765625,-0.589111328125,0.35359999999999997
0.8702290076335878,1.0076335877862594,-1.7709923664122138,-0.072265625,-0.122314453125,-0.59619140625,0.3553
0.8854961832061069,0.9312977099236641,-1.984732824427481,-0.077880859375,-0.1171875,-0.59619140625,0.357
0.9618320610687023,1.0687022900763359,-1.9389312977099236,-0.07373046875,-0.113037109375,-0.591552734375,0.35869999999999996
1.0687022900763359,0.9770992366412213,-2.0763358778625953,-0.07763671875,-0.11767578125,-0.593017578125,0.3604
1.282442748091603,1.0076335877862594,-1.9083969465648856,-0.0791015625,-0.115234375,-0.591796875,0.3621
1.3435114503816794,1.0381679389312977,-2.045801526717557,-0.076904296875,-0.12158203125,-0.59326171875,0.36379999999999996
1.1908396946564885,1.0076335877862594,-2.0,-0.076171875,-0.1220703125,-0.59375,0.3655
1.1755725190839694,1.0381679389312977,-2.0610687022900764,-0.074951171875,-0.120361328125,-0.597900390625,0.36719999999999997
1.4351145038167938,1.0687022900763359,-1.9541984732824427,-0.07421875,-0.114013671875,-0.596435546875,0.3689
1.2671755725190839,0.916030534351145,-1.9389312977099236,-0.07666015625,-0.123779296875,-0.591064453125,0.3706
1.297709923664122,1.0534351145038168,-1.9541984732824427,-0.076904296875,-0.122314453125,-0.597900390625,0.37229999999999996
1.3129770992366412,1.1145038167938932,-1.8778625954198473,-0.07568359375,-0.122314453125,-0.592041015625,0.374
1.2061068702290076,0.9312977099236641,-1.8625954198473282,-0.082275390625,-0.119384765625,-0.5859375,0.3757
1.1908396946564885,1.0534351145038168,-1.9541984732824427,-0.079833984375,-0.120849609375,-0.581298828125,0.37739999999999996
1.1755725190839694,1.1450381679389312,-1.83206106870229,-0.079345703125,-0.125732421875,-0.58642578125,0.3791
1.1908396946564885,1.1603053435114503,-1.9236641221374047,-0.079345703125,-0.1240234375,-0.5986328125,0.38079999999999997
1.1603053435114503,0.9465648854961832,-1.7709923664122138,-0.077880859375,-0.120361328125,-0.592529296875,0.38249999999999995
1.0534351145038168,1.0687022900763359,-1.8625954198473282,-0.073974609375,-0.119140625,-0.589111328125,0.3842
1.251908396946565,0.9465648854961832,-1.7251908396946565,-0.072998046875,-0.118896484375,-0.58984375,0.38589999999999997
1.2061068702290076,1.0076335877862594,-1.633587786259542,-0.076416015625,-0.12060546875,-0.59375,0.3876
1.1145038167938932,0.9465648854961832,-1.5572519083969465,-0.076416015625,-0.11962890625,-0.587646484375,0.3893
1.1450381679389312,0.9923664122137404,-1.7099236641221374,-0.077392578125,-0.118408203125,-0.580078125,0.39099999999999996
0.9770992366412213,0.916030534351145,-1.6946564885496183,-0.07568359375,-0.122314453125,-0.58837890625,0.3927
1.0381679389312977,0.916030534351145,-1.6488549618320612,-0.07275390625,-0.12255859375,-0.584716796875,0.3944
0.9465648854961832,0.9923664122137404,-1.4351145038167938,-0.076171875,-0.123046875,-0.583984375,0.39609999999999995
1.0381679389312977,1.0076335877862594,-1.450381679389313,-0.078369140625,-0.120361328125,-0.591796875,0.3978
0.8091603053435115,1.0229007633587786,-1.3435114503816794,-0.07470703125,-0.118408203125,-0.590576171875,0.39949999999999997
0.8396946564885496,1.0229007633587786,-1.4961832061068703,-0.076904296875,-0.121337890625,-0.594970703125,0.4012
0.7175572519083969,0.8549618320610687,-1.2671755725190839,-0.075927734375,-0.115966796875,-0.5859375,0.4029
0.9312977099236641,0.8091603053435115,-1.465648854961832,-0.07861328125,-0.124267578125,-0.585205078125,0.40459999999999996
0.7175572519083969,0.9312977099236641,-1.3129770992366412,-0.0751953125,-0.12548828125,-0.588623046875,0.4063
0.8244274809160306,0.916030534351145,-1.450381679389313,-0.080810546875,-0.12060546875,-0.590576171875,0.408
0.6717557251908397,0.9465648854961832,-1.4198473282442747,-0.074951171875,-0.12060546875,-0.593505859375,0.40969999999999995
0.916030534351145,0.8854961832061069,-1.4961832061068703,-0.0771484375,-0.12158203125,-0.58935546875,0.4114
0.8244274809160306,0.9312977099236641,-1.2671755725190839,-0.072998046875,-0.1201171875,-0.5849609375,0.41309999999999997
0.7786259541984732,0.9465648854961832,-1.2366412213740459,-0.076416015625,-0.12109375,-0.5927734375,0.4148
0.916030534351145,1.0687022900763359,-1.297709923664122,-0.078369140625,-0.12109375,-0.5888671875,0.4165
0.9312977099236641,0.8854961832061069,-1.450381679389313,-0.07666015625,-0.1201171875,-0.58447265625,0.41819999999999996
0.8549618320610687,0.8854961832061069,-1.450381679389313,-0.082275390625,-0.123046875,-0.5966796875,0.4199
1.0229007633587786,0.8244274809160306,-1.816793893129771,-0.076416015625,-0.122802734375,-0.59814453125,0.4216
1.1755725190839694,0.7480916030534351,-1.5725190839694656,-0.078369140625,-0.11962890625,-0.597412109375,0.42329999999999995
1.1297709923664123,0.9465648854961832,-1.4809160305343512,-0.081298828125,-0.122314453125,-0.590087890625,0.425
1.0381679389312977,1.0076335877862594,-1.3282442748091603,-0.077392578125,-0.121337890625,-0.595703125,0.42669999999999997
1.1297709923664123,0.8396946564885496,-1.465648854961832,-0.078857421875,-0.116455078125,-0.596435546875,0.4284
1.1297709923664123,1.0229007633587786,-1.4809160305343512,-0.078369140625,-0.119140625,-0.595947265625,0.4301
1.0534351145038168,1.099236641221374,-1.5572519083969465,-0.0732421875,-0.124267578125,-0.588623046875,0.43179999999999996
1.0534351145038168,0.9770992366412213,-1.5267175572519085,-0.079345703125,-0.125244140625,-0.599609375,0.4335
1.2213740458015268,0.8702290076335878,-1.5877862595419847,-0.083251953125,-0.11865234375,-0.591796875,0.4352
1.1297709923664123,0.9007633587786259,-1.3740458015267176,-0.083740234375,-0.116455078125,-0.595703125,0.43689999999999996
1.083969465648855,0.732824427480916,-1.465648854961832,-0.07666015625,-0.125244140625,-0.59521484375,0.4386
1.3282442748091603,0.7175572519083969,-1.450381679389313,-0.07958984375,-0.123046875,-0.592041015625,0.44029999999999997
1.1908396946564885,0.4122137404580153,-1.5419847328244274,-0.076416015625,-0.119140625,-0.591552734375,0.44199999999999995
1.297709923664122,0.5038167938931297,-1.3587786259541985,-0.0771484375,-0.11962890625,-0.586181640625,0.4437
1.297709923664122,0.6717557251908397,-1.450381679389313,-0.077880859375,-0.11669921875,-0.591552734375,0.44539999999999996
1.4351145038167938,0.5801526717557252,-1.3587786259541985,-0.075927734375,-0.12255859375,-0.593017578125,0.4471
1.3587786259541985,0.7022900763358778,-1.5419847328244274,-0.075439453125,-0.124755859375,-0.598876953125,0.4488
1.251908396946565,0.7175572519083969,-1.4351145038167938,-0.075439453125,-0.123046875,-0.59765625,0.45049999999999996
1.5877862595419847,0.5801526717557252,-1.5114503816793894,-0.078369140625,-0.11572265625,-0.598876953125,0.4522
1.633587786259542,0.8244274809160306,-1.5267175572519085,-0.076904296875,-0.125,-0.5849609375,0.45389999999999997
1.4198473282442747,0.6106870229007634,-1.4809160305343512,-0.077392578125,-0.125,-0.587890625,0.45559999999999995
1.3129770992366412,0.5648854961832062,-1.5267175572519085,-0.07861328125,-0.122314453125,-0.595458984375,0.4573
1.618320610687023,0.6564885496183206,-1.8473282442748091,-0.0771484375,-0.119384765625,-0.587890625,0.45899999999999996
1.450381679389313,0.7022900763358778,-1.6030534351145038,-0.07861328125,-0.119384765625,-0.590087890625,0.4607
1.450381679389313,0.7022900763358778,-1.6488549618320612,-0.079833984375,-0.125732421875,-0.58984375,0.4624
1.2061068702290076,0.7633587786259542,-1.4961832061068703,-0.077392578125,-0.122802734375,-0.60107421875,0.46409999999999996
1.282442748091603,0.6412213740458015,-1.7099236641221374,-0.078369140625,-0.120849609375,-0.59130859375,0.4658
1.3893129770992367,0.7480916030534351,-1.4809160305343512,-0.08154296875,-0.122802734375,-0.593017578125,0.46749999999999997
1.251908396946565,1.0687022900763359,-1.5877862595419847,-0.077880859375,-0.121826171875,-0.584716796875,0.46919999999999995
1.1297709923664123,1.0229007633587786,-1.6488549618320612,-0.0751953125,-0.12646484375,-0.592529296875,0.4709
0.916030534351145,0.9770992366412213,-1.6946564885496183,-0.081298828125,-0.12451171875,-0.595947265625,0.47259999999999996
0.8854961832061069,1.2061068702290076,-1.465648854961832,-0.07568359375,-0.1201171875,-0.595458984375,0.4743
0.9465648854961832,1.083969465648855,-1.4351145038167938,-0.07470703125,-0.117919921875,-0.593505859375,0.476
0.7633587786259542,1.0687022900763359,-1.4198473282442747,-0.080322265625,-0.1240234375,-0.596435546875,0.47769999999999996
0.7480916030534351,1.0229007633587786,-1.3893129770992367,-0.076416015625,-0.128662109375,-0.593505859375,0.4794
0.6564885496183206,1.1145038167938932,-1.450381679389313,-0.07861328125,-0.12060546875,-0.600830078125,0.48109999999999997
0.7022900763358778,0.9770992366412213,-1.4961832061068703,-0.07861328125,-0.12158203125,-0.593994140625,0.48279999999999995
0.6564885496183206,0.9770992366412213,-1.4198473282442747,-0.076416015625,-0.123291015625,-0.583740234375,0.4845
0.5648854961832062,1.099236641221374,-1.4045801526717556,-0.073974609375,-0.120361328125,-0.587158203125,0.48619999999999997
0.8854961832061069,1.0229007633587786,-1.2213740458015268,-0.0771484375,-0.1201171875,-0.595947265625,0.4879
0.8091603053435115,1.1297709923664123,-1.3282442748091603,-0.077392578125,-0.11962890625,-0.600830078125,0.4896
0.6870229007633588,0.9770992366412213,-1.2061068702290076,-0.076904296875,-0.11572265625,-0.587646484375,0.49129999999999996
0.8244274809160306,0.9618320610687023,-1.3282442748091603,-0.072998046875,-0.11962890625,-0.5927734375,0.493
0.9923664122137404,1.1145038167938932,-1.2671755725190839,-0.073486328125,-0.12255859375,-0.586181640625,0.4947
1.083969465648855,1.0687022900763359,-1.4045801526717556,-0.070556640625,-0.1220703125,-0.59423828125,0.49639999999999995
1.3587786259541985,1.0076335877862594,-1.2366412213740459,-0.077880859375,-0.121337890625,-0.586669921875,0.4981
1.4198473282442747,1.1603053435114503,-1.450381679389313,-0.076904296875,-0.1201171875,-0.591796875,0.49979999999999997
1.2671755725190839,1.099236641221374,-1.5114503816793894,-0.078857421875,-0.1201171875,-0.591796875,0.5015
1.4809160305343512,1.2671755725190839,-1.4961832061068703,-0.077880859375,-0.124755859375,-0.59033203125,0.5032
1.6946564885496183,1.2061068702290076,-1.3893129770992367,-0.08251953125,-0.119384765625,-0.59814453125,0.5049
1.5267175572519085,1.083969465648855,-1.465648854961832,-0.078125,-0.120361328125,-0.60498046875,0.5065999999999999
1.633587786259542,1.3893129770992367,-1.3893129770992367,-0.078857421875,-0.12109375,-0.58984375,0.5083
1.6488549618320612,1.3129770992366412,-1.5877862595419847,-0.0849609375,-0.11767578125,-0.587890625,0.51
1.5572519083969465,1.4961832061068703,-1.465648854961832,-0.08251953125,-0.1201171875,-0.58251953125,0.5116999999999999
1.3587786259541985,1.3740458015267176,-1.6030534351145038,-0.079345703125,-0.129150390625,-0.593017578125,0.5134
1.5419847328244274,1.4961832061068703,-1.5419847328244274,-0.080810546875,-0.118408203125,-0.59228515625,0.5151
1.4809160305343512,1.450381679389313,-1.5572519083969465,-0.074951171875,-0.1240234375,-0.58642578125,0.5167999999999999
1.3740458015267176,1.4961832061068703,-1.6030534351145038,-0.081298828125,-0.125,-0.58984375,0.5185
1.099236641221374,1.6946564885496183,-1.6488549618320612,-0.080322265625,-0.126220703125,-0.5966796875,0.5202
0.9007633587786259,1.6641221374045803,-1.4351145038167938,-0.0791015625,-0.119140625,-0.591796875,0.5218999999999999
0.8702290076335878,1.6946564885496183,-1.3282442748091603,-0.08154296875,-0.121337890625,-0.586181640625,0.5236
0.9465648854961832,1.8473282442748091,-1.4045801526717556,-0.07958984375,-0.11962890625,-0.5947265625,0.5253
0.7633587786259542,1.6030534351145038,-1.5114503816793894,-0.07568359375,-0.123046875,-0.592529296875,0.527
0.48854961832061067,1.6641221374045803,-1.465648854961832,-0.076171875,-0.123291015625,-0.599853515625,0.5287
0.6259541984732825,1.7404580152671756,-1.5267175572519085,-0.07958984375,-0.12255859375,-0.599365234375,0.5304
0.549618320610687,1.6641221374045803,-1.282442748091603,-0.072021484375,-0.122314453125,-0.589111328125,0.5321
0.5190839694656488,1.786259541984733,-1.3587786259541985,-0.07861328125,-0.123779296875,-0.593994140625,0.5337999999999999
0.5190839694656488,1.4809160305343512,-1.3893129770992367,-0.07568359375,-0.120361328125,-0.59130859375,0.5355
0.8396946564885496,1.6641221374045803,-1.297709923664122,-0.080322265625,-0.1279296875,-0.596435546875,0.5372
0.549618320610687,1.5419847328244274,-1.4351145038167938,-0.078125,-0.1171875,-0.589599609375,0.5388999999999999
0.8396946564885496,1.4198473282442747,-1.4809160305343512,-0.074951171875,-0.122314453125,-0.588623046875,0.5406
0.916030534351145,1.6793893129770991,-1.5267175572519085,-0.07568359375,-0.127685546875,-0.598876953125,0.5423
0.9465648854961832,1.450381679389313,-1.4198473282442747,-0.077392578125,-0.12451171875,-0.6015625,0.5439999999999999
0.8396946564885496,1.465648854961832,-1.5267175572519085,-0.080322265625,-0.1181640625,-0.600341796875,0.5457
0.7786259541984732,1.5572519083969465,-1.5877862595419847,-0.07861328125,-0.118408203125,-0.591552734375,0.5474
1.0076335877862594,1.5572519083969465,-1.5572519083969465,-0.077392578125,-0.121337890625,-0.59130859375,0.5490999999999999
1.2061068702290076,1.6030534351145038,-1.4961832061068703,-0.079345703125,-0.1220703125,-0.595458984375,0.5508
1.1297709923664123,1.5419847328244274,-1.3740458015267176,-0.08154296875,-0.124267578125,-0.5888671875,0.5525
0.9465648854961832,1.633587786259542,-1.618320610687023,-0.078125,-0.119873046875,-0.58642578125,0.5541999999999999
1.1450381679389312,1.6793893129770991,-1.4198473282442747,-0.081787109375,-0.123779296875,-0.59228515625,0.5559
1.0534351145038168,1.7557251908396947,-1.3893129770992367,-0.07861328125,-0.11865234375,-0.6015625,0.5576
1.2671755725190839,1.6488549618320612,-1.3893129770992367,-0.07861328125,-0.130126953125,-0.592529296875,0.5593
1.2366412213740459,1.5267175572519085,-1.4045801526717556,-0.081298828125,-0.125732421875,-0.58935546875,0.5609999999999999
1.251908396946565,1.5877862595419847,-1.3435114503816794,-0.078369140625,-0.126708984375,-0.589599609375,0.5627
1.1450381679389312,1.6946564885496183,-1.2671755725190839,-0.07763671875,-0.1240234375,-0.58935546875,0.5644
1.2671755725190839,1.5572519083969465,-1.450381679389313,-0.079345703125,-0.123046875,-0.596435546875,0.5660999999999999
1.1297709923664123,1.7404580152671756,-1.4198473282442747,-0.075439453125,-0.120849609375,-0.593994140625,0.5678
1.0381679389312977,1.8625954198473282,-1.282442748091603,-0.080078125,-0.118408203125,-0.58349609375,0.5695
1.1450381679389312,1.7404580152671756,-1.2213740458015268,-0.073974609375,-0.11962890625,-0.597412109375,0.5711999999999999
1.1755725190839694,1.5572519083969465,-1.3740458015267176,-0.072509765625,-0.117919921875,-0.592041015625,0.5729
1.2213740458015268,1.7251908396946565,-1.4351145038167938,-0.075927734375,-0.11474609375,-0.60205078125,0.5746
1.1145038167938932,1.7557251908396947,-1.5114503816793894,-0.07861328125,-0.119873046875,-0.590576171875,0.5762999999999999
1.1908396946564885,1.7251908396946565,-1.5877862595419847,-0.08056640625,-0.121337890625,-0.599609375,0.578
1.0229007633587786,1.5267175572519085,-1.633587786259542,-0.078125,-0.12060546875,-0.59619140625,0.5797
0.6564885496183206,1.5725190839694656,-1.5114503816793894,-0.075927734375,-0.117919921875,-0.594970703125,0.5813999999999999
0.9007633587786259,1.7251908396946565,-1.5267175572519085,-0.076904296875,-0.12060546875,-0.58642578125,0.5831
0.7480916030534351,1.450381679389313,-1.6488549618320612,-0.07275390625,-0.11865234375,-0.5947265625,0.5848
0.7022900763358778,1.3129770992366412,-1.4351145038167938,-0.08154296875,-0.116455078125,-0.59912109375,0.5865
0.732824427480916,1.4351145038167938,-1.7251908396946565,-0.073974609375,-0.11962890625,-0.596435546875,0.5882
0.7022900763358778,1.4198473282442747,-1.786259541984733,-0.07568359375,-0.119140625,-0.590087890625,0.5899
0.6717557251908397,1.1450381679389312,-1.7404580152671756,-0.078857421875,-0.1220703125,-0.597900390625,0.5916
0.42748091603053434,0.9923664122137404,-1.5725190839694656,-0.075927734375,-0.116455078125,-0.5908203125,0.5932999999999999
0.8396946564885496,1.282442748091603,-1.6488549618320612,-0.074462890625,-0.120849609375,-0.593994140625,0.595
0.7786259541984732,1.0687022900763359,-1.8473282442748091,-0.0732421875,-0.120361328125,-0.591064453125,0.5967
0.9770992366412213,0.9312977099236641,-1.6946564885496183,-0.074462890625,-0.12109375,-0.597412109375,0.5983999999999999
1.0076335877862594,0.9770992366412213,-1.8931297709923665,-0.075439453125,-0.118408203125,-0.59326171875,0.6001
0.9465648854961832,1.1145038167938932,-1.9389312977099236,-0.076416015625,-0.119384765625,-0.591552734375,0.6018
1.1755725190839694,1.0687022900763359,-1.7251908396946565,-0.078125,-0.125,-0.589599609375,0.6034999999999999
1.5114503816793894,1.1603053435114503,-1.6488549618320612,-0.077880859375,-0.126953125,-0.5927734375,0.6052
1.3587786259541985,1.0229007633587786,-1.6641221374045803,-0.077880859375,-0.12353515625,-0.59228515625,0.6069
1.251908396946565,0.9923664122137404,-1.5725190839694656,-0.08251953125,-0.11962890625,-0.591064453125,0.6085999999999999
1.0687022900763359,1.1603053435114503,-1.786259541984733,-0.07958984375,-0.12158203125,-0.580078125,0.6103
1.0381679389312977,1.1145038167938932,-1.8625954198473282,-0.07177734375,-0.1220703125,-0.584716796875,0.612
1.282442748091603,1.2061068702290076,-1.8015267175572518,-0.076904296875,-0.12353515625,-0.595947265625,0.6136999999999999
1.083969465648855,1.1145038167938932,-1.618320610687023,-0.075439453125,-0.1220703125,-0.586181640625,0.6154
1.0229007633587786,1.1755725190839694,-1.7251908396946565,-0.0810546875,-0.121826171875,-0.585205078125,0.6171
0.916030534351145,1.1297709923664123,-1.618320610687023,-0.078125,-0.11865234375,-0.5869140625,0.6188
0.916030534351145,1.1450381679389312,-1.786259541984733,-0.073486328125,-0.123779296875,-0.5927734375,0.6204999999999999
1.0687022900763359,1.099236641221374,-1.7404580152671756,-0.07568359375,-0.117919921875,-0.580810546875,0.6222
0.6564885496183206,1.282442748091603,-1.7404580152671756,-0.072265625,-0.112548828125,-0.59033203125,0.6239
0.8396946564885496,1.297709923664122,-1.7251908396946565,-0.07568359375,-0.118408203125,-0.595458984375,0.6255999999999999
0.7938931297709924,1.282442748091603,-1.8473282442748091,-0.07666015625,-0.1220703125,-0.579833984375,0.6273
0.6412213740458015,1.297709923664122,-1.5267175572519085,-0.076904296875,-0.123291015625,-0.586669921875,0.629
0.8702290076335878,1.1450381679389312,-1.7099236641221374,-0.07275390625,-0.12255859375,-0.595703125,0.6306999999999999
0.7786259541984732,0.9618320610687023,-1.450381679389313,-0.07763671875,-0.123291015625,-0.588134765625,0.6324
0.7480916030534351,0.9618320610687023,-1.450381679389313,-0.078125,-0.121826171875,-0.584228515625,0.6341
0.6870229007633588,1.2061068702290076,-1.450381679389313,-0.07080078125,-0.120849609375,-0.587158203125,0.6357999999999999
0.732824427480916,1.1297709923664123,-1.3435114503816794,-0.073974609375,-0.119140625,-0.599365234375,0.6375
0.9465648854961832,1.0076335877862594,-1.2671755725190839,-0.080810546875,-0.120849609375,-0.58837890625,0.6392
0.9312977099236641,1.1450381679389312,-1.3893129770992367,-0.080322265625,-0.120361328125,-0.595703125,0.6408999999999999
1.0229007633587786,0.916030534351145,-1.1450381679389312,-0.076416015625,-0.12451171875,-0.593505859375,0.6426
0.6412213740458015,0.8396946564885496,-1.3282442748091603,-0.071533203125,-0.12060546875,-0.5869140625,0.6443
0.5801526717557252,0.7786259541984732,-1.1908396946564885,-0.073974609375,-0.123291015625,-0.592041015625,0.646
0.9007633587786259,1.0076335877862594,-1.1603053435114503,-0.07568359375,-0.121826171875,-0.580078125,0.6476999999999999
0.9770992366412213,0.9923664122137404,-0.8244274809160306,-0.072021484375,-0.121826171875,-0.584716796875,0.6494
0.9770992366412213,0.732824427480916,-0.916030534351145,-0.079833984375,-0.116943359375,-0.587890625,0.6511
0.9312977099236641,0.8244274809160306,-1.0534351145038168,-0.076904296875,-0.116455078125,-0.587646484375,0.6527999999999999
0.7938931297709924,1.0687022900763359,-0.916030534351145,-0.077392578125,-0.121337890625,-0.5869140625,0.6545
0.9465648854961832,1.0229007633587786,-0.7633587786259542,-0.0751953125,-0.1142578125,-0.594970703125,0.6562
0.8702290076335878,1.0076335877862594,-0.8549618320610687,-0.07470703125,-0.116943359375,-0.5947265625,0.6578999999999999
0.7480916030534351,0.9770992366412213,-0.6564885496183206,-0.07470703125,-0.12060546875,-0.593505859375,0.6596
0.7480916030534351,0.9312977099236641,-0.7786259541984732,-0.076904296875,-0.117431640625,-0.591552734375,0.6613
1.0381679389312977,1.1145038167938932,-0.8854961832061069,-0.079345703125,-0.115966796875,-0.585693359375,0.6629999999999999
0.7938931297709924,1.0381679389312977,-0.8549618320610687,-0.07568359375,-0.115234375,-0.5927734375,0.6647
1.0229007633587786,0.7786259541984732,-0.7175572519083969,-0.07763671875,-0.12060546875,-0.586669921875,0.6664
1.1297709923664123,0.7633587786259542,-0.9618320610687023,-0.076904296875,-0.118896484375,-0.585205078125,0.6680999999999999
1.1755725190839694,0.8702290076335878,-0.9770992366412213,-0.074462890625,-0.116943359375,-0.587158203125,0.6698
1.1603053435114503,0.8091603053435115,-0.9923664122137404,-0.07568359375,-0.12060546875,-0.594970703125,0.6715
1.465648854961832,0.7786259541984732,-0.9007633587786259,-0.071044921875,-0.123046875,-0.5869140625,0.6731999999999999
1.3893129770992367,0.916030534351145,-1.0534351145038168,-0.076904296875,-0.119384765625,-0.587158203125,0.6748999999999999
1.4351145038167938,0.9007633587786259,-1.083969465648855,-0.072998046875,-0.114990234375,-0.59375,0.6766
1.816793893129771,1.0381679389312977,-1.3893129770992367,-0.0732421875,-0.117431640625,-0.59375,0.6783
1.6488549618320612,0.9923664122137404,-1.1450381679389312,-0.0751953125,-0.122802734375,-0.58984375,0.6799999999999999
1.7099236641221374,0.8702290076335878,-1.4045801526717556,-0.07763671875,-0.125,-0.589111328125,0.6817
1.816793893129771,0.8244274809160306,-1.251908396946565,-0.07666015625,-0.120361328125,-0.591796875,0.6834
1.7404580152671756,0.9312977099236641,-1.251908396946565,-0.079345703125,-0.1201171875,-0.5859375,0.6850999999999999
1.5725190839694656,0.8396946564885496,-1.1908396946564885,-0.0712890625,-0.123046875,-0.591552734375,0.6868
1.816793893129771,0.7786259541984732,-1.3129770992366412,-0.08056640625,-0.12158203125,-0.593994140625,0.6885
2.0,0.8244274809160306,-1.251908396946565,-0.079833984375,-0.12353515625,-0.591552734375,0.6901999999999999
1.7251908396946565,0.8549618320610687,-1.3129770992366412,-0.076416015625,-0.125,-0.5888671875,0.6919
1.6946564885496183,0.916030534351145,-1.0687022900763359,-0.075927734375,-0.119140625,-0.59228515625,0.6936
1.9236641221374047,0.916030534351145,-1.1145038167938932,-0.07763671875,-0.1201171875,-0.597900390625,0.6952999999999999
1.7099236641221374,1.0381679389312977,-0.9618320610687023,-0.07861328125,-0.118408203125,-0.59423828125,0.697
1.5877862595419847,1.0687022900763359,-0.9312977099236641,-0.07470703125,-0.125244140625,-0.5908203125,0.6987
1.6488549618320612,0.8091603053435115,-1.0381679389312977,-0.081298828125,-0.1201171875,-0.582275390625,0.7003999999999999
1.3435114503816794,0.8702290076335878,-1.0534351145038168,-0.079833984375,-0.123046875,-0.589111328125,0.7021
1.450381679389313,1.0534351145038168,-0.9465648854961832,-0.08203125,-0.120361328125,-0.592529296875,0.7038
1.282442748091603,1.099236641221374,-1.0229007633587786,-0.080322265625,-0.119873046875,-0.587890625,0.7055
1.2366412213740459,0.8702290076335878,-0.8244274809160306,-0.077392578125,-0.118896484375,-0.591064453125,0.7071999999999999
1.083969465648855,0.8702290076335878,-1.083969465648855,-0.075927734375,-0.118896484375,-0.587890625,0.7089
0.8702290076335878,0.8091603053435115,-1.0381679389312977,-0.07958984375,-0.1240234375,-0.595703125,0.7106
0.8244274809160306,0.8396946564885496,-1.083969465648855,-0.075927734375,-0.12744140625,-0.59130859375,0.7122999999999999
0.7633587786259542,0.7633587786259542,-1.0381679389312977,-0.078125,-0.12744140625,-0.589599609375,0.714
0.7175572519083969,0.9007633587786259,-1.2366412213740459,-0.0751953125,-0.122314453125,-0.591064453125,0.7157
0.6106870229007634,0.8549618320610687,-1.1450381679389312,-0.076171875,-0.119873046875,-0.58544921875,0.7173999999999999
0.6412213740458015,0.6259541984732825,-1.282442748091603,-0.076416015625,-0.1201171875,-0.592041015625,0.7191
0.7480916030534351,0.7633587786259542,-1.1145038167938932,-0.078125,-0.125244140625,-0.585205078125,0.7208
0.6717557251908397,0.732824427480916,-1.3435114503816794,-0.07470703125,-0.121826171875,-0.587646484375,0.7224999999999999
0.7938931297709924,0.5190839694656488,-1.4809160305343512,-0.078369140625,-0.126708984375,-0.590576171875,0.7242
0.7786259541984732,0.7633587786259542,-1.3435114503816794,-0.074462890625,-0.12060546875,-0.588623046875,0.7259
0.9465648854961832,0.6870229007633588,-1.3129770992366412,-0.077880859375,-0.12109375,-0.589599609375,0.7275999999999999
1.0229007633587786,0.8854961832061069,-1.4198473282442747,-0.07568359375,-0.122314453125,-0.58740234375,0.7293
1.0687022900763359,0.8244274809160306,-1.1908396946564885,-0.08447265625,-0.12060546875,-0.5869140625,0.731
1.282442748091603,0.7022900763358778,-1.297709923664122,-0.07275390625,-0.11962890625,-0.591796875,0.7326999999999999
1.1450381679389312,0.732824427480916,-1.251908396946565,-0.078125,-0.11474609375,-0.5888671875,0.7343999999999999
0.9007633587786259,0.916030534351145,-1.465648854961832,-0.076416015625,-0.117919921875,-0.590576171875,0.7361
1.1755725190839694,0.732824427480916,-1.2671755725190839,-0.073486328125,-0.118408203125,-0.590087890625,0.7378
1.3587786259541985,0.8702290076335878,-1.251908396946565,-0.073486328125,-0.1201171875,-0.58349609375,0.7394999999999999
1.1908396946564885,0.9618320610687023,-1.2366412213740459,-0.073974609375,-0.115478515625,-0.583740234375,0.7412
1.282442748091603,0.916030534351145,-1.2671755725190839,-0.078125,-0.111083984375,-0.581298828125,0.7429
1.2061068702290076,1.2061068702290076,-1.1145038167938932,-0.075439453125,-0.117919921875,-0.59326171875,0.7445999999999999
1.2671755725190839,1.0229007633587786,-1.2671755725190839,-0.078369140625,-0.116455078125,-0.589599609375,0.7463
1.3740458015267176,1.0381679389312977,-1.2671755725190839,-0.08056640625,-0.114013671875,-0.595458984375,0.748
1.4045801526717556,1.1450381679389312,-1.4198473282442747,-0.080078125,-0.119384765625,-0.597412109375,0.7496999999999999
1.3587786259541985,1.0534351145038168,-1.3587786259541985,-0.073486328125,-0.113525390625,-0.60009765625,0.7514
1.282442748091603,1.1450381679389312,-1.4198473282442747,-0.080078125,-0.1162109375,-0.59619140625,0.7531
1.4809160305343512,0.9923664122137404,-1.3740458015267176,-0.081787109375,-0.121337890625,-0.60107421875,0.7547999999999999
1.5572519083969465,1.2213740458015268,-1.465648854961832,-0.076904296875,-0.125,-0.58984375,0.7565
1.5114503816793894,1.282442748091603,-1.4961832061068703,-0.073486328125,-0.121826171875,-0.58837890625,0.7582
1.5267175572519085,1.083969465648855,-1.5267175572519085,-0.077392578125,-0.125,-0.595703125,0.7598999999999999
1.5572519083969465,1.0381679389312977,-1.3587786259541985,-0.07666015625,-0.119384765625,-0.592041015625,0.7615999999999999
1.5419847328244274,1.1145038167938932,-1.5114503816793894,-0.074462890625,-0.117919921875,-0.599853515625,0.7633
1.6641221374045803,1.1755725190839694,-1.5572519083969465,-0.075927734375,-0.1259765625,-0.600341796875,0.7649999999999999
1.633587786259542,1.1297709923664123,-1.6488549618320612,-0.080810546875,-0.12548828125,-0.596923828125,0.7666999999999999
1.4809160305343512,1.0534351145038168,-1.3893129770992367,-0.076904296875,-0.12548828125,-0.60107421875,0.7684
1.6030534351145038,1.0687022900763359,-1.8015267175572518,-0.071533203125,-0.126708984375,-0.59033203125,0.7701
1.6946564885496183,1.1145038167938932,-1.6793893129770991,-0.075439453125,-0.125244140625,-0.589599609375,0.7717999999999999
1.5725190839694656,1.1755725190839694,-1.5877862595419847,-0.076416015625,-0.127197265625,-0.59716796875,0.7735
1.6793893129770991,1.2061068702290076,-1.6488549618320612,-0.07373046875,-0.125732421875,-0.591064453125,0.7752
1.5419847328244274,1.1297709923664123,-1.5725190839694656,-0.0791015625,-0.127197265625,-0.5908203125,0.7768999999999999
1.5419847328244274,1.1450381679389312,-1.6793893129770991,-0.076904296875,-0.12158203125,-0.593505859375,0.7786
1.5114503816793894,1.3282442748091603,-1.6030534351145038,-0.072998046875,-0.122802734375,-0.595947265625,0.7803
1.3129770992366412,1.2213740458015268,-1.3893129770992367,-0.07177734375,-0.1220703125,-0.59423828125,0.7819999999999999
1.2213740458015268,1.2671755725190839,-1.4961832061068703,-0.076904296875,-0.126953125,-0.601806640625,0.7837
1.0229007633587786,1.1603053435114503,-1.3282442748091603,-0.076416015625,-0.121826171875,-0.601806640625,0.7854
1.0687022900763359,1.1755725190839694,-1.5267175572519085,-0.076904296875,-0.126708984375,-0.589599609375,0.7870999999999999
0.9770992366412213,1.1450381679389312,-1.5725190839694656,-0.07470703125,-0.120849609375,-0.595947265625,0.7888
0.916030534351145,1.1450381679389312,-1.5114503816793894,-0.078857421875,-0.12255859375,-0.599365234375,0.7905
0.5190839694656488,1.2366412213740459,-1.3435114503816794,-0.077392578125,-0.11865234375,-0.598388671875,0.7921999999999999
0.5038167938931297,1.282442748091603,-1.3587786259541985,-0.075927734375,-0.1201171875,-0.5947265625,0.7938999999999999
0.4122137404580153,1.4198473282442747,-1.450381679389313,-0.0771484375,-0.119140625,-0.59423828125,0.7956
0.5343511450381679,1.4045801526717556,-1.4045801526717556,-0.076904296875,-0.11962890625,-0.58984375,0.7973
0.2748091603053435,1.4198473282442747,-1.3893129770992367,-0.0810546875,-0.125,-0.593505859375,0.7989999999999999
0.0916030534351145,1.3282442748091603,-1.3740458015267176,-0.07568359375,-0.12255859375,-0.599609375,0.8007
0.3969465648854962,1.3282442748091603,-1.282442748091603,-0.07568359375,-0.120849609375,-0.5966796875,0.8024
0.32061068702290074,1.1755725190839694,-1.4809160305343512,-0.076171875,-0.121826171875,-0.59619140625,0.8040999999999999
0.12213740458015267,1.297709923664122,-1.1908396946564885,-0.072021484375,-0.118896484375,-0.598388671875,0.8058
0.366412213740458,1.1450381679389312,-1.1908396946564885,-0.0771484375,-0.1259765625,-0.6044921875,0.8075
0.42748091603053434,1.0076335877862594,-1.0687022900763359,-0.07666015625,-0.123046875,-0.593505859375,0.8091999999999999
0.2595419847328244,1.1755725190839694,-1.2213740458015268,-0.076904296875,-0.119140625,-0.59619140625,0.8109
0.2595419847328244,1.1450381679389312,-1.0534351145038168,-0.0791015625,-0.1171875,-0.598388671875,0.8126
0.44274809160305345,1.1297709923664123,-1.1603053435114503,-0.07666015625,-0.114990234375,-0.597412109375,0.8142999999999999
0.366412213740458,1.0381679389312977,-1.1908396946564885,-0.078369140625,-0.118408203125,-0.5927734375,0.816
0.3511450381679389,1.1145038167938932,-1.450381679389313,-0.077880859375,-0.125244140625,-0.59521484375,0.8177
0.5343511450381679,1.0534351145038168,-1.4351145038167938,-0.079345703125,-0.12353515625,-0.595458984375,0.8193999999999999
0.33587786259541985,1.0229007633587786,-1.4198473282442747,-0.079833984375,-0.12158203125,-0.591552734375,0.8210999999999999
0.44274809160305345,1.0534351145038168,-1.4045801526717556,-0.077392578125,-0.119140625,-0.593505859375,0.8228
0.6106870229007634,1.0687022900763359,-1.5725190839694656,-0.080322265625,-0.122314453125,-0.59228515625,0.8244999999999999
0.6564885496183206,0.9770992366412213,-1.3587786259541985,-0.07763671875,-0.122314453125,-0.596435546875,0.8261999999999999
0.6259541984732825,1.0229007633587786,-1.3435114503816794,-0.080810546875,-0.117431640625,-0.592041015625,0.8279
0.4122137404580153,0.9618320610687023,-1.4198473282442747,-0.0771484375,-0.117431640625,-0.597412109375,0.8296
0.5038167938931297,0.9770992366412213,-1.465648854961832,-0.074951171875,-0.11767578125,-0.595458984375,0.8312999999999999
0.7938931297709924,1.0534351145038168,-1.5267175572519085,-0.085205078125,-0.11572265625,-0.60107421875,0.833
0.8854961832061069,1.1450381679389312,-1.3740458015267176,-0.077392578125,-0.12158203125,-0.6005859375,0.8347
0.732824427480916,1.0381679389312977,-1.3282442748091603,-0.0751953125,-0.123291015625,-0.6015625,0.8363999999999999
0.8396946564885496,1.0381679389312977,-1.3893129770992367,-0.076904296875,-0.121826171875,-0.590576171875,0.8381
1.0381679389312977,1.2213740458015268,-1.618320610687023,-0.083984375,-0.121337890625,-0.6015625,0.8398
0.9618320610687023,1.1603053435114503,-1.450381679389313,-0.078857421875,-0.118408203125,-0.59765625,0.8414999999999999
1.1908396946564885,1.1908396946564885,-1.4809160305343512,-0.083984375,-0.11865234375,-0.59228515625,0.8432
1.3282442748091603,1.1145038167938932,-1.6793893129770991,-0.07861328125,-0.117919921875,-0.58984375,0.8449
1.0534351145038168,0.9770992366412213,-1.7251908396946565,-0.07958984375,-0.120361328125,-0.591796875,0.8465999999999999
1.1450381679389312,0.9618320610687023,-1.6030534351145038,-0.080810546875,-0.122314453125,-0.596435546875,0.8482999999999999
1.4198473282442747,1.2213740458015268,-1.8625954198473282,-0.081298828125,-0.119384765625,-0.591552734375,0.85
1.3893129770992367,1.1145038167938932,-1.9389312977099236,-0.078369140625,-0.121337890625,-0.596435546875,0.8516999999999999
1.3740458015267176,1.2213740458015268,-1.6030534351145038,-0.080078125,-0.12109375,-0.5927734375,0.8533999999999999
1.4045801526717556,1.251908396946565,-1.7099236641221374,-0.0771484375,-0.12060546875,-0.598388671875,0.8551
1.2366412213740459,1.1297709923664123,-1.8473282442748091,-0.0771484375,-0.1201171875,-0.5927734375,0.8568
1.282442748091603,1.3740458015267176,-1.7099236641221374,-0.0771484375,-0.125244140625,-0.591796875,0.8584999999999999
1.297709923664122,1.2671755725190839,-1.6641221374045803,-0.0791015625,-0.12451171875,-0.594482421875,0.8602
1.2061068702290076,1.4961832061068703,-1.7099236641221374,-0.08056640625,-0.12451171875,-0.597412109375,0.8619
1.1755725190839694,1.2671755725190839,-1.8015267175572518,-0.080078125,-0.12158203125,-0.584716796875,0.8635999999999999
1.1603053435114503,1.3587786259541985,-1.786259541984733,-0.080810546875,-0.117919921875,-0.59619140625,0.8653
1.1145038167938932,1.4809160305343512,-1.633587786259542,-0.0751953125,-0.119140625,-0.59423828125,0.867
0.8244274809160306,1.3435114503816794,-1.6641221374045803,-0.07763671875,-0.118408203125,-0.58984375,0.8686999999999999
1.1755725190839694,1.4351145038167938,-1.7404580152671756,-0.079833984375,-0.118408203125,-0.590576171875,0.8704
0.9770992366412213,1.5572519083969465,-1.6488549618320612,-0.0771484375,-0.123046875,-0.5869140625,0.8721
1.1297709923664123,1.4961832061068703,-1.7709923664122138,-0.073974609375,-0.123046875,-0.587158203125,0.8737999999999999
0.9923664122137404,1.5114503816793894,-1.6641221374045803,-0.072021484375,-0.118896484375,-0.599609375,0.8755
0.8396946564885496,1.5267175572519085,-1.7404580152671756,-0.078125,-0.121826171875,-0.5830078125,0.8772
0.9312977099236641,1.5267175572519085,-1.6793893129770991,-0.075439453125,-0.1220703125,-0.591552734375,0.8788999999999999
0.916030534351145,1.4809160305343512,-1.7251908396946565,-0.0791015625,-0.12451171875,-0.592529296875,0.8805999999999999
0.8396946564885496,1.5877862595419847,-1.4961832061068703,-0.07763671875,-0.118896484375,-0.595947265625,0.8823
0.5954198473282443,1.6030534351145038,-1.5114503816793894,-0.075927734375,-0.124267578125,-0.591796875,0.8839999999999999
0.8091603053435115,1.5419847328244274,-1.5572519083969465,-0.079833984375,-0.12158203125,-0.59521484375,0.8856999999999999
0.6259541984732825,1.6946564885496183,-1.3282442748091603,-0.076416015625,-0.122802734375,-0.589599609375,0.8874
0.6106870229007634,1.8625954198473282,-1.1908396946564885,-0.077392578125,-0.124267578125,-0.59130859375,0.8891
0.44274809160305345,1.8015267175572518,-1.3129770992366412,-0.072509765625,-0.11865234375,-0.59716796875,0.8907999999999999
0.549618320610687,1.83206106870229,-1.1297709923664123,-0.0732421875,-0.11572265625,-0.6015625,0.8925
0.44274809160305345,1.8015267175572518,-1.1603053435114503,-0.07470703125,-0.12451171875,-0.597412109375,0.8942
0.5343511450381679,1.8625954198473282,-1.0687022900763359,-0.07958984375,-0.121826171875,-0.58837890625,0.8958999999999999
0.42748091603053434,1.9236641221374047,-1.1297709923664123,-0.0771484375,-0.11962890625,-0.587890625,0.8976
0.21374045801526717,1.984732824427481,-1.0076335877862594,-0.077392578125,-0.12158203125,-0.587158203125,0.8993
0.5954198473282443,1.7251908396946565,-1.0229007633587786,-0.074951171875,-0.125,-0.5908203125,0.9009999999999999
0.6870229007633588,1.9389312977099236,-0.8549618320610687,-0.077880859375,-0.121826171875,-0.5888671875,0.9027
0.5343511450381679,1.83206106870229,-1.0687022900763359,-0.071533203125,-0.12451171875,-0.59912109375,0.9044
0.5954198473282443,1.83206106870229,-1.1450381679389312,-0.077880859375,-0.123046875,-0.58935546875,0.9060999999999999
0.732824427480916,1.7404580152671756,-1.0229007633587786,-0.076171875,-0.1171875,-0.59521484375,0.9077999999999999
0.7022900763358778,1.8931297709923665,-0.8854961832061069,-0.06982421875,-0.119140625,-0.598876953125,0.9095
0.5190839694656488,1.8015267175572518,-0.9923664122137404,-0.073974609375,-0.123291015625,-0.59130859375,0.9111999999999999
0.4122137404580153,1.6488549618320612,-0.8854961832061069,-0.079833984375,-0.11865234375,-0.59033203125,0.9128999999999999
0.4580152671755725,1.7709923664122138,-1.1755725190839694,-0.077880859375,-0.1162109375,-0.591064453125,0.9146
0.7175572519083969,1.7099236641221374,-0.8702290076335878,-0.07373046875,-0.11865234375,-0.592041015625,0.9163
0.7633587786259542,1.7404580152671756,-0.8244274809160306,-0.076416015625,-0.12109375,-0.59765625,0.9179999999999999
0.5801526717557252,1.816793893129771,-0.916030534351145,-0.076171875,-0.119140625,-0.596435546875,0.9197
0.6717557251908397,1.7709923664122138,-0.8702290076335878,-0.07275390625,-0.11572265625,-0.594482421875,0.9214
0.9465648854961832,1.6946564885496183,-0.7480916030534351,-0.07275390625,-0.11962890625,-0.59912109375,0.9230999999999999
1.0076335877862594,1.7251908396946565,-0.8854961832061069,-0.07373046875,-0.120849609375,-0.596923828125,0.9248
0.9007633587786259,1.7251908396946565,-0.7633587786259542,-0.076171875,-0.116943359375,-0.58935546875,0.9265
1.1297709923664123,1.5725190839694656,-0.7633587786259542,-0.073486328125,-0.124755859375,-0.587890625,0.9281999999999999
1.0381679389312977,1.6488549618320612,-0.7786259541984732,-0.076416015625,-0.11474609375,-0.587890625,0.9299
1.0687022900763359,1.7557251908396947,-0.9618320610687023,-0.074951171875,-0.121826171875,-0.58154296875,0.9316
1.4045801526717556,1.8473282442748091,-0.9465648854961832,-0.07861328125,-0.124267578125,-0.58837890625,0.9332999999999999
1.2671755725190839,1.786259541984733,-0.9923664122137404,-0.068115234375,-0.121826171875,-0.592529296875,0.9349999999999999
1.1450381679389312,1.8473282442748091,-0.7480916030534351,-0.068603515625,-0.122314453125,-0.577392578125,0.9367
1.251908396946565,1.9236641221374047,-0.8091603053435115,-0.071044921875,-0.119384765625,-0.594482421875,0.9383999999999999
1.3435114503816794,1.9389312977099236,-0.6870229007633588,-0.074462890625,-0.12109375,-0.587890625,0.9400999999999999
1.2213740458015268,1.9694656488549618,-0.9770992366412213,-0.071533203125,-0.12060546875,-0.585693359375,0.9418
1.2366412213740459,1.9083969465648856,-0.7633587786259542,-0.073974609375,-0.121826171875,-0.5927734375,0.9434999999999999
1.2366412213740459,1.9083969465648856,-0.9007633587786259,-0.077392578125,-0.11669921875,-0.5859375,0.9451999999999999
1.1145038167938932,1.8015267175572518,-0.7175572519083969,-0.075439453125,-0.12060546875,-0.5849609375,0.9469
1.083969465648855,1.8625954198473282,-0.7022900763358778,-0.077880859375,-0.1240234375,-0.584228515625,0.9486
1.1297709923664123,1.9236641221374047,-0.6412213740458015,-0.073974609375,-0.123291015625,-0.59033203125,0.9502999999999999
0.9007633587786259,1.8778625954198473,-0.9312977099236641,-0.073486328125,-0.12451171875,-0.60400390625,0.952
0.7480916030534351,1.8625954198473282,-0.7480916030534351,-0.077880859375,-0.125244140625,-0.59228515625,0.9537
1.0534351145038168,1.816793893129771,-0.8702290076335878,-0.07470703125,-0.119873046875,-0.5849609375,0.9553999999999999
0.8396946564885496,1.618320610687023,-0.7175572519083969,-0.078369140625,-0.122802734375,-0.584716796875,0.9571
0.7786259541984732,1.618320610687023,-0.8549618320610687,-0.078125,-0.1162109375,-0.58544921875,0.9588
0.8091603053435115,1.5877862595419847,-1.0229007633587786,-0.07763671875,-0.12451171875,-0.583984375,0.9604999999999999
1.0381679389312977,1.4045801526717556,-0.8549618320610687,-0.072021484375,-0.12353515625,-0.59033203125,0.9621999999999999
0.9618320610687023,1.450381679389313,-0.7022900763358778,-0.07666015625,-0.11962890625,-0.583984375,0.9639
0.9618320610687023,1.450381679389313,-0.9465648854961832,-0.0751953125,-0.118408203125,-0.590087890625,0.9655999999999999
0.8702290076335878,1.618320610687023,-0.7938931297709924,-0.078125,-0.119140625,-0.588134765625,0.9672999999999999
0.9007633587786259,1.4809160305343512,-0.7175572519083969,-0.07958984375,-0.12255859375,-0.59375,0.969
1.297709923664122,1.4198473282442747,-0.8244274809160306,-0.078857421875,-0.123046875,-0.593017578125,0.9706999999999999
1.0229007633587786,1.450381679389313,-0.8091603053435115,-0.07861328125,-0.115966796875,-0.591796875,0.9723999999999999
1.099236641221374,1.3893129770992367,-0.7175572519083969,-0.07275390625,-0.119873046875,-0.577880859375,0.9741
1.0076335877862594,1.5267175572519085,-0.7633587786259542,-0.07470703125,-0.122802734375,-0.595458984375,0.9758
1.083969465648855,1.4351145038167938,-0.8854961832061069,-0.074951171875,-0.122802734375,-0.585693359375,0.9774999999999999
1.0534351145038168,1.282442748091603,-0.8549618320610687,-0.073974609375,-0.1162109375,-0.587890625,0.9792
1.083969465648855,1.282442748091603,-0.7633587786259542,-0.075439453125,-0.12255859375,-0.585205078125,0.9809
1.2061068702290076,1.3282442748091603,-0.9770992366412213,-0.074951171875,-0.12109375,-0.5927734375,0.9825999999999999
1.0687022900763359,1.2213740458015268,-0.7480916030534351,-0.077392578125,-0.117919921875,-0.585693359375,0.9843
1.0076335877862594,1.0534351145038168,-0.9465648854961832,-0.077392578125,-0.123779296875,-0.593505859375,0.986
1.2061068702290076,1.1908396946564885,-1.0381679389312977,-0.076904296875,-0.120361328125,-0.59814453125,0.9876999999999999
1.1755725190839694,1.2366412213740459,-1.0076335877862594,-0.076904296875,-0.122314453125,-0.59326171875,0.9894
1.2213740458015268,0.9618320610687023,-0.8091603053435115,-0.074951171875,-0.121826171875,-0.591796875,0.9911
1.3893129770992367,0.9618320610687023,-1.1145038167938932,-0.068115234375,-0.12451171875,-0.590087890625,0.9927999999999999
1.3435114503816794,0.9770992366412213,-0.9923664122137404,-0.076416015625,-0.118408203125,-0.58984375,0.9944999999999999
1.3435114503816794,0.916030534351145,-0.9618320610687023,-0.0771484375,-0.119873046875,-0.587158203125,0.9962
1.3435114503816794,0.9770992366412213,-0.9465648854961832,-0.080078125,-0.12255859375,-0.585693359375,0.9978999999999999
1.7557251908396947,0.9618320610687023,-1.297709923664122,-0.07666015625,-0.121337890625,-0.593017578125,0.9995999999999999
1.6793893129770991,0.916030534351145,-1.083969465648855,-0.073974609375,-0.1240234375,-0.587646484375,1.0012999999999999
1.5114503816793894,0.732824427480916,-1.297709923664122,-0.07421875,-0.122314453125,-0.584228515625,1.003
1.5114503816793894,0.8396946564885496,-1.2366412213740459,-0.0771484375,-0.123291015625,-0.58984375,1.0047
1.6488549618320612,0.7022900763358778,-1.3282442748091603,-0.076416015625,-0.119140625,-0.58984375,1.0064
1.5114503816793894,0.7022900763358778,-1.1603053435114503,-0.077392578125,-0.113525390625,-0.587646484375,1.0081
1.4351145038167938,0.8702290076335878,-1.1603053435114503,-0.07763671875,-0.12060546875,-0.589599609375,1.0098
1.3282442748091603,0.5648854961832062,-1.2366412213740459,-0.074462890625,-0.11767578125,-0.5927734375,1.0114999999999998
1.4809160305343512,0.5190839694656488,-1.3587786259541985,-0.07861328125,-0.12451171875,-0.59423828125,1.0131999999999999
1.6488549618320612,0.6564885496183206,-1.3587786259541985,-0.074462890625,-0.12060546875,-0.601806640625,1.0149
1.8931297709923665,0.549618320610687,-1.450381679389313,-0.076171875,-0.119873046875,-0.590576171875,1.0166
1.6488549618320612,0.6106870229007634,-1.1603053435114503,-0.075439453125,-0.122802734375,-0.6005859375,1.0183
1.6793893129770991,0.5343511450381679,-1.6030534351145038,-0.072998046875,-0.12255859375,-0.5947265625,1.02
1.3893129770992367,0.366412213740458,-1.4961832061068703,-0.08056640625,-0.119140625,-0.595703125,1.0217
1.4198473282442747,0.22900763358778625,-1.5419847328244274,-0.082275390625,-0.12158203125,-0.595703125,1.0233999999999999
1.633587786259542,0.3816793893129771,-1.7099236641221374,-0.07470703125,-0.124755859375,-0.588134765625,1.0251
1.5572519083969465,0.3053435114503817,-1.83206106870229,-0.072021484375,-0.12451171875,-0.58984375,1.0268
1.5877862595419847,0.1984732824427481,-1.5419847328244274,-0.07568359375,-0.12158203125,-0.591064453125,1.0285
1.3129770992366412,0.3053435114503817,-1.8473282442748091,-0.0791015625,-0.12109375,-0.583984375,1.0302
1.3740458015267176,0.33587786259541985,-1.9083969465648856,-0.0771484375,-0.122314453125,-0.5927734375,1.0319
1.3740458015267176,0.33587786259541985,-1.7404580152671756,-0.084228515625,-0.122314453125,-0.59326171875,1.0335999999999999
1.5419847328244274,0.13740458015267176,-1.7557251908396947,-0.079345703125,-0.118896484375,-0.5888671875,1.0352999999999999
1.5419847328244274,0.21374045801526717,-1.9083969465648856,-0.08203125,-0.119873046875,-0.59423828125,1.037
1.4351145038167938,0.15267175572519084,-1.7557251908396947,-0.077880859375,-0.120361328125,-0.594482421875,1.0387
1.6030534351145038,0.061068702290076333,-1.7709923664122138,-0.075439453125,-0.125244140625,-0.593994140625,1.0404
1.5114503816793894,0.04580152671755725,-1.7099236641221374,-0.075927734375,-0.122314453125,-0.593017578125,1.0421
1.4961832061068703,0.16793893129770993,-1.9236641221374047,-0.071044921875,-0.12646484375,-0.58349609375,1.0437999999999998
1.3435114503816794,0.1984732824427481,-1.6030534351145038,-0.071533203125,-0.121826171875,-0.591796875,1.0454999999999999
1.3587786259541985,0.2900763358778626,-1.816793893129771,-0.0771484375,-0.1240234375,-0.599609375,1.0472
1.2671755725190839,0.0,-1.5725190839694656,-0.07568359375,-0.12451171875,-0.598388671875,1.0489
1.450381679389313,0.04580152671755725,-1.7557251908396947,-0.076904296875,-0.121826171875,-0.601318359375,1.0506
1.5725190839694656,0.1984732824427481,-1.7251908396946565,-0.07421875,-0.124755859375,-0.597412109375,1.0523
1.4809160305343512,0.0916030534351145,-1.9389312977099236,-0.07421875,-0.119140625,-0.589111328125,1.054
1.3282442748091603,0.24427480916030533,-1.7557251908396947,-0.072265625,-0.118408203125,-0.60107421875,1.0556999999999999
1.3129770992366412,0.21374045801526717,-1.5572519083969465,-0.075927734375,-0.117919921875,-0.595703125,1.0574
1.3282442748091603,0.16793893129770993,-1.7251908396946565,-0.0771484375,-0.1220703125,-0.597412109375,1.0591
1.465648854961832,0.0916030534351145,-1.7251908396946565,-0.0791015625,-0.1259765625,-0.60107421875,1.0608
1.4351145038167938,0.1984732824427481,-1.450381679389313,-0.075439453125,-0.120361328125,-0.59423828125,1.0625
1.4198473282442747,0.1984732824427481,-1.7099236641221374,-0.07421875,-0.1220703125,-0.59228515625,1.0642
1.465648854961832,0.0916030534351145,-1.3435114503816794,-0.073974609375,-0.123779296875,-0.593017578125,1.0658999999999998
1.5725190839694656,0.13740458015267176,-1.4809160305343512,-0.07275390625,-0.12060546875,-0.5947265625,1.0675999999999999
1.3435114503816794,0.3816793893129771,-1.4809160305343512,-0.076904296875,-0.122802734375,-0.59130859375,1.0693
1.465648854961832,0.3816793893129771,-1.6030534351145038,-0.083984375,-0.12060546875,-0.59423828125,1.071
1.3282442748091603,0.1984732824427481,-1.4809160305343512,-0.07568359375,-0.1181640625,-0.59619140625,1.0727
1.2061068702290076,0.33587786259541985,-1.633587786259542,-0.07666015625,-0.123046875,-0.59228515625,1.0744
1.083969465648855,0.22900763358778625,-1.6793893129770991,-0.077880859375,-0.117919921875,-0.59423828125,1.0760999999999998
1.0687022900763359,0.21374045801526717,-1.633587786259542,-0.081298828125,-0.121337890625,-0.5869140625,1.0777999999999999
1.1450381679389312,0.16793893129770993,-1.4809160305343512,-0.0771484375,-0.119873046875,-0.590576171875,1.0795
0.9007633587786259,0.32061068702290074,-1.786259541984733,-0.076416015625,-0.118896484375,-0.59619140625,1.0812
0.9465648854961832,0.10687022900763359,-1.633587786259542,-0.0771484375,-0.123046875,-0.59033203125,1.0829
0.7938931297709924,0.2900763358778626,-1.6641221374045803,-0.079833984375,-0.117919921875,-0.600830078125,1.0846
0.7175572519083969,0.33587786259541985,-1.6641221374045803,-0.08154296875,-0.119873046875,-0.586669921875,1.0863
0.7480916030534351,0.24427480916030533,-1.7251908396946565,-0.0771484375,-0.12109375,-0.592041015625,1.0879999999999999
0.8396946564885496,0.2595419847328244,-1.5725190839694656,-0.0712890625,-0.1201171875,-0.592529296875,1.0897
0.9007633587786259,0.24427480916030533,-1.633587786259542,-0.072998046875,-0.12060546875,-0.5869140625,1.0914
1.0076335877862594,0.24427480916030533,-1.633587786259542,-0.075927734375,-0.12060546875,-0.580322265625,1.0931
1.0229007633587786,0.07633587786259542,-1.816793893129771,-0.077392578125,-0.11767578125,-0.585205078125,1.0948
1.282442748091603,0.3053435114503817,-1.5877862595419847,-0.078125,-0.12109375,-0.58203125,1.0965
1.297709923664122,0.3816793893129771,-1.5267175572519085,-0.080810546875,-0.122314453125,-0.59228515625,1.0981999999999998
1.5267175572519085,0.5038167938931297,-1.465648854961832,-0.076416015625,-0.119384765625,-0.59423828125,1.0998999999999999
1.6030534351145038,0.366412213740458,-1.5419847328244274,-0.078125,-0.117919921875,-0.587158203125,1.1016
1.6488549618320612,0.366412213740458,-1.4045801526717556,-0.079833984375,-0.120849609375,-0.59130859375,1.1033
2.0,0.5801526717557252,-1.4045801526717556,-0.07666015625,-0.122802734375,-0.593505859375,1.105
1.9236641221374047,0.7175572519083969,-1.465648854961832,-0.0791015625,-0.117431640625,-0.589111328125,1.1067
1.7404580152671756,0.3969465648854962,-1.465648854961832,-0.080322265625,-0.114990234375,-0.599365234375,1.1083999999999998
1.9236641221374047,0.7480916030534351,-1.297709923664122,-0.081787109375,-0.115966796875,-0.591064453125,1.1100999999999999
1.984732824427481,0.7633587786259542,-1.4809160305343512,-0.080810546875,-0.123291015625,-0.60107421875,1.1118
2.0,0.7633587786259542,-1.450381679389313,-0.082275390625,-0.1220703125,-0.590576171875,1.1135
1.9541984732824427,0.916030534351145,-1.3893129770992367,-0.080322265625,-0.121826171875,-0.58837890625,1.1152
2.0763358778625953,0.8854961832061069,-1.2061068702290076,-0.077392578125,-0.117919921875,-0.589111328125,1.1169
2.015267175572519,1.0229007633587786,-1.4809160305343512,-0.076416015625,-0.12353515625,-0.58935546875,1.1186
2.015267175572519,1.2366412213740459,-1.3282442748091603,-0.076416015625,-0.1201171875,-0.587646484375,1.1202999999999999
1.9694656488549618,1.1603053435114503,-1.2061068702290076,-0.076416015625,-0.11328125,-0.597900390625,1.1219999999999999
1.8778625954198473,1.1755725190839694,-1.1908396946564885,-0.073974609375,-0.1171875,-0.59423828125,1.1237
1.984732824427481,1.2366412213740459,-1.251908396946565,-0.077880859375,-0.117919921875,-0.5908203125,1.1254
2.0916030534351147,1.251908396946565,-1.4351145038167938,-0.07763671875,-0.122314453125,-0.595458984375,1.1271
2.1526717557251906,1.3129770992366412,-1.1755725190839694,-0.076416015625,-0.123291015625,-0.595703125,1.1288
2.1068702290076335,1.282442748091603,-1.1297709923664123,-0.077880859375,-0.12255859375,-0.587890625,1.1304999999999998
1.8931297709923665,1.4351145038167938,-1.1755725190839694,-0.082763671875,-0.121826171875,-0.583984375,1.1321999999999999
1.9694656488549618,1.4045801526717556,-1.251908396946565,-0.0791015625,-0.121337890625,-0.59228515625,1.1339
1.9694656488549618,1.3740458015267176,-1.1450381679389312,-0.07568359375,-0.120849609375,-0.595703125,1.1356
2.045801526717557,1.3740458015267176,-1.0687022900763359,-0.077392578125,-0.120849609375,-0.59326171875,1.1373
1.8778625954198473,1.1908396946564885,-1.2213740458015268,-0.078369140625,-0.125244140625,-0.591796875,1.139
1.618320610687023,1.5419847328244274,-0.9618320610687023,-0.07373046875,-0.116943359375,-0.590576171875,1.1407
1.8015267175572518,1.450381679389313,-0.9770992366412213,-0.076416015625,-0.123291015625,-0.605712890625,1.1423999999999999
1.6641221374045803,1.3587786259541985,-1.2213740458015268,-0.076171875,-0.123291015625,-0.603759765625,1.1441
1.8015267175572518,1.5114503816793894,-1.2366412213740459,-0.07763671875,-0.120849609375,-0.5830078125,1.1458
1.6946564885496183,1.618320610687023,-1.083969465648855,-0.0791015625,-0.1171875,-0.59375,1.1475
1.8015267175572518,1.5877862595419847,-1.1603053435114503,-0.079345703125,-0.121337890625,-0.59814453125,1.1492
1.5877862595419847,1.5267175572519085,-1.2366412213740459,-0.072265625,-0.1162109375,-0.59521484375,1.1509
1.7557251908396947,1.5877862595419847,-1.2061068702290076,-0.07470703125,-0.125732421875,-0.598388671875,1.1525999999999998
1.5114503816793894,1.7557251908396947,-1.0229007633587786,-0.076171875,-0.12255859375,-0.592041015625,1.1542999999999999
1.5267175572519085,1.8015267175572518,-1.099236641221374,-0.07958984375,-0.123779296875,-0.599365234375,1.156
1.7099236641221374,1.9389312977099236,-1.2366412213740459,-0.080078125,-0.119384765625,-0.593017578125,1.1577
1.4809160305343512,1.8625954198473282,-1.083969465648855,-0.077392578125,-0.121337890625,-0.59619140625,1.1594
1.5114503816793894,1.9083969465648856,-1.1145038167938932,-0.0791015625,-0.125732421875,-0.603759765625,1.1611
1.618320610687023,2.030534351145038,-1.2061068702290076,-0.07666015625,-0.11669921875,-0.588134765625,1.1627999999999998
1.3129770992366412,1.8931297709923665,-1.282442748091603,-0.076416015625,-0.121826171875,-0.590576171875,1.1644999999999999
1.2213740458015268,1.8015267175572518,-1.0534351145038168,-0.07666015625,-0.1201171875,-0.599609375,1.1662
1.3435114503816794,1.83206106870229,-1.083969465648855,-0.075439453125,-0.122314453125,-0.593505859375,1.1679
1.3587786259541985,1.8625954198473282,-1.0534351145038168,-0.076416015625,-0.11865234375,-0.594970703125,1.1696
1.251908396946565,1.9389312977099236,-0.9923664122137404,-0.07666015625,-0.113525390625,-0.591064453125,1.1713
1.1297709923664123,1.8015267175572518,-1.0076335877862594,-0.07470703125,-0.119873046875,-0.59130859375,1.173
1.0076335877862594,1.7404580152671756,-1.0076335877862594,-0.072509765625,-0.12060546875,-0.604248046875,1.1746999999999999
1.1603053435114503,1.633587786259542,-0.9618320610687023,-0.073486328125,-0.1240234375,-0.595703125,1.1764
1.2366412213740459,1.3893129770992367,-1.1603053435114503,-0.0732421875,-0.114990234375,-0.5986328125,1.1781
1.099236641221374,1.4961832061068703,-1.1450381679389312,-0.076171875,-0.113037109375,-0.60302734375,1.1798
1.1908396946564885,1.297709923664122,-1.282442748091603,-0.080322265625,-0.12158203125,-0.59716796875,1.1815
1.251908396946565,1.3282442748091603,-1.1603053435114503,-0.08056640625,-0.114013671875,-0.594970703125,1.1832
1.251908396946565,1.1297709923664123,-1.2671755725190839,-0.0751953125,-0.119384765625,-0.593994140625,1.1848999999999998
1.5572519083969465,0.916030534351145,-1.1297709923664123,-0.073974609375,-0.123046875,-0.60595703125,1.1865999999999999
1.5419847328244274,0.9312977099236641,-1.3740458015267176,-0.072021484375,-0.123291015625,-0.6005859375,1.1883
1.3893129770992367,0.8854961832061069,-1.2671755725190839,-0.075927734375,-0.120361328125,-0.59423828125,1.19
1.465648854961832,1.0076335877862594,-1.3129770992366412,-0.072998046875,-0.11962890625,-0.598388671875,1.1917
1.6793893129770991,1.0381679389312977,-1.465648854961832,-0.0791015625,-0.115234375,-0.592041015625,1.1934
1.5725190839694656,0.9923664122137404,-1.465648854961832,-0.080810546875,-0.12353515625,-0.5986328125,1.1950999999999998
1.5572519083969465,0.9007633587786259,-1.465648854961832,-0.0732421875,-0.122314453125,-0.587646484375,1.1967999999999999
1.633587786259542,0.9770992366412213,-1.5114503816793894,-0.079345703125,-0.121337890625,-0.588623046875,1.1985
1.6030534351145038,1.0076335877862594,-1.5267175572519085,-0.07861328125,-0.11865234375,-0.59228515625,1.2002
1.6030534351145038,0.8549618320610687,-1.5267175572519085,-0.07666015625,-0.122802734375,-0.58984375,1.2019
1.8015267175572518,0.9618320610687023,-1.4809160305343512,-0.077880859375,-0.1171875,-0.596435546875,1.2036
1.618320610687023,1.1297709923664123,-1.465648854961832,-0.0751953125,-0.120361328125,-0.593994140625,1.2053
1.7404580152671756,1.083969465648855,-1.4809160305343512,-0.080322265625,-0.121826171875,-0.591064453125,1.2069999999999999
1.5572519083969465,1.0534351145038168,-1.4351145038167938,-0.076904296875,-0.124267578125,-0.59619140625,1.2086999999999999
1.6488549618320612,1.1755725190839694,-1.4961832061068703,-0.078125,-0.123046875,-0.591796875,1.2104
2.0,1.0534351145038168,-1.4961832061068703,-0.076171875,-0.12158203125,-0.58837890625,1.2121
1.6488549618320612,0.9923664122137404,-1.3435114503816794,-0.076416015625,-0.120849609375,-0.59228515625,1.2138
1.4351145038167938,1.1145038167938932,-1.4961832061068703,-0.077392578125,-0.12158203125,-0.597900390625,1.2155
1.7709923664122138,1.251908396946565,-1.3435114503816794,-0.073974609375,-0.1220703125,-0.583251953125,1.2171999999999998
1.6641221374045803,1.251908396946565,-1.2213740458015268,-0.07568359375,-0.124267578125,-0.58984375,1.2188999999999999
1.2366412213740459,1.0687022900763359,-1.2671755725190839,-0.076171875,-0.121337890625,-0.58935546875,1.2206
1.0229007633587786,1.1297709923664123,-1.4198473282442747,-0.075439453125,-0.119384765625,-0.586669921875,1.2223
1.1755725190839694,1.2366412213740459,-1.1908396946564885,-0.075439453125,-0.121337890625,-0.593994140625,1.224
1.0534351145038168,1.0229007633587786,-1.251908396946565,-0.07275390625,-0.1220703125,-0.593994140625,1.2257
0.9007633587786259,0.9465648854961832,-1.2061068702290076,-0.0771484375,-0.125732421875,-0.594970703125,1.2273999999999998
0.8244274809160306,0.7786259541984732,-1.2061068702290076,-0.078125,-0.121337890625,-0.590576171875,1.2290999999999999
0.7938931297709924,0.8396946564885496,-1.251908396946565,-0.072021484375,-0.123046875,-0.591064453125,1.2308
0.6870229007633588,0.8702290076335878,-1.4809160305343512,-0.074951171875,-0.122802734375,-0.593505859375,1.2325
0.5038167938931297,0.916030534351145,-1.3282442748091603,-0.08056640625,-0.122314453125,-0.597412109375,1.2342
0.6717557251908397,0.7022900763358778,-1.282442748091603,-0.078125,-0.12060546875,-0.596923828125,1.2359
0.6106870229007634,0.7175572519083969,-1.1755725190839694,-0.077392578125,-0.12451171875,-0.590087890625,1.2376
0.7938931297709924,0.732824427480916,-1.4961832061068703,-0.07470703125,-0.119384765625,-0.594482421875,1.2392999999999998
0.7786259541984732,0.5801526717557252,-1.450381679389313,-0.07568359375,-0.11962890625,-0.58984375,1.2409999999999999
0.5343511450381679,0.6259541984732825,-1.3893129770992367,-0.074951171875,-0.1240234375,-0.594482421875,1.2427
0.4732824427480916,0.7633587786259542,-1.3129770992366412,-0.078125,-0.125244140625,-0.593505859375,1.2444
0.7480916030534351,0.6717557251908397,-1.5419847328244274,-0.0791015625,-0.1171875,-0.592529296875,1.2461
0.7175572519083969,0.6412213740458015,-1.4961832061068703,-0.077392578125,-0.117919921875,-0.584228515625,1.2478
0.8702290076335878,0.5190839694656488,-1.3435114503816794,-0.08056640625,-0.12255859375,-0.591552734375,1.2494999999999998
0.7175572519083969,0.6870229007633588,-1.3740458015267176,-0.0888671875,-0.1181640625,-0.596923828125,1.2511999999999999
0.9007633587786259,0.7786259541984732,-1.450381679389313,-0.0791015625,-0.119140625,-0.596923828125,1.2529
0.9923664122137404,0.8549618320610687,-1.3282442748091603,-0.077880859375,-0.124755859375,-0.59326171875,1.2546
1.099236641221374,0.8549618320610687,-1.3740458015267176,-0.07470703125,-0.122802734375,-0.60302734375,1.2563
1.1603053435114503,0.9007633587786259,-1.4198473282442747,-0.080078125,-0.11376953125,-0.591552734375,1.258
0.8854961832061069,0.9312977099236641,-1.4045801526717556,-0.080810546875,-0.119873046875,-0.594482421875,1.2596999999999998
0.9312977099236641,1.1145038167938932,-1.2213740458015268,-0.0732421875,-0.121337890625,-0.595458984375,1.2613999999999999
1.0687022900763359,0.9312977099236641,-1.3435114503816794,-0.080322265625,-0.1181640625,-0.595703125,1.2631
0.9312977099236641,0.9618320610687023,-1.2366412213740459,-0.07958984375,-0.113037109375,-0.59423828125,1.2648
1.083969465648855,0.9465648854961832,-1.282442748091603,-0.07958984375,-0.11865234375,-0.593017578125,1.2665
1.3282442748091603,0.8091603053435115,-1.2213740458015268,-0.0791015625,-0.11962890625,-0.59130859375,1.2682
1.0687022900763359,0.8702290076335878,-1.2671755725190839,-0.0791015625,-0.120361328125,-0.58740234375,1.2699
1.1755725190839694,0.916030534351145,-1.2671755725190839,-0.07568359375,-0.122802734375,-0.591064453125,1.2715999999999998
1.1145038167938932,1.0229007633587786,-1.3282442748091603,-0.077880859375,-0.120361328125,-0.59326171875,1.2732999999999999
0.9312977099236641,1.0229007633587786,-0.9618320610687023,-0.077392578125,-0.11181640625,-0.584716796875,1.275
1.1603053435114503,0.8702290076335878,-1.3282442748091603,-0.076904296875,-0.1162109375,-0.592529296875,1.2767
0.9923664122137404,1.1145038167938932,-1.2061068702290076,-0.07373046875,-0.121826171875,-0.58740234375,1.2784
0.9312977099236641,0.9312977099236641,-1.4351145038167938,-0.072998046875,-0.116455078125,-0.596435546875,1.2801
1.099236641221374,0.9770992366412213,-1.1603053435114503,-0.0693359375,-0.10986328125,-0.5947265625,1.2817999999999998
1.0534351145038168,0.9007633587786259,-1.3435114503816794,-0.07275390625,-0.118408203125,-0.58935546875,1.2834999999999999
1.2366412213740459,0.9007633587786259,-1.1297709923664123,-0.07373046875,-0.117919921875,-0.586669921875,1.2852
1.4198473282442747,0.8549618320610687,-1.3129770992366412,-0.07666015625,-0.123046875,-0.587646484375,1.2869
1.1755725190839694,0.9923664122137404,-1.099236641221374,-0.078857421875,-0.124267578125,-0.593017578125,1.2886
1.251908396946565,0.8702290076335878,-1.4045801526717556,-0.07470703125,-0.120849609375,-0.589111328125,1.2903
1.4351145038167938,0.8702290076335878,-1.3129770992366412,-0.078369140625,-0.1171875,-0.590576171875,1.292
1.4961832061068703,0.916030534351145,-1.3129770992366412,-0.07958984375,-0.113525390625,-0.59228515625,1.2936999999999999
1.5419847328244274,0.916030534351145,-1.2671755725190839,-0.07861328125,-0.124267578125,-0.585205078125,1.2953999999999999
1.2671755725190839,0.9618320610687023,-1.6793893129770991,-0.0751953125,-0.11865234375,-0.5849609375,1.2971
1.3435114503816794,0.9312977099236641,-1.465648854961832,-0.07568359375,-0.114990234375,-0.590087890625,1.2988
1.2061068702290076,0.8244274809160306,-1.2671755725190839,-0.075439453125,-0.1171875,-0.58935546875,1.3005
1.3282442748091603,0.9312977099236641,-1.4045801526717556,-0.077880859375,-0.1181640625,-0.59423828125,1.3022
1.3282442748091603,0.9007633587786259,-1.4045801526717556,-0.0791015625,-0.115234375,-0.583740234375,1.3038999999999998
1.0229007633587786,1.1603053435114503,-1.282442748091603,-0.07568359375,-0.1201171875,-0.593017578125,1.3055999999999999
1.0381679389312977,1.251908396946565,-1.3740458015267176,-0.07763671875,-0.119140625,-0.59130859375,1.3073
1.2671755725190839,1.2061068702290076,-1.1603053435114503,-0.070556640625,-0.120361328125,-0.590576171875,1.309
1.1297709923664123,1.1297709923664123,-1.297709923664122,-0.072265625,-0.122802734375,-0.59130859375,1.3107
1.3435114503816794,0.916030534351145,-1.0534351145038168,-0.077880859375,-0.119140625,-0.587646484375,1.3124
1.450381679389313,1.2061068702290076,-1.3129770992366412,-0.074951171875,-0.12060546875,-0.59033203125,1.3140999999999998
1.3893129770992367,1.1908396946564885,-1.1603053435114503,-0.075439453125,-0.122314453125,-0.58984375,1.3157999999999999
1.4351145038167938,1.251908396946565,-1.0381679389312977,-0.074462890625,-0.120361328125,-0.5947265625,1.3175
1.1908396946564885,1.282442748091603,-0.7786259541984732,-0.07177734375,-0.116943359375,-0.5849609375,1.3192
1.3740458015267176,1.1297709923664123,-0.9923664122137404,-0.073974609375,-0.11962890625,-0.587890625,1.3209
1.2671755725190839,1.3893129770992367,-1.1450381679389312,-0.074951171875,-0.119384765625,-0.59521484375,1.3226
1.282442748091603,1.3587786259541985,-1.0534351145038168,-0.07470703125,-0.12060546875,-0.59326171875,1.3243
1.3435114503816794,1.083969465648855,-0.7633587786259542,-0.0703125,-0.120849609375,-0.594970703125,1.3259999999999998
1.3129770992366412,1.1450381679389312,-0.9007633587786259,-0.077392578125,-0.1181640625,-0.592529296875,1.3276999999999999
1.450381679389313,1.3435114503816794,-0.6870229007633588,-0.0751953125,-0.12353515625,-0.589111328125,1.3294
1.5267175572519085,1.2671755725190839,-0.8396946564885496,-0.0751953125,-0.126220703125,-0.59521484375,1.3311
1.7099236641221374,1.1297709923664123,-0.6564885496183206,-0.077880859375,-0.1240234375,-0.591064453125,1.3328
1.8015267175572518,1.2061068702290076,-0.7633587786259542,-0.07373046875,-0.11962890625,-0.593017578125,1.3345
1.8625954198473282,1.2213740458015268,-0.6717557251908397,-0.074951171875,-0.123046875,-0.583251953125,1.3361999999999998
1.816793893129771,1.1450381679389312,-0.8549618320610687,-0.074462890625,-0.124755859375,-0.595947265625,1.3378999999999999
1.786259541984733,1.1603053435114503,-0.6870229007633588,-0.06982421875,-0.120849609375,-0.582275390625,1.3396
2.213740458015267,1.282442748091603,-0.5954198473282443,-0.074951171875,-0.124755859375,-0.60009765625,1.3413
2.030534351145038,1.2671755725190839,-0.7175572519083969,-0.078857421875,-0.123291015625,-0.586181640625,1.343
2.045801526717557,1.3740458015267176,-0.8702290076335878,-0.075927734375,-0.123046875,-0.5791015625,1.3447
1.9083969465648856,1.3282442748091603,-0.7938931297709924,-0.077880859375,-0.121337890625,-0.59716796875,1.3463999999999998
1.786259541984733,1.3587786259541985,-1.1145038167938932,-0.07568359375,-0.127197265625,-0.592041015625,1.3480999999999999
1.786259541984733,1.4961832061068703,-0.8396946564885496,-0.08056640625,-0.125732421875,-0.595947265625,1.3497999999999999
1.5572519083969465,1.3740458015267176,-1.1145038167938932,-0.07275390625,-0.121337890625,-0.5986328125,1.3515
1.5877862595419847,1.4961832061068703,-1.0687022900763359,-0.07861328125,-0.1259765625,-0.591552734375,1.3532
1.4809160305343512,1.6641221374045803,-1.0687022900763359,-0.0791015625,-0.120361328125,-0.597900390625,1.3549
1.3740458015267176,1.6030534351145038,-0.9770992366412213,-0.08203125,-0.119873046875,-0.5888671875,1.3566
1.3282442748091603,1.5267175572519085,-1.0687022900763359,-0.08056640625,-0.11962890625,-0.58984375,1.3582999999999998
1.1908396946564885,1.6030534351145038,-1.1145038167938932,-0.07958984375,-0.1201171875,-0.5869140625,1.3599999999999999
1.3129770992366412,1.6488549618320612,-1.4045801526717556,-0.075927734375,-0.12060546875,-0.592041015625,1.3617
1.282442748091603,1.4961832061068703,-1.1450381679389312,-0.072509765625,-0.128173828125,-0.59423828125,1.3634
1.251908396946565,1.450381679389313,-1.1755725190839694,-0.078369140625,-0.124755859375,-0.601806640625,1.3651
0.9312977099236641,1.5419847328244274,-1.465648854961832,-0.083740234375,-0.123046875,-0.5947265625,1.3668
1.1603053435114503,1.5419847328244274,-1.5114503816793894,-0.071044921875,-0.1201171875,-0.586669921875,1.3684999999999998
1.3740458015267176,1.3587786259541985,-1.4045801526717556,-0.076904296875,-0.1279296875,-0.5908203125,1.3701999999999999
1.099236641221374,1.282442748091603,-1.450381679389313,-0.078857421875,-0.122802734375,-0.59326171875,1.3719
1.282442748091603,1.282442748091603,-1.4809160305343512,-0.073974609375,-0.1240234375,-0.586181640625,1.3736
1.2671755725190839,1.2671755725190839,-1.5114503816793894,-0.077880859375,-0.123046875,-0.591064453125,1.3753
1.2213740458015268,1.0076335877862594,-1.1603053435114503,-0.07763671875,-0.124267578125,-0.58544921875,1.377
1.1603053435114503,1.0229007633587786,-1.4809160305343512,-0.07568359375,-0.12255859375,-0.590576171875,1.3786999999999998
1.1297709923664123,1.3893129770992367,-1.6030534351145038,-0.07861328125,-0.12109375,-0.593994140625,1.3803999999999998
1.2061068702290076,1.1297709923664123,-1.4045801526717556,-0.082763671875,-0.12109375,-0.591552734375,1.3820999999999999
1.099236641221374,1.1603053435114503,-1.2671755725190839,-0.078369140625,-0.123779296875,-0.59716796875,1.3838
1.1755725190839694,1.1145038167938932,-1.4809160305343512,-0.0791015625,-0.118408203125,-0.595458984375,1.3855
1.251908396946565,1.1755725190839694,-1.4809160305343512,-0.078857421875,-0.114990234375,-0.59375,1.3872
1.0381679389312977,1.099236641221374,-1.3587786259541985,-0.080810546875,-0.117431640625,-0.590087890625,1.3889
1.099236641221374,1.2671755725190839,-1.251908396946565,-0.07861328125,-0.11962890625,-0.593017578125,1.3905999999999998
0.9923664122137404,1.3435114503816794,-1.282442748091603,-0.0791015625,-0.117919921875,-0.604248046875,1.3922999999999999
1.1145038167938932,1.3282442748091603,-1.2366412213740459,-0.07861328125,-0.117431640625,-0.592529296875,1.394
1.1450381679389312,1.2366412213740459,-1.282442748091603,-0.079345703125,-0.123291015625,-0.593505859375,1.3957
1.3587786259541985,1.251908396946565,-1.1755725190839694,-0.078369140625,-0.1201171875,-0.590087890625,1.3974
1.2213740458015268,1.1297709923664123,-1.282442748091603,-0.081787109375,-0.121826171875,-0.590087890625,1.3991
1.2061068702290076,1.2366412213740459,-1.450381679389313,-0.079345703125,-0.122314453125,-0.593017578125,1.4007999999999998
1.3282442748091603,1.2671755725190839,-1.3282442748091603,-0.07763671875,-0.1162109375,-0.58984375,1.4024999999999999
1.4809160305343512,1.1297709923664123,-1.5267175572519085,-0.07763671875,-0.122802734375,-0.590576171875,1.4042
1.633587786259542,1.3435114503816794,-1.4198473282442747,-0.077880859375,-0.117919921875,-0.601318359375,1.4059
1.4961832061068703,1.3129770992366412,-1.3282442748091603,-0.07861328125,-0.118896484375,-0.58740234375,1.4076
1.282442748091603,1.3435114503816794,-1.6030534351145038,-0.072021484375,-0.121826171875,-0.599365234375,1.4093
1.6793893129770991,1.2366412213740459,-1.4961832061068703,-0.075439453125,-0.1171875,-0.591552734375,1.411
1.5725190839694656,1.2366412213740459,-1.5114503816793894,-0.075439453125,-0.116943359375,-0.592529296875,1.4126999999999998
1.3587786259541985,1.2671755725190839,-1.6030534351145038,-0.07568359375,-0.117919921875,-0.593017578125,1.4143999999999999
1.5267175572519085,1.4351145038167938,-1.633587786259542,-0.07275390625,-0.116455078125,-0.588134765625,1.4161
1.4961832061068703,1.2366412213740459,-1.4961832061068703,-0.07275390625,-0.114501953125,-0.58642578125,1.4178
1.6030534351145038,1.1755725190839694,-1.5267175572519085,-0.070556640625,-0.12255859375,-0.595458984375,1.4195
1.5267175572519085,1.1603053435114503,-1.6793893129770991,-0.072509765625,-0.126220703125,-0.588134765625,1.4212
1.6641221374045803,1.282442748091603,-1.7251908396946565,-0.0732421875,-0.1220703125,-0.592041015625,1.4228999999999998
1.8625954198473282,0.9923664122137404,-1.618320610687023,-0.077880859375,-0.124755859375,-0.59619140625,1.4245999999999999
1.786259541984733,1.2366412213740459,-1.6946564885496183,-0.075439453125,-0.121337890625,-0.59130859375,1.4263
1.5725190839694656,1.3435114503816794,-1.633587786259542,-0.076416015625,-0.125244140625,-0.597412109375,1.428
1.450381679389313,1.3893129770992367,-1.633587786259542,-0.080810546875,-0.121826171875,-0.589599609375,1.4297
1.4198473282442747,1.450381679389313,-1.5267175572519085,-0.075439453125,-0.1279296875,-0.5947265625,1.4314
1.2366412213740459,1.450381679389313,-1.6641221374045803,-0.08154296875,-0.125,-0.599609375,1.4330999999999998
1.1908396946564885,1.4198473282442747,-1.6030534351145038,-0.073974609375,-0.1240234375,-0.58837890625,1.4347999999999999
1.099236641221374,1.4198473282442747,-1.6641221374045803,-0.079833984375,-0.119873046875,-0.5947265625,1.4364999999999999
0.8854961832061069,1.450381679389313,-1.7404580152671756,-0.07568359375,-0.12158203125,-0.5908203125,1.4382
1.0229007633587786,1.4961832061068703,-1.6946564885496183,-0.07763671875,-0.122314453125,-0.597412109375,1.4399
1.0076335877862594,1.5114503816793894,-1.8473282442748091,-0.076904296875,-0.12353515625,-0.590576171875,1.4416
0.916030534351145,1.5267175572519085,-1.786259541984733,-0.07568359375,-0.124755859375,-0.594482421875,1.4433
0.9312977099236641,1.450381679389313,-1.8473282442748091,-0.079833984375,-0.122314453125,-0.595458984375,1.4449999999999998
0.7786259541984732,1.6030534351145038,-1.816793893129771,-0.07568359375,-0.1279296875,-0.59228515625,1.4466999999999999
0.6564885496183206,1.3740458015267176,-1.6641221374045803,-0.0771484375,-0.121826171875,-0.59814453125,1.4484
0.9770992366412213,1.2671755725190839,-1.6641221374045803,-0.074462890625,-0.11865234375,-0.599853515625,1.4501
0.916030534351145,1.1908396946564885,-1.7404580152671756,-0.07958984375,-0.122314453125,-0.587158203125,1.4518
0.732824427480916,1.282442748091603,-1.8625954198473282,-0.077392578125,-0.1201171875,-0.590087890625,1.4535
0.9007633587786259,1.450381679389313,-1.5725190839694656,-0.07568359375,-0.12255859375,-0.5908203125,1.4551999999999998
0.8702290076335878,1.3893129770992367,-1.816793893129771,-0.078857421875,-0.123046875,-0.585693359375,1.4568999999999999
0.7938931297709924,1.3893129770992367,-1.7251908396946565,-0.07568359375,-0.119140625,-0.583984375,1.4586
1.0534351145038168,1.5114503816793894,-1.4809160305343512,-0.080078125,-0.11962890625,-0.58837890625,1.4603
0.9618320610687023,1.3282442748091603,-1.6641221374045803,-0.078857421875,-0.12109375,-0.596435546875,1.462
1.0229007633587786,1.450381679389313,-1.6488549618320612,-0.076904296875,-0.121826171875,-0.58984375,1.4637
1.0229007633587786,1.4351145038167938,-1.6488549618320612,-0.076904296875,-0.121826171875,-0.593017578125,1.4653999999999998
1.0076335877862594,1.4809160305343512,-1.6641221374045803,-0.075927734375,-0.113525390625,-0.58837890625,1.4670999999999998
1.0381679389312977,1.6488549618320612,-1.6793893129770991,-0.077392578125,-0.122314453125,-0.60009765625,1.4687999999999999
1.0076335877862594,1.4351145038167938,-1.4351145038167938,-0.07568359375,-0.116943359375,-0.593505859375,1.4705
0.9312977099236641,1.4961832061068703,-1.5572519083969465,-0.076416015625,-0.118408203125,-0.598876953125,1.4722
1.2366412213740459,1.5725190839694656,-1.5572519083969465,-0.076904296875,-0.119873046875,-0.59228515625,1.4739
1.0076335877862594,1.5725190839694656,-1.6793893129770991,-0.0830078125,-0.124755859375,-0.5888671875,1.4756
1.2213740458015268,1.6030534351145038,-1.4961832061068703,-0.07568359375,-0.11962890625,-0.590087890625,1.4772999999999998
1.3587786259541985,1.618320610687023,-1.4045801526717556,-0.076171875,-0.12158203125,-0.58544921875,1.4789999999999999
1.297709923664122,1.6946564885496183,-1.465648854961832,-0.068603515625,-0.121337890625,-0.5908203125,1.4807
1.4045801526717556,1.7557251908396947,-1.5267175572519085,-0.076904296875,-0.122802734375,-0.593017578125,1.4824
1.5114503816793894,1.6946564885496183,-1.4809160305343512,-0.077880859375,-0.120849609375,-0.59375,1.4841
1.6946564885496183,1.618320610687023,-1.465648854961832,-0.076904296875,-0.114990234375,-0.591064453125,1.4858
1.7251908396946565,1.633587786259542,-1.3587786259541985,-0.078857421875,-0.1220703125,-0.60107421875,1.4874999999999998
1.6946564885496183,1.6488549618320612,-1.5419847328244274,-0.07763671875,-0.125244140625,-0.586181640625,1.4891999999999999
1.7404580152671756,1.633587786259542,-1.3282442748091603,-0.077880859375,-0.122802734375,-0.598388671875,1.4909
1.6488549618320612,1.7099236641221374,-1.4351145038167938,-0.073974609375,-0.12548828125,-0.58154296875,1.4926
1.7557251908396947,1.618320610687023,-1.4045801526717556,-0.079833984375,-0.118408203125,-0.595703125,1.4943
1.7404580152671756,1.7099236641221374,-1.3587786259541985,-0.076416015625,-0.121826171875,-0.59228515625,1.496
1.6488549618320612,1.5877862595419847,-1.1908396946564885,-0.07958984375,-0.11962890625,-0.587646484375,1.4976999999999998
1.450381679389313,1.5419847328244274,-1.3129770992366412,-0.073974609375,-0.1201171875,-0.58837890625,1.4993999999999998
1.6488549618320612,1.6793893129770991,-1.2671755725190839,-0.074951171875,-0.118408203125,-0.587890625,1.5010999999999999
1.618320610687023,1.6946564885496183,-1.251908396946565,-0.0791015625,-0.1162109375,-0.596435546875,1.5028
1.5419847328244274,1.4198473282442747,-1.1450381679389312,-0.074462890625,-0.118896484375,-0.59326171875,1.5045
1.6030534351145038,1.4809160305343512,-1.297709923664122,-0.074951171875,-0.1181640625,-0.5869140625,1.5062
1.4961832061068703,1.6946564885496183,-1.2213740458015268,-0.07861328125,-0.12109375,-0.586669921875,1.5079
1.465648854961832,1.5419847328244274,-1.2213740458015268,-0.076904296875,-0.11767578125,-0.591552734375,1.5095999999999998
1.5725190839694656,1.5114503816793894,-1.2061068702290076,-0.0771484375,-0.120849609375,-0.59130859375,1.5112999999999999
1.5877862595419847,1.3740458015267176,-1.1603053435114503,-0.07470703125,-0.123046875,-0.59619140625,1.513
1.5877862595419847,1.4198473282442747,-1.2671755725190839,-0.08251953125,-0.120849609375,-0.593017578125,1.5147
1.4809160305343512,1.4045801526717556,-1.1908396946564885,-0.069580078125,-0.12255859375,-0.58935546875,1.5164
1.633587786259542,1.1908396946564885,-1.1908396946564885,-0.07373046875,-0.121826171875,-0.59228515625,1.5181
1.6793893129770991,1.0687022900763359,-1.2366412213740459,-0.072998046875,-0.12353515625,-0.589111328125,1.5197999999999998
1.5114503816793894,1.2366412213740459,-1.251908396946565,-0.08544921875,-0.122314453125,-0.592529296875,1.5214999999999999
1.5725190839694656,1.1297709923664123,-1.3740458015267176,-0.07958984375,-0.12158203125,-0.59326171875,1.5231999999999999
1.633587786259542,0.9465648854961832,-1.3129770992366412,-0.08154296875,-0.122802734375,-0.59619140625,1.5249
1.4351145038167938,0.9312977099236641,-1.3893129770992367,-0.078125,-0.122802734375,-0.59375,1.5266
1.465648854961832,1.0076335877862594,-1.1755725190839694,-0.07861328125,-0.121337890625,-0.5986328125,1.5283
1.3435114503816794,1.083969465648855,-1.3893129770992367,-0.07958984375,-0.116943359375,-0.59423828125,1.5299999999999998
1.4351145038167938,1.1297709923664123,-1.4198473282442747,-0.0732421875,-0.117919921875,-0.59375,1.5316999999999998
1.3587786259541985,0.9312977099236641,-1.450381679389313,-0.076904296875,-0.11962890625,-0.59619140625,1.5333999999999999
1.3587786259541985,1.0687022900763359,-1.2671755725190839,-0.077392578125,-0.121337890625,-0.58984375,1.5351
1.5877862595419847,0.9770992366412213,-1.3587786259541985,-0.0771484375,-0.12060546875,-0.5927734375,1.5368
1.6946564885496183,0.9312977099236641,-1.1908396946564885,-0.0771484375,-0.1162109375,-0.590576171875,1.5385
1.5419847328244274,0.9465648854961832,-1.1908396946564885,-0.0771484375,-0.11865234375,-0.5908203125,1.5402
1.6946564885496183,1.0381679389312977,-1.3282442748091603,-0.07861328125,-0.123779296875,-0.5888671875,1.5418999999999998
1.5114503816793894,1.0687022900763359,-1.465648854961832,-0.075927734375,-0.125732421875,-0.59765625,1.5435999999999999
1.6030534351145038,0.9923664122137404,-1.3282442748091603,-0.07568359375,-0.119384765625,-0.5966796875,1.5453
1.2671755725190839,1.0076335877862594,-1.450381679389313,-0.078125,-0.119140625,-0.60205078125,1.547
1.3282442748091603,0.9312977099236641,-1.4809160305343512,-0.07958984375,-0.11865234375,-0.59375,1.5487
1.3587786259541985,0.8091603053435115,-1.5267175572519085,-0.08154296875,-0.12451171875,-0.59375,1.5504
1.2671755725190839,0.8244274809160306,-1.450381679389313,-0.078857421875,-0.11962890625,-0.5908203125,1.5520999999999998
1.1145038167938932,0.8244274809160306,-1.6641221374045803,-0.077880859375,-0.121337890625,-0.583740234375,1.5537999999999998
1.0687022900763359,0.7938931297709924,-1.5877862595419847,-0.0751953125,-0.11962890625,-0.590087890625,1.5554999999999999
1.2366412213740459,0.7022900763358778,-1.7557251908396947,-0.0771484375,-0.12060546875,-0.590576171875,1.5572
1.1603053435114503,0.7175572519083969,-1.633587786259542,-0.07275390625,-0.119140625,-0.591552734375,1.5589
1.1603053435114503,0.5801526717557252,-1.6946564885496183,-0.075927734375,-0.117919921875,-0.593505859375,1.5606
1.282442748091603,0.7022900763358778,-1.786259541984733,-0.0791015625,-0.11572265625,-0.588134765625,1.5623
1.3129770992366412,0.7022900763358778,-1.7099236641221374,-0.077880859375,-0.122802734375,-0.58447265625,1.5639999999999998
1.6030534351145038,0.5648854961832062,-1.6030534351145038,-0.074462890625,-0.119140625,-0.588623046875,1.5656999999999999
1.6488549618320612,0.549618320610687,-1.786259541984733,-0.0771484375,-0.11767578125,-0.593017578125,1.5674
1.6946564885496183,0.5038167938931297,-1.5877862595419847,-0.07568359375,-0.116943359375,-0.5927734375,1.5691
1.5267175572519085,0.5801526717557252,-1.7557251908396947,-0.07568359375,-0.123291015625,-0.58984375,1.5708
1.8473282442748091,0.3511450381679389,-1.5267175572519085,-0.0751953125,-0.116943359375,-0.58837890625,1.5725
1.6641221374045803,0.1984732824427481,-1.4809160305343512,-0.07421875,-0.119140625,-0.58837890625,1.5741999999999998
1.8625954198473282,0.4732824427480916,-1.450381679389313,-0.076416015625,-0.12255859375,-0.592041015625,1.5758999999999999
1.8625954198473282,0.2595419847328244,-1.5725190839694656,-0.077392578125,-0.11962890625,-0.591552734375,1.5776
1.5725190839694656,0.21374045801526717,-1.3740458015267176,-0.077392578125,-0.12451171875,-0.6044921875,1.5793
1.786259541984733,0.07633587786259542,-1.4198473282442747,-0.07275390625,-0.115234375,-0.58544921875,1.581
2.030534351145038,0.3053435114503817,-1.1450381679389312,-0.076171875,-0.11962890625,-0.597900390625,1.5827
1.9083969465648856,0.2748091603053435,-1.251908396946565,-0.075927734375,-0.12109375,-0.593505859375,1.5843999999999998
1.6641221374045803,0.2900763358778626,-0.9618320610687023,-0.07666015625,-0.123291015625,-0.58740234375,1.5860999999999998
1.4961832061068703,0.3816793893129771,-1.083969465648855,-0.077880859375,-0.117919921875,-0.587890625,1.5877999999999999
1.4961832061068703,0.183206106870229,-1.099236641221374,-0.077392578125,-0.122314453125,-0.583740234375,1.5895
1.5877862595419847,0.0916030534351145,-1.0687022900763359,-0.074462890625,-0.118896484375,-0.586669921875,1.5912
1.5877862595419847,0.1984732824427481,-0.9770992366412213,-0.076416015625,-0.119140625,-0.59619140625,1.5929
1.3740458015267176,0.07633587786259542,-0.9923664122137404,-0.077880859375,-0.1259765625,-0.591552734375,1.5946
1.4198473282442747,0.04580152671755725,-0.916030534351145,-0.072998046875,-0.121826171875,-0.595703125,1.5962999999999998
1.4045801526717556,-0.030534351145038167,-1.1755725190839694,-0.07666015625,-0.117431640625,-0.59521484375,1.5979999999999999
1.3282442748091603,0.04580152671755725,-1.0687022900763359,-0.07666015625,-0.118408203125,-0.594970703125,1.5997
1.3587786259541985,-0.16793893129770993,-1.1603053435114503,-0.07958984375,-0.117431640625,-0.583984375,1.6014
1.2671755725190839,-0.15267175572519084,-0.9770992366412213,-0.07177734375,-0.126953125,-0.592529296875,1.6031
1.3740458015267176,-0.10687022900763359,-1.2366412213740459,-0.080078125,-0.120849609375,-0.597900390625,1.6048
1.2061068702290076,-0.22900763358778625,-1.1450381679389312,-0.082763671875,-0.1240234375,-0.595947265625,1.6064999999999998
1.2671755725190839,0.015267175572519083,-1.1908396946564885,-0.076171875,-0.121826171875,-0.590576171875,1.6081999999999999
1.3435114503816794,0.0,-1.1908396946564885,-0.07470703125,-0.12841796875,-0.595947265625,1.6098999999999999
1.4961832061068703,-0.366412213740458,-1.1450381679389312,-0.077880859375,-0.1171875,-0.59375,1.6116
1.6793893129770991,-0.3053435114503817,-1.1755725190839694,-0.07568359375,-0.1162109375,-0.598388671875,1.6133
1.5877862595419847,-0.2900763358778626,-1.3435114503816794,-0.07763671875,-0.123779296875,-0.59033203125,1.615
1.4809160305343512,-0.183206106870229,-1.3435114503816794,-0.077880859375,-0.12060546875,-0.59423828125,1.6166999999999998
1.7251908396946565,-0.22900763358778625,-1.4198473282442747,-0.0830078125,-0.12255859375,-0.60009765625,1.6183999999999998
1.6488549618320612,-0.15267175572519084,-1.297709923664122,-0.081298828125,-0.1201171875,-0.59326171875,1.6200999999999999
1.8625954198473282,-0.2900763358778626,-1.2213740458015268,-0.076904296875,-0.1220703125,-0.59423828125,1.6218
1.7557251908396947,-0.13740458015267176,-1.0687022900763359,-0.0751953125,-0.12158203125,-0.590087890625,1.6235
1.8015267175572518,-0.2748091603053435,-1.3282442748091603,-0.081298828125,-0.118408203125,-0.590576171875,1.6252
2.015267175572519,-0.21374045801526717,-1.4198473282442747,-0.072998046875,-0.115966796875,-0.59619140625,1.6269
1.7709923664122138,-0.183206106870229,-1.1908396946564885,-0.0751953125,-0.115966796875,-0.591552734375,1.6285999999999998
1.816793893129771,-0.1984732824427481,-1.282442748091603,-0.079345703125,-0.117431640625,-0.59033203125,1.6302999999999999
1.7251908396946565,-0.07633587786259542,-1.099236641221374,-0.078125,-0.121337890625,-0.58203125,1.632
1.618320610687023,-0.16793893129770993,-1.0076335877862594,-0.072265625,-0.119873046875,-0.59033203125,1.6337
1.7709923664122138,-0.22900763358778625,-1.1755725190839694,-0.074951171875,-0.115234375,-0.58642578125,1.6354
1.6030534351145038,-0.2748091603053435,-1.0229007633587786,-0.077392578125,-0.121337890625,-0.596923828125,1.6371
1.5572519083969465,-0.1984732824427481,-0.9465648854961832,-0.075439453125,-0.12255859375,-0.593505859375,1.6387999999999998
1.816793893129771,-0.13740458015267176,-1.099236641221374,-0.072998046875,-0.123291015625,-0.58837890625,1.6404999999999998
1.450381679389313,-0.21374045801526717,-1.1297709923664123,-0.079345703125,-0.119384765625,-0.581787109375,1.6421999999999999
1.633587786259542,-0.16793893129770993,-0.916030534351145,-0.0791015625,-0.12109375,-0.59521484375,1.6439
1.83206106870229,-0.15267175572519084,-0.9770992366412213,-0.08154296875,-0.12255859375,-0.59619140625,1.6456
1.7251908396946565,0.061068702290076333,-0.8854961832061069,-0.078857421875,-0.121826171875,-0.598388671875,1.6473
1.633587786259542,0.0,-0.9312977099236641,-0.07666015625,-0.122802734375,-0.587890625,1.6489999999999998
1.9694656488549618,0.04580152671755725,-1.0076335877862594,-0.077392578125,-0.1181640625,-0.58935546875,1.6506999999999998
1.7557251908396947,-0.061068702290076333,-0.916030534351145,-0.07666015625,-0.124267578125,-0.589599609375,1.6523999999999999
1.7557251908396947,0.33587786259541985,-0.7633587786259542,-0.081298828125,-0.122802734375,-0.58984375,1.6541
1.7404580152671756,0.16793893129770993,-0.6870229007633588,-0.079345703125,-0.12353515625,-0.592529296875,1.6558
1.7404580152671756,0.2595419847328244,-0.6259541984732825,-0.079345703125,-0.124267578125,-0.59423828125,1.6575
1.6488549618320612,0.33587786259541985,-0.6870229007633588,-0.082275390625,-0.12451171875,-0.587158203125,1.6592
1.7709923664122138,0.22900763358778625,-0.732824427480916,-0.083251953125,-0.116943359375,-0.595703125,1.6608999999999998
1.9083969465648856,0.4580152671755725,-0.7938931297709924,-0.0771484375,-0.117431640625,-0.595703125,1.6625999999999999
1.7099236641221374,0.366412213740458,-0.7022900763358778,-0.07861328125,-0.123291015625,-0.592041015625,1.6643
1.5725190839694656,0.5954198473282443,-0.5954198473282443,-0.07275390625,-0.125,-0.5966796875,1.666
1.5725190839694656,0.4732824427480916,-0.5038167938931297,-0.07470703125,-0.125,-0.59423828125,1.6677
1.6488549618320612,0.4732824427480916,-0.8091603053435115,-0.073486328125,-0.122314453125,-0.59423828125,1.6694
1.5725190839694656,0.3511450381679389,-0.8244274809160306,-0.083984375,-0.1142578125,-0.586181640625,1.6710999999999998
1.4809160305343512,0.4122137404580153,-0.732824427480916,-0.076171875,-0.123291015625,-0.587890625,1.6727999999999998
1.3282442748091603,0.3816793893129771,-0.6870229007633588,-0.081787109375,-0.12353515625,-0.590576171875,1.6744999999999999
1.6030534351145038,0.5038167938931297,-0.9312977099236641,-0.0751953125,-0.12451171875,-0.595947265625,1.6762
1.4351145038167938,0.5648854961832062,-0.6717557251908397,-0.07568359375,-0.121826171875,-0.58935546875,1.6779
1.3893129770992367,0.42748091603053434,-0.5038167938931297,-0.077392578125,-0.11962890625,-0.58935546875,1.6796
1.3740458015267176,0.6870229007633588,-0.7786259541984732,-0.078857421875,-0.119140625,-0.593017578125,1.6813
1.5572519083969465,0.7480916030534351,-1.0229007633587786,-0.0771484375,-0.127685546875,-0.592041015625,1.6829999999999998
1.2366412213740459,0.5648854961832062,-0.7938931297709924,-0.078369140625,-0.1220703125,-0.588623046875,1.6846999999999999
1.5877862595419847,0.8244274809160306,-0.9770992366412213,-0.076904296875,-0.123779296875,-0.593994140625,1.6864
1.5267175572519085,0.9465648854961832,-0.9770992366412213,-0.08056640625,-0.123046875,-0.598876953125,1.6881
1.5267175572519085,1.0381679389312977,-0.9923664122137404,-0.07763671875,-0.12255859375,-0.59228515625,1.6898
1.4961832061068703,0.7633587786259542,-0.8549618320610687,-0.078857421875,-0.119384765625,-0.603271484375,1.6915
1.6488549618320612,0.7480916030534351,-0.8549618320610687,-0.0771484375,-0.121337890625,-0.5966796875,1.6931999999999998
1.5572519083969465,1.099236641221374,-1.0534351145038168,-0.07958984375,-0.126220703125,-0.5908203125,1.6948999999999999
1.3740458015267176,1.083969465648855,-1.0534351145038168,-0.0830078125,-0.121337890625,-0.587158203125,1.6965999999999999
1.6793893129770991,1.2213740458015268,-0.916030534351145,-0.08154296875,-0.121826171875,-0.592041015625,1.6983
1.4809160305343512,1.1145038167938932,-0.9312977099236641,-0.077880859375,-0.122802734375,-0.5869140625,1.7
1.633587786259542,1.2366412213740459,-1.0534351145038168,-0.081298828125,-0.123046875,-0.59375,1.7017
1.282442748091603,1.3282442748091603,-1.0076335877862594,-0.08056640625,-0.123291015625,-0.58935546875,1.7033999999999998
1.4351145038167938,1.251908396946565,-0.7175572519083969,-0.085693359375,-0.12060546875,-0.591796875,1.7050999999999998
1.4809160305343512,1.2061068702290076,-0.9770992366412213,-0.081787109375,-0.119873046875,-0.589599609375,1.7067999999999999
1.4961832061068703,1.3129770992366412,-0.9312977099236641,-0.079833984375,-0.120361328125,-0.59619140625,1.7085
1.3129770992366412,1.5419847328244274,-0.9007633587786259,-0.081298828125,-0.122802734375,-0.59814453125,1.7102
1.4198473282442747,1.5572519083969465,-0.9770992366412213,-0.083740234375,-0.12158203125,-0.587646484375,1.7119
1.3893129770992367,1.5419847328244274,-1.0381679389312977,-0.079833984375,-0.119140625,-0.588623046875,1.7136
1.3740458015267176,1.5114503816793894,-1.0229007633587786,-0.08056640625,-0.11865234375,-0.59228515625,1.7152999999999998
1.297709923664122,1.5725190839694656,-1.2061068702290076,-0.07958984375,-0.128173828125,-0.5966796875,1.7169999999999999
1.4961832061068703,1.5725190839694656,-1.251908396946565,-0.076904296875,-0.1220703125,-0.58935546875,1.7187
1.4045801526717556,1.633587786259542,-1.1603053435114503,-0.078369140625,-0.120849609375,-0.5830078125,1.7204
1.4351145038167938,1.5267175572519085,-1.251908396946565,-0.076171875,-0.118408203125,-0.5869140625,1.7221
1.465648854961832,1.7404580152671756,-1.0687022900763359,-0.0791015625,-0.119384765625,-0.587158203125,1.7238
1.5419847328244274,1.8778625954198473,-1.2061068702290076,-0.08349609375,-0.126220703125,-0.5947265625,1.7254999999999998
1.5114503816793894,1.7709923664122138,-1.3129770992366412,-0.08056640625,-0.123291015625,-0.5908203125,1.7271999999999998
1.450381679389313,1.7709923664122138,-1.3893129770992367,-0.082275390625,-0.12158203125,-0.580810546875,1.7288999999999999
1.5572519083969465,1.8473282442748091,-1.0687022900763359,-0.084716796875,-0.122802734375,-0.584716796875,1.7306
1.7099236641221374,1.6946564885496183,-1.0381679389312977,-0.08056640625,-0.1171875,-0.58740234375,1.7323
1.7099236641221374,1.6946564885496183,-1.0076335877862594,-0.079345703125,-0.120361328125,-0.595458984375,1.734
1.9694656488549618,2.045801526717557,-1.083969465648855,-0.07568359375,-0.1240234375,-0.583740234375,1.7356999999999998
1.9083969465648856,2.0916030534351147,-0.9923664122137404,-0.08642578125,-0.126953125,-0.585205078125,1.7373999999999998
1.9236641221374047,1.9389312977099236,-1.1603053435114503,-0.0771484375,-0.12255859375,-0.59765625,1.7390999999999999
1.9694656488549618,2.1526717557251906,-0.9770992366412213,-0.076171875,-0.11474609375,-0.590576171875,1.7408
1.9541984732824427,2.16793893129771,-1.1297709923664123,-0.080810546875,-0.126220703125,-0.59033203125,1.7425
1.9694656488549618,2.183206106870229,-1.1145038167938932,-0.078857421875,-0.115966796875,-0.586181640625,1.7442
2.1068702290076335,2.198473282442748,-1.0534351145038168,-0.085205078125,-0.119384765625,-0.59033203125,1.7459
1.9541984732824427,2.1526717557251906,-1.0229007633587786,-0.079345703125,-0.120849609375,-0.59033203125,1.7475999999999998
1.8778625954198473,2.030534351145038,-1.099236641221374,-0.0849609375,-0.11572265625,-0.58837890625,1.7492999999999999
1.9389312977099236,2.2748091603053435,-1.1297709923664123,-0.076904296875,-0.121826171875,-0.587890625,1.751
1.9541984732824427,2.3053435114503817,-0.9923664122137404,-0.0732421875,-0.1220703125,-0.594970703125,1.7527
1.816793893129771,2.2290076335877864,-0.9312977099236641,-0.079345703125,-0.119873046875,-0.590576171875,1.7544
1.7709923664122138,2.2442748091603053,-0.9923664122137404,-0.080322265625,-0.119873046875,-0.602783203125,1.7561
1.6488549618320612,2.198473282442748,-0.9007633587786259,-0.076171875,-0.122314453125,-0.60107421875,1.7577999999999998
1.6946564885496183,2.1374045801526718,-0.9007633587786259,-0.080322265625,-0.1220703125,-0.594970703125,1.7594999999999998
1.6488549618320612,2.045801526717557,-1.083969465648855,-0.078125,-0.120361328125,-0.6005859375,1.7611999999999999
1.618320610687023,2.2442748091603053,-1.2366412213740459,-0.078857421875,-0.119140625,-0.6005859375,1.7629
1.618320610687023,2.4427480916030535,-1.0687022900763359,-0.077880859375,-0.123291015625,-0.589599609375,1.7646
1.3893129770992367,2.2442748091603053,-0.9770992366412213,-0.0830078125,-0.117431640625,-0.58935546875,1.7663
1.5572519083969465,2.2290076335877864,-1.1908396946564885,-0.0810546875,-0.127197265625,-0.5947265625,1.7679999999999998
1.4045801526717556,2.366412213740458,-1.2366412213740459,-0.077880859375,-0.121826171875,-0.59423828125,1.7696999999999998
1.3129770992366412,2.3053435114503817,-1.0534351145038168,-0.07568359375,-0.11767578125,-0.58935546875,1.7713999999999999
1.4045801526717556,2.1068702290076335,-1.2213740458015268,-0.080322265625,-0.121337890625,-0.592041015625,1.7731
1.4809160305343512,2.2442748091603053,-1.0687022900763359,-0.0751953125,-0.1240234375,-0.58935546875,1.7748
1.1297709923664123,2.351145038167939,-1.2671755725190839,-0.0732421875,-0.119873046875,-0.585205078125,1.7765
1.1297709923664123,2.183206106870229,-1.1450381679389312,-0.076904296875,-0.119384765625,-0.6005859375,1.7782
1.3435114503816794,2.2900763358778624,-1.2061068702290076,-0.07958984375,-0.121337890625,-0.5947265625,1.7798999999999998
1.1908396946564885,2.1526717557251906,-1.099236641221374,-0.076416015625,-0.11962890625,-0.593505859375,1.7815999999999999
0.916030534351145,2.183206106870229,-1.1450381679389312,-0.07861328125,-0.12255859375,-0.59912109375,1.7832999999999999
1.0381679389312977,2.0763358778625953,-1.2061068702290076,-0.081787109375,-0.122802734375,-0.599609375,1.785
