gyrox1,gyroy1,gyroz1,accelx1,accely1,accelz1,Time
1.450381679389313,1.297709923664122,-1.1450381679389312,-0.441650390625,-0.154541015625,-0.116455078125,0.0
1.3282442748091603,1.4809160305343512,-0.8396946564885496,-0.443115234375,-0.152587890625,-0.119873046875,0.0017
1.465648854961832,1.465648854961832,-0.9923664122137404,-0.444580078125,-0.154052734375,-0.124267578125,0.0034
1.4961832061068703,1.3435114503816794,-0.8854961832061069,-0.440673828125,-0.151123046875,-0.12353515625,0.0050999999999999995
1.4045801526717556,1.3740458015267176,-0.8854961832061069,-0.444580078125,-0.154296875,-0.126220703125,0.0068
1.1297709923664123,1.3435114503816794,-0.916030534351145,-0.441162109375,-0.1572265625,-0.115234375,0.008499999999999999
1.3740458015267176,1.2061068702290076,-0.9770992366412213,-0.447021484375,-0.15771484375,-0.1220703125,0.010199999999999999
1.5572519083969465,1.3129770992366412,-1.0687022900763359,-0.44482421875,-0.1591796875,-0.12109375,0.011899999999999999
1.3435114503816794,1.3435114503816794,-1.0534351145038168,-0.4443359375,-0.157958984375,-0.126708984375,0.0136
1.251908396946565,1.2366412213740459,-0.8549618320610687,-0.44189453125,-0.156494140625,-0.125,0.0153
1.2061068702290076,1.4809160305343512,-0.8702290076335878,-0.440185546875,-0.156494140625,-0.12060546875,0.016999999999999998
1.083969465648855,1.5267175572519085,-0.6717557251908397,-0.4404296875,-0.15576171875,-0.116455078125,0.018699999999999998
0.9312977099236641,1.3893129770992367,-0.7938931297709924,-0.444580078125,-0.158203125,-0.117431640625,0.020399999999999998
1.099236641221374,1.3740458015267176,-0.5801526717557252,-0.44091796875,-0.158203125,-0.125732421875,0.022099999999999998
0.7480916030534351,1.2671755725190839,-0.8549618320610687,-0.437744140625,-0.156494140625,-0.128173828125,0.023799999999999998
0.6870229007633588,1.3740458015267176,-0.5343511450381679,-0.439453125,-0.153076171875,-0.121337890625,0.0255
0.5190839694656488,1.2213740458015268,-0.4580152671755725,-0.4384765625,-0.153076171875,-0.12109375,0.0272
0.4732824427480916,1.282442748091603,-0.5038167938931297,-0.438232421875,-0.15234375,-0.11572265625,0.0289
0.7022900763358778,1.2061068702290076,-0.4580152671755725,-0.439697265625,-0.15185546875,-0.126708984375,0.0306
0.7022900763358778,1.3587786259541985,-0.4122137404580153,-0.439453125,-0.15380859375,-0.11474609375,0.032299999999999995
0.5343511450381679,1.3893129770992367,-0.2595419847328244,-0.4443359375,-0.155029296875,-0.116943359375,0.033999999999999996
0.7022900763358778,1.4351145038167938,-0.1984732824427481,-0.443603515625,-0.153076171875,-0.120361328125,0.035699999999999996
0.8091603053435115,1.3282442748091603,-0.2900763358778626,-0.446044921875,-0.157470703125,-0.123291015625,0.037399999999999996
0.916030534351145,1.450381679389313,-0.2748091603053435,-0.445068359375,-0.15478515625,-0.121826171875,0.039099999999999996
0.7633587786259542,1.5267175572519085,-0.21374045801526717,-0.447265625,-0.157470703125,-0.12109375,0.040799999999999996
0.7633587786259542,1.6488549618320612,-0.12213740458015267,-0.446533203125,-0.15625,-0.123291015625,0.042499999999999996
1.0534351145038168,1.6793893129770991,-0.030534351145038167,-0.445556640625,-0.156494140625,-0.122314453125,0.044199999999999996
1.0534351145038168,1.4961832061068703,-0.07633587786259542,-0.444580078125,-0.154052734375,-0.122802734375,0.045899999999999996
1.1755725190839694,1.633587786259542,-0.061068702290076333,-0.443603515625,-0.156494140625,-0.124267578125,0.047599999999999996
1.1603053435114503,1.5419847328244274,-0.04580152671755725,-0.44580078125,-0.154296875,-0.12109375,0.0493
1.3893129770992367,1.5725190839694656,-0.15267175572519084,-0.443359375,-0.155517578125,-0.1220703125,0.051
1.4198473282442747,1.3893129770992367,0.04580152671755725,-0.44287109375,-0.15283203125,-0.122802734375,0.0527
1.4961832061068703,1.5419847328244274,-0.030534351145038167,-0.446044921875,-0.150146484375,-0.109619140625,0.0544
1.1603053435114503,1.4351145038167938,0.10687022900763359,-0.444091796875,-0.15478515625,-0.12939453125,0.0561
1.3282442748091603,1.465648854961832,0.16793893129770993,-0.450439453125,-0.156005859375,-0.127197265625,0.0578
1.3282442748091603,1.4809160305343512,0.015267175572519083,-0.444580078125,-0.14990234375,-0.118896484375,0.0595
1.4351145038167938,1.2671755725190839,-0.015267175572519083,-0.447021484375,-0.16455078125,-0.120849609375,0.0612
1.4351145038167938,1.2671755725190839,0.3053435114503817,-0.447265625,-0.15869140625,-0.1201171875,0.0629
1.5419847328244274,1.297709923664122,0.0916030534351145,-0.44873046875,-0.156005859375,-0.125244140625,0.06459999999999999
2.030534351145038,1.1603053435114503,0.15267175572519084,-0.445068359375,-0.1552734375,-0.128173828125,0.0663
2.16793893129771,1.4045801526717556,0.07633587786259542,-0.444091796875,-0.158447265625,-0.127685546875,0.06799999999999999
2.16793893129771,1.4809160305343512,0.16793893129770993,-0.445068359375,-0.157958984375,-0.121337890625,0.0697
2.0610687022900764,1.7099236641221374,0.1984732824427481,-0.446044921875,-0.157470703125,-0.122802734375,0.07139999999999999
1.984732824427481,1.9083969465648856,0.0916030534351145,-0.451171875,-0.15869140625,-0.124755859375,0.0731
2.549618320610687,1.9236641221374047,-0.22900763358778625,-0.447509765625,-0.165283203125,-0.1279296875,0.07479999999999999
2.7022900763358777,2.0763358778625953,-0.10687022900763359,-0.441162109375,-0.16357421875,-0.124755859375,0.0765
2.4732824427480917,2.4580152671755724,-0.2748091603053435,-0.44482421875,-0.1630859375,-0.12548828125,0.07819999999999999
2.549618320610687,2.0763358778625953,-0.32061068702290074,-0.447021484375,-0.16162109375,-0.125,0.0799
2.717557251908397,1.9389312977099236,-0.4732824427480916,-0.447265625,-0.162109375,-0.12841796875,0.08159999999999999
2.6717557251908395,2.0610687022900764,-0.366412213740458,-0.44775390625,-0.16015625,-0.124267578125,0.0833
2.564885496183206,1.83206106870229,-0.33587786259541985,-0.445068359375,-0.161865234375,-0.1298828125,0.08499999999999999
2.595419847328244,1.9694656488549618,-0.549618320610687,-0.442626953125,-0.15869140625,-0.128662109375,0.0867
2.2290076335877864,1.8625954198473282,-0.6106870229007634,-0.443359375,-0.1591796875,-0.126220703125,0.08839999999999999
2.2442748091603053,1.6946564885496183,-0.7175572519083969,-0.4482421875,-0.15625,-0.130859375,0.0901
2.3053435114503817,1.7251908396946565,-0.7480916030534351,-0.448486328125,-0.158935546875,-0.12939453125,0.09179999999999999
2.33587786259542,1.6793893129770991,-0.9312977099236641,-0.438720703125,-0.162353515625,-0.132080078125,0.0935
2.1374045801526718,1.7557251908396947,-1.1755725190839694,-0.4501953125,-0.158203125,-0.129638671875,0.09519999999999999
2.4732824427480917,1.9236641221374047,-1.2213740458015268,-0.450439453125,-0.157958984375,-0.13134765625,0.0969
2.549618320610687,1.984732824427481,-1.1603053435114503,-0.44970703125,-0.160888671875,-0.1240234375,0.0986
2.6564885496183206,1.9236641221374047,-1.2061068702290076,-0.4453125,-0.1630859375,-0.1220703125,0.1003
2.687022900763359,2.213740458015267,-1.3435114503816794,-0.44580078125,-0.162353515625,-0.119140625,0.102
2.6717557251908395,2.1374045801526718,-1.3740458015267176,-0.445556640625,-0.15966796875,-0.131591796875,0.1037
2.6412213740458017,2.1068702290076335,-1.1450381679389312,-0.44482421875,-0.164794921875,-0.12158203125,0.1054
2.8702290076335877,1.816793893129771,-1.1145038167938932,-0.44140625,-0.1640625,-0.116455078125,0.1071
3.0839694656488548,1.9083969465648856,-1.2366412213740459,-0.445068359375,-0.1630859375,-0.11328125,0.1088
3.0381679389312977,2.0763358778625953,-1.2671755725190839,-0.448486328125,-0.159912109375,-0.11962890625,0.11049999999999999
2.9770992366412212,1.984732824427481,-1.2366412213740459,-0.441650390625,-0.162109375,-0.118408203125,0.1122
2.9618320610687023,1.9236641221374047,-1.297709923664122,-0.44287109375,-0.162353515625,-0.117431640625,0.11389999999999999
2.9923664122137406,1.8015267175572518,-1.297709923664122,-0.44091796875,-0.16162109375,-0.130615234375,0.1156
2.946564885496183,1.83206106870229,-1.3282442748091603,-0.443115234375,-0.1572265625,-0.118408203125,0.11729999999999999
2.732824427480916,1.816793893129771,-1.4045801526717556,-0.444091796875,-0.162109375,-0.121337890625,0.119
2.5343511450381677,1.9389312977099236,-1.5114503816793894,-0.442626953125,-0.163330078125,-0.1201171875,0.12069999999999999
2.549618320610687,2.0916030534351147,-1.3282442748091603,-0.442626953125,-0.15966796875,-0.127197265625,0.1224
2.366412213740458,2.045801526717557,-1.633587786259542,-0.44189453125,-0.1591796875,-0.125244140625,0.12409999999999999
2.3206106870229006,1.9236641221374047,-1.5572519083969465,-0.44091796875,-0.16015625,-0.117919921875,0.1258
2.1068702290076335,2.122137404580153,-1.4351145038167938,-0.437744140625,-0.162841796875,-0.109375,0.1275
2.2290076335877864,2.0916030534351147,-1.6946564885496183,-0.4375,-0.162353515625,-0.109375,0.12919999999999998
2.122137404580153,2.16793893129771,-1.450381679389313,-0.43896484375,-0.1591796875,-0.1279296875,0.1309
2.0610687022900764,2.015267175572519,-1.2061068702290076,-0.444580078125,-0.16015625,-0.121826171875,0.1326
1.8015267175572518,2.045801526717557,-1.3740458015267176,-0.43798828125,-0.1611328125,-0.127685546875,0.1343
1.8015267175572518,1.7099236641221374,-1.1755725190839694,-0.441162109375,-0.156494140625,-0.11865234375,0.13599999999999998
1.8778625954198473,1.6946564885496183,-1.2061068702290076,-0.441162109375,-0.155517578125,-0.12451171875,0.1377
1.786259541984733,1.8778625954198473,-0.9923664122137404,-0.443115234375,-0.156982421875,-0.12451171875,0.1394
1.8015267175572518,1.816793893129771,-0.9618320610687023,-0.44287109375,-0.15869140625,-0.123779296875,0.1411
1.8625954198473282,1.7709923664122138,-0.8549618320610687,-0.444580078125,-0.157470703125,-0.11376953125,0.14279999999999998
1.816793893129771,1.9389312977099236,-0.9923664122137404,-0.438720703125,-0.154052734375,-0.115966796875,0.1445
1.5267175572519085,2.0,-0.8549618320610687,-0.43896484375,-0.154052734375,-0.119140625,0.1462
1.5267175572519085,2.122137404580153,-0.5648854961832062,-0.443359375,-0.153076171875,-0.11572265625,0.1479
1.4351145038167938,2.2290076335877864,-0.6412213740458015,-0.442138671875,-0.15869140625,-0.116943359375,0.14959999999999998
1.450381679389313,2.213740458015267,-0.4122137404580153,-0.442626953125,-0.152587890625,-0.11572265625,0.1513
1.2061068702290076,2.1526717557251906,-0.3053435114503817,-0.438232421875,-0.155517578125,-0.128173828125,0.153
0.8244274809160306,2.2900763358778624,-0.22900763358778625,-0.443115234375,-0.16015625,-0.117431640625,0.1547
0.7633587786259542,1.984732824427481,-0.15267175572519084,-0.44482421875,-0.151611328125,-0.116455078125,0.15639999999999998
0.6564885496183206,2.030534351145038,-0.15267175572519084,-0.4453125,-0.15185546875,-0.121337890625,0.1581
0.6717557251908397,2.0916030534351147,-0.030534351145038167,-0.4404296875,-0.1572265625,-0.1142578125,0.1598
0.3816793893129771,1.83206106870229,0.07633587786259542,-0.447021484375,-0.15380859375,-0.11572265625,0.1615
0.2900763358778626,1.8625954198473282,0.07633587786259542,-0.444091796875,-0.156494140625,-0.1240234375,0.16319999999999998
0.2900763358778626,2.0,0.030534351145038167,-0.44482421875,-0.158203125,-0.125,0.1649
-0.04580152671755725,1.8931297709923665,0.2595419847328244,-0.441650390625,-0.158447265625,-0.12109375,0.1666
-0.030534351145038167,1.7709923664122138,-0.061068702290076333,-0.44921875,-0.1494140625,-0.12841796875,0.16829999999999998
0.12213740458015267,1.8473282442748091,0.13740458015267176,-0.44482421875,-0.156982421875,-0.11474609375,0.16999999999999998
0.21374045801526717,1.7557251908396947,0.12213740458015267,-0.4443359375,-0.158447265625,-0.126953125,0.1717
0.12213740458015267,1.786259541984733,0.0,-0.444580078125,-0.155029296875,-0.135009765625,0.1734
0.24427480916030533,1.8473282442748091,0.10687022900763359,-0.444091796875,-0.1572265625,-0.1279296875,0.17509999999999998
-0.015267175572519083,1.7709923664122138,0.33587786259541985,-0.446044921875,-0.154541015625,-0.1142578125,0.17679999999999998
0.061068702290076333,1.816793893129771,0.24427480916030533,-0.4384765625,-0.161865234375,-0.117431640625,0.1785
0.16793893129770993,1.9236641221374047,0.5038167938931297,-0.444091796875,-0.162353515625,-0.1259765625,0.1802
0.2595419847328244,1.7251908396946565,0.24427480916030533,-0.4453125,-0.15576171875,-0.124755859375,0.18189999999999998
0.5954198473282443,2.015267175572519,0.21374045801526717,-0.443359375,-0.157470703125,-0.13671875,0.18359999999999999
0.6564885496183206,2.16793893129771,0.2595419847328244,-0.44384765625,-0.1591796875,-0.121826171875,0.1853
0.9465648854961832,2.2748091603053435,0.4732824427480916,-0.440673828125,-0.16064453125,-0.125732421875,0.187
1.0229007633587786,2.16793893129771,0.3053435114503817,-0.447509765625,-0.16357421875,-0.128662109375,0.18869999999999998
1.2671755725190839,2.4885496183206106,0.2900763358778626,-0.448486328125,-0.160400390625,-0.1220703125,0.19039999999999999
1.3587786259541985,2.4122137404580153,0.04580152671755725,-0.44384765625,-0.159912109375,-0.12060546875,0.1921
1.2213740458015268,2.6412213740458017,0.22900763358778625,-0.44384765625,-0.164794921875,-0.127197265625,0.1938
1.099236641221374,2.5801526717557253,-0.04580152671755725,-0.43994140625,-0.161376953125,-0.128662109375,0.19549999999999998
1.1450381679389312,2.687022900763359,0.04580152671755725,-0.44677734375,-0.1630859375,-0.1201171875,0.1972
1.1145038167938932,2.50381679389313,-0.07633587786259542,-0.4384765625,-0.1552734375,-0.1220703125,0.1989
1.0076335877862594,2.3053435114503817,-0.061068702290076333,-0.4423828125,-0.156005859375,-0.1259765625,0.2006
0.916030534351145,2.0763358778625953,-0.2595419847328244,-0.44140625,-0.153564453125,-0.125,0.20229999999999998
0.9923664122137404,2.0763358778625953,-0.13740458015267176,-0.4423828125,-0.16015625,-0.12548828125,0.204
0.7022900763358778,1.9236641221374047,-0.22900763358778625,-0.443603515625,-0.16455078125,-0.121337890625,0.2057
1.3129770992366412,1.816793893129771,-0.22900763358778625,-0.445556640625,-0.159912109375,-0.121337890625,0.2074
1.6030534351145038,1.816793893129771,-0.549618320610687,-0.443359375,-0.165283203125,-0.1298828125,0.20909999999999998
2.0610687022900764,1.8473282442748091,-0.6870229007633588,-0.4384765625,-0.163330078125,-0.121826171875,0.2108
2.3053435114503817,1.9083969465648856,-0.8244274809160306,-0.44580078125,-0.167236328125,-0.1171875,0.2125
2.564885496183206,2.0763358778625953,-0.7938931297709924,-0.44287109375,-0.1669921875,-0.116943359375,0.2142
3.0381679389312977,2.0763358778625953,-0.9923664122137404,-0.44189453125,-0.166259765625,-0.117431640625,0.21589999999999998
3.145038167938931,1.7709923664122138,-1.1145038167938932,-0.4453125,-0.160888671875,-0.116455078125,0.2176
2.900763358778626,1.9694656488549618,-1.297709923664122,-0.444580078125,-0.161865234375,-0.10693359375,0.2193
3.099236641221374,2.0,-1.3282442748091603,-0.44091796875,-0.162109375,-0.112548828125,0.22099999999999997
3.114503816793893,1.9236641221374047,-1.465648854961832,-0.444580078125,-0.15771484375,-0.118408203125,0.22269999999999998
2.7786259541984735,1.8473282442748091,-1.5114503816793894,-0.43798828125,-0.166259765625,-0.117431640625,0.2244
2.7480916030534353,1.83206106870229,-1.3740458015267176,-0.4453125,-0.16455078125,-0.122314453125,0.2261
2.549618320610687,1.786259541984733,-1.3740458015267176,-0.4453125,-0.16064453125,-0.122314453125,0.22779999999999997
2.3053435114503817,1.7099236641221374,-1.3893129770992367,-0.446044921875,-0.158203125,-0.12353515625,0.22949999999999998
2.351145038167939,1.5419847328244274,-1.5419847328244274,-0.44091796875,-0.1572265625,-0.1240234375,0.2312
2.0610687022900764,1.5419847328244274,-1.7557251908396947,-0.444091796875,-0.16064453125,-0.122314453125,0.2329
2.030534351145038,1.6488549618320612,-1.6488549618320612,-0.44287109375,-0.1611328125,-0.1142578125,0.23459999999999998
2.1526717557251906,1.5877862595419847,-1.465648854961832,-0.439453125,-0.163818359375,-0.12109375,0.23629999999999998
1.5877862595419847,1.5877862595419847,-1.6641221374045803,-0.4482421875,-0.160888671875,-0.117919921875,0.238
1.7709923664122138,1.4809160305343512,-1.450381679389313,-0.447265625,-0.163330078125,-0.113525390625,0.2397
1.83206106870229,1.5877862595419847,-1.5877862595419847,-0.447021484375,-0.16015625,-0.12060546875,0.24139999999999998
1.8015267175572518,1.8473282442748091,-1.5267175572519085,-0.440185546875,-0.157470703125,-0.126220703125,0.24309999999999998
1.786259541984733,1.83206106870229,-1.7251908396946565,-0.443359375,-0.157958984375,-0.1201171875,0.2448
1.7557251908396947,1.5725190839694656,-1.7099236641221374,-0.44287109375,-0.158447265625,-0.124267578125,0.2465
1.6488549618320612,1.7099236641221374,-1.6488549618320612,-0.447998046875,-0.157958984375,-0.117431640625,0.24819999999999998
1.5419847328244274,1.6793893129770991,-1.5267175572519085,-0.443603515625,-0.1591796875,-0.115234375,0.24989999999999998
1.3129770992366412,1.3740458015267176,-1.5725190839694656,-0.439208984375,-0.159423828125,-0.1171875,0.2516
0.916030534351145,1.4198473282442747,-1.282442748091603,-0.442626953125,-0.154541015625,-0.11767578125,0.25329999999999997
0.549618320610687,1.3740458015267176,-1.5114503816793894,-0.4453125,-0.1630859375,-0.123779296875,0.255
0.3511450381679389,1.3740458015267176,-1.5572519083969465,-0.446044921875,-0.157958984375,-0.119140625,0.2567
0.44274809160305345,1.3129770992366412,-1.4809160305343512,-0.441650390625,-0.158203125,-0.12646484375,0.25839999999999996
0.030534351145038167,1.2213740458015268,-1.282442748091603,-0.442138671875,-0.162841796875,-0.12451171875,0.2601
-0.32061068702290074,1.1145038167938932,-1.4198473282442747,-0.4443359375,-0.16162109375,-0.1201171875,0.2618
-0.32061068702290074,1.2366412213740459,-1.2213740458015268,-0.44091796875,-0.15966796875,-0.11669921875,0.2635
-0.5343511450381679,1.1297709923664123,-1.465648854961832,-0.44189453125,-0.15576171875,-0.119140625,0.2652
-0.6106870229007634,1.2061068702290076,-1.0076335877862594,-0.44091796875,-0.15771484375,-0.115478515625,0.26689999999999997
-0.7022900763358778,1.297709923664122,-0.8244274809160306,-0.443603515625,-0.157958984375,-0.119384765625,0.2686
-0.6717557251908397,1.4198473282442747,-0.8854961832061069,-0.442138671875,-0.155517578125,-0.121826171875,0.2703
-0.9312977099236641,1.5572519083969465,-0.9618320610687023,-0.44287109375,-0.153076171875,-0.122314453125,0.27199999999999996
-0.7022900763358778,1.5572519083969465,-0.7786259541984732,-0.446044921875,-0.1552734375,-0.116943359375,0.2737
-0.6259541984732825,1.3129770992366412,-0.5954198473282443,-0.441650390625,-0.14990234375,-0.12255859375,0.2754
-0.9618320610687023,1.6030534351145038,-0.6412213740458015,-0.441650390625,-0.15478515625,-0.127685546875,0.27709999999999996
-1.3893129770992367,1.6946564885496183,-0.5648854961832062,-0.44384765625,-0.15234375,-0.131103515625,0.2788
-1.1603053435114503,1.4961832061068703,-0.48854961832061067,-0.445068359375,-0.15234375,-0.12060546875,0.28049999999999997
-1.1603053435114503,1.618320610687023,-0.6259541984732825,-0.440185546875,-0.15576171875,-0.1201171875,0.2822
-1.1908396946564885,1.5419847328244274,-0.3511450381679389,-0.446044921875,-0.15478515625,-0.116943359375,0.2839
-1.3282442748091603,1.5725190839694656,-0.5190839694656488,-0.439453125,-0.1572265625,-0.124755859375,0.28559999999999997
-1.7709923664122138,1.618320610687023,-0.3969465648854962,-0.43994140625,-0.154541015625,-0.12255859375,0.2873
-1.297709923664122,1.5725190839694656,-0.48854961832061067,-0.446533203125,-0.152099609375,-0.11865234375,0.289
-1.3893129770992367,1.6030534351145038,-0.4580152671755725,-0.440185546875,-0.15185546875,-0.12109375,0.29069999999999996
-1.0381679389312977,1.6946564885496183,-0.7022900763358778,-0.4365234375,-0.152099609375,-0.123291015625,0.2924
-0.9618320610687023,1.4045801526717556,-0.5801526717557252,-0.442626953125,-0.1572265625,-0.115966796875,0.2941
-0.8854961832061069,1.2213740458015268,-0.8244274809160306,-0.44189453125,-0.154052734375,-0.116943359375,0.2958
-0.7786259541984732,1.3282442748091603,-0.916030534351145,-0.439697265625,-0.15478515625,-0.110595703125,0.2975
-0.5648854961832062,1.2671755725190839,-0.7480916030534351,-0.439208984375,-0.154296875,-0.11962890625,0.29919999999999997
-0.44274809160305345,1.4045801526717556,-0.6564885496183206,-0.4453125,-0.154052734375,-0.118408203125,0.3009
-0.12213740458015267,1.1908396946564885,-0.8244274809160306,-0.442626953125,-0.154541015625,-0.116943359375,0.3026
-0.13740458015267176,1.251908396946565,-0.8702290076335878,-0.441162109375,-0.154541015625,-0.124267578125,0.30429999999999996
0.07633587786259542,1.251908396946565,-1.1450381679389312,-0.436279296875,-0.157958984375,-0.109619140625,0.306
0.22900763358778625,1.4045801526717556,-0.8702290076335878,-0.43603515625,-0.15625,-0.116455078125,0.3077
0.3969465648854962,1.4351145038167938,-1.1297709923664123,-0.443603515625,-0.156005859375,-0.128173828125,0.3094
0.6106870229007634,1.4198473282442747,-0.9923664122137404,-0.43798828125,-0.1591796875,-0.119873046875,0.3111
0.44274809160305345,1.3740458015267176,-1.251908396946565,-0.439453125,-0.15869140625,-0.124267578125,0.31279999999999997
0.7480916030534351,1.3435114503816794,-1.2671755725190839,-0.4375,-0.158935546875,-0.12451171875,0.3145
1.1450381679389312,1.3893129770992367,-1.4961832061068703,-0.43798828125,-0.163818359375,-0.120361328125,0.3162
0.9618320610687023,1.2366412213740459,-1.5267175572519085,-0.439453125,-0.1591796875,-0.12255859375,0.31789999999999996
1.3893129770992367,1.083969465648855,-1.5419847328244274,-0.440673828125,-0.158203125,-0.1162109375,0.3196
1.3435114503816794,1.0229007633587786,-1.6488549618320612,-0.4443359375,-0.159912109375,-0.109130859375,0.3213
1.5419847328244274,1.2061068702290076,-1.7404580152671756,-0.43896484375,-0.164794921875,-0.123779296875,0.323
1.6793893129770991,1.282442748091603,-1.8015267175572518,-0.4443359375,-0.1640625,-0.115966796875,0.3247
1.7404580152671756,1.2213740458015268,-2.198473282442748,-0.4443359375,-0.154296875,-0.119384765625,0.32639999999999997
1.4351145038167938,1.1908396946564885,-2.198473282442748,-0.4423828125,-0.157470703125,-0.1142578125,0.3281
1.3587786259541985,1.1297709923664123,-2.122137404580153,-0.4453125,-0.154296875,-0.11474609375,0.3298
1.5572519083969465,1.1908396946564885,-2.183206106870229,-0.4443359375,-0.156494140625,-0.11962890625,0.33149999999999996
1.083969465648855,0.9618320610687023,-2.3206106870229006,-0.440673828125,-0.160888671875,-0.119384765625,0.3332
0.9923664122137404,0.8091603053435115,-2.3053435114503817,-0.443603515625,-0.1552734375,-0.126708984375,0.3349
0.732824427480916,0.7938931297709924,-2.3053435114503817,-0.440185546875,-0.153076171875,-0.12451171875,0.33659999999999995
0.9465648854961832,0.6717557251908397,-2.3053435114503817,-0.44189453125,-0.155517578125,-0.11767578125,0.3383
0.7633587786259542,0.5190839694656488,-2.2290076335877864,-0.4482421875,-0.158447265625,-0.117919921875,0.33999999999999997
0.7480916030534351,0.5954198473282443,-2.427480916030534,-0.445556640625,-0.15869140625,-0.11865234375,0.3417
0.9465648854961832,0.5038167938931297,-2.4885496183206106,-0.441162109375,-0.16259765625,-0.1181640625,0.3434
0.8244274809160306,0.44274809160305345,-2.6717557251908395,-0.441162109375,-0.15478515625,-0.12548828125,0.34509999999999996
0.9770992366412213,0.7480916030534351,-2.564885496183206,-0.44677734375,-0.15771484375,-0.125,0.3468
0.8396946564885496,0.33587786259541985,-2.4885496183206106,-0.44677734375,-0.15869140625,-0.122314453125,0.3485
0.732824427480916,0.3969465648854962,-2.4580152671755724,-0.447509765625,-0.159912109375,-0.123291015625,0.35019999999999996
0.9770992366412213,0.366412213740458,-2.351145038167939,-0.44677734375,-0.157958984375,-0.125244140625,0.3519
0.8549618320610687,0.3053435114503817,-2.213740458015267,-0.447998046875,-0.16259765625,-0.125,0.35359999999999997
0.5954198473282443,0.183206106870229,-2.2748091603053435,-0.445556640625,-0.158203125,-0.1259765625,0.3553
0.4122137404580153,0.2595419847328244,-2.3206106870229006,-0.44921875,-0.155517578125,-0.121337890625,0.357
0.4732824427480916,0.4122137404580153,-2.4427480916030535,-0.442626953125,-0.16064453125,-0.123779296875,0.35869999999999996
0.2595419847328244,0.2748091603053435,-2.2595419847328246,-0.4462890625,-0.15478515625,-0.123291015625,0.3604
0.1984732824427481,0.21374045801526717,-1.984732824427481,-0.442626953125,-0.1591796875,-0.1240234375,0.3621
-0.061068702290076333,0.33587786259541985,-2.0763358778625953,-0.445068359375,-0.158935546875,-0.11962890625,0.36379999999999996
-0.2748091603053435,0.3053435114503817,-1.8625954198473282,-0.44677734375,-0.157470703125,-0.11376953125,0.3655
-0.4122137404580153,0.3511450381679389,-1.816793893129771,-0.446533203125,-0.1591796875,-0.1279296875,0.36719999999999997
-0.4732824427480916,0.5801526717557252,-1.8473282442748091,-0.44970703125,-0.156982421875,-0.119873046875,0.3689
-0.8396946564885496,0.5954198473282443,-1.7251908396946565,-0.449462890625,-0.158447265625,-0.126220703125,0.3706
-0.916030534351145,0.6412213740458015,-1.7557251908396947,-0.4501953125,-0.15380859375,-0.1201171875,0.37229999999999996
-1.0534351145038168,0.7022900763358778,-1.5725190839694656,-0.447998046875,-0.15966796875,-0.124267578125,0.374
-0.8091603053435115,0.7938931297709924,-1.4351145038167938,-0.442626953125,-0.16064453125,-0.12548828125,0.3757
-1.0687022900763359,0.7022900763358778,-1.6030534351145038,-0.44921875,-0.1552734375,-0.120849609375,0.37739999999999996
-0.9770992366412213,0.6564885496183206,-1.6030534351145038,-0.4482421875,-0.15673828125,-0.129150390625,0.3791
-1.251908396946565,0.7633587786259542,-1.251908396946565,-0.451416015625,-0.155517578125,-0.123291015625,0.38079999999999997
-1.0381679389312977,0.6717557251908397,-1.3129770992366412,-0.447509765625,-0.1552734375,-0.11865234375,0.38249999999999995
-0.9770992366412213,0.7786259541984732,-1.297709923664122,-0.449951171875,-0.155517578125,-0.1220703125,0.3842
-0.8244274809160306,0.916030534351145,-1.3435114503816794,-0.44873046875,-0.15673828125,-0.1259765625,0.38589999999999997
-1.1297709923664123,0.8854961832061069,-1.1755725190839694,-0.44970703125,-0.15478515625,-0.121337890625,0.3876
-0.8854961832061069,0.8396946564885496,-1.2366412213740459,-0.446533203125,-0.158203125,-0.12255859375,0.3893
-0.9465648854961832,1.0381679389312977,-1.0534351145038168,-0.44482421875,-0.156982421875,-0.128173828125,0.39099999999999996
-0.8702290076335878,1.099236641221374,-1.251908396946565,-0.443603515625,-0.16162109375,-0.121337890625,0.3927
-0.7175572519083969,1.1297709923664123,-0.9618320610687023,-0.444580078125,-0.154052734375,-0.121337890625,0.3944
-0.44274809160305345,1.3282442748091603,-0.9007633587786259,-0.44482421875,-0.159423828125,-0.122314453125,0.39609999999999995
-0.4732824427480916,1.5419847328244274,-0.8854961832061069,-0.442626953125,-0.159912109375,-0.123779296875,0.3978
-0.42748091603053434,1.4045801526717556,-1.1603053435114503,-0.4482421875,-0.160400390625,-0.1201171875,0.39949999999999997
0.015267175572519083,1.5267175572519085,-1.099236641221374,-0.446533203125,-0.16259765625,-0.1259765625,0.4012
0.16793893129770993,1.6030534351145038,-1.1297709923664123,-0.44921875,-0.162841796875,-0.121826171875,0.4029
0.3053435114503817,1.6946564885496183,-1.083969465648855,-0.442138671875,-0.162841796875,-0.114013671875,0.40459999999999996
0.5038167938931297,1.816793893129771,-1.3740458015267176,-0.44091796875,-0.165283203125,-0.126708984375,0.4063
0.6259541984732825,1.4961832061068703,-1.3435114503816794,-0.43798828125,-0.1611328125,-0.119140625,0.408
0.4122137404580153,1.4809160305343512,-1.4198473282442747,-0.437744140625,-0.162109375,-0.12451171875,0.40969999999999995
0.5038167938931297,1.3282442748091603,-1.5114503816793894,-0.44140625,-0.159912109375,-0.1259765625,0.4114
0.549618320610687,0.8091603053435115,-1.5877862595419847,-0.44189453125,-0.156982421875,-0.115966796875,0.41309999999999997
0.3969465648854962,0.8091603053435115,-1.618320610687023,-0.44091796875,-0.162841796875,-0.115478515625,0.4148
0.5038167938931297,0.6870229007633588,-1.83206106870229,-0.43505859375,-0.160400390625,-0.121826171875,0.4165
0.32061068702290074,0.33587786259541985,-1.7251908396946565,-0.44091796875,-0.1572265625,-0.12060546875,0.41819999999999996
0.2595419847328244,0.183206106870229,-1.786259541984733,-0.446044921875,-0.155029296875,-0.11962890625,0.4199
0.0916030534351145,-0.030534351145038167,-1.633587786259542,-0.438720703125,-0.156982421875,-0.12451171875,0.4216
0.366412213740458,0.030534351145038167,-1.8931297709923665,-0.440185546875,-0.158935546875,-0.12353515625,0.42329999999999995
-0.015267175572519083,0.1984732824427481,-1.8015267175572518,-0.43994140625,-0.156982421875,-0.12548828125,0.425
0.04580152671755725,0.07633587786259542,-1.984732824427481,-0.445556640625,-0.16064453125,-0.12548828125,0.42669999999999997
0.12213740458015267,0.16793893129770993,-1.8778625954198473,-0.446044921875,-0.159912109375,-0.1298828125,0.4284
0.366412213740458,0.3969465648854962,-1.984732824427481,-0.445068359375,-0.160888671875,-0.1064453125,0.4301
0.3053435114503817,0.32061068702290074,-2.2290076335877864,-0.44140625,-0.1572265625,-0.1162109375,0.43179999999999996
0.42748091603053434,0.2595419847328244,-2.2748091603053435,-0.44580078125,-0.158203125,-0.127197265625,0.4335
0.6259541984732825,0.5343511450381679,-2.045801526717557,-0.44287109375,-0.15625,-0.119384765625,0.4352
0.5648854961832062,0.42748091603053434,-2.213740458015267,-0.4404296875,-0.154052734375,-0.1171875,0.43689999999999996
0.4732824427480916,0.4732824427480916,-2.2595419847328246,-0.44482421875,-0.159423828125,-0.11865234375,0.4386
0.5038167938931297,0.21374045801526717,-2.213740458015267,-0.43896484375,-0.157470703125,-0.12158203125,0.44029999999999997
0.6106870229007634,0.13740458015267176,-2.2290076335877864,-0.441162109375,-0.156494140625,-0.12890625,0.44199999999999995
0.5648854961832062,0.2595419847328244,-2.2290076335877864,-0.44384765625,-0.155517578125,-0.12158203125,0.4437
0.21374045801526717,0.12213740458015267,-2.0916030534351147,-0.441650390625,-0.160888671875,-0.124755859375,0.44539999999999996
0.2900763358778626,-0.061068702290076333,-2.1526717557251906,-0.4404296875,-0.150390625,-0.125,0.4471
0.3969465648854962,-0.0916030534351145,-2.0610687022900764,-0.44189453125,-0.155517578125,-0.12548828125,0.4488
0.0916030534351145,-0.0916030534351145,-1.984732824427481,-0.441162109375,-0.151611328125,-0.117919921875,0.45049999999999996
0.04580152671755725,-0.16793893129770993,-2.0,-0.4384765625,-0.153076171875,-0.118896484375,0.4522
0.0916030534351145,-0.183206106870229,-1.984732824427481,-0.438720703125,-0.15576171875,-0.11865234375,0.45389999999999997
-0.16793893129770993,-0.04580152671755725,-2.015267175572519,-0.44287109375,-0.159423828125,-0.126708984375,0.45559999999999995
-0.24427480916030533,-0.24427480916030533,-1.7557251908396947,-0.444580078125,-0.157470703125,-0.1240234375,0.4573
-0.4122137404580153,0.10687022900763359,-1.6641221374045803,-0.4462890625,-0.153564453125,-0.120361328125,0.45899999999999996
-0.5343511450381679,0.0916030534351145,-1.8473282442748091,-0.4443359375,-0.15625,-0.117919921875,0.4607
-0.5954198473282443,0.1984732824427481,-1.7404580152671756,-0.447265625,-0.152099609375,-0.127685546875,0.4624
-0.6259541984732825,0.16793893129770993,-1.6030534351145038,-0.444091796875,-0.155029296875,-0.125244140625,0.46409999999999996
-0.44274809160305345,0.33587786259541985,-1.6488549618320612,-0.44580078125,-0.154541015625,-0.123291015625,0.4658
-0.3511450381679389,0.3511450381679389,-1.4045801526717556,-0.445556640625,-0.155029296875,-0.12109375,0.46749999999999997
-0.44274809160305345,0.2595419847328244,-1.3893129770992367,-0.447509765625,-0.14697265625,-0.126220703125,0.46919999999999995
-0.48854961832061067,0.3053435114503817,-1.5572519083969465,-0.442626953125,-0.15478515625,-0.120361328125,0.4709
-0.3969465648854962,0.3053435114503817,-1.4198473282442747,-0.436767578125,-0.152587890625,-0.123291015625,0.47259999999999996
-0.16793893129770993,0.3816793893129771,-1.450381679389313,-0.437744140625,-0.158203125,-0.1240234375,0.4743
-0.2900763358778626,0.42748091603053434,-1.2366412213740459,-0.441162109375,-0.154052734375,-0.118896484375,0.476
-0.549618320610687,0.5190839694656488,-1.297709923664122,-0.445556640625,-0.149169921875,-0.115966796875,0.47769999999999996
-0.6564885496183206,0.7786259541984732,-1.2366412213740459,-0.443603515625,-0.155029296875,-0.1201171875,0.4794
-0.5801526717557252,0.7938931297709924,-1.2366412213740459,-0.443603515625,-0.1513671875,-0.11865234375,0.48109999999999997
-0.6717557251908397,0.6106870229007634,-1.1908396946564885,-0.4482421875,-0.15673828125,-0.12353515625,0.48279999999999995
-0.6412213740458015,0.4580152671755725,-0.9923664122137404,-0.44091796875,-0.15771484375,-0.1220703125,0.4845
-0.9007633587786259,0.3816793893129771,-1.1603053435114503,-0.441162109375,-0.14990234375,-0.121337890625,0.48619999999999997
-0.9007633587786259,0.366412213740458,-1.0076335877862594,-0.44287109375,-0.150390625,-0.1220703125,0.4879
-1.0381679389312977,0.2595419847328244,-0.9007633587786259,-0.44287109375,-0.154052734375,-0.12060546875,0.4896
-0.8854961832061069,0.21374045801526717,-0.8549618320610687,-0.446044921875,-0.152099609375,-0.123779296875,0.49129999999999996
-0.8244274809160306,0.061068702290076333,-0.8702290076335878,-0.444091796875,-0.15576171875,-0.11962890625,0.493
-0.9465648854961832,0.21374045801526717,-0.732824427480916,-0.447998046875,-0.156982421875,-0.119873046875,0.4947
-0.5190839694656488,0.22900763358778625,-0.8396946564885496,-0.4453125,-0.15283203125,-0.119140625,0.49639999999999995
-0.32061068702290074,0.3053435114503817,-0.9618320610687023,-0.446533203125,-0.15576171875,-0.120849609375,0.4981
-0.22900763358778625,0.5190839694656488,-0.7480916030534351,-0.4453125,-0.15234375,-0.124267578125,0.49979999999999997
0.183206106870229,0.7175572519083969,-0.9465648854961832,-0.447021484375,-0.156494140625,-0.118408203125,0.5015
0.3969465648854962,0.5801526717557252,-0.916030534351145,-0.44482421875,-0.15625,-0.121826171875,0.5032
0.42748091603053434,0.5801526717557252,-0.9923664122137404,-0.4453125,-0.157470703125,-0.1201171875,0.5049
0.4732824427480916,0.8244274809160306,-1.0534351145038168,-0.450927734375,-0.153564453125,-0.12158203125,0.5065999999999999
0.24427480916030533,0.6412213740458015,-0.7022900763358778,-0.4443359375,-0.157470703125,-0.1259765625,0.5083
0.22900763358778625,0.3969465648854962,-1.1450381679389312,-0.447509765625,-0.156494140625,-0.1318359375,0.51
0.030534351145038167,0.5954198473282443,-0.9770992366412213,-0.447021484375,-0.155517578125,-0.126220703125,0.5116999999999999
0.0,0.8091603053435115,-0.9618320610687023,-0.449951171875,-0.154296875,-0.1181640625,0.5134
0.07633587786259542,0.6717557251908397,-1.1450381679389312,-0.45263671875,-0.157470703125,-0.12255859375,0.5151
-0.015267175572519083,0.732824427480916,-1.1755725190839694,-0.44970703125,-0.1591796875,-0.121337890625,0.5167999999999999
-0.015267175572519083,0.7633587786259542,-1.2671755725190839,-0.4462890625,-0.154541015625,-0.1279296875,0.5185
-0.0916030534351145,0.8549618320610687,-1.5114503816793894,-0.447021484375,-0.15576171875,-0.129638671875,0.5202
-0.21374045801526717,0.8396946564885496,-1.3740458015267176,-0.447265625,-0.15478515625,-0.132568359375,0.5218999999999999
-0.3511450381679389,0.7633587786259542,-1.6641221374045803,-0.449951171875,-0.162353515625,-0.12744140625,0.5236
-0.6412213740458015,0.8091603053435115,-1.5572519083969465,-0.4423828125,-0.158935546875,-0.122802734375,0.5253
-0.7938931297709924,0.9465648854961832,-1.633587786259542,-0.445068359375,-0.155029296875,-0.12109375,0.527
-0.732824427480916,0.8854961832061069,-1.4045801526717556,-0.447265625,-0.159912109375,-0.12939453125,0.5287
-0.5190839694656488,0.7938931297709924,-1.9389312977099236,-0.451904296875,-0.157958984375,-0.126220703125,0.5304
-0.6717557251908397,0.8549618320610687,-1.8473282442748091,-0.447998046875,-0.16015625,-0.120849609375,0.5321
-0.7938931297709924,0.6564885496183206,-1.7251908396946565,-0.445556640625,-0.161865234375,-0.1259765625,0.5337999999999999
-0.549618320610687,0.5954198473282443,-1.6641221374045803,-0.44873046875,-0.160888671875,-0.118896484375,0.5355
-0.3053435114503817,0.4580152671755725,-1.786259541984733,-0.44921875,-0.15966796875,-0.125,0.5372
-0.5038167938931297,0.366412213740458,-1.8778625954198473,-0.449462890625,-0.157958984375,-0.1279296875,0.5388999999999999
-0.3969465648854962,0.5190839694656488,-1.8778625954198473,-0.45166015625,-0.158203125,-0.12451171875,0.5406
-0.7786259541984732,0.3053435114503817,-1.633587786259542,-0.447021484375,-0.156494140625,-0.12109375,0.5423
-0.4580152671755725,-0.13740458015267176,-1.7404580152671756,-0.446044921875,-0.15869140625,-0.1240234375,0.5439999999999999
-0.8091603053435115,-0.1984732824427481,-1.7557251908396947,-0.447021484375,-0.166015625,-0.124267578125,0.5457
-1.1603053435114503,-0.0916030534351145,-1.7709923664122138,-0.446044921875,-0.159423828125,-0.125244140625,0.5474
-1.0687022900763359,-0.13740458015267176,-1.633587786259542,-0.451171875,-0.15673828125,-0.11572265625,0.5490999999999999
-0.9312977099236641,-0.0916030534351145,-1.83206106870229,-0.449462890625,-0.162353515625,-0.119384765625,0.5508
-0.9770992366412213,0.21374045801526717,-1.7251908396946565,-0.45068359375,-0.16015625,-0.128173828125,0.5525
-1.2061068702290076,0.5190839694656488,-1.6030534351145038,-0.451904296875,-0.164306640625,-0.12548828125,0.5541999999999999
-1.297709923664122,0.4580152671755725,-1.4198473282442747,-0.449462890625,-0.158447265625,-0.12646484375,0.5559
-1.251908396946565,0.8854961832061069,-1.6641221374045803,-0.448974609375,-0.15869140625,-0.12255859375,0.5576
-1.083969465648855,1.0687022900763359,-1.450381679389313,-0.4501953125,-0.16064453125,-0.12646484375,0.5593
-0.8549618320610687,1.4198473282442747,-1.4961832061068703,-0.445068359375,-0.16259765625,-0.123291015625,0.5609999999999999
-0.6412213740458015,1.7251908396946565,-1.4809160305343512,-0.4462890625,-0.158447265625,-0.125732421875,0.5627
-0.6717557251908397,2.0,-1.6793893129770991,-0.449462890625,-0.161376953125,-0.1201171875,0.5644
-0.2595419847328244,2.2442748091603053,-1.7099236641221374,-0.44482421875,-0.156005859375,-0.118896484375,0.5660999999999999
0.10687022900763359,2.1526717557251906,-1.9694656488549618,-0.445068359375,-0.158203125,-0.113525390625,0.5678
-0.015267175572519083,1.9694656488549618,-1.8625954198473282,-0.444091796875,-0.158447265625,-0.111572265625,0.5695
0.3511450381679389,1.9236641221374047,-1.633587786259542,-0.444580078125,-0.160400390625,-0.117919921875,0.5711999999999999
0.5190839694656488,1.8473282442748091,-2.015267175572519,-0.4443359375,-0.156005859375,-0.12109375,0.5729
0.5343511450381679,1.4198473282442747,-2.0,-0.44287109375,-0.158203125,-0.11865234375,0.5746
0.48854961832061067,1.297709923664122,-1.83206106870229,-0.443359375,-0.156494140625,-0.1181640625,0.5762999999999999
0.48854961832061067,0.916030534351145,-1.9694656488549618,-0.443115234375,-0.15380859375,-0.1142578125,0.578
0.3511450381679389,0.7022900763358778,-1.8473282442748091,-0.44287109375,-0.15185546875,-0.124755859375,0.5797
0.1984732824427481,0.5038167938931297,-1.8473282442748091,-0.44482421875,-0.15771484375,-0.115478515625,0.5813999999999999
0.13740458015267176,0.21374045801526717,-1.8015267175572518,-0.441650390625,-0.157958984375,-0.11865234375,0.5831
0.16793893129770993,0.3511450381679389,-2.16793893129771,-0.442626953125,-0.155029296875,-0.124755859375,0.5848
0.13740458015267176,0.3816793893129771,-1.8931297709923665,-0.447021484375,-0.160400390625,-0.12451171875,0.5865
0.549618320610687,0.3969465648854962,-2.030534351145038,-0.4501953125,-0.162353515625,-0.123046875,0.5882
0.5954198473282443,0.6259541984732825,-2.0,-0.444580078125,-0.159912109375,-0.126220703125,0.5899
0.732824427480916,0.9770992366412213,-2.351145038167939,-0.443359375,-0.159912109375,-0.1240234375,0.5916
0.9770992366412213,1.2671755725190839,-2.3969465648854964,-0.445068359375,-0.15869140625,-0.1220703125,0.5932999999999999
1.0076335877862594,1.6793893129770991,-2.33587786259542,-0.44677734375,-0.157958984375,-0.132568359375,0.595
1.099236641221374,1.786259541984733,-2.4122137404580153,-0.445068359375,-0.157470703125,-0.1259765625,0.5967
1.1603053435114503,2.0610687022900764,-2.4580152671755724,-0.441650390625,-0.157958984375,-0.134033203125,0.5983999999999999
1.1755725190839694,2.015267175572519,-2.4885496183206106,-0.447509765625,-0.156982421875,-0.119873046875,0.6001
1.2366412213740459,1.9236641221374047,-2.549618320610687,-0.44580078125,-0.156494140625,-0.130126953125,0.6018
1.282442748091603,2.015267175572519,-2.4427480916030535,-0.4384765625,-0.153564453125,-0.122802734375,0.6034999999999999
1.1755725190839694,1.8625954198473282,-2.5801526717557253,-0.440185546875,-0.156494140625,-0.11474609375,0.6052
1.099236641221374,1.6641221374045803,-2.6564885496183206,-0.44091796875,-0.1552734375,-0.127685546875,0.6069
1.3129770992366412,1.6793893129770991,-2.4122137404580153,-0.44287109375,-0.156494140625,-0.1259765625,0.6085999999999999
1.2061068702290076,1.5877862595419847,-2.6717557251908395,-0.4423828125,-0.157470703125,-0.122314453125,0.6103
1.083969465648855,1.4809160305343512,-2.5801526717557253,-0.4453125,-0.1591796875,-0.11865234375,0.612
0.9618320610687023,1.4045801526717556,-2.549618320610687,-0.443359375,-0.156005859375,-0.121826171875,0.6136999999999999
1.1755725190839694,1.251908396946565,-2.4122137404580153,-0.442138671875,-0.158203125,-0.12646484375,0.6154
0.8396946564885496,1.3129770992366412,-2.7786259541984735,-0.439208984375,-0.154296875,-0.126708984375,0.6171
1.1603053435114503,1.3587786259541985,-2.381679389312977,-0.44677734375,-0.15771484375,-0.1201171875,0.6188
1.083969465648855,1.3893129770992367,-2.381679389312977,-0.44091796875,-0.154541015625,-0.12060546875,0.6204999999999999
0.8854961832061069,1.3435114503816794,-2.3206106870229006,-0.43798828125,-0.1572265625,-0.11767578125,0.6222
0.8244274809160306,1.4351145038167938,-2.3053435114503817,-0.43896484375,-0.15771484375,-0.114990234375,0.6239
0.9618320610687023,1.3740458015267176,-2.1374045801526718,-0.43896484375,-0.153076171875,-0.122314453125,0.6255999999999999
0.9007633587786259,1.4809160305343512,-1.9083969465648856,-0.444580078125,-0.154296875,-0.12353515625,0.6273
0.6717557251908397,1.5572519083969465,-2.2290076335877864,-0.438232421875,-0.159423828125,-0.127685546875,0.629
0.9312977099236641,1.465648854961832,-2.0610687022900764,-0.447509765625,-0.1591796875,-0.1181640625,0.6306999999999999
0.9312977099236641,1.618320610687023,-1.7251908396946565,-0.44482421875,-0.154296875,-0.118408203125,0.6324
0.8244274809160306,1.618320610687023,-1.7557251908396947,-0.4443359375,-0.157958984375,-0.119873046875,0.6341
0.8549618320610687,1.5114503816793894,-1.5114503816793894,-0.4462890625,-0.15625,-0.11572265625,0.6357999999999999
0.9923664122137404,1.618320610687023,-1.4809160305343512,-0.441162109375,-0.1533203125,-0.115478515625,0.6375
0.8244274809160306,1.282442748091603,-1.5114503816793894,-0.44189453125,-0.15576171875,-0.110107421875,0.6392
0.8396946564885496,1.4809160305343512,-1.465648854961832,-0.44189453125,-0.151611328125,-0.1123046875,0.6408999999999999
0.7480916030534351,1.4198473282442747,-1.282442748091603,-0.4423828125,-0.15673828125,-0.12060546875,0.6426
0.6259541984732825,1.4351145038167938,-1.1145038167938932,-0.44140625,-0.157470703125,-0.121337890625,0.6443
0.549618320610687,1.2366412213740459,-1.251908396946565,-0.443603515625,-0.1494140625,-0.123291015625,0.646
0.2900763358778626,1.4961832061068703,-1.2061068702290076,-0.4453125,-0.15087890625,-0.11376953125,0.6476999999999999
-0.015267175572519083,1.465648854961832,-0.9312977099236641,-0.44580078125,-0.156494140625,-0.118896484375,0.6494
0.10687022900763359,1.633587786259542,-0.916030534351145,-0.441162109375,-0.151123046875,-0.127685546875,0.6511
0.32061068702290074,1.6793893129770991,-0.9007633587786259,-0.449462890625,-0.15234375,-0.117431640625,0.6527999999999999
-0.0916030534351145,1.7709923664122138,-0.9465648854961832,-0.443603515625,-0.15283203125,-0.1220703125,0.6545
-0.15267175572519084,2.1374045801526718,-0.8244274809160306,-0.445556640625,-0.14990234375,-0.11279296875,0.6562
0.04580152671755725,2.3206106870229006,-0.7175572519083969,-0.443603515625,-0.155517578125,-0.11962890625,0.6578999999999999
0.16793893129770993,2.6564885496183206,-0.8091603053435115,-0.44482421875,-0.15234375,-0.1220703125,0.6596
0.3511450381679389,2.6412213740458017,-0.8396946564885496,-0.440673828125,-0.160400390625,-0.128173828125,0.6613
0.549618320610687,2.6564885496183206,-0.9465648854961832,-0.445556640625,-0.158447265625,-0.124755859375,0.6629999999999999
0.6870229007633588,2.549618320610687,-1.0381679389312977,-0.43603515625,-0.1630859375,-0.114501953125,0.6647
0.7022900763358778,2.7022900763358777,-0.8854961832061069,-0.438720703125,-0.1640625,-0.121337890625,0.6664
0.9465648854961832,2.381679389312977,-1.1603053435114503,-0.440185546875,-0.15673828125,-0.11962890625,0.6680999999999999
1.1755725190839694,2.2900763358778624,-1.0229007633587786,-0.442626953125,-0.15966796875,-0.12109375,0.6698
1.1603053435114503,2.2290076335877864,-0.9923664122137404,-0.4443359375,-0.1572265625,-0.116943359375,0.6715
0.8396946564885496,2.198473282442748,-1.0381679389312977,-0.443359375,-0.15966796875,-0.120849609375,0.6731999999999999
0.7938931297709924,2.1068702290076335,-1.251908396946565,-0.442138671875,-0.155517578125,-0.130615234375,0.6748999999999999
1.099236641221374,2.045801526717557,-1.3587786259541985,-0.44482421875,-0.159423828125,-0.12646484375,0.6766
1.1755725190839694,2.122137404580153,-1.4809160305343512,-0.44287109375,-0.165771484375,-0.12744140625,0.6783
1.3587786259541985,2.045801526717557,-1.6030534351145038,-0.445068359375,-0.1640625,-0.125244140625,0.6799999999999999
1.450381679389313,2.122137404580153,-1.7709923664122138,-0.444091796875,-0.16650390625,-0.120849609375,0.6817
1.7709923664122138,2.122137404580153,-1.6946564885496183,-0.4482421875,-0.161376953125,-0.12353515625,0.6834
1.816793893129771,2.1526717557251906,-1.816793893129771,-0.4404296875,-0.16796875,-0.1298828125,0.6850999999999999
1.8778625954198473,2.16793893129771,-2.030534351145038,-0.439697265625,-0.16650390625,-0.126708984375,0.6868
1.8625954198473282,2.427480916030534,-2.1374045801526718,-0.44091796875,-0.166748046875,-0.122314453125,0.6885
1.7557251908396947,2.3053435114503817,-2.1526717557251906,-0.443603515625,-0.167236328125,-0.123291015625,0.6901999999999999
1.3587786259541985,2.381679389312977,-2.3206106870229006,-0.44384765625,-0.164794921875,-0.12841796875,0.6919
1.5267175572519085,2.5343511450381677,-2.33587786259542,-0.44482421875,-0.16650390625,-0.1259765625,0.6936
1.5114503816793894,2.2595419847328246,-2.4122137404580153,-0.438232421875,-0.1708984375,-0.1298828125,0.6952999999999999
1.2366412213740459,2.381679389312977,-2.427480916030534,-0.445068359375,-0.158935546875,-0.12548828125,0.697
1.1603053435114503,2.2748091603053435,-2.717557251908397,-0.443359375,-0.166748046875,-0.12939453125,0.6987
1.4961832061068703,2.427480916030534,-2.6717557251908395,-0.44580078125,-0.16650390625,-0.12841796875,0.7003999999999999
1.4198473282442747,2.4732824427480917,-2.6259541984732824,-0.442138671875,-0.1630859375,-0.126953125,0.7021
1.1145038167938932,2.50381679389313,-2.5343511450381677,-0.447265625,-0.16357421875,-0.124267578125,0.7038
1.1450381679389312,2.381679389312977,-2.9160305343511452,-0.44384765625,-0.165771484375,-0.12353515625,0.7055
0.9770992366412213,2.351145038167939,-2.6717557251908395,-0.442626953125,-0.160888671875,-0.1240234375,0.7071999999999999
0.7786259541984732,2.2595419847328246,-2.7938931297709924,-0.442138671875,-0.1591796875,-0.11767578125,0.7089
0.8244274809160306,2.0763358778625953,-2.9618320610687023,-0.44140625,-0.163818359375,-0.120361328125,0.7106
0.7022900763358778,2.198473282442748,-2.885496183206107,-0.445068359375,-0.164306640625,-0.125,0.7122999999999999
0.549618320610687,2.0610687022900764,-2.9160305343511452,-0.447021484375,-0.160888671875,-0.124267578125,0.714
0.33587786259541985,1.6488549618320612,-2.9923664122137406,-0.4453125,-0.160400390625,-0.124267578125,0.7157
0.21374045801526717,1.6946564885496183,-2.7480916030534353,-0.44384765625,-0.155029296875,-0.1298828125,0.7173999999999999
0.10687022900763359,1.6641221374045803,-2.8244274809160306,-0.446044921875,-0.153564453125,-0.12646484375,0.7191
0.33587786259541985,1.8015267175572518,-2.8244274809160306,-0.4423828125,-0.1572265625,-0.130126953125,0.7208
0.2595419847328244,1.5419847328244274,-2.519083969465649,-0.444091796875,-0.158935546875,-0.131103515625,0.7224999999999999
0.15267175572519084,1.633587786259542,-2.6106870229007635,-0.44580078125,-0.151611328125,-0.125,0.7242
0.12213740458015267,1.8625954198473282,-2.6717557251908395,-0.447998046875,-0.154541015625,-0.126953125,0.7259
-0.04580152671755725,2.045801526717557,-2.4122137404580153,-0.4482421875,-0.158203125,-0.1259765625,0.7275999999999999
-0.10687022900763359,2.030534351145038,-2.198473282442748,-0.443359375,-0.15478515625,-0.123291015625,0.7293
0.04580152671755725,2.030534351145038,-2.183206106870229,-0.4462890625,-0.150146484375,-0.122802734375,0.731
-0.10687022900763359,2.183206106870229,-2.213740458015267,-0.44775390625,-0.14892578125,-0.127685546875,0.7326999999999999
-0.0916030534351145,2.0610687022900764,-2.1526717557251906,-0.443603515625,-0.156005859375,-0.12158203125,0.7343999999999999
0.030534351145038167,2.2595419847328246,-2.3053435114503817,-0.447509765625,-0.1494140625,-0.116943359375,0.7361
-0.0916030534351145,2.122137404580153,-2.0,-0.446533203125,-0.152587890625,-0.126953125,0.7378
-0.12213740458015267,1.9083969465648856,-1.9236641221374047,-0.4462890625,-0.149169921875,-0.128662109375,0.7394999999999999
-0.10687022900763359,2.1526717557251906,-1.6488549618320612,-0.446044921875,-0.146484375,-0.118408203125,0.7412
0.16793893129770993,1.8473282442748091,-1.5114503816793894,-0.43994140625,-0.14599609375,-0.120849609375,0.7429
-0.12213740458015267,1.633587786259542,-1.5877862595419847,-0.44140625,-0.147216796875,-0.116455078125,0.7445999999999999
-0.030534351145038167,1.786259541984733,-1.450381679389313,-0.448486328125,-0.147216796875,-0.113037109375,0.7463
0.3816793893129771,1.8931297709923665,-1.3435114503816794,-0.445068359375,-0.15087890625,-0.121337890625,0.748
0.5343511450381679,1.6793893129770991,-1.2366412213740459,-0.444580078125,-0.15283203125,-0.123779296875,0.7496999999999999
0.32061068702290074,1.633587786259542,-1.4351145038167938,-0.440185546875,-0.146484375,-0.120361328125,0.7514
0.4580152671755725,1.8931297709923665,-1.1908396946564885,-0.438232421875,-0.1494140625,-0.116455078125,0.7531
0.6564885496183206,1.8473282442748091,-1.0076335877862594,-0.4404296875,-0.14990234375,-0.125244140625,0.7547999999999999
0.7480916030534351,1.9541984732824427,-1.0381679389312977,-0.44287109375,-0.151611328125,-0.123291015625,0.7565
0.9007633587786259,1.984732824427481,-1.0687022900763359,-0.44287109375,-0.152587890625,-0.12255859375,0.7582
1.0381679389312977,1.8473282442748091,-1.1450381679389312,-0.443603515625,-0.150146484375,-0.120361328125,0.7598999999999999
1.0229007633587786,1.9389312977099236,-1.1297709923664123,-0.443115234375,-0.144775390625,-0.120361328125,0.7615999999999999
0.9312977099236641,1.9389312977099236,-0.9618320610687023,-0.4384765625,-0.14697265625,-0.11962890625,0.7633
0.9312977099236641,1.7251908396946565,-0.7938931297709924,-0.441650390625,-0.1513671875,-0.121826171875,0.7649999999999999
0.8549618320610687,1.8778625954198473,-0.9618320610687023,-0.44384765625,-0.151123046875,-0.1181640625,0.7666999999999999
0.5190839694656488,1.5877862595419847,-0.9465648854961832,-0.440673828125,-0.153564453125,-0.12353515625,0.7684
0.44274809160305345,1.5572519083969465,-0.8396946564885496,-0.4404296875,-0.154296875,-0.122314453125,0.7701
0.732824427480916,1.5419847328244274,-0.9923664122137404,-0.44677734375,-0.1513671875,-0.1171875,0.7717999999999999
0.8244274809160306,1.5114503816793894,-1.099236641221374,-0.441162109375,-0.1552734375,-0.13232421875,0.7735
0.9618320610687023,1.7251908396946565,-1.2061068702290076,-0.445556640625,-0.156494140625,-0.120361328125,0.7752
0.8854961832061069,1.5114503816793894,-1.282442748091603,-0.443603515625,-0.15869140625,-0.126708984375,0.7768999999999999
1.0687022900763359,1.7404580152671756,-1.2061068702290076,-0.4482421875,-0.16162109375,-0.12890625,0.7786
1.4351145038167938,2.0,-1.083969465648855,-0.4423828125,-0.154296875,-0.124755859375,0.7803
1.4809160305343512,2.0610687022900764,-1.465648854961832,-0.443359375,-0.155029296875,-0.126220703125,0.7819999999999999
1.3587786259541985,1.9236641221374047,-1.5114503816793894,-0.44189453125,-0.1650390625,-0.125244140625,0.7837
1.297709923664122,2.1374045801526718,-1.4961832061068703,-0.4482421875,-0.154541015625,-0.132080078125,0.7854
1.282442748091603,2.1526717557251906,-1.7557251908396947,-0.442138671875,-0.158447265625,-0.1376953125,0.7870999999999999
1.3282442748091603,2.2595419847328246,-1.7709923664122138,-0.43994140625,-0.160400390625,-0.120361328125,0.7888
1.0381679389312977,2.1374045801526718,-1.816793893129771,-0.44580078125,-0.16162109375,-0.11669921875,0.7905
1.0229007633587786,1.9694656488549618,-1.8778625954198473,-0.443603515625,-0.16357421875,-0.12841796875,0.7921999999999999
1.0534351145038168,1.9694656488549618,-1.8625954198473282,-0.443115234375,-0.160888671875,-0.119384765625,0.7938999999999999
1.2061068702290076,1.984732824427481,-1.9236641221374047,-0.44677734375,-0.162109375,-0.1259765625,0.7956
0.9923664122137404,1.8473282442748091,-2.122137404580153,-0.445068359375,-0.156982421875,-0.121826171875,0.7973
0.7633587786259542,1.6946564885496183,-2.1374045801526718,-0.4482421875,-0.16455078125,-0.123046875,0.7989999999999999
0.9618320610687023,1.5114503816793894,-1.9541984732824427,-0.446044921875,-0.166748046875,-0.122314453125,0.8007
0.5190839694656488,1.465648854961832,-2.2595419847328246,-0.4423828125,-0.16552734375,-0.13232421875,0.8024
0.4122137404580153,1.3893129770992367,-2.198473282442748,-0.442626953125,-0.164794921875,-0.124755859375,0.8040999999999999
0.3816793893129771,1.2061068702290076,-2.2595419847328246,-0.443603515625,-0.16259765625,-0.12939453125,0.8058
0.42748091603053434,1.3435114503816794,-2.1374045801526718,-0.445556640625,-0.16796875,-0.114990234375,0.8075
0.48854961832061067,1.282442748091603,-2.2748091603053435,-0.441650390625,-0.165283203125,-0.132568359375,0.8091999999999999
0.6564885496183206,1.2213740458015268,-2.33587786259542,-0.44287109375,-0.16357421875,-0.12890625,0.8109
0.5648854961832062,1.5877862595419847,-2.4580152671755724,-0.445556640625,-0.1630859375,-0.12744140625,0.8126
0.6870229007633588,1.6641221374045803,-2.2900763358778624,-0.44287109375,-0.165283203125,-0.132080078125,0.8142999999999999
1.099236641221374,1.7251908396946565,-2.4580152671755724,-0.44580078125,-0.165283203125,-0.12451171875,0.816
1.1297709923664123,1.9236641221374047,-2.351145038167939,-0.443115234375,-0.163818359375,-0.12353515625,0.8177
1.3129770992366412,2.015267175572519,-2.50381679389313,-0.44580078125,-0.1611328125,-0.127197265625,0.8193999999999999
1.2671755725190839,2.33587786259542,-2.4885496183206106,-0.44482421875,-0.160888671875,-0.11962890625,0.8210999999999999
1.3282442748091603,2.183206106870229,-2.4732824427480917,-0.448486328125,-0.164306640625,-0.11669921875,0.8228
1.083969465648855,2.0610687022900764,-2.381679389312977,-0.442626953125,-0.158447265625,-0.1162109375,0.8244999999999999
0.9923664122137404,2.1068702290076335,-2.183206106870229,-0.444091796875,-0.15771484375,-0.12353515625,0.8261999999999999
0.8244274809160306,1.9083969465648856,-2.351145038167939,-0.44482421875,-0.158447265625,-0.1298828125,0.8279
0.5038167938931297,1.6641221374045803,-2.3206106870229006,-0.443603515625,-0.16162109375,-0.12451171875,0.8296
0.6564885496183206,1.7557251908396947,-2.0610687022900764,-0.4482421875,-0.158935546875,-0.1220703125,0.8312999999999999
0.366412213740458,1.5725190839694656,-1.8931297709923665,-0.449462890625,-0.156982421875,-0.12744140625,0.833
0.4732824427480916,1.2061068702290076,-1.9236641221374047,-0.4443359375,-0.151611328125,-0.119384765625,0.8347
0.3511450381679389,1.3740458015267176,-2.045801526717557,-0.437744140625,-0.156005859375,-0.119873046875,0.8363999999999999
0.16793893129770993,1.6030534351145038,-1.7709923664122138,-0.44189453125,-0.161376953125,-0.1201171875,0.8381
0.2595419847328244,1.4351145038167938,-1.9694656488549618,-0.439453125,-0.1552734375,-0.123046875,0.8398
0.32061068702290074,1.3129770992366412,-1.9694656488549618,-0.443359375,-0.1611328125,-0.116455078125,0.8414999999999999
0.4580152671755725,1.618320610687023,-1.9694656488549618,-0.445556640625,-0.162353515625,-0.122802734375,0.8432
0.4122137404580153,1.83206106870229,-1.6641221374045803,-0.445556640625,-0.159423828125,-0.116455078125,0.8449
0.6717557251908397,1.8473282442748091,-1.6030534351145038,-0.443603515625,-0.159912109375,-0.127685546875,0.8465999999999999
0.9923664122137404,1.9694656488549618,-1.633587786259542,-0.445068359375,-0.16259765625,-0.122314453125,0.8482999999999999
0.9923664122137404,1.8931297709923665,-1.786259541984733,-0.442626953125,-0.157470703125,-0.12255859375,0.85
0.8702290076335878,2.1374045801526718,-1.8473282442748091,-0.446044921875,-0.16259765625,-0.1181640625,0.8516999999999999
0.6412213740458015,1.83206106870229,-1.7251908396946565,-0.44384765625,-0.154296875,-0.12060546875,0.8533999999999999
0.5954198473282443,1.8778625954198473,-1.4961832061068703,-0.449462890625,-0.16015625,-0.125,0.8551
0.42748091603053434,1.6946564885496183,-1.5114503816793894,-0.4453125,-0.15966796875,-0.123291015625,0.8568
0.5343511450381679,1.4198473282442747,-1.5572519083969465,-0.4521484375,-0.15380859375,-0.1201171875,0.8584999999999999
0.21374045801526717,1.2366412213740459,-1.6488549618320612,-0.44287109375,-0.151611328125,-0.12060546875,0.8602
0.2900763358778626,1.1145038167938932,-1.2671755725190839,-0.445556640625,-0.156494140625,-0.117431640625,0.8619
0.13740458015267176,1.083969465648855,-1.618320610687023,-0.438720703125,-0.156494140625,-0.123046875,0.8635999999999999
0.1984732824427481,1.1145038167938932,-1.4809160305343512,-0.4384765625,-0.15478515625,-0.122314453125,0.8653
0.3969465648854962,0.8396946564885496,-1.3740458015267176,-0.4404296875,-0.155029296875,-0.13330078125,0.867
0.3816793893129771,1.1297709923664123,-1.2061068702290076,-0.43701171875,-0.159423828125,-0.13134765625,0.8686999999999999
0.4580152671755725,1.0687022900763359,-1.2366412213740459,-0.440185546875,-0.153076171875,-0.130615234375,0.8704
0.4580152671755725,1.0534351145038168,-1.1450381679389312,-0.43994140625,-0.156005859375,-0.121337890625,0.8721
0.5343511450381679,1.2213740458015268,-1.2213740458015268,-0.4423828125,-0.156494140625,-0.12158203125,0.8737999999999999
0.5190839694656488,1.4045801526717556,-1.2671755725190839,-0.439697265625,-0.154052734375,-0.133056640625,0.8755
0.42748091603053434,1.6488549618320612,-1.0534351145038168,-0.441650390625,-0.153076171875,-0.1240234375,0.8772
0.3053435114503817,1.4351145038167938,-1.0229007633587786,-0.439208984375,-0.159423828125,-0.12890625,0.8788999999999999
0.2595419847328244,1.633587786259542,-1.0381679389312977,-0.434326171875,-0.15771484375,-0.115966796875,0.8805999999999999
0.12213740458015267,1.4961832061068703,-1.0229007633587786,-0.43798828125,-0.15771484375,-0.125732421875,0.8823
0.030534351145038167,1.6030534351145038,-0.6870229007633588,-0.445068359375,-0.15625,-0.12744140625,0.8839999999999999
-0.21374045801526717,1.450381679389313,-0.8091603053435115,-0.439208984375,-0.15625,-0.1220703125,0.8856999999999999
-0.10687022900763359,1.3282442748091603,-0.9312977099236641,-0.439453125,-0.156005859375,-0.124755859375,0.8874
0.015267175572519083,1.465648854961832,-0.7175572519083969,-0.443603515625,-0.156005859375,-0.120849609375,0.8891
0.015267175572519083,1.4809160305343512,-0.7175572519083969,-0.4375,-0.158203125,-0.127197265625,0.8907999999999999
-0.12213740458015267,1.4045801526717556,-0.916030534351145,-0.438232421875,-0.1640625,-0.130859375,0.8925
-0.030534351145038167,1.5419847328244274,-0.6106870229007634,-0.436767578125,-0.160888671875,-0.127685546875,0.8942
0.13740458015267176,1.7099236641221374,-0.7175572519083969,-0.439697265625,-0.156982421875,-0.13037109375,0.8958999999999999
0.44274809160305345,1.618320610687023,-0.7938931297709924,-0.439208984375,-0.15625,-0.12451171875,0.8976
0.3511450381679389,1.786259541984733,-0.9465648854961832,-0.43798828125,-0.1591796875,-0.1259765625,0.8993
0.4732824427480916,1.8473282442748091,-0.8091603053435115,-0.4375,-0.160888671875,-0.123779296875,0.9009999999999999
0.6564885496183206,1.6946564885496183,-0.6717557251908397,-0.439208984375,-0.156005859375,-0.125,0.9027
0.8244274809160306,1.7251908396946565,-0.7175572519083969,-0.43896484375,-0.160888671875,-0.11474609375,0.9044
0.6412213740458015,1.6641221374045803,-0.7175572519083969,-0.440673828125,-0.15966796875,-0.11669921875,0.9060999999999999
0.4732824427480916,1.633587786259542,-0.7786259541984732,-0.44189453125,-0.156982421875,-0.1259765625,0.9077999999999999
0.5648854961832062,1.5877862595419847,-0.9465648854961832,-0.4453125,-0.159423828125,-0.11962890625,0.9095
0.5954198473282443,1.5419847328244274,-0.7786259541984732,-0.44140625,-0.15966796875,-0.115478515625,0.9111999999999999
0.5954198473282443,1.5877862595419847,-0.8549618320610687,-0.445068359375,-0.158935546875,-0.122802734375,0.9128999999999999
0.366412213740458,1.4809160305343512,-1.0076335877862594,-0.442626953125,-0.158935546875,-0.1220703125,0.9146
0.2595419847328244,1.251908396946565,-1.0229007633587786,-0.44677734375,-0.158447265625,-0.11962890625,0.9163
0.015267175572519083,1.2061068702290076,-0.9923664122137404,-0.446044921875,-0.160888671875,-0.121337890625,0.9179999999999999
0.2748091603053435,1.3587786259541985,-1.083969465648855,-0.44189453125,-0.160888671875,-0.12255859375,0.9197
-0.04580152671755725,1.2671755725190839,-0.9923664122137404,-0.443603515625,-0.155029296875,-0.122314453125,0.9214
-0.24427480916030533,1.1297709923664123,-0.7938931297709924,-0.444580078125,-0.156982421875,-0.123291015625,0.9230999999999999
-0.16793893129770993,1.1755725190839694,-0.7633587786259542,-0.44384765625,-0.158935546875,-0.126953125,0.9248
-0.4122137404580153,1.3740458015267176,-1.0687022900763359,-0.44189453125,-0.16015625,-0.12646484375,0.9265
-0.4122137404580153,1.3435114503816794,-1.0687022900763359,-0.447998046875,-0.15869140625,-0.128173828125,0.9281999999999999
-0.12213740458015267,1.297709923664122,-0.9770992366412213,-0.44189453125,-0.1640625,-0.12451171875,0.9299
-0.15267175572519084,1.618320610687023,-0.8854961832061069,-0.44287109375,-0.16064453125,-0.128662109375,0.9316
-0.1984732824427481,1.7099236641221374,-0.9618320610687023,-0.443603515625,-0.15966796875,-0.125732421875,0.9332999999999999
0.12213740458015267,1.9389312977099236,-0.8091603053435115,-0.4404296875,-0.15966796875,-0.128662109375,0.9349999999999999
0.3053435114503817,1.8931297709923665,-0.9465648854961832,-0.442626953125,-0.1640625,-0.119873046875,0.9367
0.4122137404580153,1.984732824427481,-1.0381679389312977,-0.447998046875,-0.162841796875,-0.122314453125,0.9383999999999999
0.5343511450381679,2.015267175572519,-1.099236641221374,-0.44384765625,-0.164794921875,-0.1240234375,0.9400999999999999
0.8091603053435115,1.984732824427481,-1.1297709923664123,-0.44677734375,-0.15966796875,-0.11962890625,0.9418
0.8396946564885496,2.0,-1.450381679389313,-0.44287109375,-0.16064453125,-0.12109375,0.9434999999999999
0.732824427480916,2.045801526717557,-1.2213740458015268,-0.446533203125,-0.160888671875,-0.125,0.9451999999999999
0.6259541984732825,1.8931297709923665,-1.297709923664122,-0.443603515625,-0.164794921875,-0.121337890625,0.9469
0.5343511450381679,1.8778625954198473,-1.5419847328244274,-0.443115234375,-0.162353515625,-0.117431640625,0.9486
0.5801526717557252,1.7251908396946565,-1.6488549618320612,-0.44091796875,-0.160888671875,-0.1181640625,0.9502999999999999
0.32061068702290074,1.5877862595419847,-1.2671755725190839,-0.444580078125,-0.16015625,-0.124267578125,0.952
0.3511450381679389,1.5877862595419847,-1.4961832061068703,-0.441650390625,-0.158935546875,-0.12158203125,0.9537
0.33587786259541985,1.3587786259541985,-1.4961832061068703,-0.442138671875,-0.15966796875,-0.1240234375,0.9553999999999999
0.3969465648854962,1.3740458015267176,-1.3282442748091603,-0.448974609375,-0.158203125,-0.122802734375,0.9571
0.4732824427480916,1.3587786259541985,-1.1908396946564885,-0.44384765625,-0.15966796875,-0.129150390625,0.9588
0.2900763358778626,1.297709923664122,-1.465648854961832,-0.443115234375,-0.160400390625,-0.123046875,0.9604999999999999
0.15267175572519084,1.251908396946565,-1.297709923664122,-0.442626953125,-0.157958984375,-0.120849609375,0.9621999999999999
0.2595419847328244,1.2671755725190839,-1.251908396946565,-0.443603515625,-0.158203125,-0.12548828125,0.9639
0.1984732824427481,1.1145038167938932,-1.1908396946564885,-0.4443359375,-0.157470703125,-0.12548828125,0.9655999999999999
-0.030534351145038167,1.0381679389312977,-1.099236641221374,-0.443359375,-0.152099609375,-0.1201171875,0.9672999999999999
0.13740458015267176,1.251908396946565,-0.9465648854961832,-0.44140625,-0.15380859375,-0.12548828125,0.969
0.33587786259541985,1.1603053435114503,-1.0687022900763359,-0.440673828125,-0.15185546875,-0.1279296875,0.9706999999999999
-0.030534351145038167,1.1450381679389312,-0.9923664122137404,-0.442626953125,-0.160400390625,-0.121337890625,0.9723999999999999
0.183206106870229,1.2366412213740459,-0.8396946564885496,-0.44580078125,-0.159912109375,-0.123291015625,0.9741
0.44274809160305345,1.2061068702290076,-0.6106870229007634,-0.44287109375,-0.152587890625,-0.121826171875,0.9758
0.3053435114503817,1.0076335877862594,-0.7786259541984732,-0.444091796875,-0.160888671875,-0.12939453125,0.9774999999999999
0.5038167938931297,1.3893129770992367,-0.7633587786259542,-0.445068359375,-0.160400390625,-0.127685546875,0.9792
0.44274809160305345,1.3587786259541985,-0.6412213740458015,-0.446044921875,-0.1572265625,-0.115234375,0.9809
0.183206106870229,1.1755725190839694,-0.6259541984732825,-0.4453125,-0.15478515625,-0.119140625,0.9825999999999999
0.2748091603053435,1.0534351145038168,-0.732824427480916,-0.444091796875,-0.153076171875,-0.12158203125,0.9843
0.5343511450381679,0.9007633587786259,-0.6564885496183206,-0.445068359375,-0.153076171875,-0.122802734375,0.986
0.5648854961832062,1.0076335877862594,-0.6717557251908397,-0.44189453125,-0.160400390625,-0.1220703125,0.9876999999999999
0.5648854961832062,0.9770992366412213,-0.7938931297709924,-0.44384765625,-0.160400390625,-0.1123046875,0.9894
0.2595419847328244,0.8854961832061069,-0.7175572519083969,-0.44384765625,-0.156982421875,-0.1181640625,0.9911
0.4580152671755725,1.1145038167938932,-0.5954198473282443,-0.43896484375,-0.15380859375,-0.12060546875,0.9927999999999999
0.16793893129770993,1.0534351145038168,-0.7480916030534351,-0.443115234375,-0.1591796875,-0.125,0.9944999999999999
0.2595419847328244,0.7786259541984732,-0.6259541984732825,-0.442626953125,-0.16064453125,-0.124755859375,0.9962
-0.030534351145038167,0.6106870229007634,-0.5343511450381679,-0.440185546875,-0.161376953125,-0.116943359375,0.9978999999999999
-0.030534351145038167,0.6717557251908397,-0.6564885496183206,-0.44091796875,-0.1572265625,-0.123046875,0.9995999999999999
-0.061068702290076333,0.6564885496183206,-0.549618320610687,-0.437255859375,-0.158203125,-0.119140625,1.0012999999999999
-0.183206106870229,0.4580152671755725,-0.6717557251908397,-0.4443359375,-0.158203125,-0.12255859375,1.003
-0.3053435114503817,0.4732824427480916,-0.3969465648854962,-0.4462890625,-0.157958984375,-0.128173828125,1.0047
-0.3969465648854962,0.6870229007633588,-0.6564885496183206,-0.4384765625,-0.158935546875,-0.123291015625,1.0064
-0.549618320610687,0.4580152671755725,-0.8549618320610687,-0.443603515625,-0.159912109375,-0.1201171875,1.0081
-0.13740458015267176,0.6259541984732825,-0.9770992366412213,-0.438232421875,-0.156005859375,-0.12158203125,1.0098
-0.2748091603053435,0.7175572519083969,-0.7175572519083969,-0.44580078125,-0.154296875,-0.1171875,1.0114999999999998
-0.44274809160305345,0.6106870229007634,-0.7633587786259542,-0.44482421875,-0.154052734375,-0.1240234375,1.0131999999999999
-0.549618320610687,0.732824427480916,-0.7633587786259542,-0.442626953125,-0.153564453125,-0.124755859375,1.0149
-0.42748091603053434,1.0076335877862594,-0.6259541984732825,-0.442626953125,-0.15283203125,-0.12158203125,1.0166
-0.366412213740458,0.9007633587786259,-0.4732824427480916,-0.440185546875,-0.154541015625,-0.121826171875,1.0183
-0.4580152671755725,0.8396946564885496,-0.7175572519083969,-0.443359375,-0.155029296875,-0.12353515625,1.02
-0.10687022900763359,1.1908396946564885,-0.732824427480916,-0.44384765625,-0.150146484375,-0.119873046875,1.0217
-0.13740458015267176,1.1755725190839694,-0.6870229007633588,-0.4423828125,-0.155517578125,-0.11962890625,1.0233999999999999
0.15267175572519084,1.3435114503816794,-0.4580152671755725,-0.44091796875,-0.152099609375,-0.1201171875,1.0251
0.4732824427480916,1.1755725190839694,-0.7633587786259542,-0.44287109375,-0.15478515625,-0.11083984375,1.0268
0.7480916030534351,1.2671755725190839,-0.7633587786259542,-0.436767578125,-0.152587890625,-0.117431640625,1.0285
0.8244274809160306,1.3740458015267176,-0.916030534351145,-0.44140625,-0.1572265625,-0.123779296875,1.0302
0.7633587786259542,1.4198473282442747,-0.8091603053435115,-0.4384765625,-0.153076171875,-0.1201171875,1.0319
0.8244274809160306,1.2671755725190839,-0.8702290076335878,-0.44384765625,-0.153564453125,-0.1171875,1.0335999999999999
1.0534351145038168,1.0229007633587786,-0.732824427480916,-0.442138671875,-0.158447265625,-0.12353515625,1.0352999999999999
1.0687022900763359,1.1755725190839694,-1.0076335877862594,-0.4365234375,-0.1533203125,-0.120849609375,1.037
0.9923664122137404,0.9465648854961832,-0.9007633587786259,-0.44873046875,-0.156005859375,-0.129150390625,1.0387
1.1755725190839694,0.8091603053435115,-0.9618320610687023,-0.445068359375,-0.156005859375,-0.11962890625,1.0404
1.465648854961832,0.7022900763358778,-1.0229007633587786,-0.440673828125,-0.15673828125,-0.127197265625,1.0421
1.5114503816793894,0.9312977099236641,-1.2061068702290076,-0.442138671875,-0.16552734375,-0.130615234375,1.0437999999999998
1.6641221374045803,0.7938931297709924,-1.2671755725190839,-0.438232421875,-0.160888671875,-0.12841796875,1.0454999999999999
1.6030534351145038,0.9770992366412213,-1.3282442748091603,-0.44140625,-0.163818359375,-0.129150390625,1.0472
1.8931297709923665,1.0076335877862594,-1.251908396946565,-0.444091796875,-0.159912109375,-0.125244140625,1.0489
2.1068702290076335,0.9618320610687023,-1.4809160305343512,-0.439697265625,-0.1640625,-0.12255859375,1.0506
2.0916030534351147,1.1145038167938932,-1.450381679389313,-0.438720703125,-0.160400390625,-0.127197265625,1.0523
1.9694656488549618,0.9770992366412213,-1.6488549618320612,-0.43701171875,-0.16455078125,-0.12353515625,1.054
2.030534351145038,0.6106870229007634,-1.4961832061068703,-0.44091796875,-0.1611328125,-0.132568359375,1.0556999999999999
1.9694656488549618,0.6870229007633588,-1.4198473282442747,-0.442138671875,-0.15673828125,-0.1318359375,1.0574
2.0916030534351147,0.5648854961832062,-1.4961832061068703,-0.44189453125,-0.162109375,-0.122802734375,1.0591
2.0763358778625953,0.8091603053435115,-1.6488549618320612,-0.44580078125,-0.16259765625,-0.119873046875,1.0608
1.8931297709923665,0.7175572519083969,-1.4045801526717556,-0.439697265625,-0.159912109375,-0.12255859375,1.0625
1.5725190839694656,0.549618320610687,-1.7099236641221374,-0.445556640625,-0.1591796875,-0.121826171875,1.0642
1.2213740458015268,0.549618320610687,-1.618320610687023,-0.44287109375,-0.1591796875,-0.12744140625,1.0658999999999998
1.2671755725190839,0.6717557251908397,-1.816793893129771,-0.4423828125,-0.160400390625,-0.12744140625,1.0675999999999999
0.7633587786259542,0.5801526717557252,-1.618320610687023,-0.444091796875,-0.161865234375,-0.12353515625,1.0693
0.6412213740458015,0.7022900763358778,-1.6641221374045803,-0.442626953125,-0.15869140625,-0.119384765625,1.071
0.3969465648854962,0.549618320610687,-1.450381679389313,-0.445556640625,-0.162109375,-0.121826171875,1.0727
0.6412213740458015,0.5801526717557252,-1.5725190839694656,-0.44091796875,-0.1650390625,-0.127197265625,1.0744
0.5648854961832062,0.6564885496183206,-1.6641221374045803,-0.44482421875,-0.15869140625,-0.1279296875,1.0760999999999998
0.7022900763358778,0.6106870229007634,-1.8015267175572518,-0.445068359375,-0.164794921875,-0.12255859375,1.0777999999999999
0.5954198473282443,0.44274809160305345,-1.4809160305343512,-0.445068359375,-0.1640625,-0.1181640625,1.0795
0.5038167938931297,0.4122137404580153,-1.7557251908396947,-0.44775390625,-0.156982421875,-0.118896484375,1.0812
0.3969465648854962,0.48854961832061067,-1.4198473282442747,-0.4482421875,-0.165771484375,-0.12158203125,1.0829
0.3053435114503817,0.48854961832061067,-1.4961832061068703,-0.44775390625,-0.16162109375,-0.12451171875,1.0846
0.07633587786259542,0.4580152671755725,-1.450381679389313,-0.444091796875,-0.158935546875,-0.121337890625,1.0863
-0.24427480916030533,0.4580152671755725,-1.4351145038167938,-0.44677734375,-0.157958984375,-0.118408203125,1.0879999999999999
-0.4580152671755725,0.5343511450381679,-1.3587786259541985,-0.446533203125,-0.158203125,-0.1201171875,1.0897
-0.32061068702290074,0.5648854961832062,-1.3129770992366412,-0.4453125,-0.159423828125,-0.1259765625,1.0914
-0.33587786259541985,0.6106870229007634,-1.2671755725190839,-0.4453125,-0.1591796875,-0.1328125,1.0931
-0.7633587786259542,0.5954198473282443,-1.3587786259541985,-0.44677734375,-0.1533203125,-0.12841796875,1.0948
-0.7022900763358778,0.6870229007633588,-1.0534351145038168,-0.447509765625,-0.15576171875,-0.1259765625,1.0965
-0.6870229007633588,0.6564885496183206,-1.1755725190839694,-0.4453125,-0.156982421875,-0.1376953125,1.0981999999999998
-0.8854961832061069,0.9007633587786259,-1.099236641221374,-0.4501953125,-0.1591796875,-0.124267578125,1.0998999999999999
-0.48854961832061067,1.0076335877862594,-0.9618320610687023,-0.447021484375,-0.15625,-0.1259765625,1.1016
-0.5801526717557252,1.0381679389312977,-1.1145038167938932,-0.44677734375,-0.1552734375,-0.1279296875,1.1033
-0.9923664122137404,1.083969465648855,-1.3282442748091603,-0.44921875,-0.15283203125,-0.117919921875,1.105
-0.9007633587786259,1.1450381679389312,-1.099236641221374,-0.445556640625,-0.154296875,-0.12255859375,1.1067
-1.0534351145038168,1.1755725190839694,-0.7786259541984732,-0.44189453125,-0.150146484375,-0.127197265625,1.1083999999999998
-1.0229007633587786,1.1145038167938932,-0.8244274809160306,-0.440185546875,-0.157958984375,-0.127685546875,1.1100999999999999
-1.083969465648855,0.9618320610687023,-1.0534351145038168,-0.444580078125,-0.151611328125,-0.12060546875,1.1118
-1.0687022900763359,0.9465648854961832,-0.9770992366412213,-0.445068359375,-0.15185546875,-0.131591796875,1.1135
-0.8244274809160306,0.732824427480916,-0.9465648854961832,-0.449951171875,-0.15625,-0.11376953125,1.1152
-0.8854961832061069,0.44274809160305345,-0.8091603053435115,-0.444580078125,-0.15234375,-0.122802734375,1.1169
-0.7786259541984732,0.4580152671755725,-0.916030534351145,-0.446533203125,-0.15283203125,-0.1328125,1.1186
-0.42748091603053434,0.5343511450381679,-0.7938931297709924,-0.44384765625,-0.157470703125,-0.1259765625,1.1202999999999999
-0.0916030534351145,0.6259541984732825,-0.7175572519083969,-0.444091796875,-0.15673828125,-0.1298828125,1.1219999999999999
0.030534351145038167,0.5801526717557252,-0.5801526717557252,-0.445556640625,-0.1572265625,-0.115966796875,1.1237
0.4580152671755725,0.7022900763358778,-0.6259541984732825,-0.447509765625,-0.15478515625,-0.131591796875,1.1254
0.7786259541984732,0.9007633587786259,-0.8396946564885496,-0.4482421875,-0.15380859375,-0.125,1.1271
1.0076335877862594,0.9007633587786259,-0.7175572519083969,-0.444091796875,-0.153076171875,-0.121337890625,1.1288
1.3282442748091603,1.0534351145038168,-0.7633587786259542,-0.44287109375,-0.1591796875,-0.123046875,1.1304999999999998
1.465648854961832,1.083969465648855,-0.9465648854961832,-0.446044921875,-0.162109375,-0.122802734375,1.1321999999999999
1.4351145038167938,1.3587786259541985,-0.8244274809160306,-0.44580078125,-0.154296875,-0.11767578125,1.1339
1.5725190839694656,1.5725190839694656,-0.8244274809160306,-0.4462890625,-0.153564453125,-0.12451171875,1.1356
1.6793893129770991,1.5267175572519085,-0.9312977099236641,-0.441162109375,-0.163330078125,-0.123291015625,1.1373
1.4809160305343512,1.4809160305343512,-0.8702290076335878,-0.444091796875,-0.160888671875,-0.115966796875,1.139
1.5725190839694656,1.618320610687023,-1.0076335877862594,-0.444580078125,-0.159423828125,-0.11865234375,1.1407
1.282442748091603,1.465648854961832,-0.916030534351145,-0.440673828125,-0.153564453125,-0.119384765625,1.1423999999999999
1.465648854961832,1.1297709923664123,-1.083969465648855,-0.445068359375,-0.1572265625,-0.130859375,1.1441
1.5419847328244274,1.0381679389312977,-1.1755725190839694,-0.441162109375,-0.153564453125,-0.1298828125,1.1458
1.4045801526717556,0.8091603053435115,-1.0229007633587786,-0.439453125,-0.16162109375,-0.1201171875,1.1475
1.450381679389313,0.9618320610687023,-0.9923664122137404,-0.447998046875,-0.158935546875,-0.12548828125,1.1492
1.2061068702290076,0.732824427480916,-0.9312977099236641,-0.4423828125,-0.16259765625,-0.121826171875,1.1509
1.3282442748091603,0.3816793893129771,-1.0229007633587786,-0.4404296875,-0.164306640625,-0.122314453125,1.1525999999999998
1.1603053435114503,0.32061068702290074,-1.1603053435114503,-0.448486328125,-0.158935546875,-0.1240234375,1.1542999999999999
1.2366412213740459,0.3969465648854962,-1.0534351145038168,-0.443359375,-0.160888671875,-0.130859375,1.156
1.1450381679389312,0.22900763358778625,-1.1755725190839694,-0.442626953125,-0.1591796875,-0.129638671875,1.1577
0.8702290076335878,0.24427480916030533,-1.1297709923664123,-0.44189453125,-0.157958984375,-0.1318359375,1.1594
0.9770992366412213,0.4122137404580153,-1.3282442748091603,-0.441650390625,-0.157470703125,-0.126220703125,1.1611
0.9465648854961832,0.4732824427480916,-1.1145038167938932,-0.448974609375,-0.16162109375,-0.127685546875,1.1627999999999998
0.7480916030534351,0.6412213740458015,-0.9465648854961832,-0.441650390625,-0.156982421875,-0.126220703125,1.1644999999999999
0.5954198473282443,0.6106870229007634,-1.1755725190839694,-0.44287109375,-0.1611328125,-0.124755859375,1.1662
0.5190839694656488,0.7175572519083969,-1.3282442748091603,-0.439453125,-0.162109375,-0.12353515625,1.1679
-0.10687022900763359,0.6717557251908397,-1.0229007633587786,-0.44482421875,-0.159423828125,-0.123779296875,1.1696
-0.3816793893129771,0.5038167938931297,-1.1145038167938932,-0.44677734375,-0.16162109375,-0.12890625,1.1713
-0.5648854961832062,0.4580152671755725,-1.2061068702290076,-0.44091796875,-0.166748046875,-0.117919921875,1.173
-0.7022900763358778,0.5954198473282443,-1.1755725190839694,-0.443359375,-0.160400390625,-0.115234375,1.1746999999999999
-1.1908396946564885,0.3969465648854962,-1.1908396946564885,-0.44189453125,-0.15869140625,-0.12646484375,1.1764
-1.1297709923664123,0.2900763358778626,-1.1145038167938932,-0.442626953125,-0.16162109375,-0.122802734375,1.1781
-1.4351145038167938,0.183206106870229,-1.083969465648855,-0.44287109375,-0.164306640625,-0.11865234375,1.1798
-1.633587786259542,0.24427480916030533,-1.099236641221374,-0.441650390625,-0.1591796875,-0.128662109375,1.1815
-1.6488549618320612,0.1984732824427481,-0.8702290076335878,-0.447998046875,-0.16650390625,-0.133056640625,1.1832
-1.7099236641221374,0.15267175572519084,-1.2671755725190839,-0.4404296875,-0.16162109375,-0.13671875,1.1848999999999998
-2.030534351145038,0.5648854961832062,-1.2366412213740459,-0.447021484375,-0.159912109375,-0.129638671875,1.1865999999999999
-2.0916030534351147,0.732824427480916,-1.1908396946564885,-0.44873046875,-0.16162109375,-0.12158203125,1.1883
-1.9694656488549618,0.6106870229007634,-1.099236641221374,-0.44189453125,-0.1552734375,-0.12353515625,1.19
-2.0,0.7633587786259542,-1.1755725190839694,-0.442626953125,-0.16064453125,-0.123779296875,1.1917
-2.0,0.8396946564885496,-1.099236641221374,-0.44580078125,-0.163330078125,-0.11962890625,1.1934
-2.015267175572519,0.916030534351145,-1.1755725190839694,-0.441650390625,-0.162353515625,-0.1220703125,1.1950999999999998
-1.633587786259542,1.083969465648855,-1.2061068702290076,-0.4462890625,-0.15966796875,-0.123779296875,1.1967999999999999
-1.7404580152671756,1.0687022900763359,-1.1755725190839694,-0.4453125,-0.16650390625,-0.119873046875,1.1985
-1.5725190839694656,1.0687022900763359,-0.8396946564885496,-0.44775390625,-0.158447265625,-0.123779296875,1.2002
-1.3282442748091603,0.9312977099236641,-1.1603053435114503,-0.4462890625,-0.162841796875,-0.12548828125,1.2019
-1.2061068702290076,1.0534351145038168,-1.1145038167938932,-0.443115234375,-0.15673828125,-0.1220703125,1.2036
-1.1603053435114503,0.9465648854961832,-1.0076335877862594,-0.44921875,-0.15771484375,-0.11376953125,1.2053
-0.8091603053435115,0.732824427480916,-0.9923664122137404,-0.443359375,-0.156494140625,-0.121826171875,1.2069999999999999
-0.6106870229007634,0.7175572519083969,-0.8854961832061069,-0.444580078125,-0.15380859375,-0.115478515625,1.2086999999999999
-0.48854961832061067,1.0534351145038168,-0.8091603053435115,-0.450439453125,-0.152099609375,-0.114501953125,1.2104
-0.549618320610687,0.7022900763358778,-1.0229007633587786,-0.443603515625,-0.154296875,-0.11962890625,1.2121
-0.13740458015267176,0.8549618320610687,-1.0229007633587786,-0.442626953125,-0.15771484375,-0.125732421875,1.2138
-0.32061068702290074,1.0076335877862594,-0.8091603053435115,-0.451171875,-0.157958984375,-0.115478515625,1.2155
-0.15267175572519084,1.2671755725190839,-0.9770992366412213,-0.4462890625,-0.15234375,-0.11083984375,1.2171999999999998
-0.04580152671755725,1.251908396946565,-1.083969465648855,-0.448974609375,-0.154296875,-0.11279296875,1.2188999999999999
-0.16793893129770993,1.3740458015267176,-0.8396946564885496,-0.451416015625,-0.15625,-0.121826171875,1.2206
-0.32061068702290074,1.3435114503816794,-0.9007633587786259,-0.447998046875,-0.15234375,-0.126220703125,1.2223
-0.33587786259541985,1.4809160305343512,-0.732824427480916,-0.441650390625,-0.154296875,-0.126708984375,1.224
-0.2900763358778626,1.4809160305343512,-0.9923664122137404,-0.44287109375,-0.154296875,-0.128173828125,1.2257
-0.3511450381679389,1.4351145038167938,-1.1145038167938932,-0.45166015625,-0.157470703125,-0.120361328125,1.2273999999999998
-0.5190839694656488,1.5114503816793894,-1.1755725190839694,-0.447509765625,-0.1552734375,-0.12744140625,1.2290999999999999
-0.549618320610687,1.5877862595419847,-1.099236641221374,-0.44677734375,-0.160888671875,-0.12744140625,1.2308
-0.5190839694656488,1.3282442748091603,-1.3435114503816794,-0.44580078125,-0.158447265625,-0.123046875,1.2325
-0.4732824427480916,1.3435114503816794,-1.2366412213740459,-0.44189453125,-0.15869140625,-0.12939453125,1.2342
-0.21374045801526717,1.2061068702290076,-1.2366412213740459,-0.447998046875,-0.156494140625,-0.123046875,1.2359
0.015267175572519083,1.282442748091603,-1.2061068702290076,-0.445068359375,-0.1640625,-0.12158203125,1.2376
-0.07633587786259542,0.8244274809160306,-1.465648854961832,-0.44091796875,-0.156494140625,-0.123046875,1.2392999999999998
-0.07633587786259542,0.916030534351145,-1.3587786259541985,-0.440185546875,-0.16162109375,-0.1201171875,1.2409999999999999
0.3053435114503817,0.9465648854961832,-1.5877862595419847,-0.44287109375,-0.15673828125,-0.1259765625,1.2427
0.12213740458015267,0.8244274809160306,-1.6946564885496183,-0.44287109375,-0.161376953125,-0.120849609375,1.2444
0.22900763358778625,0.9923664122137404,-1.8015267175572518,-0.442626953125,-0.162109375,-0.11962890625,1.2461
0.32061068702290074,0.9618320610687023,-1.7404580152671756,-0.441162109375,-0.16162109375,-0.12451171875,1.2478
0.21374045801526717,1.0076335877862594,-1.6488549618320612,-0.43896484375,-0.163818359375,-0.121337890625,1.2494999999999998
0.07633587786259542,1.2213740458015268,-1.6488549618320612,-0.440185546875,-0.158447265625,-0.124267578125,1.2511999999999999
0.12213740458015267,1.282442748091603,-1.7251908396946565,-0.4404296875,-0.157958984375,-0.122314453125,1.2529
0.015267175572519083,1.3435114503816794,-1.8015267175572518,-0.44775390625,-0.155029296875,-0.115234375,1.2546
-0.2748091603053435,1.2671755725190839,-1.5114503816793894,-0.442138671875,-0.15625,-0.1240234375,1.2563
-0.1984732824427481,1.2213740458015268,-1.7099236641221374,-0.442138671875,-0.1533203125,-0.1259765625,1.258
-0.3053435114503817,1.297709923664122,-1.7251908396946565,-0.444580078125,-0.1533203125,-0.132080078125,1.2596999999999998
-0.4732824427480916,1.1908396946564885,-1.6030534351145038,-0.451904296875,-0.153076171875,-0.1162109375,1.2613999999999999
-0.48854961832061067,1.251908396946565,-1.83206106870229,-0.44482421875,-0.153076171875,-0.12939453125,1.2631
-0.5190839694656488,1.1755725190839694,-1.7709923664122138,-0.442626953125,-0.155517578125,-0.130859375,1.2648
-0.6564885496183206,0.7938931297709924,-1.5572519083969465,-0.43896484375,-0.154296875,-0.124755859375,1.2665
-0.7022900763358778,0.8549618320610687,-1.618320610687023,-0.44970703125,-0.160888671875,-0.1220703125,1.2682
-0.6564885496183206,0.7938931297709924,-1.465648854961832,-0.4453125,-0.158935546875,-0.125,1.2699
-0.9465648854961832,1.1145038167938932,-1.5114503816793894,-0.451904296875,-0.162353515625,-0.12548828125,1.2715999999999998
-0.5954198473282443,0.9618320610687023,-1.4961832061068703,-0.447509765625,-0.154541015625,-0.1279296875,1.2732999999999999
-0.44274809160305345,1.083969465648855,-1.5725190839694656,-0.443603515625,-0.15625,-0.137451171875,1.275
-0.5801526717557252,1.1755725190839694,-1.3893129770992367,-0.4404296875,-0.159423828125,-0.128173828125,1.2767
-0.33587786259541985,1.0381679389312977,-1.450381679389313,-0.44287109375,-0.16015625,-0.127685546875,1.2784
-0.4580152671755725,1.1145038167938932,-1.5725190839694656,-0.44775390625,-0.15966796875,-0.12939453125,1.2801
-0.2595419847328244,1.1603053435114503,-1.3893129770992367,-0.446044921875,-0.152587890625,-0.123046875,1.2817999999999998
-0.3816793893129771,1.3587786259541985,-1.2061068702290076,-0.449951171875,-0.15185546875,-0.125244140625,1.2834999999999999
-0.4580152671755725,1.297709923664122,-1.3587786259541985,-0.438720703125,-0.154296875,-0.113525390625,1.2852
-0.48854961832061067,1.4351145038167938,-1.0381679389312977,-0.441162109375,-0.159423828125,-0.126708984375,1.2869
-0.7633587786259542,1.3435114503816794,-1.1297709923664123,-0.4423828125,-0.156982421875,-0.129150390625,1.2886
-0.8549618320610687,1.3740458015267176,-1.1145038167938932,-0.44384765625,-0.157470703125,-0.1259765625,1.2903
-0.8396946564885496,1.1603053435114503,-1.0381679389312977,-0.4423828125,-0.15576171875,-0.126953125,1.292
-0.916030534351145,1.1145038167938932,-0.9770992366412213,-0.44482421875,-0.159423828125,-0.119384765625,1.2936999999999999
-0.8396946564885496,1.2213740458015268,-1.0229007633587786,-0.449951171875,-0.162109375,-0.128173828125,1.2953999999999999
-0.8091603053435115,1.2213740458015268,-1.2061068702290076,-0.4453125,-0.16455078125,-0.125,1.2971
-0.7175572519083969,1.297709923664122,-1.1145038167938932,-0.443115234375,-0.158203125,-0.12158203125,1.2988
-0.7938931297709924,1.1603053435114503,-1.0534351145038168,-0.443359375,-0.162109375,-0.12158203125,1.3005
-0.6106870229007634,1.0229007633587786,-1.099236641221374,-0.439208984375,-0.162841796875,-0.1298828125,1.3022
-0.48854961832061067,1.1145038167938932,-1.1145038167938932,-0.445068359375,-0.16357421875,-0.1240234375,1.3038999999999998
-0.3969465648854962,1.1145038167938932,-1.1908396946564885,-0.44189453125,-0.1591796875,-0.1142578125,1.3055999999999999
-0.4732824427480916,1.1145038167938932,-1.3282442748091603,-0.452392578125,-0.16064453125,-0.1279296875,1.3073
-0.4580152671755725,0.9465648854961832,-1.0076335877862594,-0.444091796875,-0.161865234375,-0.11767578125,1.309
-0.4580152671755725,1.099236641221374,-1.0229007633587786,-0.44921875,-0.1630859375,-0.114501953125,1.3107
-0.366412213740458,1.2061068702290076,-1.1450381679389312,-0.441162109375,-0.156982421875,-0.1240234375,1.3124
-0.6106870229007634,0.9770992366412213,-1.1297709923664123,-0.44140625,-0.158203125,-0.122314453125,1.3140999999999998
-0.9465648854961832,1.2366412213740459,-1.099236641221374,-0.44775390625,-0.1552734375,-0.1298828125,1.3157999999999999
-0.9923664122137404,1.7557251908396947,-1.1145038167938932,-0.44287109375,-0.158203125,-0.127197265625,1.3175
-0.7022900763358778,1.9541984732824427,-1.1755725190839694,-0.4443359375,-0.158447265625,-0.126708984375,1.3192
-1.0076335877862594,2.0,-1.297709923664122,-0.445556640625,-0.15478515625,-0.129150390625,1.3209
-0.8702290076335878,2.2595419847328246,-1.3893129770992367,-0.440185546875,-0.1630859375,-0.122802734375,1.3226
-0.5343511450381679,2.549618320610687,-1.3435114503816794,-0.44775390625,-0.160888671875,-0.123779296875,1.3243
-0.366412213740458,2.564885496183206,-1.7404580152671756,-0.4443359375,-0.161865234375,-0.1318359375,1.3259999999999998
-0.366412213740458,2.564885496183206,-1.5572519083969465,-0.439208984375,-0.161376953125,-0.12548828125,1.3276999999999999
-0.42748091603053434,2.6412213740458017,-1.6488549618320612,-0.442626953125,-0.159423828125,-0.12744140625,1.3294
-0.2595419847328244,2.381679389312977,-1.8625954198473282,-0.439208984375,-0.163330078125,-0.126220703125,1.3311
-0.24427480916030533,2.2595419847328246,-2.015267175572519,-0.438720703125,-0.1630859375,-0.1240234375,1.3328
-0.3816793893129771,1.7709923664122138,-2.030534351145038,-0.436279296875,-0.16015625,-0.124755859375,1.3345
-0.5801526717557252,1.450381679389313,-2.0763358778625953,-0.441650390625,-0.16064453125,-0.123779296875,1.3361999999999998
-0.7022900763358778,1.4198473282442747,-1.9389312977099236,-0.439697265625,-0.158203125,-0.118896484375,1.3378999999999999
-0.5343511450381679,1.3435114503816794,-2.3053435114503817,-0.438720703125,-0.152587890625,-0.123046875,1.3396
-0.5343511450381679,1.0534351145038168,-2.0763358778625953,-0.442138671875,-0.15966796875,-0.120849609375,1.3413
-0.4122137404580153,1.0687022900763359,-2.1068702290076335,-0.44287109375,-0.157958984375,-0.11865234375,1.343
-0.2595419847328244,1.251908396946565,-2.1068702290076335,-0.44140625,-0.159912109375,-0.12451171875,1.3447
-0.22900763358778625,1.2366412213740459,-2.198473282442748,-0.4443359375,-0.161376953125,-0.12109375,1.3463999999999998
-0.24427480916030533,1.297709923664122,-2.2290076335877864,-0.437744140625,-0.161865234375,-0.1279296875,1.3480999999999999
-0.4122137404580153,1.3893129770992367,-2.4732824427480917,-0.43505859375,-0.154296875,-0.121337890625,1.3497999999999999
-0.366412213740458,1.5877862595419847,-2.1068702290076335,-0.440185546875,-0.156982421875,-0.13232421875,1.3515
-0.12213740458015267,1.6946564885496183,-2.427480916030534,-0.43798828125,-0.15478515625,-0.12646484375,1.3532
-0.22900763358778625,1.5572519083969465,-2.4885496183206106,-0.44384765625,-0.15966796875,-0.128173828125,1.3549
-0.33587786259541985,1.6488549618320612,-2.2442748091603053,-0.442138671875,-0.149169921875,-0.118896484375,1.3566
-0.12213740458015267,1.618320610687023,-2.381679389312977,-0.446044921875,-0.1572265625,-0.123779296875,1.3582999999999998
0.10687022900763359,1.4045801526717556,-2.549618320610687,-0.44287109375,-0.148193359375,-0.118408203125,1.3599999999999999
-0.07633587786259542,1.450381679389313,-2.50381679389313,-0.44140625,-0.1552734375,-0.1201171875,1.3617
0.2595419847328244,1.6946564885496183,-2.427480916030534,-0.440673828125,-0.150634765625,-0.118408203125,1.3634
0.15267175572519084,1.5114503816793894,-2.122137404580153,-0.44091796875,-0.1533203125,-0.118408203125,1.3651
0.16793893129770993,1.3893129770992367,-2.213740458015267,-0.444091796875,-0.155029296875,-0.12060546875,1.3668
-0.015267175572519083,1.4809160305343512,-2.381679389312977,-0.447265625,-0.150390625,-0.12109375,1.3684999999999998
0.13740458015267176,1.465648854961832,-2.2442748091603053,-0.4453125,-0.14892578125,-0.11962890625,1.3701999999999999
0.22900763358778625,1.4198473282442747,-1.984732824427481,-0.442626953125,-0.14990234375,-0.121337890625,1.3719
0.5343511450381679,1.4351145038167938,-2.015267175572519,-0.443603515625,-0.154052734375,-0.12451171875,1.3736
0.6259541984732825,1.4198473282442747,-1.9694656488549618,-0.445068359375,-0.154052734375,-0.125732421875,1.3753
0.6106870229007634,1.4351145038167938,-1.8473282442748091,-0.43994140625,-0.14599609375,-0.108642578125,1.377
0.7938931297709924,1.618320610687023,-1.9389312977099236,-0.44384765625,-0.1484375,-0.12548828125,1.3786999999999998
0.8854961832061069,1.5572519083969465,-1.8931297709923665,-0.440185546875,-0.151611328125,-0.118408203125,1.3803999999999998
0.9007633587786259,1.2671755725190839,-1.6793893129770991,-0.437255859375,-0.1484375,-0.116455078125,1.3820999999999999
0.9007633587786259,1.3893129770992367,-1.816793893129771,-0.440185546875,-0.151611328125,-0.12353515625,1.3838
0.9770992366412213,1.297709923664122,-1.7099236641221374,-0.440185546875,-0.150634765625,-0.11279296875,1.3855
0.9618320610687023,1.083969465648855,-1.6793893129770991,-0.441162109375,-0.150390625,-0.116943359375,1.3872
1.083969465648855,1.1755725190839694,-1.7251908396946565,-0.440185546875,-0.15185546875,-0.122802734375,1.3889
0.9923664122137404,1.0381679389312977,-1.4961832061068703,-0.439453125,-0.156982421875,-0.123779296875,1.3905999999999998
0.9770992366412213,1.0534351145038168,-1.297709923664122,-0.43798828125,-0.15380859375,-0.115966796875,1.3922999999999999
0.9618320610687023,0.8396946564885496,-1.297709923664122,-0.44091796875,-0.156494140625,-0.124267578125,1.394
1.0229007633587786,1.0229007633587786,-1.3740458015267176,-0.4443359375,-0.150634765625,-0.1298828125,1.3957
1.1908396946564885,1.0076335877862594,-1.3435114503816794,-0.445556640625,-0.153076171875,-0.12744140625,1.3974
1.251908396946565,1.083969465648855,-1.1755725190839694,-0.4443359375,-0.14892578125,-0.13134765625,1.3991
1.3587786259541985,1.2366412213740459,-1.1603053435114503,-0.442626953125,-0.156494140625,-0.12060546875,1.4007999999999998
1.4351145038167938,1.3282442748091603,-1.1450381679389312,-0.43994140625,-0.152587890625,-0.124267578125,1.4024999999999999
1.251908396946565,1.3282442748091603,-1.099236641221374,-0.447998046875,-0.154541015625,-0.118408203125,1.4042
1.5267175572519085,1.5572519083969465,-1.0381679389312977,-0.444580078125,-0.154296875,-0.135009765625,1.4059
1.1908396946564885,1.3893129770992367,-1.0381679389312977,-0.448486328125,-0.15869140625,-0.128173828125,1.4076
0.8854961832061069,1.282442748091603,-0.9618320610687023,-0.445556640625,-0.15185546875,-0.12890625,1.4093
0.8091603053435115,1.6793893129770991,-1.0229007633587786,-0.447265625,-0.15576171875,-0.11865234375,1.411
0.916030534351145,1.3129770992366412,-1.251908396946565,-0.44482421875,-0.158447265625,-0.129638671875,1.4126999999999998
0.7022900763358778,1.1450381679389312,-1.0229007633587786,-0.44189453125,-0.153076171875,-0.128173828125,1.4143999999999999
0.4122137404580153,1.1297709923664123,-1.1450381679389312,-0.443603515625,-0.15966796875,-0.1220703125,1.4161
0.4122137404580153,1.1450381679389312,-1.4351145038167938,-0.43994140625,-0.15673828125,-0.123291015625,1.4178
0.061068702290076333,1.0381679389312977,-1.2671755725190839,-0.449951171875,-0.160888671875,-0.121826171875,1.4195
0.015267175572519083,1.0534351145038168,-1.083969465648855,-0.444580078125,-0.16162109375,-0.125244140625,1.4212
0.015267175572519083,0.9770992366412213,-1.1755725190839694,-0.451904296875,-0.162841796875,-0.12890625,1.4228999999999998
-0.13740458015267176,1.0229007633587786,-1.1908396946564885,-0.441162109375,-0.160400390625,-0.122802734375,1.4245999999999999
0.183206106870229,1.3129770992366412,-1.3282442748091603,-0.450927734375,-0.162109375,-0.12646484375,1.4263
0.3511450381679389,1.4351145038167938,-1.3282442748091603,-0.445556640625,-0.162109375,-0.1240234375,1.428
0.4122137404580153,1.4045801526717556,-1.5877862595419847,-0.450439453125,-0.166015625,-0.11669921875,1.4297
0.15267175572519084,1.4198473282442747,-1.4045801526717556,-0.45068359375,-0.16259765625,-0.119384765625,1.4314
0.2748091603053435,1.6641221374045803,-1.618320610687023,-0.4482421875,-0.16455078125,-0.13037109375,1.4330999999999998
0.1984732824427481,1.786259541984733,-1.633587786259542,-0.447998046875,-0.15771484375,-0.12451171875,1.4347999999999999
0.10687022900763359,1.816793893129771,-1.9236641221374047,-0.44091796875,-0.160400390625,-0.125,1.4364999999999999
0.0,1.6641221374045803,-1.6946564885496183,-0.443603515625,-0.16845703125,-0.123046875,1.4382
-0.10687022900763359,1.7099236641221374,-1.83206106870229,-0.447509765625,-0.157958984375,-0.122802734375,1.4399
-0.2595419847328244,1.5725190839694656,-1.8625954198473282,-0.44677734375,-0.16015625,-0.139892578125,1.4416
-0.24427480916030533,1.633587786259542,-1.9541984732824427,-0.448486328125,-0.160400390625,-0.13671875,1.4433
-0.1984732824427481,1.5419847328244274,-1.8931297709923665,-0.44287109375,-0.1640625,-0.1240234375,1.4449999999999998
-0.33587786259541985,1.4045801526717556,-1.9694656488549618,-0.44091796875,-0.1591796875,-0.120849609375,1.4466999999999999
-0.13740458015267176,1.0229007633587786,-1.984732824427481,-0.4404296875,-0.156005859375,-0.117919921875,1.4484
-0.24427480916030533,0.9923664122137404,-2.3206106870229006,-0.444580078125,-0.1572265625,-0.123046875,1.4501
-0.2748091603053435,0.8091603053435115,-2.1374045801526718,-0.444091796875,-0.161376953125,-0.115478515625,1.4518
-0.21374045801526717,0.8091603053435115,-2.1374045801526718,-0.443603515625,-0.163330078125,-0.12158203125,1.4535
0.0916030534351145,0.6412213740458015,-2.2290076335877864,-0.45166015625,-0.16162109375,-0.12353515625,1.4551999999999998
0.22900763358778625,0.5954198473282443,-2.2900763358778624,-0.44970703125,-0.15673828125,-0.122802734375,1.4568999999999999
-0.12213740458015267,0.6106870229007634,-2.213740458015267,-0.44775390625,-0.158935546875,-0.125244140625,1.4586
0.16793893129770993,0.8244274809160306,-2.3206106870229006,-0.44482421875,-0.162109375,-0.1181640625,1.4603
0.13740458015267176,0.6106870229007634,-2.16793893129771,-0.445556640625,-0.1572265625,-0.1240234375,1.462
0.030534351145038167,0.7022900763358778,-2.0916030534351147,-0.44140625,-0.155029296875,-0.119384765625,1.4637
-0.10687022900763359,0.916030534351145,-2.1526717557251906,-0.445556640625,-0.156982421875,-0.11279296875,1.4653999999999998
-0.22900763358778625,0.7175572519083969,-2.2900763358778624,-0.44775390625,-0.15380859375,-0.124267578125,1.4670999999999998
-0.21374045801526717,0.7786259541984732,-2.122137404580153,-0.44384765625,-0.15625,-0.125244140625,1.4687999999999999
-0.16793893129770993,0.6259541984732825,-2.2900763358778624,-0.4482421875,-0.15673828125,-0.1181640625,1.4705
0.0,0.5648854961832062,-2.2290076335877864,-0.4423828125,-0.1552734375,-0.120361328125,1.4722
0.030534351145038167,0.48854961832061067,-2.2290076335877864,-0.4462890625,-0.156494140625,-0.1220703125,1.4739
-0.04580152671755725,0.6564885496183206,-2.122137404580153,-0.447265625,-0.152587890625,-0.124267578125,1.4756
0.0,0.48854961832061067,-2.1526717557251906,-0.446044921875,-0.1513671875,-0.123291015625,1.4772999999999998
0.3816793893129771,0.6412213740458015,-2.0763358778625953,-0.445068359375,-0.15234375,-0.128662109375,1.4789999999999999
0.366412213740458,0.5343511450381679,-2.213740458015267,-0.44775390625,-0.151611328125,-0.1123046875,1.4807
0.07633587786259542,0.4122137404580153,-1.9541984732824427,-0.447021484375,-0.15380859375,-0.1220703125,1.4824
0.3511450381679389,0.3816793893129771,-1.984732824427481,-0.447021484375,-0.1484375,-0.116455078125,1.4841
0.5038167938931297,0.366412213740458,-1.83206106870229,-0.443603515625,-0.151611328125,-0.119140625,1.4858
0.3053435114503817,0.4122137404580153,-1.7251908396946565,-0.442626953125,-0.150390625,-0.122314453125,1.4874999999999998
0.183206106870229,0.3053435114503817,-1.5114503816793894,-0.440185546875,-0.152587890625,-0.11767578125,1.4891999999999999
0.0916030534351145,0.42748091603053434,-1.8015267175572518,-0.443603515625,-0.150634765625,-0.118896484375,1.4909
-0.07633587786259542,0.5038167938931297,-1.7251908396946565,-0.4443359375,-0.15185546875,-0.123046875,1.4926
-0.1984732824427481,0.32061068702290074,-1.5877862595419847,-0.44384765625,-0.154052734375,-0.1201171875,1.4943
-0.2595419847328244,0.44274809160305345,-1.3740458015267176,-0.443115234375,-0.155029296875,-0.134033203125,1.496
-0.1984732824427481,0.3969465648854962,-1.3587786259541985,-0.4443359375,-0.152587890625,-0.1259765625,1.4976999999999998
-0.21374045801526717,0.3816793893129771,-1.3282442748091603,-0.4482421875,-0.154296875,-0.13037109375,1.4993999999999998
-0.10687022900763359,0.4122137404580153,-1.1603053435114503,-0.440185546875,-0.15576171875,-0.121826171875,1.5010999999999999
-0.030534351145038167,0.42748091603053434,-1.083969465648855,-0.4443359375,-0.156982421875,-0.127197265625,1.5028
-0.15267175572519084,0.7480916030534351,-1.1908396946564885,-0.447265625,-0.15576171875,-0.12646484375,1.5045
0.3511450381679389,0.8396946564885496,-0.9923664122137404,-0.44482421875,-0.156494140625,-0.123046875,1.5062
0.5190839694656488,0.8091603053435115,-1.1603053435114503,-0.441650390625,-0.15576171875,-0.1201171875,1.5079
0.2748091603053435,0.8702290076335878,-1.2061068702290076,-0.44384765625,-0.154541015625,-0.128662109375,1.5095999999999998
0.15267175572519084,1.0381679389312977,-1.1908396946564885,-0.4443359375,-0.16064453125,-0.127685546875,1.5112999999999999
0.5190839694656488,1.2061068702290076,-1.099236641221374,-0.4443359375,-0.154296875,-0.119140625,1.513
0.48854961832061067,1.1297709923664123,-1.3587786259541985,-0.44482421875,-0.153564453125,-0.12158203125,1.5147
-0.030534351145038167,1.2213740458015268,-1.2366412213740459,-0.44091796875,-0.15234375,-0.126953125,1.5164
0.16793893129770993,0.9618320610687023,-1.2366412213740459,-0.443115234375,-0.157958984375,-0.12158203125,1.5181
-0.061068702290076333,0.9618320610687023,-1.2213740458015268,-0.44091796875,-0.156982421875,-0.12451171875,1.5197999999999998
-0.22900763358778625,0.8091603053435115,-1.2061068702290076,-0.442626953125,-0.155029296875,-0.118896484375,1.5214999999999999
-0.061068702290076333,0.6106870229007634,-1.3893129770992367,-0.439208984375,-0.157958984375,-0.11474609375,1.5231999999999999
-0.015267175572519083,0.5954198473282443,-1.297709923664122,-0.444091796875,-0.160400390625,-0.121337890625,1.5249
0.07633587786259542,0.6259541984732825,-1.3740458015267176,-0.439697265625,-0.156982421875,-0.12451171875,1.5266
-0.16793893129770993,0.5190839694656488,-1.4809160305343512,-0.4404296875,-0.156494140625,-0.1162109375,1.5283
0.1984732824427481,0.4122137404580153,-1.6030534351145038,-0.44775390625,-0.1591796875,-0.12060546875,1.5299999999999998
0.030534351145038167,0.44274809160305345,-1.7251908396946565,-0.4462890625,-0.158203125,-0.12158203125,1.5316999999999998
0.030534351145038167,0.7633587786259542,-1.633587786259542,-0.44384765625,-0.155029296875,-0.12939453125,1.5333999999999999
0.07633587786259542,0.7480916030534351,-1.6488549618320612,-0.44287109375,-0.15625,-0.128662109375,1.5351
0.15267175572519084,0.6564885496183206,-1.6793893129770991,-0.443603515625,-0.158447265625,-0.122314453125,1.5368
0.07633587786259542,0.8244274809160306,-1.7099236641221374,-0.43994140625,-0.1533203125,-0.1171875,1.5385
0.10687022900763359,0.9618320610687023,-1.6641221374045803,-0.43798828125,-0.1552734375,-0.12451171875,1.5402
0.183206106870229,0.6564885496183206,-1.6488549618320612,-0.43603515625,-0.159423828125,-0.12060546875,1.5418999999999998
0.4122137404580153,0.8091603053435115,-1.7099236641221374,-0.43798828125,-0.15380859375,-0.11767578125,1.5435999999999999
0.4732824427480916,0.8396946564885496,-1.8778625954198473,-0.445068359375,-0.157470703125,-0.1259765625,1.5453
0.4580152671755725,0.7022900763358778,-2.045801526717557,-0.4462890625,-0.15234375,-0.11962890625,1.547
0.5954198473282443,0.6106870229007634,-1.8931297709923665,-0.444091796875,-0.158203125,-0.12255859375,1.5487
0.916030534351145,0.4732824427480916,-2.015267175572519,-0.443603515625,-0.15673828125,-0.11865234375,1.5504
1.1450381679389312,0.33587786259541985,-2.1068702290076335,-0.4462890625,-0.15625,-0.120361328125,1.5520999999999998
1.3587786259541985,0.1984732824427481,-2.16793893129771,-0.43994140625,-0.156005859375,-0.119873046875,1.5537999999999998
1.5725190839694656,0.12213740458015267,-2.16793893129771,-0.442626953125,-0.15869140625,-0.114990234375,1.5554999999999999
1.9236641221374047,-0.04580152671755725,-2.3053435114503817,-0.443603515625,-0.1611328125,-0.1181640625,1.5572
2.198473282442748,-0.061068702290076333,-2.2442748091603053,-0.4453125,-0.165283203125,-0.124267578125,1.5589
2.366412213740458,-0.42748091603053434,-2.4427480916030535,-0.44287109375,-0.167724609375,-0.11865234375,1.5606
2.33587786259542,-0.4580152671755725,-2.3206106870229006,-0.443359375,-0.158203125,-0.122802734375,1.5623
2.50381679389313,-0.4580152671755725,-2.198473282442748,-0.44873046875,-0.159912109375,-0.117919921875,1.5639999999999998
2.6259541984732824,-0.5648854961832062,-2.1068702290076335,-0.44873046875,-0.157958984375,-0.12353515625,1.5656999999999999
2.427480916030534,-0.5648854961832062,-2.2900763358778624,-0.4462890625,-0.1611328125,-0.12158203125,1.5674
2.564885496183206,-0.4732824427480916,-2.366412213740458,-0.446533203125,-0.15966796875,-0.1328125,1.5691
2.351145038167939,-0.33587786259541985,-2.4580152671755724,-0.44970703125,-0.156982421875,-0.126708984375,1.5708
2.1068702290076335,-0.42748091603053434,-2.1526717557251906,-0.446533203125,-0.159423828125,-0.120849609375,1.5725
2.0916030534351147,0.015267175572519083,-2.3053435114503817,-0.445556640625,-0.157470703125,-0.128173828125,1.5741999999999998
1.9541984732824427,0.21374045801526717,-2.1526717557251906,-0.441650390625,-0.158447265625,-0.11767578125,1.5758999999999999
2.015267175572519,0.3053435114503817,-2.015267175572519,-0.442626953125,-0.156494140625,-0.123046875,1.5776
1.6946564885496183,0.22900763358778625,-1.9541984732824427,-0.444580078125,-0.163330078125,-0.12841796875,1.5793
1.7404580152671756,0.5343511450381679,-1.83206106870229,-0.450439453125,-0.16162109375,-0.123779296875,1.581
1.5725190839694656,0.21374045801526717,-1.83206106870229,-0.4453125,-0.161865234375,-0.12646484375,1.5827
1.5877862595419847,0.3816793893129771,-1.9236641221374047,-0.44482421875,-0.161865234375,-0.12890625,1.5843999999999998
1.450381679389313,0.13740458015267176,-2.030534351145038,-0.447265625,-0.163330078125,-0.1181640625,1.5860999999999998
1.282442748091603,0.183206106870229,-1.8931297709923665,-0.4482421875,-0.1640625,-0.11962890625,1.5877999999999999
1.0687022900763359,0.183206106870229,-1.9236641221374047,-0.440185546875,-0.1591796875,-0.12548828125,1.5895
1.0534351145038168,0.030534351145038167,-1.8931297709923665,-0.446044921875,-0.1572265625,-0.126708984375,1.5912
0.7480916030534351,-0.13740458015267176,-1.5419847328244274,-0.44287109375,-0.162353515625,-0.124755859375,1.5929
0.5801526717557252,-0.44274809160305345,-1.8473282442748091,-0.447509765625,-0.15869140625,-0.126708984375,1.5946
0.44274809160305345,-0.6870229007633588,-1.9236641221374047,-0.448486328125,-0.163330078125,-0.123291015625,1.5962999999999998
0.030534351145038167,-0.5801526717557252,-1.8015267175572518,-0.446533203125,-0.163330078125,-0.121337890625,1.5979999999999999
-0.2748091603053435,-1.1755725190839694,-1.4198473282442747,-0.43896484375,-0.161376953125,-0.121826171875,1.5997
-0.2595419847328244,-0.8396946564885496,-1.450381679389313,-0.444580078125,-0.1572265625,-0.11767578125,1.6014
-0.5038167938931297,-0.7480916030534351,-1.4809160305343512,-0.441650390625,-0.162353515625,-0.12890625,1.6031
-0.549618320610687,-0.7022900763358778,-1.6030534351145038,-0.45068359375,-0.163330078125,-0.124755859375,1.6048
-0.6106870229007634,-0.5190839694656488,-1.6030534351145038,-0.443359375,-0.161865234375,-0.125244140625,1.6064999999999998
-0.5648854961832062,-0.5954198473282443,-1.4961832061068703,-0.44384765625,-0.157958984375,-0.117431640625,1.6081999999999999
-0.6259541984732825,-0.12213740458015267,-1.4351145038167938,-0.447021484375,-0.156494140625,-0.1201171875,1.6098999999999999
-0.6717557251908397,0.16793893129770993,-1.5419847328244274,-0.443359375,-0.16259765625,-0.128662109375,1.6116
-0.5801526717557252,0.4580152671755725,-1.251908396946565,-0.440673828125,-0.15673828125,-0.123291015625,1.6133
-0.42748091603053434,0.3511450381679389,-1.282442748091603,-0.4501953125,-0.1591796875,-0.126708984375,1.615
-0.3816793893129771,0.5648854961832062,-1.1297709923664123,-0.44677734375,-0.152099609375,-0.12841796875,1.6166999999999998
-0.3053435114503817,0.6870229007633588,-1.3740458015267176,-0.443359375,-0.153076171875,-0.126220703125,1.6183999999999998
-0.3969465648854962,0.6717557251908397,-1.3282442748091603,-0.442626953125,-0.1552734375,-0.131591796875,1.6200999999999999
-0.10687022900763359,0.7480916030534351,-1.4045801526717556,-0.4423828125,-0.158203125,-0.119873046875,1.6218
-0.13740458015267176,0.8549618320610687,-1.2671755725190839,-0.444091796875,-0.158203125,-0.122314453125,1.6235
-0.10687022900763359,0.48854961832061067,-1.2061068702290076,-0.4404296875,-0.155029296875,-0.131591796875,1.6252
0.15267175572519084,0.4122137404580153,-1.3740458015267176,-0.446533203125,-0.155029296875,-0.12451171875,1.6269
0.4580152671755725,0.44274809160305345,-1.6030534351145038,-0.443359375,-0.155029296875,-0.11767578125,1.6285999999999998
0.4580152671755725,0.3969465648854962,-1.4809160305343512,-0.438232421875,-0.15478515625,-0.120361328125,1.6302999999999999
0.5038167938931297,0.3511450381679389,-1.7099236641221374,-0.44189453125,-0.154296875,-0.12255859375,1.632
1.0229007633587786,0.2748091603053435,-1.8015267175572518,-0.443603515625,-0.15869140625,-0.120849609375,1.6337
1.2671755725190839,0.5648854961832062,-1.83206106870229,-0.44287109375,-0.1611328125,-0.1298828125,1.6354
1.5572519083969465,0.549618320610687,-2.1068702290076335,-0.43994140625,-0.162841796875,-0.12548828125,1.6371
1.9694656488549618,0.6564885496183206,-1.816793893129771,-0.438720703125,-0.162109375,-0.1201171875,1.6387999999999998
2.045801526717557,0.549618320610687,-2.0610687022900764,-0.443115234375,-0.15478515625,-0.11767578125,1.6404999999999998
2.2748091603053435,0.5190839694656488,-2.0610687022900764,-0.43603515625,-0.162109375,-0.11669921875,1.6421999999999999
2.50381679389313,0.5801526717557252,-2.16793893129771,-0.440185546875,-0.154541015625,-0.115478515625,1.6439
2.427480916030534,0.5954198473282443,-2.3206106870229006,-0.440673828125,-0.15869140625,-0.118408203125,1.6456
2.213740458015267,0.48854961832061067,-2.0,-0.44140625,-0.15673828125,-0.117919921875,1.6473
2.183206106870229,0.1984732824427481,-2.1526717557251906,-0.44091796875,-0.16064453125,-0.11669921875,1.6489999999999998
2.0916030534351147,0.1984732824427481,-2.2595419847328246,-0.443603515625,-0.158447265625,-0.118408203125,1.6506999999999998
2.1526717557251906,0.10687022900763359,-2.213740458015267,-0.445068359375,-0.154052734375,-0.11767578125,1.6523999999999999
1.9083969465648856,0.04580152671755725,-2.1526717557251906,-0.4375,-0.15869140625,-0.123291015625,1.6541
2.1526717557251906,0.015267175572519083,-2.3969465648854964,-0.443359375,-0.160888671875,-0.123779296875,1.6558
2.122137404580153,-0.07633587786259542,-2.2748091603053435,-0.4443359375,-0.15576171875,-0.11865234375,1.6575
2.1068702290076335,0.061068702290076333,-2.213740458015267,-0.443603515625,-0.156982421875,-0.114501953125,1.6592
2.213740458015267,0.10687022900763359,-2.2442748091603053,-0.437744140625,-0.153564453125,-0.11376953125,1.6608999999999998
2.2748091603053435,0.12213740458015267,-2.427480916030534,-0.442138671875,-0.160888671875,-0.122802734375,1.6625999999999999
2.351145038167939,0.061068702290076333,-2.3053435114503817,-0.4384765625,-0.162353515625,-0.122802734375,1.6643
2.2290076335877864,0.16793893129770993,-2.381679389312977,-0.44140625,-0.161376953125,-0.125244140625,1.666
1.9541984732824427,0.0,-2.4732824427480917,-0.4423828125,-0.163818359375,-0.122802734375,1.6677
1.8778625954198473,-0.10687022900763359,-2.381679389312977,-0.437744140625,-0.162841796875,-0.1279296875,1.6694
1.7557251908396947,-0.04580152671755725,-2.3969465648854964,-0.441650390625,-0.16015625,-0.128173828125,1.6710999999999998
1.7709923664122138,0.0916030534351145,-2.0916030534351147,-0.446044921875,-0.1611328125,-0.112548828125,1.6727999999999998
1.633587786259542,0.183206106870229,-2.6717557251908395,-0.441162109375,-0.166259765625,-0.126708984375,1.6744999999999999
1.465648854961832,-0.07633587786259542,-2.183206106870229,-0.443115234375,-0.1630859375,-0.1328125,1.6762
1.5114503816793894,0.015267175572519083,-2.1068702290076335,-0.44140625,-0.1630859375,-0.12646484375,1.6779
1.083969465648855,0.12213740458015267,-2.3969465648854964,-0.445068359375,-0.164794921875,-0.123046875,1.6796
1.3129770992366412,0.16793893129770993,-2.33587786259542,-0.43896484375,-0.162353515625,-0.12939453125,1.6813
1.083969465648855,0.10687022900763359,-2.030534351145038,-0.44189453125,-0.160888671875,-0.131591796875,1.6829999999999998
0.8549618320610687,0.030534351145038167,-2.183206106870229,-0.4384765625,-0.167724609375,-0.125244140625,1.6846999999999999
0.7480916030534351,0.13740458015267176,-1.9236641221374047,-0.44140625,-0.16455078125,-0.128662109375,1.6864
0.6564885496183206,0.16793893129770993,-1.984732824427481,-0.442138671875,-0.163818359375,-0.121337890625,1.6881
0.5343511450381679,0.16793893129770993,-2.0610687022900764,-0.439697265625,-0.157470703125,-0.1298828125,1.6898
0.3511450381679389,0.030534351145038167,-2.1526717557251906,-0.438232421875,-0.1640625,-0.117919921875,1.6915
0.4122137404580153,0.07633587786259542,-1.8015267175572518,-0.45068359375,-0.1630859375,-0.126708984375,1.6931999999999998
0.33587786259541985,0.10687022900763359,-1.8778625954198473,-0.44482421875,-0.16015625,-0.122314453125,1.6948999999999999
0.3969465648854962,0.0916030534351145,-2.045801526717557,-0.44140625,-0.162353515625,-0.115478515625,1.6965999999999999
0.061068702290076333,0.10687022900763359,-2.1374045801526718,-0.439453125,-0.163330078125,-0.121337890625,1.6983
0.061068702290076333,0.13740458015267176,-1.5725190839694656,-0.444580078125,-0.1591796875,-0.130859375,1.7
0.21374045801526717,0.3816793893129771,-1.8778625954198473,-0.443359375,-0.162353515625,-0.130126953125,1.7017
0.0916030534351145,0.4122137404580153,-1.7251908396946565,-0.439453125,-0.157470703125,-0.122802734375,1.7033999999999998
0.16793893129770993,0.48854961832061067,-1.6946564885496183,-0.44287109375,-0.159912109375,-0.119140625,1.7050999999999998
0.183206106870229,0.2748091603053435,-1.8015267175572518,-0.4453125,-0.162353515625,-0.120361328125,1.7067999999999999
0.183206106870229,0.32061068702290074,-1.8931297709923665,-0.447509765625,-0.158447265625,-0.111083984375,1.7085
0.3053435114503817,0.33587786259541985,-1.7557251908396947,-0.445068359375,-0.156005859375,-0.1181640625,1.7102
0.44274809160305345,0.16793893129770993,-1.8778625954198473,-0.44384765625,-0.155517578125,-0.12158203125,1.7119
0.5954198473282443,0.16793893129770993,-1.7251908396946565,-0.443603515625,-0.16015625,-0.123779296875,1.7136
0.5801526717557252,0.21374045801526717,-1.83206106870229,-0.443115234375,-0.159912109375,-0.119384765625,1.7152999999999998
0.6106870229007634,0.015267175572519083,-1.7709923664122138,-0.4443359375,-0.153564453125,-0.117919921875,1.7169999999999999
0.732824427480916,0.07633587786259542,-1.7709923664122138,-0.44140625,-0.15625,-0.12109375,1.7187
0.7022900763358778,-0.030534351145038167,-1.7099236641221374,-0.44189453125,-0.1572265625,-0.112548828125,1.7204
0.916030534351145,0.030534351145038167,-1.7557251908396947,-0.443359375,-0.160400390625,-0.12060546875,1.7221
1.0381679389312977,0.10687022900763359,-1.7557251908396947,-0.444091796875,-0.160888671875,-0.12451171875,1.7238
1.1145038167938932,-0.04580152671755725,-1.9083969465648856,-0.442138671875,-0.161865234375,-0.12841796875,1.7254999999999998
1.0534351145038168,0.3969465648854962,-1.8778625954198473,-0.446044921875,-0.1572265625,-0.122802734375,1.7271999999999998
1.2213740458015268,0.1984732824427481,-2.0,-0.439453125,-0.1611328125,-0.130615234375,1.7288999999999999
1.3129770992366412,0.3511450381679389,-2.030534351145038,-0.442626953125,-0.158203125,-0.12939453125,1.7306
1.5572519083969465,0.549618320610687,-2.015267175572519,-0.4462890625,-0.161376953125,-0.121826171875,1.7323
1.7709923664122138,0.5801526717557252,-1.9083969465648856,-0.4482421875,-0.159423828125,-0.12353515625,1.734
1.6793893129770991,0.732824427480916,-2.0916030534351147,-0.442626953125,-0.162109375,-0.1201171875,1.7356999999999998
1.5725190839694656,0.7480916030534351,-2.015267175572519,-0.44189453125,-0.16015625,-0.12353515625,1.7373999999999998
1.633587786259542,0.7022900763358778,-1.9694656488549618,-0.43994140625,-0.15380859375,-0.127197265625,1.7390999999999999
1.7099236641221374,0.4732824427480916,-1.83206106870229,-0.44287109375,-0.161865234375,-0.1181640625,1.7408
1.5725190839694656,0.2748091603053435,-1.9083969465648856,-0.443115234375,-0.1591796875,-0.121337890625,1.7425
1.3587786259541985,0.4580152671755725,-1.8625954198473282,-0.44189453125,-0.160400390625,-0.125244140625,1.7442
1.5725190839694656,0.3816793893129771,-2.030534351145038,-0.438720703125,-0.154296875,-0.1240234375,1.7459
1.1908396946564885,0.21374045801526717,-1.9389312977099236,-0.4423828125,-0.157958984375,-0.125732421875,1.7475999999999998
1.083969465648855,-0.015267175572519083,-1.6793893129770991,-0.43994140625,-0.1591796875,-0.11962890625,1.7492999999999999
1.465648854961832,0.015267175572519083,-1.5267175572519085,-0.443359375,-0.159912109375,-0.1201171875,1.751
1.3129770992366412,-0.16793893129770993,-1.5419847328244274,-0.442626953125,-0.16455078125,-0.1220703125,1.7527
1.3740458015267176,-0.030534351145038167,-1.4045801526717556,-0.442626953125,-0.160888671875,-0.12158203125,1.7544
1.297709923664122,0.183206106870229,-1.6488549618320612,-0.4443359375,-0.159912109375,-0.126708984375,1.7561
1.4198473282442747,0.21374045801526717,-1.5877862595419847,-0.44287109375,-0.16259765625,-0.1298828125,1.7577999999999998
1.3893129770992367,0.2595419847328244,-1.6641221374045803,-0.443359375,-0.161376953125,-0.120361328125,1.7594999999999998
1.618320610687023,0.24427480916030533,-1.6030534351145038,-0.44189453125,-0.161376953125,-0.1240234375,1.7611999999999999
1.465648854961832,0.3511450381679389,-1.6946564885496183,-0.438720703125,-0.164794921875,-0.125732421875,1.7629
1.7404580152671756,0.2900763358778626,-1.5267175572519085,-0.446044921875,-0.162841796875,-0.125732421875,1.7646
1.618320610687023,0.2900763358778626,-1.6946564885496183,-0.441162109375,-0.1611328125,-0.12060546875,1.7663
1.5114503816793894,0.3053435114503817,-1.6641221374045803,-0.44287109375,-0.160400390625,-0.114501953125,1.7679999999999998
1.3740458015267176,0.1984732824427481,-1.5877862595419847,-0.441162109375,-0.16357421875,-0.1123046875,1.7696999999999998
1.251908396946565,0.3511450381679389,-1.7404580152671756,-0.44189453125,-0.156494140625,-0.121826171875,1.7713999999999999
0.8702290076335878,0.44274809160305345,-1.4961832061068703,-0.44189453125,-0.15869140625,-0.119140625,1.7731
0.732824427480916,0.3969465648854962,-1.5114503816793894,-0.439697265625,-0.162841796875,-0.1201171875,1.7748
0.5801526717557252,0.44274809160305345,-1.633587786259542,-0.44140625,-0.158447265625,-0.12255859375,1.7765
0.5954198473282443,0.5801526717557252,-1.5267175572519085,-0.4384765625,-0.160888671875,-0.12353515625,1.7782
0.2748091603053435,0.5343511450381679,-1.7251908396946565,-0.4443359375,-0.15673828125,-0.11962890625,1.7798999999999998
